Time,Rot1,Rot2,Rot3,Rot4,Rot5,Rot6,Rot7,Rot8,Rot9,FRot1,FRot2,FRot3,FRot4,FRot5,FRot6,FRot7,FRot8,FRot9,AccX,AccY,AccZ,GravX,GravY,GravZ,GyroX,GyroY,GyroZ,MagX,MagY,MagZ,Imid
0.0,0.3276748,0.47024152,-0.81945235,-0.943633,0.119968854,-0.30848703,-0.046754643,0.8743457,0.48304617,1.0,0.0,0.0,0.0,1.0,0.0,0.0,0.0,1.0,-0.37327576,8.879761,4.278366,-0.45850644,8.574403,4.737065,-0.09609985,-0.08068848,0.14141846,-14.099121,-28.858948,-22.198486,0,0.0,0.0,0.0,0.0
0.008300781,0.32830048,0.46989578,-0.81940025,-0.9434929,0.12165328,-0.30825567,-0.045165315,0.87429875,0.48328215,0.9986332,0.052241396,0.0016131673,-0.05212669,0.9977456,-0.04226716,-0.0038176258,0.042125296,0.99910504,-0.2632141,8.965912,4.5056915,-0.44292045,8.573942,4.739379,-0.1214447,-0.13244629,0.09500122,-14.099121,-28.858948,-22.198486,0,0.0,0.0,0.0,0.0
0.016601563,0.3559567,0.4660495,-0.8099954,-0.9334814,0.13682151,-0.33149984,-0.043670557,0.87411535,0.48375112,0.997001,0.07738504,7.42781E-4,-0.07718592,0.9950382,-0.06277955,-0.0055972934,0.062533945,0.99802715,-0.2632141,8.965912,4.5056915,-0.42826188,8.572144,4.743978,-0.14741516,-0.14649963,0.0743866,-13.978577,-28.73993,-22.679138,0,0.0,0.0,0.0,0.0
0.024902344,0.35511175,0.46653336,-0.8100878,-0.93386877,0.13787882,-0.3299676,-0.04224695,0.8736911,0.48464337,0.99221766,0.12445502,-0.003884268,-0.12419681,0.9869647,-0.10235202,-0.0089045875,0.1020379,0.9947407,-0.18544006,8.931213,4.758133,-0.41430107,8.567983,4.752728,-0.15534973,-0.17643738,0.025970459,-13.978577,-28.73993,-22.679138,0,0.0,0.0,0.0,0.0
0.033203125,0.34352762,0.46910915,-0.813588,-0.93824124,0.13348393,-0.31919503,-0.04113636,0.87299407,0.4859929,0.98558056,0.16878328,-0.011963261,-0.16878621,0.97568953,-0.13978957,-0.011921711,0.13979311,0.99010897,-0.29193115,8.732605,5.05484,-0.40340993,8.561148,4.7659626,-0.14175415,-0.19078064,0.0071868896,-14.219666,-28.919983,-22.679138,0,0.0,0.0,0.0,0.0
0.041503906,0.34144583,0.47028673,-0.8137845,-0.9390435,0.13370402,-0.31673408,-0.040149577,0.8723265,0.48727238,0.9816123,0.19011077,-0.017183002,-0.19042054,0.968964,-0.15763512,-0.013318426,0.15800856,0.9873479,-0.29193115,8.732605,5.05484,-0.39373288,8.554602,4.77851,-0.13381958,-0.18681335,-0.007156372,-14.219666,-28.919983,-22.679138,0,0.0,0.0,0.0,0.0
0.049804688,0.34697413,0.47046614,-0.8113387,-0.9370461,0.13754325,-0.3209773,-0.039414786,0.87163264,0.48857242,0.9725841,0.23065425,-0.029643305,-0.23200686,0.9536743,-0.19151536,-0.015903775,0.19314225,0.98104185,-0.34934998,8.627319,5.0931244,-0.38652703,8.547796,4.791259,-0.12939453,-0.1678772,-0.027618408,-14.15863,-28.979492,-22.859192,0,0.0,0.0,0.0,0.0
0.058105469,0.3444179,0.47191188,-0.8115883,-0.93800706,0.13708821,-0.3183546,-0.038976125,0.8709225,0.48987228,0.96237475,0.26808533,-0.04432922,-0.27111098,0.936367,-0.22297013,-0.018266607,0.22659898,0.9738168,-0.39601135,8.581863,5.1469574,-0.38222522,8.5408325,4.804006,-0.12510681,-0.10908508,-0.037399292,-14.15863,-28.979492,-22.859192,0,0.0,0.0,0.0,0.0
0.06640625,0.32740027,0.47543246,-0.8165617,-0.944091,0.1291617,-0.30333042,-0.038744617,0.87021905,0.49113908,0.95686,0.2857843,-0.052404173,-0.28990284,0.9270497,-0.23777126,-0.019370023,0.24270594,0.9699065,-0.39601135,8.581863,5.1469574,-0.3799549,8.533934,4.816429,-0.131073,-0.078704834,-0.024414063,-14.219666,-29.159546,-22.679138,0,0.0,0.0,0.0,0.0
0.074707031,0.3244911,0.4770297,-0.8167914,-0.9450991,0.12823415,-0.30057216,-0.038641304,0.8694818,0.4924512,0.9449195,0.31974196,-0.0699439,-0.3265996,0.9071092,-0.26549116,-0.02144191,0.27371144,0.96157277,-0.4175415,8.5256195,5.15773,-0.37894174,8.526704,4.8292966,-0.13717651,-0.02708435,0.0021514893,-14.219666,-29.159546,-22.679138,0,0.0,0.0,0.0,0.0
0.083007813,0.32262138,0.4785509,-0.8166422,-0.9457426,0.12783581,-0.29871202,-0.03855281,0.8687042,0.49382856,0.9321316,0.3510473,-0.08886178,-0.3613656,0.8859205,-0.29079166,-0.023357159,0.3031677,0.95265096,-0.38165283,8.567505,5.13739,-0.37807393,8.519078,4.842804,-0.14282227,0.0068206787,0.020019531,-14.4592285,-29.159546,-22.799683,0,0.0,0.0,0.0,0.0
0.091308594,0.31981862,0.48009434,-0.81683874,-0.94669974,0.12696794,-0.2960384,-0.038414024,0.8679796,0.49511188,0.9254704,0.36572573,-0.09873875,-0.3780427,0.87495726,-0.30254516,-0.024256362,0.31732404,0.9480069,-0.38165283,8.567505,5.13739,-0.3767129,8.511972,4.855389,-0.13702393,0.002243042,0.033920288,-14.4592285,-29.159546,-22.799683,0,0.0,0.0,0.0,0.0
0.099609375,0.33131364,0.4794996,-0.81259555,-0.942751,0.13345608,-0.30563065,-0.03810396,0.8673348,0.4962645,0.91168433,0.3932296,-0.119172364,-0.4100716,0.85244703,-0.32430732,-0.02593912,0.34453514,0.93841493,-0.31585693,8.592621,5.0943146,-0.37367225,8.50565,4.8666925,-0.11213684,-0.019592285,0.039718628,-14.279175,-29.278564,-23.098755,0,0.0,0.0,0.0,0.0
0.107910156,0.32953727,0.48047927,-0.8127392,-0.94339174,0.13324526,-0.3037397,-0.037646994,0.86682487,0.4971894,0.89766276,0.41781896,-0.1401026,-0.43982607,0.8296186,-0.34392732,-0.027467642,0.37035158,0.92848545,-0.28115845,8.664413,5.063217,-0.3691909,8.5006485,4.8757625,-0.08204651,-0.031204224,0.03315735,-14.279175,-29.278564,-23.098755,0,0.0,0.0,0.0,0.0
0.116210938,0.3140216,0.48315915,-0.81728065,-0.948689,0.12600732,-0.2900194,-0.037142187,0.8664175,0.4979368,0.89051396,0.42925137,-0.15075867,-0.45408314,0.8180724,-0.3529392,-0.028168136,0.38275424,0.92342067,-0.28115845,8.664413,5.063217,-0.36424044,8.496654,4.883092,-0.07106018,-0.040985107,0.034835815,-14.579773,-29.699707,-23.15979,0,0.0,0.0,0.0,0.0
0.124511719,0.3131723,0.48361832,-0.81733495,-0.94899267,0.12623678,-0.28892416,-0.036551304,0.8661279,0.49848413,0.87572426,0.45092687,-0.1725458,-0.4819129,0.7945735,-0.36934116,-0.02944552,0.40659305,0.91313475,-0.24885559,8.654846,5.0153503,-0.35844585,8.4938135,4.8884597,-0.049057007,-0.05441284,0.04032898,-14.579773,-29.699707,-23.15979,0,0.0,0.0,0.0,0.0
0.1328125,0.32272962,0.48246127,-0.8142952,-0.9458114,0.1317872,-0.2967709,-0.035866786,0.8659465,0.49884903,0.8607312,0.47042722,-0.19452544,-0.50814086,0.7710236,-0.38381714,-0.030574339,0.42920968,0.90268725,-0.22372437,8.662018,4.9172516,-0.35173303,8.492034,4.892038,-0.038986206,-0.058380127,0.030853271,-14.759827,-29.519653,-23.339844,0,0.0,0.0,0.0,0.0
0.141113281,0.32270747,0.48247355,-0.8142967,-0.945844,0.13239059,-0.29639804,-0.035199013,0.8658475,0.49906817,0.8532992,0.47923604,-0.20545883,-0.52049464,0.75938386,-0.39041197,-0.031077353,0.44007844,0.8974214,-0.22372437,8.662018,4.9172516,-0.34518442,8.491064,4.894187,-0.026763916,-0.058380127,0.03163147,-14.759827,-29.519653,-23.339844,0,0.0,0.0,0.0,0.0
0.149414063,0.32008666,0.48278227,-0.8151477,-0.9467572,0.13160741,-0.2938199,-0.03457156,0.86579484,0.49920338,0.83840865,0.49539292,-0.22728124,-0.5441037,0.736265,-0.40232453,-0.031969503,0.46097696,0.88683605,-0.23330688,8.701492,4.9124603,-0.3390312,8.490547,4.895513,-0.034866333,-0.0594635,0.021850586,-14.878845,-29.3396,-23.2193,0,0.0,0.0,0.0,0.0
0.157714844,0.32026243,0.48268437,-0.8151367,-0.94671714,0.13215877,-0.29370162,-0.034037728,0.86576545,0.49929106,0.8234701,0.5098089,-0.24898161,-0.5664144,0.71338624,-0.4126195,-0.032737035,0.48080656,0.8762154,-0.26679993,8.690735,4.8753815,-0.33379608,8.490259,4.896373,-0.026000977,-0.0783844,0.011001587,-14.878845,-29.3396,-23.2193,0,0.0,0.0,0.0,0.0
0.166015625,0.3120458,0.4837472,-0.8176894,-0.9494746,0.12839521,-0.2863786,-0.03354744,0.86573863,0.4993709,0.8160261,0.51637036,-0.25973645,-0.577068,0.7020906,-0.41720647,-0.033074517,0.49033698,0.8709051,-0.26679993,8.690735,4.8753815,-0.32898802,8.489996,4.897156,-0.022949219,-0.08190918,0.0061187744,-14.819336,-28.979492,-22.799683,0,0.0,0.0,0.0,0.0
0.174316406,0.31216246,0.48368254,-0.8176831,-0.949452,0.12884995,-0.2862488,-0.03309512,0.8657071,0.49945554,0.8010104,0.5285249,-0.28114724,-0.59770304,0.6796511,-0.42523572,-0.03366562,0.50866085,0.8603085,-0.2871399,8.673981,4.8885345,-0.32455227,8.489687,4.897986,-0.03425598,-0.08526611,0.012069702,-14.819336,-28.979492,-22.799683,0,0.0,0.0,0.0,0.0
0.182617188,0.32615867,0.48178107,-0.81333107,-0.94475085,0.13640887,-0.29805756,-0.032652915,0.8656094,0.49965402,0.7861294,0.5391663,-0.30215922,-0.61711687,0.65770715,-0.4319584,-0.034165103,0.52604276,0.8497716,-0.29551697,8.622543,4.9340057,-0.3202157,8.488729,4.8999324,-0.038986206,-0.07060242,0.014678955,-14.6987915,-28.73993,-22.918701,0,0.0,0.0,0.0,0.0
0.190917969,0.3259347,0.4819075,-0.813346,-0.9448431,0.1367266,-0.29761946,-0.032219004,0.8654889,0.49989092,0.77893734,0.54376715,-0.31236804,-0.62615865,0.6471024,-0.43495265,-0.03437886,0.53439283,0.84453684,-0.29551697,8.622543,4.9340057,-0.3159605,8.487547,4.9022555,-0.036239624,-0.06251526,0.012237549,-14.6987915,-28.73993,-22.918701,0,0.0,0.0,0.0,0.0
0.19921875,0.33038664,0.48140162,-0.811848,-0.94331044,0.13945363,-0.30119428,-0.031780276,0.8653352,0.50018483,0.7646998,0.5520239,-0.33242124,-0.6434496,0.62632805,-0.44009757,-0.034739606,0.5504388,0.8341524,-0.25483704,8.5950165,4.9710846,-0.31165805,8.48604,4.9051375,-0.051818848,-0.028762817,0.027038574,-15.058899,-28.619385,-23.098755,0,0.0,0.0,0.0,0.0
0.207519531,0.3297131,0.48179075,-0.81189096,-0.94355917,0.13957518,-0.30035782,-0.03138979,0.8650991,0.50061786,0.7508097,0.55899745,-0.35186166,-0.6595893,0.6062685,-0.44427532,-0.035026144,0.56565034,0.823901,-0.2524414,8.608185,5.0859375,-0.3078287,8.483724,4.909384,-0.06524658,-0.0047912598,0.04322815,-15.058899,-28.619385,-23.098755,0,0.0,0.0,0.0,0.0
0.215820313,0.33756363,0.48098934,-0.8091354,-0.9407928,0.14410572,-0.3068264,-0.030979205,0.8648021,0.50115615,0.74394786,0.5620918,-0.36137822,-0.6673129,0.5964711,-0.4459996,-0.035141077,0.57295287,0.8188346,-0.2524414,8.608185,5.0859375,-0.30380222,8.480812,4.914663,-0.06341553,0.019500732,0.051940918,-14.759827,-28.49884,-23.098755,0,0.0,0.0,0.0,0.0
0.224121094,0.3366517,0.48151585,-0.8092022,-0.94113266,0.14415418,-0.3057597,-0.030578252,0.86450106,0.5017,0.7306475,0.5673507,-0.37982547,-0.6818409,0.57755905,-0.44890824,-0.035316736,0.5869742,0.80883497,-0.22612,8.6237335,5.0895386,-0.29987022,8.4778595,4.9199963,-0.057006836,0.031097412,0.047348022,-14.759827,-28.49884,-23.098755,0,0.0,0.0,0.0,0.0
0.232421875,0.32164177,0.48404497,-0.8137856,-0.9463804,0.13694991,-0.29259,-0.030178843,0.8642599,0.50213945,0.717596,0.57174647,-0.39769575,-0.69555753,0.5592823,-0.45100218,-0.03543472,0.6002577,0.7990213,-0.18304443,8.653641,5.059616,-0.29595336,8.475494,4.924306,-0.045700073,0.020721436,0.041397095,-14.6987915,-27.95868,-22.439575,0,0.0,0.0,0.0,0.0
0.240722656,0.32109085,0.48435923,-0.81381625,-0.94657934,0.13709417,-0.29187807,-0.02980436,0.864061,0.50250405,0.7109553,0.5738124,-0.4065487,-0.7023421,0.5502125,-0.45164347,-0.035470445,0.60663456,0.7941891,-0.18304443,8.653641,5.059616,-0.29228094,8.473544,4.9278817,-0.034866333,0.013076782,0.03804016,-14.6987915,-27.95868,-22.439575,0,0.0,0.0,0.0,0.0
0.249023438,0.31890386,0.48475614,-0.8144396,-0.94733083,0.13636856,-0.2897722,-0.029404882,0.8639532,0.50271285,0.69788146,0.57736737,-0.42380226,-0.71533287,0.53256774,-0.4524052,-0.035500586,0.6188849,0.78467906,-0.14476013,8.684753,4.99263,-0.2883634,8.4724865,4.9299293,-0.030578613,0.0084991455,0.023376465,-14.279175,-27.2995,-21.839905,0,0.0,0.0,0.0,0.0
0.257324219,0.31891635,0.48474908,-0.81443894,-0.94733655,0.13666604,-0.28961334,-0.029083636,0.86391014,0.5028055,0.6850468,0.58024734,-0.4404815,-0.7276343,0.515537,-0.4525152,-0.035486232,0.63050354,0.77537477,-0.16870117,8.778076,4.9794617,-0.28521302,8.472064,4.930837,-0.03074646,-0.007385254,0.0074920654,-14.279175,-27.2995,-21.839905,0,0.0,0.0,0.0,0.0
0.265625,0.30097523,0.48724106,-0.81976223,-0.9531968,0.12774158,-0.27404007,-0.028805874,0.86387396,0.5028837,0.6787472,0.5814367,-0.44859064,-0.7335152,0.507271,-0.45236218,-0.035462983,0.63608766,0.7708015,-0.16870117,8.778076,4.9794617,-0.28248915,8.47171,4.9316044,-0.019439697,-0.014251709,-5.950928E-4,-14.338684,-27.178955,-21.418762,0,0.0,0.0,0.0,0.0
0.273925781,0.30093238,0.48726493,-0.8197638,-0.95321494,0.12786451,-0.27391958,-0.028652707,0.8638423,0.50294673,0.66582954,0.5837265,-0.46468753,-0.7452642,0.4907944,-0.45133385,-0.035389487,0.6468263,0.76181585,-0.22013855,8.788834,5.004593,-0.28098708,8.471399,4.932223,-0.03149414,-0.012573242,-0.019073486,-14.338684,-27.178955,-21.418762,0,0.0,0.0,0.0,0.0
0.282226563,0.28305966,0.48968416,-0.8246737,-0.95867336,0.11874251,-0.2585452,-0.028681645,0.8637764,0.5030583,0.65323544,0.58543164,-0.48015964,-0.75633174,0.47496992,-0.44985092,-0.035295594,0.65701854,0.7530477,-0.28474426,8.727814,5.0105743,-0.28127086,8.470753,4.933317,-0.031661987,-0.019592285,-0.028396606,-14.338684,-27.479553,-21.238708,0,0.0,0.0,0.0,0.0
0.290527344,0.28266004,0.4898996,-0.8246827,-0.9587883,0.1185021,-0.258229,-0.028779637,0.8636872,0.50320584,0.6467762,0.5862619,-0.4878294,-0.761865,0.467078,-0.44877592,-0.03524587,0.6619177,0.7487474,-0.28474426,8.727814,5.0105743,-0.28223184,8.469878,4.934764,-0.029815674,-0.024032593,-0.02748108,-14.338684,-27.479553,-21.238708,0,0.0,0.0,0.0,0.0
0.298828125,0.30212304,0.48764408,-0.8191,-0.9528293,0.12838845,-0.27501377,-0.02894587,0.86355054,0.5034307,0.64039415,0.58696747,-0.49534276,-0.7672395,0.45934188,-0.44760305,-0.03519675,0.6666889,0.7445046,-0.3397827,8.646469,5.050049,-0.28386202,8.468538,4.9369693,-0.025238037,-0.036697388,-0.02961731,-14.338684,-27.598572,-21.71936,0,0.0,0.0,0.0,0.0
0.307128906,0.30155182,0.48795897,-0.819123,-0.9530084,0.12812017,-0.27451804,-0.02900736,0.86341256,0.5036639,0.6285098,0.587663,-0.5095367,-0.7770092,0.44481853,-0.44541347,-0.03510164,0.6758614,0.73619235,-0.29670715,8.573486,5.0321045,-0.28446504,8.467185,4.9392557,-0.029067993,-0.04449463,-0.021820068,-14.338684,-27.598572,-21.71936,0,0.0,0.0,0.0,0.0
0.315429688,0.27545622,0.49151418,-0.8261584,-0.9608762,0.11485371,-0.2520426,-0.028995166,0.86326265,0.5039215,0.61693853,0.5879672,-0.52314574,-0.78623265,0.43088835,-0.44291478,-0.035001982,0.6845654,0.7281106,-0.3014984,8.547165,5.0201416,-0.28434542,8.465714,4.9417815,-0.03364563,-0.05014038,-0.009613037,-14.279175,-27.89917,-21.359253,0,0.0,0.0,0.0,0.0
0.323730469,0.27485046,0.49183333,-0.8261702,-0.96105343,0.11473234,-0.2514213,-0.028868929,0.863097,0.5042123,0.6108465,0.5882145,-0.52997196,-0.7909773,0.42382723,-0.441277,-0.034948997,0.6887483,0.7241577,-0.2871399,8.553146,5.01416,-0.2831075,8.46409,4.944634,-0.044326782,-0.056243896,-0.006088257,-14.279175,-27.89917,-21.359253,0,0.0,0.0,0.0,0.0
0.33203125,0.27423033,0.49215963,-0.826182,-0.9612367,0.11467448,-0.25074634,-0.028665252,0.8629186,0.5045291,0.5989046,0.5884371,-0.5431898,-0.80006254,0.41015258,-0.4378068,-0.03483104,0.69679034,0.7164287,-0.26560974,8.621338,5.0153503,-0.2811101,8.462341,4.9477406,-0.056396484,-0.054260254,-0.0063934326,-14.279175,-27.89917,-21.359253,0,0.0,0.0,0.0,0.0
0.340332031,0.28512436,0.49116105,-0.8230826,-0.9580705,0.1206217,-0.25990653,-0.028374327,0.8626768,0.50495905,0.5872914,0.5883275,-0.5558413,-0.8086316,0.3970641,-0.43411416,-0.034696653,0.70442235,0.7089325,-0.22372437,8.659622,5.0895386,-0.2782571,8.4599695,4.9519567,-0.06173706,-0.0473938,0.0036773682,-13.978577,-27.778625,-21.418762,0,0.0,0.0,0.0,0.0
0.348632813,0.26575816,0.4938666,-0.8279303,-0.9636308,0.11107166,-0.24306172,-0.028080473,0.8624146,0.5054232,0.58180046,0.588069,-0.5618567,-0.8125944,0.39087763,-0.43232515,-0.034619838,0.7080886,0.7052744,-0.21894836,8.726624,5.181656,-0.27537537,8.457398,4.9565086,-0.06892395,-0.045715332,-0.00440979,-14.399719,-27.95868,-21.299744,0,0.0,0.0,0.0,0.0
0.356933594,0.264644,0.4944479,-0.8279401,-0.9639443,0.110851556,-0.24191576,-0.027836317,0.8621097,0.50595653,0.57041895,0.58766365,-0.57382375,-0.8206312,0.37846386,-0.42817,-0.034448393,0.7151339,0.6981381,-0.21894836,8.726624,5.181656,-0.27298102,8.454409,4.9617386,-0.05670166,-0.04724121,-0.013427734,-14.399719,-27.95868,-21.299744,0,0.0,0.0,0.0,0.0
0.365234375,0.26378888,0.4950334,-0.82786316,-0.96418524,0.11075661,-0.2409977,-0.027610594,0.8617859,0.5065202,0.55934817,0.5870215,-0.58526516,-0.82822436,0.36658877,-0.4238597,-0.034263104,0.72181606,0.6912363,-0.17706299,8.71347,5.2414703,-0.27076745,8.451233,4.9672666,-0.046463013,-0.03593445,-0.024414063,-14.338684,-28.079224,-21.359253,0,0.0,0.0,0.0,0.0
0.373535156,0.26264298,0.4956259,-0.8278729,-0.9645007,0.11039003,-0.23990057,-0.027512027,0.8614923,0.50702477,0.5539282,0.58662367,-0.5907929,-0.83186316,0.36084938,-0.4216532,-0.034164485,0.72502446,0.6878752,-0.20100403,8.715851,5.2773743,-0.2698008,8.448353,4.972214,-0.028457642,-0.023727417,-0.034805298,-14.338684,-28.079224,-21.359253,0,0.0,0.0,0.0,0.0
0.381835938,0.26163542,0.49614608,-0.8278803,-0.9647711,0.10988432,-0.23904376,-0.027629577,0.86125743,0.50741714,0.54330516,0.58569866,-0.60147864,-0.838848,0.34974098,-0.4171514,-0.033963267,0.73118967,0.68132824,-0.25723267,8.667999,5.268997,-0.2709536,8.446051,4.9760623,-0.009674072,-0.015777588,-0.047180176,-14.338684,-28.079224,-21.359253,0,0.0,0.0,0.0,0.0
0.390136719,0.2712935,0.49524108,-0.82530975,-0.96209216,0.11467475,-0.2474437,-0.027902085,0.8611539,0.507578,0.5329835,0.58461434,-0.6116819,-0.8454514,0.3391078,-0.4125746,-0.03377091,0.7370427,0.6750019,-0.2979126,8.672791,5.1996,-0.273626,8.445035,4.97764,0.022399902,-0.018371582,-0.0519104,-14.15863,-28.138733,-21.539307,0,0.0,0.0,0.0,0.0
0.3984375,0.27600437,0.49474,-0.8240472,-0.96074,0.11677577,-0.2516783,-0.02828658,0.8611595,0.5075472,0.52811676,0.5839482,-0.6165202,-0.8485035,0.33408487,-0.41040123,-0.033682987,0.73985934,0.67191786,-0.3529358,8.677567,5.1720886,-0.2773966,8.44509,4.977338,0.025909424,-0.013946533,-0.05419922,-13.798523,-28.079224,-21.479797,0,0.0,0.0,0.0,0.0
0.406738281,0.2759971,0.49474367,-0.8240475,-0.96072954,0.11639166,-0.25189632,-0.028711865,0.8612094,0.50743866,0.518786,0.58246046,-0.62578017,-0.8542464,0.3244774,-0.4061743,-0.033528958,0.745288,0.6658991,-0.38763428,8.687149,5.1541443,-0.28156722,8.44558,4.9762735,0.020111084,0.0068206787,-0.050689697,-13.798523,-28.079224,-21.479797,0,0.0,0.0,0.0,0.0
0.415039063,0.29262888,0.49264753,-0.81955284,-0.95577955,0.12450091,-0.26643023,-0.029221108,0.8612769,0.50729495,0.5097621,0.58086795,-0.634614,-0.8596668,0.31528535,-0.40195525,-0.033398435,0.75045824,0.66007346,-0.38763428,8.687149,5.1541443,-0.2865612,8.446241,4.974864,0.02255249,0.009262085,-0.0448761,-13.859558,-27.89917,-21.71936,0,0.0,0.0,0.0,0.0
0.423339844,0.29274026,0.4925887,-0.81954837,-0.9557326,0.12417043,-0.26675236,-0.02963553,0.8613583,0.50713277,0.50566196,0.57993126,-0.6387375,-0.8620869,0.31103685,-0.40007764,-0.033346623,0.7529514,0.6572307,-0.32901,8.6440735,5.107483,-0.29062527,8.44704,4.9732738,0.026519775,0.008956909,-0.04045105,-13.859558,-27.89917,-21.71936,0,0.0,0.0,0.0,0.0
0.431640625,0.29301718,0.49244246,-0.8195372,-0.9556388,0.12401825,-0.267159,-0.029922841,0.86146384,0.5069366,0.49767467,0.5780135,-0.64669955,-0.8667257,0.30281398,-0.3963461,-0.033263706,0.75776255,0.65168196,-0.27876282,8.568695,5.0488586,-0.29344285,8.448074,4.97135,0.031723022,0.002243042,-0.03541565,-13.859558,-27.89917,-21.71936,0,0.0,0.0,0.0,0.0
0.439941406,0.26824057,0.49527195,-0.8262886,-0.96288276,0.11106904,-0.2460095,-0.03006652,0.8616086,0.506682,0.49378926,0.5770328,-0.6505423,-0.8689465,0.2988397,-0.39449573,-0.03322909,0.7600842,0.6489745,-0.24406433,8.507675,4.975876,-0.29485184,8.449494,4.968853,0.031723022,-0.019760132,-0.02670288,-14.099121,-28.199768,-21.479797,0,0.0,0.0,0.0,0.0
0.448242188,0.26711076,0.4951873,-0.82670516,-0.9631969,0.11042985,-0.24506535,-0.030060343,0.86173934,0.5064599,0.48532805,0.57533175,-0.65836924,-0.8737029,0.29056457,-0.39014804,-0.033165753,0.7645689,0.6436881,-0.21534729,8.502899,4.968689,-0.29479128,8.450776,4.966675,0.01965332,-0.030288696,-0.026397705,-14.4592285,-27.95868,-21.418762,0,0.0,0.0,0.0,0.0
0.456542969,0.26753026,0.49496737,-0.8267012,-0.9630785,0.11054018,-0.2454803,-0.03012105,0.8618515,0.5062653,0.47711885,0.57357633,-0.6658587,-0.87821525,0.28263584,-0.38581732,-0.033100177,0.76884794,0.63857436,-0.28355408,8.543579,4.965103,-0.2953866,8.451877,4.9647665,0.006362915,-0.02281189,-0.030075073,-14.4592285,-27.95868,-21.418762,0,0.0,0.0,0.0,0.0
0.46484375,0.26776513,0.4948442,-0.82669884,-0.96300936,0.110521734,-0.24575973,-0.03024457,0.86192465,0.50613344,0.4731296,0.5726749,-0.6694714,-0.88037205,0.27881008,-0.38367963,-0.03306833,0.770914,0.63608027,-0.28355408,8.543579,4.965103,-0.29659793,8.452594,4.963474,0.006362915,-0.0063171387,-0.035110474,-14.4592285,-27.95868,-21.418762,0,0.0,0.0,0.0,0.0
0.473144531,0.25777197,0.49599242,-0.82918346,-0.9657218,0.10509682,-0.23735252,-0.030580519,0.86194324,0.5060817,0.46536934,0.57083774,-0.67644346,-0.88450086,0.2714199,-0.3794595,-0.0330096,0.7749036,0.63121694,-0.3756714,8.591431,4.997406,-0.29989246,8.452776,4.962966,-0.009811401,0.015670776,-0.03175354,-14.099121,-28.079224,-21.1792,0,0.0,0.0,0.0,0.0
0.481445313,0.2575197,0.49612045,-0.8291852,-0.9657769,0.104656965,-0.23732227,-0.030960424,0.8619231,0.5060929,0.45751655,0.56908315,-0.68324447,-0.88858986,0.26412,-0.37503165,-0.032965656,0.7787072,0.6265208,-0.4355011,8.593826,5.0069885,-0.30361804,8.452579,4.963076,-0.018676758,0.022094727,-0.023803711,-14.099121,-28.079224,-21.1792,0,0.0,0.0,0.0,0.0
0.489746094,0.24965559,0.49716005,-0.8309657,-0.967824,0.10024266,-0.23079896,-0.031445798,0.8618488,0.5061895,0.45368907,0.56819886,-0.6865248,-0.8905506,0.26058605,-0.37284654,-0.032952175,0.7805415,0.62423486,-0.4630127,8.589035,5.0309143,-0.30837795,8.45185,4.964024,-0.022644043,0.025604248,-0.021820068,-13.859558,-28.138733,-20.999146,0,0.0,0.0,0.0,0.0
0.498046875,0.26355314,0.49585995,-0.8274435,-0.96411896,0.107080676,-0.24291638,-0.03184929,0.8617753,0.5062894,0.44594812,0.566505,-0.69296634,-0.8944522,0.25356224,-0.36832237,-0.03294638,0.784078,0.6197873,-0.44865417,8.573486,5.004593,-0.31233487,8.451129,4.965003,-0.016235352,0.017974854,-9.0026855E-4,-13.739014,-28.138733,-21.238708,0,0.0,0.0,0.0,0.0
0.506347656,0.26324412,0.49601495,-0.8274489,-0.9641986,0.10682851,-0.24271116,-0.031993225,0.8617174,0.5063789,0.43899268,0.56465507,-0.698892,-0.89788604,0.24716757,-0.36429226,-0.03295603,0.78744704,0.6155006,-0.34457397,8.536392,4.997406,-0.31374633,8.450561,4.9658804,-0.012420654,-9.765625E-4,0.007797241,-13.739014,-28.138733,-21.238708,0,0.0,0.0,0.0,0.0
0.514648438,0.263025,0.49612486,-0.8274527,-0.9642585,0.106742784,-0.24251091,-0.031991087,0.8616647,0.5064686,0.43560362,0.563732,-0.701752,-0.89953494,0.24407487,-0.36230445,-0.032962605,0.78907144,0.6134165,-0.34457397,8.536392,4.997406,-0.31372538,8.450045,4.96676,-0.022491455,-0.0121154785,0.016357422,-13.739014,-28.138733,-21.238708,0,0.0,0.0,0.0,0.0
0.522949219,0.24092458,0.4985084,-0.8327333,-0.9700223,0.09555823,-0.22343966,-0.03181203,0.861602,0.5065866,0.42900276,0.56188995,-0.7072739,-0.90270126,0.23809825,-0.35838494,-0.03297222,0.7922051,0.60936356,-0.2979126,8.504089,4.97229,-0.31196946,8.4494295,4.9679174,-0.025238037,-0.016998291,0.01651001,-13.859558,-28.379822,-20.999146,0,0.0,0.0,0.0,0.0
0.53125,0.2407317,0.4986023,-0.83273286,-0.9700775,0.09567901,-0.22314797,-0.031587034,0.86153424,0.50671583,0.4218239,0.56026244,-0.71286094,-0.9060782,0.23189522,-0.3539025,-0.03296922,0.79519224,0.60546046,-0.28355408,8.5256195,4.97229,-0.30976298,8.448765,4.969185,-0.024017334,-0.014099121,0.01008606,-13.859558,-28.379822,-20.999146,0,0.0,0.0,0.0,0.0
0.539550781,0.26009163,0.4967165,-0.8280248,-0.9650736,0.10584782,-0.23964405,-0.031390537,0.8614343,0.5068981,0.41832942,0.5594459,-0.7155562,-0.9076971,0.22890325,-0.35169482,-0.0329611,0.79663265,0.6035644,-0.28474426,8.567505,5.0440674,-0.307836,8.447784,4.9709725,-0.02355957,-0.018066406,0.009643555,-14.219666,-28.259277,-21.418762,0,0.0,0.0,0.0,0.0
0.547851563,0.25101495,0.49782947,-0.830155,-0.96747917,0.10135541,-0.23175673,-0.031234622,0.86133206,0.50708133,0.41225433,0.5576355,-0.7204783,-0.91047335,0.2235761,-0.34792528,-0.032933753,0.79941005,0.5998825,-0.31704712,8.629715,5.0979156,-0.30630702,8.446782,4.9727693,-0.018981934,-0.013183594,-0.0021209717,-14.039612,-28.439331,-21.299744,0,0.0,0.0,0.0,0.0
0.556152344,0.2506038,0.49803367,-0.83015674,-0.9675871,0.101224765,-0.2313631,-0.031194195,0.86122936,0.50725824,0.40606403,0.5559259,-0.7252988,-0.9132523,0.21829227,-0.3439749,-0.03289742,0.8020566,0.59634125,-0.324234,8.685944,5.1541443,-0.30591056,8.445775,4.974504,-0.018218994,-0.008148193,-0.010070801,-14.039612,-28.439331,-21.299744,0,0.0,0.0,0.0,0.0
0.564453125,0.25015047,0.49825874,-0.83015835,-0.96770215,0.1009805,-0.23098813,-0.031262048,0.86112785,0.5074264,0.40304723,0.5550803,-0.7276254,-0.9145884,0.21573827,-0.34203073,-0.032877874,0.8033323,0.59462273,-0.28115845,8.702698,5.2055817,-0.30657595,8.444779,4.976153,-0.018218994,0.01399231,-0.016479492,-14.039612,-28.439331,-21.299744,0,0.0,0.0,0.0,0.0
0.572753906,0.24837169,0.49863064,-0.83046913,-0.9681566,0.100015365,-0.22949913,-0.03137563,0.8610252,0.5075935,0.39716405,0.5534115,-0.73211783,-0.91715986,0.21079409,-0.33820656,-0.032841276,0.8057925,0.59128666,-0.26081848,8.669189,5.227127,-0.30768985,8.443773,4.9777923,-3.5095215E-4,0.026062012,-0.018463135,-14.039612,-28.379822,-21.238708,0,0.0,0.0,0.0,0.0
0.581054688,0.24792708,0.49885097,-0.83046967,-0.9682648,0.099679664,-0.2291881,-0.031549785,0.86093646,0.50773317,0.39143124,0.55178326,-0.73642164,-0.9196223,0.20603126,-0.33443382,-0.032809105,0.8081376,0.5880793,-0.26081848,8.669189,5.227127,-0.30939773,8.4429035,4.9791617,0.017059326,0.055236816,-0.025177002,-14.039612,-28.379822,-21.238708,0,0.0,0.0,0.0,0.0
0.589355469,0.24633406,0.49914798,-0.8307651,-0.9686606,0.09860502,-0.2279773,-0.031876802,0.8608881,0.5077948,0.3886365,0.550982,-0.7384988,-0.92080724,0.20372383,-0.33258167,-0.032796707,0.8092685,0.58652276,-0.29431152,8.621338,5.2175446,-0.31260467,8.442429,4.979766,0.019348145,0.07324219,-0.024414063,-13.798523,-28.73993,-21.359253,0,0.0,0.0,0.0,0.0
0.59765625,0.24145189,0.49969426,-0.83186924,-0.96987545,0.095744394,-0.22399597,-0.032282684,0.860894,0.507759,0.3831422,0.54941565,-0.7425257,-0.9231073,0.19921851,-0.3289147,-0.032786008,0.81145203,0.5834986,-0.32063293,8.560318,5.150543,-0.316585,8.442487,4.979415,0.036605835,0.08027649,-0.017089844,-14.279175,-28.858948,-21.479797,0,0.0,0.0,0.0,0.0
0.605957031,0.24153364,0.4996541,-0.8318697,-0.96984076,0.09539564,-0.22429517,-0.032713264,0.8609561,0.50762624,0.38037866,0.548663,-0.7445005,-0.9242494,0.1969794,-0.32705075,-0.03278938,0.8125072,0.58202827,-0.32063293,8.560318,5.150543,-0.32080755,8.443095,4.9781127,0.035232544,0.075683594,-0.010223389,-14.279175,-28.858948,-21.479797,0,0.0,0.0,0.0,0.0
0.614257813,0.2419588,0.49944514,-0.8318717,-0.96972144,0.0952159,-0.22488745,-0.03311154,0.8610972,0.507361,0.37500837,0.54717416,-0.7483109,-0.9264405,0.19263656,-0.32341796,-0.032813907,0.8145499,0.5791646,-0.3900299,8.554337,5.000992,-0.3247133,8.44448,4.975512,0.04423523,0.061645508,-0.0066986084,-14.279175,-28.858948,-21.479797,0,0.0,0.0,0.0,0.0
0.622558594,0.26739946,0.49651647,-0.8258141,-0.9630034,0.107912526,-0.24693966,-0.033493932,0.8612933,0.50700283,0.36985424,0.5457007,-0.7519431,-0.92850876,0.18847921,-0.31991732,-0.03285346,0.8165086,0.5763978,-0.45942688,8.583054,5.0069885,-0.3284633,8.446403,4.971999,0.04057312,0.04637146,-0.0013580322,-14.15863,-28.49884,-21.71936,0,0.0,0.0,0.0,0.0
0.630859375,0.26798072,0.49621996,-0.82580394,-0.9628279,0.1077871,-0.24767771,-0.03389161,0.86147994,0.50665927,0.36783895,0.54487133,-0.75353146,-0.929308,0.1867479,-0.31860927,-0.032880638,0.81745976,0.5750465,-0.45942688,8.583054,5.0069885,-0.3323632,8.448233,4.9686303,0.037368774,0.042099,0.0070343018,-14.15863,-28.49884,-21.71936,0,0.0,0.0,0.0,0.0
0.639160156,0.26368904,0.49649024,-0.82702214,-0.9640018,0.105251655,-0.24417762,-0.034186367,0.8616377,0.5063712,0.36394522,0.5432326,-0.7565991,-0.9308374,0.18339501,-0.31608242,-0.032949764,0.8193074,0.572407,-0.4893341,8.556732,4.9914246,-0.33525375,8.4497795,4.965805,0.027282715,0.017196655,0.022918701,-14.15863,-28.559875,-21.659851,0,0.0,0.0,0.0,0.0
0.647460938,0.2776539,0.49469873,-0.82351774,-0.9600691,0.112291686,-0.2562378,-0.034286328,0.8617794,0.5061232,0.3600351,0.5416614,-0.7595905,-0.932354,0.18008077,-0.31350753,-0.033027273,0.8210809,0.5698555,-0.46899414,8.5256195,4.9698944,-0.33623403,8.451169,4.963373,0.033096313,-0.0107421875,0.03804016,-14.4592285,-28.439331,-21.958923,0,0.0,0.0,0.0,0.0
0.655761719,0.2783508,0.4943326,-0.82350236,-0.95987034,0.11263843,-0.25682965,-0.03420126,0.8619442,0.50584817,0.35840714,0.540835,-0.760948,-0.9329797,0.17863251,-0.31247318,-0.033066377,0.82194155,0.5686112,-0.46899414,8.5256195,4.9698944,-0.3353998,8.4527855,4.960676,0.042404175,-0.016235352,0.052856445,-14.4592285,-28.439331,-21.958923,0,0.0,0.0,0.0,0.0
0.6640625,0.27947503,0.49374098,-0.82347643,-0.9595582,0.113445416,-0.25763932,-0.033787448,0.86217743,0.5054784,0.3552728,0.5392021,-0.7635721,-0.93417513,0.17584674,-0.31047505,-0.033137117,0.8236134,0.56618273,-0.34576416,8.536392,4.9495544,-0.33134168,8.455072,4.95705,0.05142212,-0.033950806,0.061401367,-14.4592285,-28.439331,-21.958923,0,0.0,0.0,0.0,0.0
0.672363281,0.266495,0.49467236,-0.827212,-0.96326566,0.10716382,-0.2462422,-0.03316202,0.8624472,0.50505954,0.35230413,0.5375902,-0.7660801,-0.9352971,0.17321786,-0.3085693,-0.033185102,0.8252226,0.5638319,-0.27038574,8.5950165,4.9782715,-0.32520834,8.457718,4.9529424,0.045913696,-0.031661987,0.052703857,-14.518738,-28.799438,-21.899414,0,0.0,0.0,0.0,0.0
0.680664063,0.2677819,0.49400902,-0.8271928,-0.9629301,0.108231544,-0.24708615,-0.032534443,0.862694,0.5046786,0.35061133,0.53683716,-0.7673836,-0.93593264,0.17181018,-0.30742705,-0.033193953,0.8260067,0.56268203,-0.27038574,8.5950165,4.9782715,-0.31905392,8.460139,4.949207,0.037368774,-0.031661987,0.052703857,-14.518738,-28.799438,-21.899414,0,0.0,0.0,0.0,0.0
0.688964844,0.2706256,0.49323988,-0.82672626,-0.9621533,0.11005155,-0.24929835,-0.031981368,0.86290383,0.5043551,0.34737474,0.5353322,-0.76990277,-0.9371391,0.16913289,-0.3052284,-0.033182725,0.8275346,0.5604332,-0.25483704,8.690735,5.038086,-0.3136301,8.462196,4.946034,0.038589478,-0.0040283203,0.042770386,-14.518738,-28.73993,-21.899414,0,0.0,0.0,0.0,0.0
0.697265625,0.29755038,0.48955733,-0.8196325,-0.9541843,0.12411577,-0.27226362,-0.03155933,0.8630926,0.5040586,0.34437394,0.5338329,-0.77228814,-0.9382472,0.16665043,-0.3031827,-0.033146754,0.8290054,0.55825734,-0.26919556,8.711075,5.0560303,-0.3094913,8.464047,4.943126,0.028671265,0.023620605,0.03163147,-14.15863,-28.559875,-22.198486,0,0.0,0.0,0.0,0.0
0.705566406,0.29832137,0.48914737,-0.8195969,-0.95395184,0.12463619,-0.27283993,-0.0313075,0.8632501,0.50380474,0.34344512,0.5329994,-0.7732768,-0.9385885,0.16575518,-0.30261642,-0.03311972,0.829721,0.55719495,-0.26919556,8.711075,5.0560303,-0.3070217,8.465591,4.940637,0.023468018,0.036453247,0.031158447,-14.15863,-28.559875,-22.198486,0,0.0,0.0,0.0,0.0
0.713867188,0.29882076,0.48888165,-0.81957364,-0.95379734,0.12487377,-0.27327132,-0.031254083,0.86336625,0.5036089,0.34167275,0.5313581,-0.77518916,-0.9392375,0.16404526,-0.3015329,-0.03305585,0.8311123,0.5551213,-0.37088013,8.622543,4.9507446,-0.30649784,8.466731,4.9387164,0.021636963,0.056152344,0.026733398,-14.15863,-28.559875,-22.198486,0,0.0,0.0,0.0,0.0
0.722167969,0.302636,0.4881634,-0.81860125,-0.95258987,0.12665173,-0.2766441,-0.031370267,0.86351365,0.5033488,0.33998904,0.52976316,-0.77701896,-0.9398505,0.16241926,-0.30050123,-0.03299165,0.8324488,0.55311894,-0.3900299,8.5902405,4.898102,-0.30763724,8.468177,4.9361663,0.017211914,0.036895752,0.035446167,-13.978577,-28.259277,-22.019958,0,0.0,0.0,0.0,0.0
0.73046875,0.30317926,0.487873,-0.81857336,-0.95241517,0.12680188,-0.2771765,-0.0314303,0.8636558,0.5031013,0.33924708,0.52897,-0.7778831,-0.9401196,0.16167112,-0.30006263,-0.032962903,0.83309853,0.55214155,-0.3900299,8.5902405,4.898102,-0.30822596,8.46957,4.933738,0.008972168,0.028045654,0.03453064,-13.978577,-28.259277,-22.019958,0,0.0,0.0,0.0,0.0
0.738769531,0.3310438,0.48373324,-0.81019276,-0.94309783,0.14117557,-0.30105847,-0.031252556,0.8637544,0.502943,0.33782798,0.5274147,-0.779555,-0.94063234,0.16022952,-0.29922777,-0.032909393,0.8343622,0.5502333,-0.2907257,8.642868,4.955536,-0.30648288,8.470537,4.9321856,0.0033111572,0.006668091,0.035598755,-13.978577,-28.318787,-22.619629,0,0.0,0.0,0.0,0.0
0.747070313,0.3314888,0.48348603,-0.8101584,-0.9429486,0.14153558,-0.3013564,-0.03103539,0.86383384,0.5028199,0.33769268,0.52656,-0.7801911,-0.94068193,0.15984361,-0.29927817,-0.03287937,0.8349758,0.5493036,-0.2907257,8.642868,4.955536,-0.3043532,8.471316,4.930979,0.008041382,0.009719849,0.028411865,-13.978577,-28.318787,-22.619629,0,0.0,0.0,0.0,0.0
0.755371094,0.32326084,0.4845317,-0.812854,-0.9458088,0.13747728,-0.2941867,-0.030793857,0.86390334,0.50271535,0.33744812,0.5248894,-0.78142166,-0.9407721,0.15911092,-0.2993853,-0.03281145,0.83616674,0.547493,-0.24885559,8.671585,4.9507446,-0.30198458,8.471998,4.9299536,-0.008132935,0.012466431,0.021697998,-14.219666,-28.559875,-22.679138,0,0.0,0.0,0.0,0.0
0.763671875,0.3235208,0.48438802,-0.8128361,-0.94572586,0.13774234,-0.29432902,-0.030607505,0.86394167,0.5026608,0.33688918,0.5233299,-0.78270787,-0.9409751,0.15823418,-0.29921207,-0.032735486,0.83730984,0.54574776,-0.26081848,8.708679,5.0356903,-0.3001571,8.472374,4.929419,-0.007827759,0.017669678,0.013763428,-14.219666,-28.559875,-22.679138,0,0.0,0.0,0.0,0.0
0.771972656,0.31616455,0.4854407,-0.81509954,-0.9482141,0.13407673,-0.2879469,-0.030495264,0.8639275,0.50269204,0.3366232,0.5225693,-0.7833301,-0.9410716,0.1578152,-0.29912952,-0.032694492,0.83786374,0.5448994,-0.26081848,8.708679,5.0356903,-0.29905638,8.472235,4.929725,-0.013946533,0.023010254,0.012680054,-14.338684,-28.439331,-22.499084,0,0.0,0.0,0.0,0.0
0.780281739,0.31591082,0.48558053,-0.8151146,-0.9482987,0.13398455,-0.2877111,-0.030494157,0.8638632,0.5028026,0.33581766,0.5211392,-0.7846275,-0.9413623,0.15684725,-0.29872373,-0.032609962,0.83893555,0.5432529,-0.31585693,8.707489,5.0979156,-0.29904553,8.471604,4.9308095,-0.009674072,0.011703491,0.0140686035,-14.338684,-28.439331,-22.499084,0,0.0,0.0,0.0,0.0
0.78858252,0.32225356,0.484807,-0.81308967,-0.94616205,0.13727944,-0.29314116,-0.030496396,0.8637804,0.50294477,0.33503368,0.5197682,-0.78587115,-0.94164443,0.15591578,-0.29832187,-0.0325285,0.83995914,0.54167384,-0.31944275,8.592621,5.127823,-0.2990675,8.470792,4.9322033,-5.0354004E-4,8.69751E-4,0.022003174,-14.039612,-28.199768,-22.37854,0,0.0,0.0,0.0,0.0
0.796883301,0.3220364,0.4849268,-0.81310433,-0.9462392,0.1372886,-0.29288802,-0.030399298,0.8637117,0.5030686,0.33477944,0.51908374,-0.78643167,-0.9417363,0.15553519,-0.2982308,-0.032488946,0.8404528,0.54090995,-0.31944275,8.592621,5.127823,-0.29811528,8.4701185,4.933418,0.00819397,-0.005859375,0.02078247,-14.039612,-28.199768,-22.37854,0,0.0,0.0,0.0,0.0
0.805184082,0.3250906,0.48441333,-0.8121945,-0.9452021,0.13905546,-0.29539227,-0.03015189,0.86371714,0.5030741,0.3342775,0.5177586,-0.787518,-0.9419173,0.15479793,-0.29804248,-0.032407913,0.84140575,0.5394313,-0.24765015,8.549561,5.070389,-0.29568905,8.470172,4.9334717,0.027130127,-0.0079956055,0.025054932,-13.739014,-27.89917,-22.138977,0,0.0,0.0,0.0,0.0
0.813484864,0.3257041,0.4840759,-0.8121499,-0.9450018,0.1395931,-0.29577953,-0.02980922,0.86381966,0.5029186,0.33391622,0.5164612,-0.7885225,-0.9420485,0.15416558,-0.29795563,-0.032319482,0.8423187,0.5380099,-0.21176147,8.610565,5.0512543,-0.2923286,8.471177,4.9319468,0.035690308,-0.009521484,0.033920288,-13.739014,-27.89917,-22.138977,0,0.0,0.0,0.0,0.0
0.821785645,0.3294243,0.48322666,-0.8111545,-0.9437232,0.14173782,-0.29882574,-0.029429307,0.8639458,0.5027241,0.33375338,0.5158241,-0.7890084,-0.9421079,0.1538706,-0.29792023,-0.03226925,0.84276295,0.5373168,-0.21176147,8.610565,5.0512543,-0.28860292,8.472414,4.9300394,0.03126526,-0.009521484,0.02947998,-13.439941,-27.598572,-21.899414,0,0.0,0.0,0.0,0.0
0.830086426,0.3302894,0.48275098,-0.81108594,-0.9434309,0.14235131,-0.29945654,-0.029103788,0.8641109,0.50245935,0.3335848,0.514551,-0.78991044,-0.9421715,0.15338911,-0.29796743,-0.032155793,0.8436285,0.5359636,-0.22970581,8.646469,4.9902344,-0.28541067,8.474033,4.927443,0.031417847,0.0023956299,0.019866943,-13.439941,-27.598572,-21.899414,0,0.0,0.0,0.0,0.0
0.838387207,0.31750712,0.48435444,-0.81522393,-0.9478138,0.13585328,-0.2884318,-0.028952377,0.8642596,0.50221217,0.33345744,0.5133077,-0.79077256,-0.9422208,0.15295285,-0.29803592,-0.03203322,0.84446466,0.5346525,-0.28234863,8.660828,4.9627075,-0.28392583,8.475492,4.9250193,0.00819397,0.010177612,0.0045928955,-13.439941,-27.23999,-21.418762,0,0.0,0.0,0.0,0.0
0.846687989,0.3179201,0.48412925,-0.8151967,-0.9476763,0.13603185,-0.28879943,-0.028923534,0.8643577,0.5020451,0.33314097,0.51274,-0.7912742,-0.9423349,0.15260349,-0.2978543,-0.031970616,0.8448727,0.53401124,-0.28234863,8.660828,4.9627075,-0.28364298,8.476454,4.9233804,0.006210327,0.015823364,-0.0019683838,-13.439941,-27.23999,-21.418762,0,0.0,0.0,0.0,0.0
0.85498877,0.3193807,0.48382613,-0.8148057,-0.947182,0.13665508,-0.29012358,-0.029022008,0.8644291,0.5019163,0.3325427,0.511628,-0.79224503,-0.94255036,0.15193385,-0.29751477,-0.031848043,0.8456671,0.5327596,-0.31225586,8.647659,4.9459686,-0.2846087,8.477154,4.9221177,-0.0011138916,0.014755249,-9.0026855E-4,-13.619995,-26.879883,-21.299744,0,0.0,0.0,0.0,0.0
0.863289551,0.3194588,0.4837826,-0.8148008,-0.947153,0.13660827,-0.29023984,-0.029104479,0.8644608,0.5018569,0.3320252,0.5105457,-0.79315966,-0.9427365,0.15131785,-0.2972385,-0.03173462,0.8464313,0.5315514,-0.29193115,8.5950165,4.922043,-0.28541744,8.477465,4.9215355,-0.0134887695,0.0043792725,0.002609253,-13.619995,-26.879883,-21.299744,0,0.0,0.0,0.0,0.0
0.871590332,0.2989999,0.48663026,-0.8208472,-0.9538085,0.12615055,-0.27264512,-0.029127054,0.8644518,0.50187105,0.33177558,0.51001936,-0.7936027,-0.9428262,0.1510184,-0.29710636,-0.031681392,0.84680206,0.53096384,-0.29193115,8.5950165,4.922043,-0.28563884,8.477377,4.921674,-0.017608643,0.0027008057,0.011001587,-13.439941,-26.759338,-20.759583,0,0.0,0.0,0.0,0.0
0.879891114,0.29883862,0.48671693,-0.82085454,-0.95386136,0.12615685,-0.27245745,-0.029053235,0.8644022,0.501961,0.33048734,0.5091258,-0.79471314,-0.943282,0.1500036,-0.29617232,-0.031579133,0.8475198,0.5298235,-0.27397156,8.561523,4.91127,-0.2849149,8.47689,4.922556,-0.03868103,-0.013336182,0.0099487305,-13.439941,-26.759338,-20.759583,0,0.0,0.0,0.0,0.0
0.888191895,0.29708275,0.4871295,-0.8212469,-0.9544178,0.12557003,-0.2707739,-0.028777948,0.86425513,0.50222987,0.32924291,0.5082684,-0.7957778,-0.9437204,0.14903146,-0.29526493,-0.031477913,0.8482057,0.5287308,-0.17347717,8.678772,5.0608215,-0.28221527,8.475448,4.925193,-0.041885376,-0.024032593,0.012237549,-13.378906,-26.939392,-20.819092,0,0.0,0.0,0.0,0.0
0.896492676,0.29653388,0.4874216,-0.82127213,-0.9545982,0.12565029,-0.27010056,-0.028459745,0.8640788,0.5025513,0.32860446,0.50786036,-0.7963021,-0.9439448,0.14854856,-0.29479083,-0.03142305,0.8485347,0.5282059,-0.17347717,8.678772,5.0608215,-0.27909476,8.473719,4.928345,-0.045547485,-0.024032593,0.012237549,-13.378906,-26.939392,-20.819092,0,0.0,0.0,0.0,0.0
0.904793457,0.3143425,0.48525748,-0.815913,-0.9488955,0.13522594,-0.28515145,-0.02803925,0.86385137,0.5029658,0.327344,0.50707805,-0.79731905,-0.9443866,0.14761662,-0.29384235,-0.03130345,0.84916496,0.52719915,-0.107681274,8.720642,5.1589203,-0.27497113,8.471488,4.93241,-0.05027771,-0.004333496,0.0035247803,-13.739014,-27.719116,-21.77887,0,0.0,0.0,0.0,0.0
0.913094239,0.31349882,0.48571622,-0.8159647,-0.94918346,0.13518822,-0.28420934,-0.027736276,0.86359936,0.5034151,0.326833,0.50622594,-0.79806983,-0.9445679,0.14711827,-0.29350924,-0.031171322,0.8497597,0.52624786,-0.119644165,8.7469635,5.2211456,-0.27199996,8.469017,4.9368157,-0.03303528,0.022857666,-0.010375977,-13.739014,-27.719116,-21.77887,0,0.0,0.0,0.0,0.0
0.92139502,0.30664435,0.4870045,-0.8177994,-0.951424,0.1319191,-0.27819,-0.027596418,0.8633794,0.50380003,0.32656837,0.50582135,-0.7984346,-0.94466174,0.14687595,-0.29332852,-0.031100994,0.85004246,0.5257951,-0.119644165,8.7469635,5.2211456,-0.27062842,8.46686,4.940591,-0.026000977,0.028503418,-0.009307861,-13.679504,-27.95868,-21.77887,0,0.0,0.0,0.0,0.0
0.929695801,0.30601463,0.48734054,-0.8178352,-0.9516251,0.131627,-0.27764034,-0.027656198,0.8632344,0.5040452,0.3257849,0.50508976,-0.79921746,-0.94493693,0.14627166,-0.29274362,-0.030958943,0.8505815,0.5249311,-0.19740295,8.720642,5.145767,-0.27121463,8.465437,4.9429946,-0.014251709,0.035980225,-0.0063934326,-13.679504,-27.95868,-21.77887,0,0.0,0.0,0.0,0.0
0.937996582,0.31359148,0.48645598,-0.81548816,-0.94915146,0.13545671,-0.28418818,-0.02778169,0.86314076,0.5041985,0.32500705,0.50439966,-0.7999697,-0.9452091,0.14568028,-0.29215926,-0.030825239,0.8510924,0.52411026,-0.2416687,8.6931305,5.132599,-0.27244532,8.4645195,4.944498,0.0017852783,0.026367188,0.0013885498,-13.859558,-28.079224,-22.079468,0,0.0,0.0,0.0,0.0
0.946297364,0.31341067,0.4865539,-0.81549925,-0.94920886,0.13531762,-0.28406265,-0.027860375,0.8631074,0.5042513,0.32478037,0.50404495,-0.80028534,-0.9452891,0.1454731,-0.29200384,-0.030763082,0.85133797,0.52371496,-0.2416687,8.6931305,5.132599,-0.27321696,8.464192,4.945016,0.01461792,0.031097412,0.008255005,-13.859558,-28.079224,-22.079468,0,0.0,0.0,0.0,0.0
0.954598145,0.30764169,0.48729476,-0.8172517,-0.951093,0.1322982,-0.27914003,-0.027902547,0.8631576,0.50416315,0.324333,0.5033601,-0.8008975,-0.94544643,0.14506562,-0.29169682,-0.030645851,0.85181254,0.5229496,-0.2596283,8.645264,5.071594,-0.27363053,8.4646845,4.944152,0.033706665,0.019195557,0.0070343018,-13.859558,-28.379822,-22.138977,0,0.0,0.0,0.0,0.0
0.962898926,0.30834344,0.48692006,-0.8172106,-0.95086455,0.13252589,-0.27980956,-0.027943304,0.86333406,0.5038585,0.3236758,0.5027338,-0.8015564,-0.9456752,0.1445513,-0.29121014,-0.03053517,0.8522697,0.52221066,-0.30747986,8.606979,4.8957214,-0.2740302,8.466415,4.941164,0.042404175,-0.002960205,0.016357422,-13.859558,-28.379822,-22.138977,0,0.0,0.0,0.0,0.0
0.971199707,0.31123477,0.48610756,-0.81659806,-0.9499234,0.13390628,-0.2823376,-0.027898865,0.86357886,0.5034413,0.3233708,0.5024223,-0.8018748,-0.94578123,0.14430675,-0.29098698,-0.030482389,0.85249484,0.5218461,-0.30747986,8.606979,4.8957214,-0.2735944,8.468816,4.9370723,0.04118347,-0.013031006,0.023071289,-13.859558,-28.619385,-22.31903,0,0.0,0.0,0.0,0.0
0.979500489,0.31251684,0.48542258,-0.81651574,-0.94950867,0.13458562,-0.28340733,-0.027681045,0.8638585,0.5029733,0.3228929,0.50178385,-0.80246687,-0.9459479,0.14388908,-0.290652,-0.03037826,0.85294133,0.5211221,-0.2536316,8.624924,4.862213,-0.27145833,8.471559,4.9324837,0.038589478,-0.028915405,0.018951416,-13.859558,-28.619385,-22.31903,0,0.0,0.0,0.0,0.0
0.98780127,0.3109305,0.48514044,-0.81728876,-0.9500394,0.13391209,-0.28194445,-0.027337836,0.8641217,0.50253993,0.32248443,0.5011426,-0.8030317,-0.9460907,0.14351617,-0.29037142,-0.030269459,0.85338104,0.52040803,-0.19979858,8.597412,4.8430786,-0.2680926,8.474139,4.928233,0.02973938,-0.03929138,0.016052246,-13.859558,-28.919983,-22.439575,0,0.0,0.0,0.0,0.0
0.996102051,0.31207922,0.4845309,-0.8172126,-0.94967294,0.13466862,-0.28281757,-0.02698093,0.86434615,0.50217307,0.3222549,0.500826,-0.8033213,-0.9461708,0.14332157,-0.29020643,-0.030209634,0.8535996,0.520053,-0.19979858,8.597412,4.8430786,-0.26459253,8.47634,4.924636,0.012023926,-0.028305054,0.018341064,-13.859558,-28.919983,-22.439575,0,0.0,0.0,0.0,0.0
1.004402832,0.3025713,0.4855464,-0.82018,-0.95275486,0.13004218,-0.27449432,-0.026621748,0.8644846,0.5019538,0.3218548,0.5001868,-0.8038798,-0.9463111,0.1429752,-0.28991956,-0.030079056,0.8540324,0.5193495,-0.18066406,8.670395,4.922043,-0.26107016,8.477698,4.922485,-0.0035552979,-0.02357483,0.012374878,-13.739014,-29.039001,-22.259521,0,0.0,0.0,0.0,0.0
1.012703614,0.3029895,0.4853289,-0.82015437,-0.9526319,0.13052571,-0.27469167,-0.026264578,0.8645339,0.50188774,0.3210961,0.49961653,-0.8045375,-0.94657326,0.14245419,-0.28931966,-0.029939145,0.8544531,0.51866513,-0.12921143,8.6931305,4.980667,-0.25756752,8.478182,4.9218373,-0.010116577,-0.0063171387,-0.0077819824,-13.739014,-29.039001,-22.259521,0,0.0,0.0,0.0,0.0
1.021004395,0.3134961,0.48377734,-0.8171167,-0.9492327,0.13606687,-0.28362498,-0.02602883,0.8645492,0.50187373,0.32073632,0.49933517,-0.8048557,-0.9466976,0.14221165,-0.289032,-0.029863993,0.854658,0.5183318,-0.12921143,8.6931305,4.980667,-0.25525564,8.478332,4.9217,-0.016998291,0.0017852783,-0.012512207,-13.859558,-28.919983,-22.439575,0,0.0,0.0,0.0,0.0
1.029305176,0.3132421,0.4839126,-0.81713396,-0.94931906,0.13605575,-0.28334105,-0.02593651,0.86447525,0.5020058,0.32045233,0.49872327,-0.805348,-0.9467986,0.14196727,-0.28882104,-0.029708726,0.85505575,0.5176843,-0.12802124,8.684753,5.063217,-0.2543503,8.477607,4.922996,-0.023712158,0.015060425,-0.029464722,-13.859558,-28.919983,-22.439575,0,0.0,0.0,0.0,0.0
1.037605957,0.2904777,0.48726356,-0.82352716,-0.9565268,0.12442309,-0.26377133,-0.026060378,0.86434543,0.5022228,0.32016957,0.49814063,-0.805821,-0.9468991,0.14173226,-0.28860715,-0.029556124,0.85543436,0.51706725,-0.17468262,8.669189,5.099106,-0.25556502,8.476334,4.925123,-0.014556885,0.025604248,-0.034500122,-13.499451,-28.559875,-21.659851,0,0.0,0.0,0.0,0.0
1.045906739,0.2898367,0.48759085,-0.8235592,-0.95671517,0.12397155,-0.26330075,-0.026285116,0.86422586,0.502417,0.31957987,0.49793026,-0.806185,-0.9471005,0.14137979,-0.28811872,-0.029484762,0.85561514,0.51677215,-0.17468262,8.669189,5.099106,-0.25776893,8.475161,4.927028,-0.008758545,0.03262329,-0.03816223,-13.499451,-28.559875,-21.659851,0,0.0,0.0,0.0,0.0
1.05420752,0.29758412,0.48680082,-0.8212604,-0.9543238,0.1276748,-0.27012068,-0.026640702,0.864132,0.5025596,0.31898898,0.4977307,-0.8065421,-0.9473017,0.14102548,-0.28763047,-0.029419519,0.85578966,0.5164867,-0.24287415,8.672791,5.09671,-0.26125604,8.47424,4.9284263,-0.01272583,0.031707764,-0.03892517,-13.679504,-28.379822,-21.77887,0,0.0,0.0,0.0,0.0
1.062508301,0.29707295,0.4870678,-0.8212872,-0.9544733,0.12716192,-0.2698346,-0.026991282,0.86405724,0.5026695,0.31814596,0.49730667,-0.8071364,-0.9475887,0.1404884,-0.28694734,-0.029307524,0.85612446,0.515938,-0.30747986,8.591431,5.0608215,-0.26469406,8.473507,4.929504,-0.0017242432,0.035217285,-0.030075073,-13.679504,-28.379822,-21.77887,0,0.0,0.0,0.0,0.0
1.070809082,0.28616184,0.48863372,-0.82422596,-0.95778793,0.121227086,-0.26066482,-0.027451113,0.86402607,0.50269806,0.31731546,0.49690992,-0.8077075,-0.9478699,0.13995251,-0.28627938,-0.02921437,0.8564425,0.5154151,-0.35653687,8.589035,5.01416,-0.26920345,8.473202,4.9297843,-0.0011138916,0.023773193,-0.018310547,-13.798523,-28.858948,-21.899414,0,0.0,0.0,0.0,0.0
1.079109864,0.28587484,0.48878047,-0.82423854,-0.957863,0.12077947,-0.26059723,-0.027823756,0.8640058,0.50271255,0.3166961,0.49675223,-0.80804753,-0.94807816,0.13957202,-0.2857752,-0.029178645,0.8565961,0.5151618,-0.3756714,8.583054,4.9986115,-0.27285784,8.473002,4.929926,-0.00340271,0.022857666,-0.012664795,-13.798523,-28.858948,-21.899414,0,0.0,0.0,0.0,0.0
1.087410645,0.28564242,0.48889935,-0.82424873,-0.9579237,0.12042296,-0.260539,-0.028118884,0.8639883,0.50272614,0.31548226,0.49645185,-0.80870676,-0.9484844,0.13881639,-0.28479347,-0.029124498,0.856893,0.51467097,-0.39361572,8.608185,4.939987,-0.27575207,8.472831,4.9300594,-0.001876831,0.02041626,-0.0022735596,-13.798523,-28.858948,-21.899414,0,0.0,0.0,0.0,0.0
1.095711426,0.2913639,0.48818085,-0.8226703,-0.9561912,0.1231136,-0.26559594,-0.028376946,0.8640153,0.50266516,0.31430662,0.49616742,-0.8093387,-0.94887584,0.13807723,-0.2838472,-0.029084489,0.8571771,0.5141999,-0.39361572,8.608185,4.939987,-0.2782828,8.473096,4.9294615,-0.010726929,0.020263672,0.0042877197,-13.679504,-28.73993,-21.899414,0,0.0,0.0,0.0,0.0
1.104012207,0.30955708,0.48571408,-0.8174694,-0.9504514,0.13221675,-0.28135538,-0.028575119,0.8640605,0.50257623,0.31384957,0.49601293,-0.8096108,-0.9490276,0.13777363,-0.28348735,-0.029070366,0.85731536,0.51397014,-0.39242554,8.671585,4.914856,-0.2802262,8.473539,4.9285893,-0.013641357,0.008346558,0.0128479,-13.619995,-28.379822,-22.019958,0,0.0,0.0,0.0,0.0
1.112312989,0.30960727,0.48568746,-0.8174662,-0.95043147,0.13212809,-0.28146425,-0.028693397,0.864089,0.50252044,0.31367975,0.49560758,-0.8099247,-0.94908434,0.1375519,-0.283405,-0.029050976,0.8575853,0.5135206,-0.36131287,8.671585,4.914856,-0.2813861,8.473819,4.9280424,-0.005996704,-0.0012817383,0.008865356,-13.619995,-28.379822,-22.019958,0,0.0,0.0,0.0,0.0
1.12061377,0.3031428,0.4865296,-0.819386,-0.9525138,0.12883544,-0.27589616,-0.028665688,0.86411244,0.5024817,0.31351855,0.4952171,-0.810226,-0.94913805,0.13733552,-0.28333017,-0.02903713,0.85784554,0.5130866,-0.31825256,8.652451,4.9375916,-0.28111437,8.474049,4.9276624,-0.0024871826,-0.0026550293,0.008255005,-13.319397,-28.379822,-21.77887,0,0.0,0.0,0.0,0.0
1.128914551,0.30313307,0.48653454,-0.81938654,-0.9525185,0.1288818,-0.2758581,-0.028610481,0.8641027,0.50250155,0.3131083,0.49487695,-0.8105924,-0.9492739,0.13699505,-0.28303972,-0.02902268,0.85809624,0.5126681,-0.30389404,8.622543,4.9986115,-0.28057298,8.473953,4.927857,-0.005844116,-0.014709473,0.005355835,-13.319397,-28.379822,-21.77887,0,0.0,0.0,0.0,0.0
1.137215332,0.30297485,0.48661643,-0.81939656,-0.9525728,0.1289368,-0.27564538,-0.028483199,0.8640485,0.5026022,0.31290922,0.49471197,-0.8107699,-0.9493398,0.13683103,-0.28289798,-0.029014539,0.85821754,0.5124654,-0.2536316,8.585449,5.0644073,-0.27932477,8.473421,4.928844,0.0046844482,-0.0107421875,0.0021514893,-13.319397,-28.379822,-21.77887,0,0.0,0.0,0.0,0.0
1.145516114,0.32666123,0.48333198,-0.8122085,-0.9447154,0.1411718,-0.29594502,-0.028378755,0.86397964,0.5027265,0.31251663,0.49439472,-0.81111467,-0.9494697,0.13651516,-0.28261435,-0.02899359,0.8584506,0.5120761,-0.26200867,8.611771,5.124237,-0.27830052,8.472746,4.930063,0.0033111572,0.017807007,0.005508423,-13.439941,-28.019714,-22.079468,0,0.0,0.0,0.0,0.0
1.153816895,0.3275494,0.48330322,-0.8118679,-0.9444076,0.14165862,-0.29669365,-0.028384918,0.8639159,0.5028354,0.3128003,0.49417442,-0.81113976,-0.9493767,0.13661137,-0.2828803,-0.0289813,0.8585622,0.51188976,-0.29431152,8.620148,5.149353,-0.27836096,8.472121,4.931131,0.011260986,0.032928467,0.008865356,-13.439941,-27.778625,-21.958923,0,0.0,0.0,0.0,0.0
1.162117676,0.32737312,0.48339942,-0.81188166,-0.9444661,0.14151408,-0.29657647,-0.02847221,0.8638859,0.5028823,0.3133859,0.4937458,-0.8111747,-0.94918424,0.13681729,-0.28342605,-0.028957695,0.858776,0.51153237,-0.29431152,8.620148,5.149353,-0.279217,8.471827,4.9315906,0.02331543,0.04774475,0.011474609,-13.439941,-27.778625,-21.958923,0,0.0,0.0,0.0,0.0
1.170418457,0.34491554,0.48066983,-0.80621946,-0.93819606,0.15031908,-0.31175697,-0.028662,0.8639217,0.5028099,0.31394118,0.49333772,-0.8112083,-0.9490014,0.13700865,-0.28394562,-0.028938528,0.85897994,0.51119083,-0.33021545,8.616547,5.0859375,-0.2810782,8.4721775,4.93088,0.024536133,0.07814026,0.015594482,-13.679504,-27.719116,-22.37854,0,0.0,0.0,0.0,0.0
1.178719239,0.34495884,0.4806452,-0.80621564,-0.9381728,0.15011318,-0.31192625,-0.028902281,0.8639712,0.5027111,0.3145641,0.49308825,-0.81111854,-0.94879514,0.13728152,-0.28450218,-0.028933084,0.8590796,0.5110236,-0.35772705,8.640488,5.091919,-0.28343457,8.472663,4.929912,0.023010254,0.08332825,0.0178833,-13.679504,-27.719116,-22.37854,0,0.0,0.0,0.0,0.0
1.18702002,0.34506,0.48058787,-0.80620646,-0.9381269,0.14989148,-0.3121707,-0.029181996,0.86404157,0.502574,0.31577414,0.49260253,-0.8109436,-0.94839317,0.13780198,-0.2855889,-0.028932184,0.8592749,0.51069516,-0.33021545,8.608185,5.0536346,-0.28617764,8.473353,4.9285674,0.018432617,0.0901947,0.01864624,-13.679504,-27.719116,-22.37854,0,0.0,0.0,0.0,0.0
1.195320801,0.33440956,0.48211595,-0.80977446,-0.94197,0.14420532,-0.30314624,-0.029377867,0.8641581,0.5023623,0.31693962,0.49213323,-0.81077385,-0.948004,0.13829203,-0.28664216,-0.028942565,0.8594651,0.5103745,-0.2871399,8.573486,4.9423676,-0.28809845,8.474496,4.9264913,0.01751709,0.08866882,0.032852173,-13.679504,-27.89917,-22.259521,0,0.0,0.0,0.0,0.0
1.203621582,0.33316508,0.48208243,-0.810307,-0.942409,0.1434343,-0.30214548,-0.0294332,0.864305,0.50210613,0.31729004,0.4919339,-0.81075776,-0.9478865,0.13841332,-0.286972,-0.028951572,0.85955966,0.5102147,-0.22612,8.618942,4.902893,-0.2886411,8.475937,4.9239793,0.0152282715,0.081954956,0.030090332,-13.55896,-27.539063,-21.958923,0,0.0,0.0,0.0,0.0
1.211922364,0.3338109,0.48172304,-0.8102551,-0.9421798,0.14364597,-0.30275935,-0.029456265,0.86447024,0.5018202,0.31792012,0.49154538,-0.8107465,-0.9476747,0.13861734,-0.28757218,-0.028971266,0.859749,0.5098944,-0.20578003,8.678772,4.872986,-0.2888673,8.477557,4.9211755,0.0046844482,0.076156616,0.019866943,-13.55896,-27.539063,-21.958923,0,0.0,0.0,0.0,0.0
1.220223145,0.33432534,0.48143637,-0.81021327,-0.9419958,0.1437896,-0.3032628,-0.029501487,0.86460596,0.5015836,0.31855085,0.4911581,-0.8107337,-0.9474623,0.13882166,-0.288173,-0.0289911,0.85993737,0.50957555,-0.20578003,8.678772,4.872986,-0.28931075,8.4788885,4.9188547,-3.5095215E-4,0.05369568,0.011474609,-13.55896,-27.539063,-21.958923,0,0.0,0.0,0.0,0.0
1.228523926,0.34663448,0.4793001,-0.80629766,-0.937536,0.14999336,-0.3138921,-0.029509224,0.86473894,0.501354,0.3191771,0.4907748,-0.8107195,-0.94725084,0.13902359,-0.28877008,-0.029011946,0.8601236,0.50926006,-0.18424988,8.681168,4.8394775,-0.28938663,8.480192,4.916603,-0.0030975342,0.033691406,-5.950928E-4,-13.919067,-27.479553,-22.31903,0,0.0,0.0,0.0,0.0
1.236824707,0.34739864,0.4788589,-0.80623096,-0.9372511,0.15020181,-0.31464222,-0.029571868,0.86494714,0.5009909,0.319729,0.49054807,-0.8106392,-0.94706446,0.13924822,-0.28927293,-0.029022206,0.86021656,0.5091023,-0.23928833,8.731415,4.7030945,-0.29000098,8.482234,4.913043,-0.008590698,0.007736206,-0.005630493,-13.919067,-27.479553,-22.31903,0,0.0,0.0,0.0,0.0
1.245125489,0.34113505,0.4795704,-0.8084795,-0.93955004,0.14692819,-0.3092856,-0.029535798,0.86511517,0.5007028,0.32028502,0.49031702,-0.8105596,-0.9468762,0.13947259,-0.28978065,-0.02903354,0.8603119,0.50894046,-0.32661438,8.719452,4.5834503,-0.28964725,8.483882,4.9102173,-0.024627686,-0.03425598,-0.0015106201,-14.15863,-27.95868,-22.558594,0,0.0,0.0,0.0,0.0
1.25342627,0.3632924,0.47586384,-0.8009821,-0.93121266,0.15837595,-0.32826835,-0.029354736,0.865142,0.50066715,0.32111344,0.48989445,-0.81048733,-0.946595,0.13977525,-0.2905527,-0.029054092,0.86050355,0.5086153,-0.28953552,8.743378,4.853836,-0.28787163,8.484145,4.909868,-0.034713745,-0.09411621,-0.0034942627,-14.279175,-27.778625,-22.979736,0,0.0,0.0,0.0,0.0
1.261727051,0.36290148,0.47609672,-0.8010208,-0.9313816,0.15873876,-0.3276129,-0.028822392,0.8649473,0.5010343,0.32279634,0.4893533,-0.8101456,-0.94602203,0.14052975,-0.2920509,-0.029066501,0.8606885,0.5083015,-0.1375885,8.712265,5.145767,-0.28265113,8.482236,4.9134684,-0.03868103,-0.08282471,-0.012512207,-14.279175,-27.778625,-22.979736,0,0.0,0.0,0.0,0.0
1.270027832,0.36236954,0.47641352,-0.80107325,-0.9316021,0.15896544,-0.32687515,-0.028384808,0.86473125,0.5014322,0.32360443,0.48909527,-0.809979,-0.94574606,0.14090237,-0.29276434,-0.02906169,0.8607743,0.50815654,-0.1375885,8.712265,5.145767,-0.2783599,8.480117,4.91737,-0.04005432,-0.06251526,-0.033432007,-14.279175,-27.778625,-22.979736,0,0.0,0.0,0.0,0.0
1.278328614,0.3511739,0.47876608,-0.80464894,-0.9358884,0.15369079,-0.3170049,-0.028104054,0.8643854,0.5020438,0.32515055,0.4886064,-0.8096548,-0.9452164,0.14163283,-0.2941191,-0.029034771,0.860932,0.5078908,-0.071777344,8.636887,5.309677,-0.27560663,8.476726,4.9233675,-0.038986206,-0.011047363,-0.05130005,-14.399719,-28.259277,-23.098755,0,0.0,0.0,0.0,0.0
1.286629395,0.34986815,0.47952628,-0.804765,-0.93637705,0.15323327,-0.31578055,-0.028108291,0.86404514,0.5026289,0.32618606,0.48822275,-0.80946964,-0.9448607,0.14211877,-0.2950262,-0.028997673,0.86106956,0.5076597,-0.14715576,8.641678,5.3766785,-0.27564818,8.473389,4.929106,-0.03593445,0.01902771,-0.06825256,-14.399719,-28.259277,-23.098755,0,0.0,0.0,0.0,0.0
1.294930176,0.33726382,0.48223293,-0.8085201,-0.94097924,0.14669526,-0.3050227,-0.028485922,0.86367357,0.50324607,0.32666188,0.48805153,-0.80938107,-0.9446969,0.14234458,-0.29544175,-0.02897978,0.86112934,0.5075593,-0.14715576,8.641678,5.3766785,-0.27935147,8.469745,4.9351583,-0.03593445,0.07369995,-0.07298279,-14.279175,-28.439331,-22.918701,0,0.0,0.0,0.0,0.0
1.303230957,0.33547848,0.48314255,-0.8087196,-0.94159484,0.14535509,-0.30376112,-0.02920842,0.86339164,0.5036881,0.3270824,0.4878221,-0.8093495,-0.94455194,0.14251906,-0.2958207,-0.02896016,0.86123043,0.5073888,-0.3912201,8.617752,5.2139587,-0.28643677,8.46698,4.939493,0.005142212,0.08378601,-0.06365967,-13.919067,-28.49884,-22.799683,0,0.0,0.0,0.0,0.0
1.311531739,0.33436865,0.48375806,-0.8088113,-0.94196016,0.14409459,-0.30322897,-0.030144101,0.8632583,0.5038615,0.3274154,0.48763722,-0.80932635,-0.94443625,0.1426327,-0.29613516,-0.028970132,0.8613164,0.50724244,-0.46180725,8.616547,5.112259,-0.29561266,8.4656725,4.9411936,0.011871338,0.08546448,-0.058166504,-13.919067,-28.49884,-22.799683,0,0.0,0.0,0.0,0.0
1.31983252,0.3339919,0.4839667,-0.8088422,-0.9420617,0.14305435,-0.30340582,-0.031129913,0.86331433,0.5037055,0.32755452,0.48755974,-0.8093167,-0.9443873,0.14266229,-0.29627705,-0.028993793,0.8613553,0.5071749,-0.48693848,8.642868,4.997406,-0.30528018,8.466222,4.939664,0.011871338,0.07859802,-0.03831482,-13.919067,-28.49884,-22.799683,0,0.0,0.0,0.0,0.0
1.328133301,0.3314101,0.4844107,-0.8096379,-0.94294393,0.14095151,-0.30164436,-0.032000072,0.8634112,0.5034849,0.3278096,0.48741758,-0.80929905,-0.9442961,0.14267828,-0.29655963,-0.029078992,0.8614331,0.5070379,-0.5288086,8.682358,4.924423,-0.3138135,8.467172,4.9375005,0.03553772,0.07293701,-0.024719238,-14.15863,-28.619385,-22.918701,0,0.0,0.0,0.0,0.0
1.336434082,0.3317293,0.4842332,-0.80961347,-0.9428053,0.14036165,-0.30235216,-0.03277026,0.86360687,0.5030997,0.32795188,0.48729888,-0.80931294,-0.94424313,0.14260979,-0.29676127,-0.029195497,0.86151165,0.5068978,-0.5288086,8.682358,4.924423,-0.3213665,8.46909,4.9337225,0.023468018,0.04866028,-0.0065460205,-14.15863,-28.619385,-22.918701,0,0.0,0.0,0.0,0.0
1.344734864,0.34776798,0.4814854,-0.80450565,-0.93698883,0.14799634,-0.31646344,-0.033308644,0.86386853,0.5026148,0.3280272,0.4872377,-0.80931926,-0.9442148,0.14256464,-0.29687327,-0.029267535,0.86155367,0.5068221,-0.51086426,8.634506,4.759323,-0.3266462,8.471657,4.9289675,0.018432617,0.026062012,0.005050659,-13.978577,-28.49884,-23.098755,0,0.0,0.0,0.0,0.0
1.353035645,0.3364862,0.48289093,-0.8084512,-0.9410916,0.14187919,-0.3069476,-0.03351983,0.8641103,0.50218505,0.32881114,0.48701128,-0.80913734,-0.94393706,0.14278224,-0.29765087,-0.029428894,0.86164564,0.5066564,-0.4402771,8.568695,4.7042847,-0.32871726,8.474028,4.924753,0.004837036,-0.03929138,0.008102417,-14.399719,-28.73993,-23.15979,1,0.0,0.0,0.0,0.0
1.361336426,0.33724964,0.48245963,-0.80839056,-0.9408188,0.14216436,-0.3076511,-0.033504914,0.8643043,0.50185204,0.32896456,0.48692897,-0.8091246,-0.94388103,0.1427643,-0.29783717,-0.02951145,0.8616952,0.5065674,-0.4402771,8.568695,4.7042847,-0.328571,8.47593,4.9214873,-0.0056915283,-0.06541443,0.008255005,-14.399719,-28.73993,-23.15979,1,0.0,0.0,0.0,0.0
1.369637207,0.33762974,0.48224467,-0.8083602,-0.94070035,0.14276363,-0.30773583,-0.03299953,0.8643255,0.501849,0.32929233,0.4867521,-0.8090976,-0.9437617,0.14274073,-0.29822627,-0.029671075,0.861799,0.5063814,-0.21296692,8.630905,4.8969116,-0.32361487,8.476138,4.921458,-0.034713745,-0.09121704,-0.0027313232,-14.399719,-28.73993,-23.15979,1,0.0,0.0,0.0,0.0
1.377937989,0.34187615,0.48161447,-0.80694985,-0.93918276,0.14540483,-0.3111161,-0.032503624,0.86423665,0.50203454,0.32962227,0.48657364,-0.8090706,-0.9436423,0.142742,-0.29860318,-0.029804084,0.86189955,0.5062024,-0.16390991,8.779266,5.148163,-0.31875166,8.475266,4.923277,-0.079452515,-0.06907654,-0.022888184,-14.4592285,-28.73993,-23.278809,1,0.0,0.0,0.0,0.0
1.38623877,0.34087822,0.4821834,-0.8070324,-0.93955815,0.14539196,-0.3099867,-0.032134425,0.8639215,0.50260025,0.32986775,0.48647472,-0.80903,-0.9435548,0.142796,-0.29885375,-0.029858554,0.8619464,0.5061194,-0.16390991,8.779266,5.148163,-0.31513104,8.472176,4.9288244,-0.09320068,-0.037002563,-0.03816223,-14.4592285,-28.73993,-23.278809,1,0.0,0.0,0.0,0.0
1.394539551,0.3190572,0.48628068,-0.8134702,-0.9471945,0.13461906,-0.2910329,-0.03201508,0.86337054,0.5035535,0.33030444,0.48630506,-0.80895376,-0.94339913,0.1428999,-0.29929516,-0.029949326,0.8620249,0.50598025,-0.11605835,8.810379,5.371887,-0.3139607,8.466773,4.9381733,-0.1113739,0.028808594,-0.0460968,-14.6987915,-29.09851,-23.15979,1,0.0,0.0,0.0,0.0
1.402840332,0.31292498,0.48829925,-0.8146422,-0.94922876,0.1316255,-0.28572637,-0.032292288,0.86269265,0.50469655,0.32985985,0.48630667,-0.8091343,-0.9435521,0.14257139,-0.2989696,-0.030031523,0.8620784,0.5058843,-0.20817566,8.752945,5.493927,-0.31667918,8.460125,4.949383,-0.08770752,0.06652832,-0.05267334,-14.759827,-29.278564,-23.2193,1,0.0,0.0,0.0,0.0
1.411141114,0.31029585,0.48973748,-0.8147844,-0.9500771,0.13026889,-0.2835197,-0.032709174,0.8620831,0.5057103,0.32952213,0.48634896,-0.8092465,-0.94366866,0.14235269,-0.29870582,-0.030076839,0.8620907,0.5058606,-0.20817566,8.752945,5.493927,-0.32076743,8.454147,4.959324,-0.06707764,0.07859802,-0.045959473,-14.759827,-29.278564,-23.2193,1,0.0,0.0,0.0,0.0
1.419441895,0.3084607,0.4907379,-0.8148793,-0.9506537,0.12903795,-0.2821467,-0.033309717,0.8616992,0.50632495,0.32876322,0.48648873,-0.8094711,-0.94393,0.14187576,-0.2981064,-0.030181088,0.86209047,0.50585485,-0.31704712,8.5256195,5.2378845,-0.32665673,8.450382,4.965351,-0.031799316,0.06454468,-0.025024414,-14.759827,-29.278564,-23.2193,1,0.0,0.0,0.0,0.0
1.427742676,0.3189508,0.4894709,-0.81159633,-0.9471676,0.1340563,-0.29138035,-0.033822604,0.86165375,0.50636834,0.3279621,0.48666334,-0.8096911,-0.9442046,0.14136988,-0.2974762,-0.030304844,0.86207503,0.50587374,-0.3625183,8.470596,4.9698944,-0.33168644,8.449937,4.9657774,0.05218506,0.043014526,-0.00944519,-14.4592285,-28.979492,-23.15979,1,0.0,0.0,0.0,0.0
1.436043457,0.31929663,0.48928112,-0.81157476,-0.94703954,0.13389483,-0.29187,-0.034140803,0.8617866,0.50612074,0.32778227,0.48672062,-0.80972946,-0.9442649,0.14122415,-0.2973543,-0.030375123,0.86206657,0.505884,-0.3625183,8.470596,4.9698944,-0.33480692,8.45124,4.9633493,0.05218506,0.019805908,-0.00944519,-14.4592285,-28.979492,-23.15979,1,0.0,0.0,0.0,0.0
1.444344239,0.32161376,0.48846114,-0.81115365,-0.94624895,0.13475607,-0.29403007,-0.034314398,0.8621174,0.5055453,0.3274468,0.4868242,-0.8098029,-0.94437647,0.1409348,-0.29713714,-0.030524148,0.8620554,0.50589395,-0.4008026,8.476578,4.7940216,-0.3365093,8.454484,4.957706,0.050201416,-0.014404297,0.011001587,-14.6987915,-28.979492,-23.278809,1,0.0,0.0,0.0,0.0
1.45264502,0.32855046,0.48683187,-0.80935127,-0.9438625,0.13809325,-0.30009001,-0.034327447,0.86251086,0.50487286,0.3272161,0.48689047,-0.8098564,-0.9444516,0.1406905,-0.29701427,-0.030674301,0.8620579,0.50588065,-0.4283142,8.542374,4.7126617,-0.33663726,8.458343,4.951112,0.040267944,-0.02998352,0.022003174,-14.759827,-29.039001,-23.458862,1,0.0,0.0,0.0,0.0
1.460945801,0.32989836,0.48607245,-0.8092593,-0.9433961,0.13868003,-0.30128327,-0.03421739,0.86284494,0.5043092,0.32724273,0.48688942,-0.8098462,-0.94443995,0.14063852,-0.29707578,-0.03074749,0.862067,0.50586075,-0.4283142,8.542374,4.7126617,-0.335558,8.461618,4.945584,0.0074310303,-0.041290283,0.022460938,-14.759827,-29.039001,-23.458862,1,0.0,0.0,0.0,0.0
1.469246582,0.3306635,0.48564067,-0.8092062,-0.9431377,0.13919787,-0.3018527,-0.033952188,0.8630047,0.5040538,0.32734784,0.48685718,-0.80982304,-0.94439894,0.14056085,-0.2972426,-0.03088528,0.86209786,0.5057997,-0.39601135,8.585449,4.8047943,-0.33295724,8.463185,4.943079,-0.02784729,-0.05380249,0.027496338,-14.759827,-29.039001,-23.458862,1,0.0,0.0,0.0,0.0
1.477547364,0.32133052,0.48685583,-0.81223035,-0.94636977,0.1346372,-0.29369575,-0.03363106,0.8630436,0.5040087,0.32747912,0.4868091,-0.80979896,-0.9443495,0.14050679,-0.2974254,-0.031007122,0.86213386,0.5057309,-0.31704712,8.581863,4.8717804,-0.32980806,8.463567,4.942637,-0.03807068,-0.04937744,0.025665283,-15.058899,-29.09851,-23.399353,1,0.0,0.0,0.0,0.0
1.485848145,0.3213833,0.4868261,-0.8122273,-0.94636667,0.13503824,-0.29352164,-0.03321226,0.8629977,0.504115,0.32735616,0.48681068,-0.8098477,-0.9443904,0.1403892,-0.297351,-0.031059772,0.8621521,0.5056966,-0.31704712,8.581863,4.8717804,-0.32570103,8.463117,4.9436793,-0.03807068,-0.04937744,0.023986816,-15.058899,-29.09851,-23.399353,1,0.0,0.0,0.0,0.0
1.494148926,0.3228524,0.48666537,-0.8117409,-0.9458816,0.13620871,-0.2945424,-0.032777395,0.8629044,0.5043031,0.32711965,0.48681235,-0.8099423,-0.9444695,0.140177,-0.2971998,-0.031145262,0.86218566,0.50563407,-0.27278137,8.589035,4.9088745,-0.32143646,8.462202,4.945524,-0.044631958,-0.06297302,0.010391235,-14.99939,-28.979492,-23.339844,1,0.0,0.0,0.0,0.0
1.502449707,0.3226287,0.4867917,-0.8117539,-0.94597185,0.13649711,-0.29411867,-0.032372463,0.86278754,0.5045292,0.3270343,0.48680967,-0.8099783,-0.94449806,0.14009748,-0.2971467,-0.031177985,0.8622001,0.5056075,-0.27278137,8.589035,4.9088745,-0.31746542,8.461056,4.947741,-0.051208496,-0.067855835,0.007797241,-14.99939,-28.979492,-23.339844,1,0.0,0.0,0.0,0.0
1.510750489,0.3147374,0.48807403,-0.81407875,-0.94864607,0.13301611,-0.28701484,-0.03179889,0.86260676,0.5048746,0.3268598,0.48680946,-0.8100489,-0.94455683,0.13995472,-0.29702696,-0.031225378,0.8622234,0.50556475,-0.12322998,8.611771,4.9986115,-0.31184062,8.459283,4.9511285,-0.05088806,-0.068618774,-0.013427734,-15.119934,-29.278564,-23.399353,1,0.0,0.0,0.0,0.0
1.51905127,0.3141658,0.4883928,-0.81410825,-0.9488531,0.13329194,-0.2862007,-0.031264294,0.86238366,0.50528884,0.3263808,0.4868615,-0.81021076,-0.9447217,0.13968019,-0.29663163,-0.031248126,0.8622386,0.50553757,-0.071777344,8.647659,5.0644073,-0.30659798,8.457095,4.9551907,-0.057006836,-0.043426514,-0.037857056,-15.119934,-29.278564,-23.399353,1,0.0,0.0,0.0,0.0
1.527352051,0.31532302,0.4885524,-0.81356496,-0.94847953,0.13428706,-0.286973,-0.030950118,0.8621389,0.5057258,0.326137,0.48689294,-0.81029004,-0.9448059,0.1395526,-0.29642352,-0.03124845,0.86224145,0.50553256,-0.071777344,8.647659,5.0644073,-0.30351698,8.454695,4.959476,-0.06906128,-0.02281189,-0.046875,-15.7196045,-29.818726,-23.999023,1,0.0,0.0,0.0,0.0
1.535652832,0.31417185,0.48920307,-0.8136193,-0.94886255,0.13389592,-0.28588754,-0.030916762,0.8618307,0.5062528,0.32570964,0.48695967,-0.81042176,-0.9449537,0.13934445,-0.29605,-0.031236634,0.86223745,0.5055402,-0.09451294,8.683548,5.119446,-0.30318987,8.451673,4.9646444,-0.075027466,0.0042266846,-0.06535339,-15.7196045,-29.818726,-23.999023,1,0.0,0.0,0.0,0.0
1.543953614,0.3304857,0.48748183,-0.80817115,-0.94329214,0.14221616,-0.29995725,-0.03128869,0.86147314,0.5068382,0.32525367,0.48704973,-0.8105508,-0.9451111,0.13912937,-0.29564828,-0.03122399,0.8622213,0.5055685,-0.2679901,8.638092,5.1469574,-0.30683726,8.448166,4.970385,-0.06738281,0.01612854,-0.0677948,-16.079712,-29.87976,-24.598694,1,0.0,0.0,0.0,0.0
1.552254395,0.32900962,0.48834363,-0.80825317,-0.9437926,0.14126535,-0.29883063,-0.031753875,0.86114144,0.50737274,0.32535845,0.48705855,-0.8105034,-0.94507504,0.13919105,-0.2957347,-0.031225283,0.8622064,0.50559384,-0.2679901,8.638092,5.1469574,-0.31139916,8.444913,4.975627,-0.06188965,0.034606934,-0.06365967,-16.079712,-29.87976,-24.598694,1,0.0,0.0,0.0,0.0
1.560555176,0.31417286,0.4911462,-0.8124475,-0.94881594,0.13331626,-0.2863132,-0.032309186,0.86081487,0.50789165,0.32550323,0.4871096,-0.8104146,-0.94502455,0.13927303,-0.29585758,-0.03124616,0.8621643,0.50566435,-0.29431152,8.616547,5.191223,-0.31684488,8.44171,4.9807158,-0.047836304,0.055984497,-0.051757813,-16.738892,-30.778503,-25.079346,1,0.0,0.0,0.0,0.0
1.568855957,0.3129922,0.49182498,-0.81249243,-0.9491836,0.13229597,-0.28556642,-0.032959245,0.8605846,0.50823987,0.3250555,0.48727068,-0.8104975,-0.9451772,0.1390387,-0.2954797,-0.031288095,0.8621111,0.50575244,-0.36012268,8.6237335,5.129013,-0.32321978,8.439452,4.9841304,-0.02722168,0.0579834,-0.045028687,-16.738892,-30.778503,-25.079346,1,0.0,0.0,0.0,0.0
1.577156739,0.31746158,0.4915943,-0.8108965,-0.94767773,0.13422689,-0.28963757,-0.03354004,0.8604174,0.50848484,0.32481492,0.4873627,-0.8105386,-0.94525874,0.13890494,-0.2952815,-0.031321373,0.86208063,0.5058023,-0.36012268,8.6237335,5.129013,-0.32891545,8.437813,4.986533,-0.019592285,0.049118042,-0.028533936,-16.859436,-30.778503,-25.2594,1,0.0,0.0,0.0,0.0
1.58545752,0.31693667,0.49189878,-0.8109172,-0.94783556,0.13358165,-0.2894194,-0.03404141,0.8603438,0.5085761,0.3245242,0.48753121,-0.8105538,-0.9453558,0.13872111,-0.2950575,-0.03140882,0.86201495,0.5059088,-0.41156006,8.614166,5.0356903,-0.33383217,8.437091,4.9874277,-0.029373169,0.017501831,-0.012969971,-16.859436,-30.778503,-25.2594,1,0.0,0.0,0.0,0.0
1.593758301,0.3170406,0.49203688,-0.81079286,-0.9477911,0.13344571,-0.28962767,-0.034310665,0.86028594,0.50865585,0.3242244,0.48770535,-0.810569,-0.9454552,0.13851924,-0.29483375,-0.03151258,0.8619489,0.5060149,-0.41516113,8.609375,5.0021973,-0.3364727,8.436523,4.9882097,-0.024932861,-0.024337769,0.0032196045,-16.859436,-30.958557,-25.379944,1,0.0,0.0,0.0,0.0
1.602059082,0.3167965,0.49217778,-0.8108026,-0.9478713,0.133324,-0.2894209,-0.034347095,0.8602242,0.5087579,0.32408106,0.48779252,-0.81057376,-0.94550246,0.1384186,-0.29472932,-0.03156827,0.8619157,0.5060679,-0.41516113,8.609375,5.0021973,-0.33682996,8.435918,4.9892106,-0.027679443,-0.04449463,0.005508423,-16.859436,-30.958557,-25.379944,1,0.0,0.0,0.0,0.0
1.610359864,0.32037547,0.4917234,-0.8096714,-0.94667506,0.135382,-0.2923667,-0.034148607,0.86016273,0.50887525,0.3237931,0.48796728,-0.8105837,-0.9455974,0.13821843,-0.2945185,-0.031677783,0.86184895,0.5061748,-0.35891724,8.640488,5.047653,-0.33488345,8.435315,4.9903617,-0.01776123,-0.07090759,0.006881714,-17.03949,-31.3797,-25.79956,1,0.0,0.0,0.0,0.0
1.618660645,0.3204024,0.49170777,-0.8096702,-0.9466759,0.1356451,-0.2922418,-0.033869766,0.8601302,0.50894886,0.32365823,0.48811638,-0.81054777,-0.94564027,0.13810706,-0.29443294,-0.03177517,0.8617824,0.50628203,-0.3744812,8.700302,5.09671,-0.33214894,8.434996,4.9910836,-0.0043182373,-0.099472046,0.008102417,-17.03949,-31.3797,-25.79956,1,0.0,0.0,0.0,0.0
1.626961426,0.33486554,0.4894909,-0.8051483,-0.94167024,0.14346722,-0.3044247,-0.033500727,0.8601255,0.5089812,0.32359338,0.48818836,-0.81053036,-0.9456611,0.13805829,-0.29438904,-0.031816863,0.8617494,0.5063355,-0.3744812,8.700302,5.09671,-0.32852992,8.43495,4.9914007,-0.017456055,-0.09977722,0.0073394775,-16.738892,-31.3797,-26.039124,1,0.0,0.0,0.0,0.0
1.635262207,0.33494836,0.48944247,-0.80514324,-0.9416564,0.14390162,-0.30426228,-0.033057485,0.8600805,0.5090863,0.324041,0.488241,-0.8103197,-0.94550556,0.13827181,-0.29478806,-0.03188324,0.86168534,0.50644034,-0.33021545,8.682358,5.1338043,-0.3241832,8.434508,4.992431,-0.013946533,-0.084350586,-0.00730896,-16.738892,-31.3797,-26.039124,1,0.0,0.0,0.0,0.0
1.643562989,0.33382922,0.48966405,-0.80547327,-0.9420699,0.1437616,-0.30304614,-0.03259467,0.8599778,0.50928956,0.32447383,0.48828983,-0.81011707,-0.9453556,0.13849398,-0.29516464,-0.031929545,0.861622,0.50654525,-0.2679901,8.687149,5.2905273,-0.3196445,8.433501,4.994425,-0.021575928,-0.06755066,-0.011444092,-16.799927,-31.3797,-26.039124,1,0.0,0.0,0.0,0.0
1.65186377,0.3333769,0.48992833,-0.8054999,-0.9422409,0.14388712,-0.30245438,-0.032279912,0.85980624,0.50959915,0.3246613,0.4883179,-0.81002504,-0.9452908,0.13859901,-0.29532292,-0.031942803,0.8615892,0.50660014,-0.2679901,8.687149,5.2905273,-0.31655782,8.431819,4.9974604,-0.01852417,-0.051208496,-0.019073486,-16.799927,-31.3797,-26.039124,1,0.0,0.0,0.0,0.0
1.660164551,0.33211574,0.49040404,-0.80573136,-0.94269097,0.14346778,-0.30124846,-0.032136977,0.859605,0.50994736,0.3250071,0.4883827,-0.80984735,-0.94517154,0.13880765,-0.29560655,-0.031956118,0.86151886,0.5067189,-0.26919556,8.652451,5.3359985,-0.3151561,8.429846,5.0008755,-0.008758545,-0.008605957,-0.031295776,-16.319275,-31.13861,-25.679016,1,0.0,0.0,0.0,0.0
1.668465332,0.33143663,0.4907945,-0.80577326,-0.9429281,0.14317182,-0.30064657,-0.032191645,0.8594315,0.51023626,0.32528907,0.48846373,-0.80968523,-0.94507426,0.13899156,-0.29583102,-0.031963304,0.8614433,0.50684696,-0.2596283,8.598602,5.3156586,-0.31569222,8.428144,5.003709,-0.0011138916,0.024230957,-0.030227661,-16.319275,-31.13861,-25.679016,1,0.0,0.0,0.0,0.0
1.676766114,0.3081658,0.49443662,-0.8127522,-0.950781,0.13098289,-0.28081802,-0.032390073,0.859288,0.5104655,0.32541215,0.48851073,-0.80960745,-0.94503176,0.1390748,-0.2959277,-0.031967867,0.86140317,0.5069148,-0.2596283,8.598602,5.3156586,-0.31763813,8.426737,5.0059566,0.0016326904,0.040420532,-0.030685425,-15.899658,-31.019592,-24.899292,1,0.0,0.0,0.0,0.0
1.685066895,0.30772233,0.49468005,-0.8127722,-0.950916,0.13058355,-0.28054726,-0.032646455,0.8592087,0.5105826,0.32473108,0.48874822,-0.8097375,-0.94526535,0.13875766,-0.29532966,-0.031984556,0.8613196,0.5070557,-0.2368927,8.556732,5.2342987,-0.32015237,8.42596,5.0071054,0.009414673,0.06454468,-0.021972656,-15.899658,-31.019592,-24.899292,1,0.0,0.0,0.0,0.0
1.693367676,0.3197385,0.4931137,-0.80907744,-0.9469293,0.1365162,-0.29101261,-0.033050127,0.85918695,0.51059324,0.32405955,0.4889859,-0.80986315,-0.945495,0.13843732,-0.2947446,-0.032010663,0.8612363,0.50719565,-0.30508423,8.522034,5.149353,-0.32411104,8.425746,5.0072093,0.012939453,0.06790161,-0.025482178,-15.899658,-30.839539,-25.079346,1,0.0,0.0,0.0,0.0
1.701668457,0.3194741,0.49326164,-0.8090917,-0.9470043,0.13605124,-0.2909862,-0.033454403,0.8591758,0.5105857,0.3239732,0.4890687,-0.80984765,-0.94552386,0.13839935,-0.29466975,-0.032031354,0.8611954,0.5072638,-0.30508423,8.522034,5.149353,-0.32807562,8.425636,5.0071354,0.015533447,0.06088257,-0.017089844,-15.899658,-30.839539,-25.079346,1,0.0,0.0,0.0,0.0
1.709969239,0.29942504,0.49602774,-0.8150467,-0.953519,0.12525721,-0.27406576,-0.033853747,0.8592247,0.510477,0.3237955,0.48923492,-0.8098182,-0.94558275,0.13830738,-0.29452366,-0.032087415,0.8611157,0.50739545,-0.3517456,8.530411,5.091919,-0.33199185,8.426116,5.0060697,0.014923096,0.032165527,-0.0063934326,-15.899658,-31.019592,-24.719238,1,0.0,0.0,0.0,0.0
1.71827002,0.29983672,0.49580434,-0.81503123,-0.9533833,0.12525442,-0.27453876,-0.03403125,0.859354,0.5102475,0.3228346,0.48951048,-0.8100354,-0.94590896,0.13779594,-0.29371506,-0.032157,0.86104107,0.50751764,-0.3134613,8.5699005,4.9998016,-0.33373258,8.427384,5.003819,0.021026611,-0.007385254,0.0012359619,-15.899658,-31.019592,-24.719238,1,0.0,0.0,0.0,0.0
1.726570801,0.30412698,0.49502888,-0.81391233,-0.9520236,0.1274181,-0.27823687,-0.034028143,0.859483,0.51003045,0.32237664,0.48963952,-0.81013983,-0.9460639,0.13754758,-0.29333228,-0.032194313,0.86100745,0.50757235,-0.3134613,8.5699005,4.9998016,-0.3337021,8.428649,5.0016904,0.016448975,-0.02418518,0.0021514893,-15.658569,-31.318665,-24.899292,1,0.0,0.0,0.0,0.0
1.734871582,0.30472723,0.4947063,-0.81388396,-0.9518364,0.12776849,-0.27871615,-0.03389392,0.8596167,0.50981396,0.32165644,0.48985705,-0.8102945,-0.94630647,0.13714987,-0.29273525,-0.03226663,0.86094713,0.50767004,-0.30508423,8.603394,5.0081787,-0.3323858,8.42996,4.9995675,0.012023926,-0.037460327,-0.0010528564,-15.658569,-31.318665,-24.899292,1,0.0,0.0,0.0,0.0
1.743172364,0.3161717,0.4929088,-0.81060237,-0.9481027,0.13380638,-0.2884385,-0.03371011,0.85973054,0.5096341,0.32098806,0.49005252,-0.8104413,-0.9465312,0.1367811,-0.2921807,-0.032330837,0.86089456,0.5077551,-0.2715912,8.614166,5.009369,-0.33058327,8.431077,4.997803,0.009719849,-0.03593445,0.003982544,-15.658569,-31.199646,-25.079346,1,0.0,0.0,0.0,0.0
1.751473145,0.31670305,0.49261773,-0.810572,-0.94793427,0.13422835,-0.28879657,-0.033464555,0.8598317,0.5094797,0.32089186,0.49010983,-0.81044483,-0.94656295,0.1367219,-0.29210573,-0.03235833,0.8608714,0.5077927,-0.2715912,8.614166,5.009369,-0.3281752,8.432069,4.9962893,0.0019378662,-0.034561157,-0.0028839111,-15.658569,-31.199646,-25.079346,1,0.0,0.0,0.0,0.0
1.759773926,0.29180422,0.4958515,-0.81791306,-0.9559003,0.12146574,-0.2673961,-0.03324035,0.8598705,0.50942874,0.32072604,0.4902094,-0.81045026,-0.9466176,0.13662358,-0.29197446,-0.03240201,0.8608303,0.5078596,-0.2763672,8.651245,5.0859375,-0.32597652,8.432449,4.9957895,-0.004470825,-0.024795532,-0.0074768066,-15.658569,-31.559753,-24.719238,1,0.0,0.0,0.0,0.0
1.768074707,0.2918417,0.4958317,-0.8179116,-0.9558941,0.12161517,-0.26735052,-0.0330904,0.85986084,0.50945497,0.31958628,0.49044162,-0.8107599,-0.9470019,0.13602774,-0.29100496,-0.03243512,0.86079234,0.50792176,-0.30029297,8.597412,5.1050873,-0.32450595,8.432354,4.9960465,-4.5776367E-5,-0.014099121,-0.012054443,-15.658569,-31.559753,-24.719238,1,0.0,0.0,0.0,0.0
1.776375489,0.3060028,0.49397755,-0.81384796,-0.9514569,0.12900503,-0.27944148,-0.033047356,0.85985106,0.5094743,0.319034,0.49055347,-0.81090975,-0.94718766,0.13574152,-0.2905337,-0.032448187,0.8607738,0.50795233,-0.30029297,8.597412,5.1050873,-0.32408386,8.432259,4.996236,0.007736206,-0.013336182,-0.015716553,-15.658569,-31.619263,-25.079346,1,0.0,0.0,0.0,0.0
1.78467627,0.30601978,0.4939685,-0.813847,-0.95145017,0.12898079,-0.27947527,-0.033081356,0.8598599,0.5094571,0.31851923,0.49069092,-0.8110289,-0.94736004,0.1354762,-0.290095,-0.03247187,0.86073726,0.5080127,-0.31225586,8.549561,5.0847473,-0.3244173,8.432345,4.9960675,0.010650635,0.0016326904,-0.012664795,-15.658569,-31.619263,-25.079346,1,0.0,0.0,0.0,0.0
1.792977051,0.30258515,0.49431103,-0.8149226,-0.9525485,0.12716943,-0.2765487,-0.033067845,0.85993284,0.50933486,0.3180254,0.49082237,-0.8111432,-0.94752514,0.1352203,-0.28967503,-0.032495957,0.8607026,0.50807005,-0.25483704,8.553146,5.0309143,-0.3242848,8.433061,4.9948688,0.017974854,0.0054473877,-7.4768066E-4,-15.658569,-31.858826,-25.138855,1,0.0,0.0,0.0,0.0
1.801277832,0.30295834,0.49411297,-0.8149041,-0.9524313,0.12734675,-0.27687103,-0.033030182,0.86002046,0.5091894,0.31771737,0.4908935,-0.8112208,-0.947628,0.13506009,-0.28941292,-0.032507375,0.86068714,0.5080954,-0.25483704,8.553146,5.0309143,-0.32391545,8.43392,4.9934425,0.0074310303,0.013534546,0.003982544,-15.658569,-31.858826,-25.138855,1,0.0,0.0,0.0,0.0
1.809578614,0.30326965,0.49394768,-0.8148885,-0.9523344,0.12752475,-0.27712205,-0.03296537,0.860089,0.5090778,0.31742302,0.49095905,-0.8112964,-0.9477263,0.13490652,-0.28916258,-0.03251781,0.86067384,0.50811726,-0.27038574,8.559128,4.9495544,-0.32327986,8.434592,4.9923477,0.003616333,0.01902771,0.005508423,-15.658569,-31.858826,-25.138855,1,0.0,0.0,0.0,0.0
1.817879395,0.29840827,0.49442345,-0.81639326,-0.95386815,0.12492973,-0.27299827,-0.03298496,0.8601965,0.50889486,0.31686372,0.4910794,-0.81144214,-0.9479129,0.13461527,-0.2886865,-0.032535497,0.8606508,0.50815517,-0.29193115,8.654846,4.9507446,-0.32347196,8.435646,4.990554,-0.010421753,0.028503418,-0.0027313232,-15.658569,-32.159424,-25.19989,1,0.0,0.0,0.0,0.0
1.826180176,0.28433943,0.4961847,-0.8203364,-0.9581529,0.11754845,-0.26100865,-0.033079214,0.86022276,0.50884444,0.316135,0.49121538,-0.8116442,-0.94815564,0.1342332,-0.28806686,-0.032553267,0.8606329,0.5081844,-0.30389404,8.687149,5.0416718,-0.32439628,8.435904,4.9900594,-0.008132935,0.02255249,-0.010681152,-15.779114,-32.51953,-25.138855,1,0.0,0.0,0.0,0.0
1.834480957,0.28411368,0.49630052,-0.8203445,-0.9582124,0.11726999,-0.2609149,-0.033290405,0.86019385,0.50887936,0.31550246,0.49132022,-0.8118267,-0.9483658,0.13390145,-0.28752846,-0.03256377,0.8606247,0.50819755,-0.37208557,8.657227,5.091919,-0.32646737,8.43562,4.9904017,-0.0105896,0.021026611,-0.0074768066,-15.779114,-32.51953,-25.138855,1,0.0,0.0,0.0,0.0
1.842781739,0.28370363,0.49651083,-0.82035923,-0.9583288,0.116973326,-0.26062098,-0.033440977,0.86011297,0.5090063,0.3142657,0.49152812,-0.81218046,-0.94877535,0.13324657,-0.2864796,-0.032592516,0.8606076,0.5082246,-0.33499146,8.583054,5.144562,-0.32794395,8.434827,4.9916472,-0.007980347,0.018112183,-0.009613037,-15.779114,-32.51953,-25.138855,1,0.0,0.0,0.0,0.0
1.85108252,0.2876336,0.49616373,-0.8192,-0.9571525,0.11894913,-0.2640271,-0.03355752,0.8600423,0.509118,0.3130613,0.4917357,-0.8125199,-0.9491724,0.13260585,-0.2854602,-0.032626074,0.860588,0.50825566,-0.33499146,8.583054,5.144562,-0.32908687,8.434134,4.9927425,0.012329102,0.020721436,0.0029144287,-16.079712,-32.87964,-25.559998,1,0.0,0.0,0.0,0.0
1.859383301,0.28715196,0.49625266,-0.819315,-0.9572971,0.11870961,-0.26361015,-0.033556677,0.860024,0.5091489,0.31255493,0.49182793,-0.812659,-0.9493386,0.13233422,-0.2850332,-0.032644674,0.8605771,0.50827295,-0.2715912,8.542374,5.119446,-0.32907858,8.433954,4.9930453,0.015533447,0.026367188,0.001083374,-16.079712,-32.398987,-25.2594,1,0.0,0.0,0.0,0.0
1.867684082,0.2873144,0.49616775,-0.8193094,-0.9572481,0.11876949,-0.26376063,-0.03356056,0.8600647,0.5090799,0.31155297,0.4920104,-0.8129333,-0.9496666,0.13179752,-0.28418776,-0.032680746,0.8605552,0.5083078,-0.22492981,8.551941,5.09552,-0.32911667,8.434354,4.992368,0.023773193,0.024383545,9.3078613E-4,-16.079712,-32.398987,-25.2594,1,0.0,0.0,0.0,0.0
1.875984864,0.26749074,0.49828687,-0.8247175,-0.96297944,0.108526334,-0.24676429,-0.033455834,0.8601931,0.50886977,0.31059688,0.4921815,-0.8131956,-0.9499786,0.13128418,-0.28338173,-0.03271553,0.8605358,0.50833833,-0.19621277,8.605789,5.024933,-0.32808965,8.435613,4.990308,0.002090454,0.01828003,-0.0018157959,-16.079712,-32.57904,-24.899292,1,0.0,0.0,0.0,0.0
1.884285645,0.2678933,0.4980826,-0.8247102,-0.9628711,0.108780086,-0.24707498,-0.0333517,0.8602793,0.50873077,0.3097406,0.49231383,-0.813442,-0.9502576,0.13083209,-0.28265435,-0.03273032,0.86052895,0.508349,-0.23091125,8.638092,5.0321045,-0.32706845,8.436459,4.988945,0.0054473877,0.013534546,-0.0076141357,-16.079712,-32.57904,-24.899292,1,0.0,0.0,0.0,0.0
1.892586426,0.26819265,0.49793062,-0.8247047,-0.96278954,0.108942434,-0.24732162,-0.033303674,0.86034685,0.50861996,0.30809423,0.49256095,-0.8139175,-0.95079184,0.12996428,-0.28125474,-0.032754906,0.86051905,0.5083642,-0.2596283,8.695511,5.0237274,-0.32659748,8.43712,4.987858,0.0059051514,-0.008758545,-0.016937256,-16.079712,-32.57904,-24.899292,1,0.0,0.0,0.0,0.0
1.900887207,0.2809644,0.4963904,-0.82137424,-0.95913756,0.11546648,-0.2583074,-0.03338011,0.860386,0.50854856,0.30652395,0.49279055,-0.8143712,-0.9512984,0.12913658,-0.27991962,-0.03277663,0.8605122,0.50837433,-0.3409729,8.671585,5.083557,-0.32734707,8.437505,4.987158,-0.002029419,-0.024642944,-0.019378662,-16.319275,-32.759094,-25.379944,1,0.0,0.0,0.0,0.0
1.909187989,0.2619219,0.49864724,-0.82628554,-0.96450865,0.10556118,-0.24203272,-0.033465277,0.86035323,0.5085984,0.30601487,0.49286634,-0.81451684,-0.95146185,0.12886426,-0.2794892,-0.0327887,0.86050963,0.5083779,-0.37327576,8.6440735,5.1541443,-0.32818228,8.437183,4.9876466,-0.0026397705,-0.027999878,-0.017089844,-15.9591675,-32.27997,-24.539185,1,0.0,0.0,0.0,0.0
1.91748877,0.26173097,0.49874356,-0.826288,-0.9645592,0.10544968,-0.24188015,-0.03350435,0.86031115,0.50866705,0.30428052,0.49311614,-0.81501526,-0.9520171,0.12794706,-0.27801624,-0.032815486,0.8605034,0.5083868,-0.37327576,8.6440735,5.1541443,-0.32856542,8.43677,4.98832,-0.0026397705,-0.027694702,-0.0066986084,-15.9591675,-32.27997,-24.539185,1,0.0,0.0,0.0,0.0
1.925789551,0.24338157,0.50082743,-0.8306247,-0.9693533,0.09605226,-0.2261155,-0.033461455,0.86020106,0.508856,0.30260646,0.4933583,-0.81549186,-0.95254964,0.12706149,-0.27659482,-0.032842748,0.86049575,0.5083979,-0.3517456,8.596222,5.248657,-0.3281448,8.435691,4.990173,0.0017852783,-0.019592285,0.0012359619,-16.139221,-32.159424,-24.119568,1,0.0,0.0,0.0,0.0
1.934090332,0.24301913,0.50100744,-0.8306222,-0.96944606,0.09595302,-0.2257594,-0.033406418,0.8601073,0.50901806,0.30143246,0.49352658,-0.81582475,-0.95292133,0.12644638,-0.27559444,-0.03285511,0.8604899,0.50840706,-0.36489868,8.600998,5.24028,-0.32760504,8.434772,4.991762,0.007736206,-0.007080078,7.7819824E-4,-16.139221,-32.159424,-24.119568,1,0.0,0.0,0.0,0.0
1.942391114,0.24278122,0.5011255,-0.8306206,-0.9695058,0.09585896,-0.22554272,-0.03340281,0.86004895,0.5091169,0.29913914,0.49385813,-0.816468,-0.95364296,0.1252487,-0.27363822,-0.03287691,0.8604748,0.50843114,-0.36849976,8.581863,5.194824,-0.3275697,8.434199,4.992731,0.015380859,0.0057525635,0.0047454834,-16.139221,-32.159424,-24.119568,1,0.0,0.0,0.0,0.0
1.950691895,0.2501,0.5003672,-0.8289044,-0.9676424,0.09960739,-0.23183262,-0.033436455,0.8600645,0.50908846,0.29692554,0.49417892,-0.81708163,-0.9543338,0.12409416,-0.27174932,-0.032897707,0.86045796,0.5084583,-0.3481598,8.599808,5.161316,-0.3278996,8.434352,4.992452,0.015533447,0.03475952,0.0062713623,-15.9591675,-31.97937,-24.119568,1,0.0,0.0,0.0,0.0
1.958992676,0.24907653,0.50045496,-0.8291596,-0.9679029,0.09898353,-0.23101115,-0.033537522,0.86008555,0.5090463,0.29599565,0.4943145,-0.8173369,-0.95462215,0.12360791,-0.27095664,-0.032908477,0.86045,0.508471,-0.36849976,8.636887,5.1050873,-0.32889074,8.434558,4.992039,0.013702393,0.043014526,0.0013885498,-15.9591675,-31.619263,-23.878479,1,0.0,0.0,0.0,0.0
1.967293457,0.24931936,0.5003329,-0.8291604,-0.96783364,0.098907545,-0.23133396,-0.033733778,0.86016524,0.50889856,0.29415047,0.49458078,-0.8178419,-0.95519155,0.12263942,-0.26938576,-0.032933358,0.8604356,0.50849384,-0.29551697,8.657227,5.0321045,-0.33081537,8.43534,4.99059,0.023010254,0.045913696,3.2043457E-4,-15.9591675,-31.619263,-23.878479,1,0.0,0.0,0.0,0.0
1.975594239,0.24986991,0.50005597,-0.82916164,-0.9676869,0.099010594,-0.23190291,-0.03386867,0.8603144,0.5086374,0.29325974,0.49470696,-0.81808543,-0.95546484,0.122167766,-0.2686298,-0.032949354,0.8604302,0.508502,-0.29551697,8.657227,5.0321045,-0.3321382,8.436803,4.9880295,0.023010254,0.04484558,-0.0034942627,-15.9591675,-31.619263,-23.878479,1,0.0,0.0,0.0,0.0
1.98389502,0.26688483,0.49801883,-0.8250756,-0.96312857,0.10762648,-0.24657667,-0.033999857,0.8604614,0.50838006,0.29155228,0.4949392,-0.81855506,-0.95598596,0.12125583,-0.26718497,-0.032985747,0.8604256,0.5085074,-0.2859497,8.667999,4.9794617,-0.3334247,8.438244,4.985505,0.021636963,0.029724121,-0.004562378,-15.59906,-31.498718,-24.058533,1,0.0,0.0,0.0,0.0
1.992195801,0.26750162,0.49770534,-0.825065,-0.96295536,0.10782078,-0.24716735,-0.03405738,0.8606184,0.5081103,0.29057893,0.49506828,-0.8188231,-0.9562809,0.12071769,-0.26637205,-0.033025913,0.860427,0.50850236,-0.24765015,8.636887,4.9710846,-0.3339888,8.439784,4.9828596,0.0033111572,0.019958496,-0.01586914,-15.59906,-31.498718,-24.058533,1,0.0,0.0,0.0,0.0
2.000496582,0.26685548,0.49760717,-0.8253334,-0.9631326,0.10738628,-0.2466652,-0.03411288,0.8607295,0.5079183,0.290119,0.4951243,-0.81895226,-0.9564198,0.120460376,-0.26598948,-0.03304656,0.86043084,0.50849456,-0.21894836,8.620148,5.0189514,-0.33453307,8.440873,4.980977,7.171631E-4,0.015213013,-0.014801025,-15.779114,-32.03888,-24.41864,1,0.0,0.0,0.0,0.0
2.008797364,0.26390183,0.4978661,-0.8261266,-0.9639435,0.10577455,-0.24418159,-0.03418656,0.8607794,0.5078289,0.28920093,0.49522924,-0.81921357,-0.9566964,0.119943716,-0.26522738,-0.033088826,0.86044264,0.50847185,-0.275177,8.632111,5.0105743,-0.33525565,8.441362,4.9801,0.002243042,-0.011047363,-0.030532837,-15.658569,-31.91986,-24.238586,1,0.0,0.0,0.0,0.0
2.017098145,0.26381233,0.49791113,-0.82612807,-0.9639622,0.10559317,-0.24418625,-0.034349564,0.8607756,0.50782424,0.2882026,0.4953413,-0.8194975,-0.956996,0.1193837,-0.2643975,-0.03313235,0.860456,0.5084464,-0.275177,8.632111,5.0105743,-0.33685416,8.441325,4.980055,0.0033111572,-0.019454956,-0.03236389,-15.658569,-31.91986,-24.238586,1,0.0,0.0,0.0,0.0
2.025398926,0.26377285,0.49793097,-0.8261288,-0.9639679,0.10544969,-0.24422573,-0.034492526,0.86078167,0.5078042,0.28771657,0.4953964,-0.819635,-0.9571414,0.11910846,-0.263995,-0.03315672,0.8604624,0.50843394,-0.34336853,8.604584,5.066803,-0.33825615,8.441385,4.979859,0.005142212,-0.02128601,-0.025787354,-15.658569,-31.91986,-24.238586,1,0.0,0.0,0.0,0.0
2.033699707,0.2627293,0.49807048,-0.82637715,-0.96424663,0.10476297,-0.24341972,-0.034666445,0.8607848,0.50778705,0.28677157,0.49550384,-0.8199012,-0.95742327,0.118568584,-0.26321533,-0.033209678,0.8604751,0.50840896,-0.39361572,8.586639,5.1015015,-0.3399617,8.441416,4.97969,0.016906738,-0.024642944,-0.021972656,-15.539551,-31.91986,-24.179077,1,0.0,0.0,0.0,0.0
2.042000489,0.26271832,0.49807593,-0.8263772,-0.9642448,0.10464153,-0.2434788,-0.034797568,0.8607964,0.50775844,0.28582275,0.49561277,-0.8201666,-0.95770484,0.118023,-0.26243463,-0.033267427,0.8604874,0.5083844,-0.38285828,8.544769,5.112259,-0.3412476,8.441529,4.979409,0.017822266,-0.011657715,-0.016326904,-15.539551,-31.91986,-24.179077,1,0.0,0.0,0.0,0.0
2.05030127,0.26781344,0.49748278,-0.82509816,-0.96283567,0.10710246,-0.2479447,-0.034978174,0.86083674,0.5076776,0.2853623,0.49566567,-0.8202951,-0.9578411,0.11775597,-0.26205713,-0.03329807,0.86049354,0.50837207,-0.43788147,8.545959,5.0847473,-0.3430187,8.441925,4.9786167,0.017822266,0.008651733,0.0012359619,-15.899658,-32.63855,-24.839783,1,0.0,0.0,0.0,0.0
2.058602051,0.29349914,0.49437132,-0.81820244,-0.95531356,0.12022503,-0.27004063,-0.03513192,0.8608966,0.50756556,0.28466904,0.49574193,-0.8204898,-0.95804507,0.11733459,-0.2615,-0.033364687,0.86050713,0.50834465,-0.44984436,8.531616,5.0907288,-0.34452644,8.442512,4.977518,0.025604248,0.025146484,0.020935059,-16.079712,-32.458496,-25.379944,1,0.0,0.0,0.0,0.0
2.066902832,0.29373628,0.49424636,-0.81819284,-0.9552367,0.1202187,-0.27031526,-0.03524025,0.8609692,0.50743484,0.2850192,0.4956881,-0.8204007,-0.9579385,0.11744934,-0.26183864,-0.033434782,0.8605225,0.508314,-0.35533142,8.545959,5.0117645,-0.34558883,8.443224,4.976236,0.027282715,0.025909424,0.028717041,-16.079712,-32.458496,-25.379944,1,0.0,0.0,0.0,0.0
2.075203614,0.29445148,0.4938691,-0.8181636,-0.9550187,0.12054762,-0.27093837,-0.035180435,0.8611397,0.5071497,0.2851937,0.49565947,-0.8203574,-0.9578853,0.117504835,-0.26200834,-0.033470955,0.8605314,0.50829655,-0.35533142,8.571091,4.967499,-0.3450022,8.444896,4.9734397,0.027282715,0.037368774,0.025817871,-16.079712,-32.458496,-25.379944,1,0.0,0.0,0.0,0.0
2.083504395,0.3023626,0.4925643,-0.8160621,-0.9525441,0.124554135,-0.2777519,-0.03516676,0.86131686,0.5068497,0.28556073,0.49558887,-0.8202724,-0.9577736,0.11762563,-0.26236233,-0.033538785,0.8605556,0.5082512,-0.24047852,8.600998,4.8753815,-0.34486812,8.446633,4.9704976,0.033706665,0.05003357,0.025970459,-16.558838,-32.57904,-25.79956,1,0.0,0.0,0.0,0.0
2.091805176,0.3034643,0.49196604,-0.8160139,-0.95219815,0.12508252,-0.2786984,-0.035041105,0.86158204,0.5064074,0.2862278,0.4954709,-0.8201111,-0.95757216,0.11790122,-0.2629731,-0.03360342,0.86058575,0.50819576,-0.24047852,8.600998,4.8753815,-0.34363586,8.449234,4.96616,0.03050232,0.050338745,0.022003174,-16.558838,-32.57904,-25.79956,1,0.0,0.0,0.0,0.0
2.100105957,0.31822535,0.4894806,-0.8118752,-0.9473718,0.13265029,-0.29136,-0.034919616,0.86186576,0.5059328,0.2865734,0.49540186,-0.82003206,-0.95746773,0.118045606,-0.2632882,-0.033632275,0.8606057,0.50816005,-0.22970581,8.604584,4.823929,-0.34244445,8.452016,4.961506,0.021484375,0.03996277,0.017578125,-16.19873,-32.458496,-25.91858,1,0.0,0.0,0.0,0.0
2.108406739,0.30098695,0.4914183,-0.8172606,-0.95299375,0.12374155,-0.27657005,-0.034782473,0.86208826,0.50556314,0.28783283,0.4951757,-0.8197276,-0.9570881,0.1186285,-0.26440424,-0.033683486,0.8606558,0.50807196,-0.20698547,8.620148,4.8562317,-0.34109956,8.454198,4.957881,0.009719849,0.016586304,0.0030670166,-16.079712,-32.159424,-25.2594,1,0.0,0.0,0.0,0.0
2.11670752,0.30169746,0.4910372,-0.8172277,-0.9527744,0.1241417,-0.277146,-0.034636978,0.8622478,0.5053009,0.28809637,0.49510106,-0.8196801,-0.9570081,0.11873145,-0.26464775,-0.033705585,0.86068445,0.50802183,-0.20698547,8.620148,4.8562317,-0.3396727,8.455763,4.955309,-0.009674072,0.008041382,0.0029144287,-16.079712,-32.159424,-25.2594,1,0.0,0.0,0.0,0.0
2.125008301,0.30200404,0.4908726,-0.8172133,-0.9526815,0.12436368,-0.27736568,-0.03451956,0.8623096,0.5052036,0.28863597,0.4949414,-0.81958663,-0.9568441,0.11894727,-0.2651431,-0.033742703,0.8607465,0.50791425,-0.22851563,8.682358,4.960327,-0.33852124,8.456368,4.954355,-0.011352539,-0.0063171387,-0.015258789,-16.079712,-32.159424,-25.2594,1,0.0,0.0,0.0,0.0
2.133309082,0.307502,0.49011484,-0.81561625,-0.95092326,0.12724017,-0.28205484,-0.034460112,0.86232096,0.5051882,0.28916642,0.49478137,-0.8194963,-0.95668286,0.11916332,-0.26562753,-0.03377366,0.8608086,0.5078069,-0.2536316,8.684753,4.989029,-0.33793828,8.45648,4.954204,-0.014404297,-0.011962891,-0.017547607,-15.899658,-31.858826,-25.138855,1,0.0,0.0,0.0,0.0
2.141609864,0.30752024,0.4901051,-0.81561536,-0.9509193,0.12729411,-0.28204402,-0.034408152,0.8623185,0.5051958,0.28953418,0.49468935,-0.81942195,-0.9565711,0.1193261,-0.2659566,-0.03378747,0.86083895,0.5077545,-0.2536316,8.684753,4.989029,-0.33742872,8.456456,4.9542785,-0.013793945,-0.017456055,-0.021972656,-15.899658,-31.858826,-25.138855,1,0.0,0.0,0.0,0.0
2.149910645,0.31536937,0.489015,-0.813269,-0.9483463,0.13136555,-0.28876013,-0.034372497,0.8623268,0.50518423,0.29024827,0.4945104,-0.81927735,-0.95635384,0.11964393,-0.26659453,-0.03381221,0.86089766,0.50765336,-0.26200867,8.672791,5.0201416,-0.33707905,8.456537,4.954165,0.0019378662,-0.01928711,-0.02885437,-16.139221,-32.099915,-25.559998,1,0.0,0.0,0.0,0.0
2.158211426,0.30304858,0.49068153,-0.8169414,-0.9523537,0.12498343,-0.27821139,-0.034409035,0.8623287,0.5051784,0.29124698,0.4942982,-0.81905097,-0.95604944,0.12011185,-0.2674747,-0.03383454,0.86095434,0.5075557,-0.27876282,8.606979,5.03331,-0.33743736,8.456556,4.9541078,-0.0038604736,-0.0067749023,-0.03236389,-15.9591675,-31.799316,-25.019836,1,0.0,0.0,0.0,0.0
2.166512207,0.30293855,0.49074087,-0.81694657,-0.9523848,0.12484525,-0.2781668,-0.034515895,0.86231494,0.50519454,0.29148334,0.4942264,-0.8190102,-0.9559769,0.1202099,-0.26768953,-0.0338461,0.8609819,0.5075082,-0.27876282,8.606979,5.03331,-0.3384853,8.456421,4.954266,-0.007217407,0.0030059814,-0.033432007,-15.9591675,-31.799316,-25.019836,1,0.0,0.0,0.0,0.0
2.174812989,0.3027751,0.49082893,-0.8169543,-0.95243,0.12461247,-0.27811676,-0.03470504,0.8622985,0.5052096,0.29193774,0.49408934,-0.81893104,-0.9558373,0.120394625,-0.2681047,-0.03387278,0.86103475,0.5074168,-0.35533142,8.585449,5.029709,-0.3403402,8.45626,4.9544144,-0.0027923584,0.015060425,-0.031143188,-15.9591675,-31.799316,-25.019836,1,0.0,0.0,0.0,0.0
2.18311377,0.30228305,0.49101302,-0.8170257,-0.9525722,0.124054156,-0.27787894,-0.03508676,0.86227417,0.50522494,0.2923675,0.49396092,-0.8188552,-0.9557048,0.12056259,-0.26850146,-0.033905905,0.86108494,0.5073294,-0.43070984,8.614166,5.01416,-0.34408358,8.456021,4.954564,-0.020355225,0.01322937,-0.029464722,-15.779114,-31.318665,-24.659729,1,0.0,0.0,0.0,0.0
2.191414551,0.30185035,0.49124655,-0.8170454,-0.95269525,0.123545505,-0.2776836,-0.03546882,0.8622142,0.5053005,0.29256603,0.4939022,-0.8188197,-0.9556432,0.120632805,-0.2686891,-0.033929624,0.8611088,0.5072874,-0.43070984,8.614166,5.01416,-0.34783033,8.455433,4.9553056,-0.020355225,0.02041626,-0.02809143,-15.779114,-31.318665,-24.659729,1,0.0,0.0,0.0,0.0
2.199715332,0.291865,0.49278,-0.8197454,-0.955785,0.11808486,-0.2693157,-0.03591386,0.8621043,0.5054566,0.29293415,0.4937974,-0.81875134,-0.9555283,0.120748736,-0.2690456,-0.033990823,0.86115265,0.50720876,-0.47976685,8.603394,5.050049,-0.35219467,8.454355,4.956836,-0.033493042,0.019348145,-0.025634766,-15.838623,-31.739807,-24.719238,1,0.0,0.0,0.0,0.0
2.208016114,0.27759668,0.49476403,-0.8234978,-0.9600109,0.11045697,-0.25725108,-0.03631753,0.86197895,0.5056414,0.2928918,0.49375725,-0.81879073,-0.9555385,0.12064305,-0.2690566,-0.03406723,0.8611905,0.50713944,-0.4558258,8.617752,5.1098785,-0.35615334,8.453126,4.958648,-0.028457642,0.01322937,-0.012054443,-15.478516,-31.559753,-24.179077,1,0.0,0.0,0.0,0.0
2.216316895,0.27680203,0.49517125,-0.8235206,-0.96022975,0.109893605,-0.2566753,-0.036598593,0.8618171,0.5058969,0.29258654,0.49377945,-0.8188865,-0.9556304,0.12043928,-0.26882136,-0.03411236,0.8612063,0.5071096,-0.4558258,8.617752,5.1098785,-0.3589096,8.451539,4.961154,-0.030136108,0.0030059814,-0.0054779053,-15.478516,-31.559753,-24.179077,1,0.0,0.0,0.0,0.0
2.224617676,0.27617767,0.49549076,-0.82353795,-0.9604072,0.10959353,-0.2561393,-0.036660243,0.86167175,0.50614023,0.29196283,0.49383885,-0.8190731,-0.9558175,0.12002187,-0.26834202,-0.034211032,0.86123043,0.5070618,-0.36610413,8.632111,5.1314087,-0.35951418,8.450113,4.96354,-0.013793945,0.006362915,4.7302246E-4,-15.478516,-31.559753,-24.179077,1,0.0,0.0,0.0,0.0
2.232918457,0.26491743,0.49691778,-0.82637244,-0.9635755,0.10387629,-0.24643847,-0.036619145,0.86155814,0.50633645,0.29133925,0.4939086,-0.8192531,-0.9560044,0.1196094,-0.26786038,-0.034308188,0.86124784,0.5070257,-0.33259583,8.617752,5.132599,-0.35911116,8.448999,4.9654646,-0.013336182,0.002243042,0.0036773682,-15.478516,-31.858826,-24.119568,1,0.0,0.0,0.0,0.0
2.241219239,0.264557,0.49709824,-0.82637936,-0.9636769,0.10378952,-0.24607812,-0.03655546,0.8614645,0.5065003,0.29081288,0.49397367,-0.8194009,-0.956163,0.119295545,-0.26743397,-0.03435446,0.8612541,0.507012,-0.33259583,8.617752,5.132599,-0.35848662,8.448081,4.9670715,-0.013031006,0.0014801025,0.006576538,-15.478516,-31.858826,-24.119568,1,0.0,0.0,0.0,0.0
2.24952002,0.28432494,0.49498123,-0.82106817,-0.95803416,0.11411211,-0.26296192,-0.036467396,0.86137795,0.50665385,0.28977722,0.49410656,-0.8196877,-0.9564743,0.11868326,-0.2665921,-0.034441683,0.86126244,0.5069919,-0.324234,8.639282,5.140976,-0.357623,8.447232,4.968577,-0.0105896,0.010635376,0.0061187744,-15.779114,-32.03888,-24.778748,1,0.0,0.0,0.0,0.0
2.257820801,0.27141547,0.49658635,-0.8244608,-0.96177375,0.1075429,-0.25184453,-0.036397647,0.8612993,0.50679255,0.28956136,0.49414206,-0.8197425,-0.9565367,0.11850234,-0.26644838,-0.03452195,0.861267,0.5069787,-0.36610413,8.624924,5.1433716,-0.356939,8.446461,4.9699373,-0.006149292,0.016586304,0.014221191,-15.9591675,-31.91986,-24.479675,1,0.0,0.0,0.0,0.0
2.266121582,0.27113795,0.49672922,-0.8244661,-0.96185255,0.107443534,-0.25158632,-0.03638671,0.86122936,0.50691223,0.28919938,0.49419338,-0.8198394,-0.9566449,0.11828365,-0.2661571,-0.034559473,0.86126757,0.5069751,-0.36610413,8.624924,5.1433716,-0.35683173,8.445775,4.971111,-0.0015716553,0.013534546,0.014373779,-15.9591675,-31.91986,-24.479675,1,0.0,0.0,0.0,0.0
2.274422364,0.27104518,0.49677688,-0.8244679,-0.9618803,0.10744629,-0.2514788,-0.036342856,0.8612015,0.5069627,0.28848594,0.4942984,-0.8200274,-0.9568577,0.117855474,-0.26558158,-0.034631837,0.861266,0.50697285,-0.3637085,8.608185,5.11586,-0.35640168,8.445502,4.9716063,0.0046844482,0.016433716,0.021087646,-15.9591675,-31.91986,-24.479675,1,0.0,0.0,0.0,0.0
2.282723145,0.26159173,0.4977841,-0.8269104,-0.96449673,0.10261934,-0.2433421,-0.036274843,0.8612086,0.50695556,0.28813803,0.49435008,-0.82011855,-0.9569612,0.117647834,-0.2653003,-0.034666054,0.86126477,0.5069727,-0.3637085,8.608185,5.11586,-0.3557347,8.445572,4.9715357,0.016448975,0.016433716,0.021240234,-15.9591675,-31.97937,-24.299622,1,0.0,0.0,0.0,0.0
2.291023926,0.26181823,0.49766922,-0.8269079,-0.9644387,0.102791116,-0.24349952,-0.03618344,0.8612545,0.50688404,0.28709078,0.49449486,-0.8203985,-0.9572736,0.117054805,-0.2644342,-0.034729764,0.86126244,0.50697225,-0.3481598,8.585449,5.0847473,-0.35483834,8.446022,4.9708343,0.013092041,0.01399231,0.016815186,-15.9591675,-31.97937,-24.299622,1,0.0,0.0,0.0,0.0
2.299324707,0.28697526,0.49454907,-0.82040626,-0.95725733,0.115771085,-0.26505733,-0.03610454,0.8614048,0.5066342,0.28609353,0.49462828,-0.8206665,-0.95757,0.11649169,-0.26360834,-0.034787316,0.8612622,0.5069687,-0.34457397,8.646469,4.955536,-0.3540646,8.447495,4.9683843,0.014770508,0.027130127,0.022003174,-16.139221,-32.03888,-24.958801,1,0.0,0.0,0.0,0.0
2.307625489,0.28757444,0.4942325,-0.82038724,-0.95707977,0.11605615,-0.26557332,-0.03604398,0.8615481,0.5063947,0.28611115,0.4946267,-0.82066125,-0.9575638,0.11647726,-0.2636373,-0.034813683,0.86126506,0.50696206,-0.34457397,8.646469,4.955536,-0.35347068,8.448901,4.966036,0.014312744,0.026519775,0.017425537,-16.139221,-32.03888,-24.958801,1,0.0,0.0,0.0,0.0
2.31592627,0.28581712,0.49421367,-0.82101244,-0.95760655,0.115086325,-0.26409236,-0.036030762,0.86168903,0.5061559,0.28616923,0.49461097,-0.82065046,-0.9575447,0.116460614,-0.2637141,-0.03486244,0.8612763,0.50693953,-0.34217834,8.660828,4.9375916,-0.35334107,8.450283,4.963694,5.645752E-4,0.025146484,0.0059661865,-16.018677,-32.099915,-24.899292,1,0.0,0.0,0.0,0.0
2.324227051,0.28624278,0.49399042,-0.82099843,-0.95747936,0.11525005,-0.26448178,-0.036031347,0.8617951,0.5059751,0.28615525,0.4945953,-0.82066476,-0.9575471,0.11640614,-0.26372916,-0.034908775,0.86129266,0.5069086,-0.30867004,8.596222,4.906479,-0.35334682,8.4513235,4.961921,0.0040740967,0.014144897,-7.4768066E-4,-16.018677,-32.099915,-24.899292,1,0.0,0.0,0.0,0.0
2.332527832,0.28662342,0.49379066,-0.8209858,-0.95736533,0.11539464,-0.26483107,-0.036033753,0.86189026,0.50581294,0.28615692,0.49458325,-0.82067144,-0.9575458,0.116382964,-0.26374418,-0.03493127,0.86130273,0.50688994,-0.30867004,8.596222,4.906479,-0.3533704,8.452256,4.9603305,1.0681152E-4,0.0084991455,-7.4768066E-4,-16.018677,-32.099915,-24.899292,1,0.0,0.0,0.0,0.0
2.340828614,0.2867889,0.49365216,-0.8210115,-0.9573197,0.115530625,-0.2649375,-0.03593498,0.8619514,0.5057157,0.28617537,0.49455175,-0.8206839,-0.9575387,0.11634375,-0.26378727,-0.034975007,0.8613261,0.50684714,-0.2524414,8.535202,4.9256287,-0.3524018,8.452856,4.9593773,0.0043792725,-0.005706787,-0.014190674,-15.478516,-31.619263,-24.41864,1,0.0,0.0,0.0,0.0
2.349129395,0.30303028,0.49154967,-0.8164261,-0.9523068,0.12397366,-0.2788233,-0.03584015,0.86198,0.5056739,0.2861996,0.4945161,-0.820697,-0.95753014,0.11631148,-0.26383284,-0.03501311,0.86135095,0.5068024,-0.24526978,8.366501,4.8885345,-0.3514718,8.453136,4.9589667,0.014007568,-0.004486084,-0.012207031,-15.179443,-31.498718,-24.598694,1,0.0,0.0,0.0,0.0
2.357430176,0.30331153,0.49140203,-0.8164106,-0.9522196,0.124138564,-0.2790474,-0.035776395,0.8620404,0.50557524,0.28653717,0.494458,-0.8206143,-0.9574285,0.1164654,-0.2641334,-0.03502969,0.86136353,0.5067798,-0.24526978,8.366501,4.8885345,-0.3508466,8.453729,4.9579997,0.02255249,0.0055999756,-0.01586914,-15.179443,-31.498718,-24.598694,1,0.0,0.0,0.0,0.0
2.365730957,0.29527998,0.49226975,-0.8188286,-0.95473903,0.11990194,-0.27220744,-0.035820354,0.86214495,0.5053938,0.2872033,0.49433932,-0.8204529,-0.9572279,0.11677063,-0.26472536,-0.035059344,0.8613903,0.5067323,-0.29312134,8.276779,4.8275146,-0.3512777,8.454755,4.9562206,0.031723022,0.008804321,-0.0065460205,-15.238953,-30.778503,-23.999023,1,0.0,0.0,0.0,0.0
2.374031739,0.29597607,0.49190164,-0.8187984,-0.95452374,0.1201757,-0.27284074,-0.03581115,0.86231697,0.50510097,0.2875235,0.49425772,-0.8203899,-0.95713055,0.11689507,-0.26502186,-0.03508956,0.8614203,0.50667924,-0.2596283,8.212173,4.72583,-0.3511874,8.456441,4.9533486,0.030044556,0.017669678,0.008407593,-15.238953,-30.778503,-23.999023,1,0.0,0.0,0.0,0.0
2.38233252,0.27839658,0.4937248,-0.8238514,-0.95980126,0.11109774,-0.25775725,-0.0357331,0.8624924,0.5048069,0.2876927,0.49421078,-0.8203589,-0.9570792,0.11696093,-0.2651783,-0.03510404,0.8614383,0.50664765,-0.2596283,8.212173,4.72583,-0.35042202,8.458161,4.9504647,0.02255249,0.021636963,0.018798828,-14.93988,-30.419922,-23.278809,1,0.0,0.0,0.0,0.0
2.390633301,0.2793935,0.49321198,-0.8238212,-0.9595188,0.11165972,-0.25856507,-0.03553975,0.86271316,0.5044431,0.2873251,0.49419284,-0.82049847,-0.9571887,0.11672832,-0.2648854,-0.035129048,0.86148006,0.50657475,-0.23449707,8.161911,4.5798645,-0.3485259,8.460326,4.946897,0.01171875,0.006210327,0.030548096,-14.93988,-30.419922,-23.278809,1,0.0,0.0,0.0,0.0
2.398934082,0.27446175,0.49326807,-0.82544374,-0.96095353,0.109274134,-0.25421908,-0.035198513,0.8629865,0.5039993,0.28701127,0.49415505,-0.82063097,-0.9572822,0.11652705,-0.2646358,-0.035145417,0.861529,0.50649047,-0.100494385,8.139191,4.342972,-0.3451795,8.463007,4.942545,0.0010223389,8.69751E-4,0.031021118,-14.878845,-30.778503,-23.339844,1,0.0,0.0,0.0,0.0
2.407234864,0.27583328,0.49257314,-0.82540154,-0.9605795,0.110274345,-0.25519896,-0.034683533,0.8632562,0.503573,0.28676072,0.49413842,-0.82072866,-0.9573573,0.11638155,-0.2644283,-0.035146505,0.8615582,0.5064407,-0.100494385,8.139191,4.342972,-0.3401293,8.4656515,4.938364,-0.012573242,-0.008453369,0.023834229,-14.878845,-30.778503,-23.339844,1,0.0,0.0,0.0,0.0
2.415535645,0.2882004,0.49069676,-0.82228786,-0.9569641,0.11704351,-0.26555732,-0.03406467,0.86343354,0.50331116,0.28632885,0.49407786,-0.8209158,-0.95748717,0.11613886,-0.2640643,-0.035128117,0.8616257,0.50632715,-0.041870117,8.020737,4.3034973,-0.3340603,8.467391,4.9357963,-0.048446655,-0.049224854,0.0178833,-14.759827,-29.93927,-23.039246,1,0.0,0.0,0.0,0.0
2.423836426,0.28866965,0.49045134,-0.8222696,-0.9568506,0.11794019,-0.26556957,-0.033270326,0.863451,0.5033344,0.2864031,0.493944,-0.82097054,-0.95746666,0.11617505,-0.26412326,-0.035085805,0.86169755,0.50620776,0.03111267,7.861618,4.289139,-0.32627043,8.467562,4.9360247,-0.07487488,-0.08816528,0.022155762,-14.759827,-29.93927,-23.039246,1,0.0,0.0,0.0,0.0
2.432137207,0.26646325,0.4930108,-0.8282136,-0.9633024,0.10739019,-0.24599954,-0.032338414,0.86336994,0.503534,0.28644848,0.4938743,-0.82099664,-0.9574544,0.11621066,-0.264152,-0.03504932,0.8617327,0.5061505,0.03111267,7.861618,4.289139,-0.31713152,8.466767,4.937982,-0.08708191,-0.11152649,0.02810669,-15.058899,-30.059814,-22.738647,1,0.0,0.0,0.0,0.0
2.440437989,0.266075,0.49321005,-0.8282198,-0.9634483,0.108286396,-0.24503344,-0.031168018,0.86314416,0.50399464,0.28565973,0.4938433,-0.82129,-0.9576939,0.11586028,-0.2634365,-0.03494146,0.86179763,0.5060473,0.08375549,7.737198,4.310669,-0.30565384,8.464553,4.942499,-0.12893677,-0.14283752,0.046279907,-15.058899,-30.059814,-22.738647,1,0.0,0.0,0.0,0.0
2.44873877,0.26249582,0.49424952,-0.828742,-0.9644744,0.1079089,-0.24113241,-0.029750941,0.8625967,0.5050166,0.28488687,0.49382058,-0.8215721,-0.9579296,0.1155596,-0.26271078,-0.034791443,0.86185104,0.5059667,0.11126709,7.540985,4.5308075,-0.29175705,8.459184,4.9525213,-0.15687561,-0.14344788,0.078048706,-15.119934,-30.299377,-22.859192,1,0.0,0.0,0.0,0.0
2.457039551,0.26053482,0.49524608,-0.82876587,-0.9650544,0.10857236,-0.23849948,-0.028134879,0.8619416,0.5062263,0.2844408,0.49383032,-0.8217208,-0.95806575,0.11540647,-0.26228103,-0.034690425,0.861866,0.50594825,0.11126709,7.540985,4.5308075,-0.27590892,8.45276,4.9643846,-0.16802979,-0.15307617,0.091033936,-15.119934,-30.299377,-22.859192,1,0.0,0.0,0.0,0.0
2.465340332,0.26102543,0.49622655,-0.8280247,-0.9649758,0.11083147,-0.23777758,-0.026220351,0.8610898,0.50777644,0.2834977,0.49388814,-0.8220119,-0.9583546,0.11513614,-0.26134288,-0.034430865,0.861869,0.5059608,0.18902588,7.3459625,4.6336975,-0.2571338,8.4444065,4.979586,-0.17855835,-0.17521667,0.123550415,-15.179443,-30.059814,-22.799683,1,0.0,0.0,0.0,0.0
2.473641114,0.25789154,0.4978258,-0.82804674,-0.9658782,0.111639716,-0.23370019,-0.023899095,0.8600616,0.5096301,0.2826107,0.49398148,-0.82226115,-0.9586282,0.11496638,-0.2604128,-0.03410671,0.86183816,0.50603527,0.3361969,7.1437683,4.759323,-0.23437007,8.434323,4.997764,-0.175354,-0.18421936,0.15821838,-15.179443,-30.059814,-22.799683,1,0.0,0.0,0.0,0.0
2.481941895,0.24530832,0.500451,-0.8302847,-0.9692095,0.10771903,-0.2214265,-0.021375664,0.85903746,0.5114662,0.28211778,0.49405852,-0.82238424,-0.9587805,0.114900365,-0.2598804,-0.033903882,0.8618028,0.5061091,0.3361969,7.1437683,4.759323,-0.20962365,8.42428,5.01577,-0.17718506,-0.186203,0.17410278,-15.359497,-29.99878,-22.619629,1,0.0,0.0,0.0,0.0
2.490242676,0.24246477,0.50188434,-0.8302548,-0.9699836,0.10907787,-0.21733372,-0.018513953,0.85802925,0.51326704,0.2806662,0.49431401,-0.82272726,-0.9592237,0.114619575,-0.25836462,-0.033412606,0.8616937,0.50632757,0.42591858,7.0660095,4.6947174,-0.18155986,8.414392,5.0334306,-0.18206787,-0.18833923,0.2182312,-15.359497,-29.99878,-22.619629,1,0.0,0.0,0.0,0.0
2.498543457,0.27282333,0.49912766,-0.82245904,-0.96194375,0.12800369,-0.24141082,-0.015217021,0.8570219,0.5150552,0.2791588,0.49461553,-0.8230589,-0.9596836,0.11440384,-0.25674736,-0.032830134,0.8615493,0.5066112,0.59580994,6.9750824,4.6253204,-0.149228,8.404514,5.050966,-0.186203,-0.20819092,0.24526978,-14.93988,-29.699707,-22.979736,1,0.0,0.0,0.0,0.0
2.506844239,0.27046567,0.5003442,-0.8224987,-0.9626582,0.13014606,-0.23738419,-0.011728858,0.8559893,0.5168605,0.27902988,0.49470973,-0.82304597,-0.9597329,0.114673175,-0.25644282,-0.032483462,0.86145943,0.5067864,0.59580994,6.9750824,4.6253204,-0.115020804,8.394387,5.06867,-0.21444702,-0.20819092,0.24526978,-14.93988,-29.699707,-22.979736,1,0.0,0.0,0.0,0.0
2.51514502,0.2504044,0.5038814,-0.8266809,-0.96810806,0.1232361,-0.21812785,-0.008033642,0.8549365,0.51867044,0.2786847,0.49494284,-0.8230228,-0.9598601,0.11527875,-0.25569397,-0.03167686,0.8612447,0.5072023,0.653244,7.076767,4.615753,-0.07878311,8.384063,5.0864196,-0.22621155,-0.2205658,0.25045776,-14.99939,-29.458618,-22.499084,1,0.0,0.0,0.0,0.0
2.523445801,0.24732322,0.5054345,-0.8266603,-0.96892333,0.12520278,-0.21333486,-0.0043266304,0.8537331,0.5206928,0.27756113,0.49530038,-0.82318735,-0.96021545,0.11559018,-0.25421506,-0.030760434,0.8609974,0.5076784,0.65802,7.2873383,4.837097,-0.042429753,8.372262,5.1062527,-0.25582886,-0.23721313,0.2206726,-14.99939,-29.458618,-22.499084,1,0.0,0.0,0.0,0.0
2.531746582,0.23443858,0.50840545,-0.8285906,-0.9721306,0.1219743,-0.2002105,-7.213578E-4,0.8524354,0.52283204,0.27695352,0.49550563,-0.82326835,-0.9604072,0.11577974,-0.25340292,-0.030244771,0.86085373,0.5079528,0.65802,7.2873383,4.837097,-0.0070741037,8.359536,5.127231,-0.27920532,-0.243927,0.2069397,-15.179443,-29.278564,-22.259521,1,0.0,0.0,0.0,0.0
2.540047364,0.23013103,0.51055294,-0.82847774,-0.97315574,0.1231449,-0.1944305,0.0027557479,0.85098237,0.525187,0.275266,0.49602017,-0.8235244,-0.96092725,0.11602269,-0.2513113,-0.029107952,0.86052465,0.50857645,0.673584,7.2263184,4.8598175,0.027024655,8.345286,5.1503253,-0.3153839,-0.26133728,0.17272949,-15.179443,-29.278564,-22.259521,1,0.0,0.0,0.0,0.0
2.548348145,0.20190798,0.5156481,-0.83267057,-0.97939014,0.110892035,-0.16881277,0.005288544,0.84959394,0.5274107,0.2734725,0.4966004,-0.8237723,-0.96147555,0.11630153,-0.24907576,-0.027885135,0.8601523,0.5092744,0.653244,7.162918,4.9256287,0.051862903,8.331671,5.172132,-0.36395264,-0.27127075,0.14370728,-15.299988,-29.759216,-22.138977,1,0.0,0.0,0.0,0.0
2.556648926,0.1963,0.51830274,-0.83236325,-0.98051393,0.11040344,-0.16249213,0.007675653,0.84804094,0.5298752,0.2720445,0.49698356,-0.824014,-0.9618989,0.11620023,-0.2474833,-0.027244518,0.85994464,0.5096596,0.653244,7.162918,4.9256287,0.07527244,8.316441,5.196301,-0.38471985,-0.2648468,0.1270752,-15.299988,-29.759216,-22.138977,1,0.0,0.0,0.0,0.0
2.564949707,0.1837667,0.5220316,-0.83289415,-0.9829198,0.10612184,-0.15035401,0.009898711,0.8462984,0.532617,0.27053228,0.49741277,-0.82425284,-0.9623441,0.11609273,-0.2457973,-0.026572946,0.859711,0.5100891,0.5431671,7.225128,5.0237274,0.0970732,8.299353,5.2231884,-0.42045593,-0.25767517,0.11653137,-15.058899,-29.159546,-21.598816,1,0.0,0.0,0.0,0.0
2.573250489,0.17593981,0.525643,-0.8323129,-0.9843288,0.104176566,-0.14228177,0.011918068,0.8443025,0.53573436,0.2671049,0.4983966,-0.8247762,-0.96333814,0.11572452,-0.24204826,-0.025189204,0.8591907,0.5110351,0.3517456,7.339981,5.23909,0.11687631,8.2797785,5.253759,-0.4873352,-0.21659851,0.11592102,-15.058899,-29.159546,-21.598816,1,0.0,0.0,0.0,0.0
2.58155127,0.18056786,0.5283789,-0.8295848,-0.98346734,0.10872564,-0.14481252,0.013681248,0.84201807,0.5392758,0.26350194,0.49948716,-0.8252753,-0.96436554,0.11530051,-0.23812789,-0.023787158,0.8586142,0.5120701,0.17468262,7.483551,5.6147614,0.13416721,8.257377,5.2884893,-0.5284271,-0.16711426,0.1136322,-15.238953,-28.799438,-21.659851,1,0.0,0.0,0.0,0.0
2.589852051,0.17071813,0.5329566,-0.8287415,-0.98520213,0.10532886,-0.13521245,0.015228026,0.8395612,0.5430516,0.261841,0.5000701,-0.8254509,-0.9648351,0.115183055,-0.23627543,-0.023076324,0.8582906,0.5126448,-0.010772705,7.5720825,6.011963,0.14933592,8.233283,5.325517,-0.5264435,-0.14955139,0.11164856,-15.238953,-28.799438,-21.659851,1,0.0,0.0,0.0,0.0
2.598152832,0.16078918,0.5374978,-0.82779396,-0.9868492,0.10165167,-0.12567997,0.016593931,0.8371159,0.5467738,0.2582277,0.5013864,-0.8257907,-0.96584165,0.11483261,-0.23230046,-0.021644596,0.85756934,0.5139128,-0.090927124,7.566101,6.251251,0.16273089,8.209303,5.3620195,-0.4676361,-0.12237549,0.110580444,-15.238953,-28.799438,-21.659851,1,0.0,0.0,0.0,0.0
2.606453614,0.14849743,0.54201335,-0.8271457,-0.9887525,0.096435666,-0.11431818,0.01780437,0.83481836,0.5502375,0.2543643,0.50283515,-0.82610875,-0.9668971,0.11436343,-0.22810332,-0.020221744,0.8567834,0.5152798,-0.090927124,7.566101,6.251251,0.17460123,8.186772,5.395987,-0.38212585,-0.08282471,0.113479614,-15.658569,-29.039001,-21.839905,1,0.0,0.0,0.0,0.0
2.614754395,0.15921845,0.54377246,-0.8239909,-0.987062,0.10368073,-0.12230687,0.018924864,0.83280355,0.553245,0.25224575,0.503632,-0.8262729,-0.9674665,0.11404095,-0.22583902,-0.019510811,0.8563583,0.51601344,-0.06819153,7.5637054,6.3397827,0.18558952,8.167013,5.4254804,-0.34043884,-0.07395935,0.11958313,-15.899658,-28.619385,-21.958923,1,0.0,0.0,0.0,0.0
2.623055176,0.15276775,0.5467707,-0.82322764,-0.9880591,0.101385295,-0.11601779,0.020028058,0.83112144,0.55573016,0.24854445,0.505242,-0.8264116,-0.9684515,0.11368486,-0.22175981,-0.01809188,0.85545677,0.5175581,0.03111267,7.6941223,6.361313,0.19640817,8.150517,5.4498515,-0.29890442,-0.055633545,0.12677002,-15.899658,-28.619385,-21.958923,1,0.0,0.0,0.0,0.0
2.631355957,0.11554139,0.5522613,-0.8256256,-0.9930781,0.081900515,-0.08419208,0.021123128,0.82963836,0.5579015,0.24473408,0.50690967,-0.82652754,-0.9694466,0.11325935,-0.21759027,-0.01668664,0.8545261,0.5191403,0.24287415,7.746765,6.099304,0.20714712,8.135973,5.4711447,-0.31278992,0.04637146,0.14202881,-16.259766,-28.979492,-21.659851,1,0.0,0.0,0.0,0.0
2.639656739,0.10950059,0.5549288,-0.82465976,-0.9937426,0.07950754,-0.07844978,0.022032628,0.8280898,0.5601624,0.24215451,0.50784385,-0.82671386,-0.970106,0.11269421,-0.21492864,-0.01598433,0.85404605,0.5199518,0.5168457,7.6331024,6.070587,0.21606627,8.120787,5.493317,-0.348526,0.102264404,0.1478424,-16.259766,-28.979492,-21.659851,1,0.0,0.0,0.0,0.0
2.64795752,0.10233901,0.55805635,-0.8234682,-0.99449277,0.07620773,-0.071948364,0.022603396,0.8262962,0.562782,0.2369084,0.5097667,-0.8270504,-0.97142243,0.11151084,-0.20953216,-0.014587424,0.85305524,0.52161664,0.6663971,7.639084,6.052643,0.22166361,8.103198,5.5190063,-0.4169464,0.15647888,0.12677002,-16.259766,-28.979492,-21.659851,1,0.0,0.0,0.0,0.0
2.656258301,0.11751678,0.5597214,-0.8203058,-0.9928074,0.085243866,-0.084064625,0.022873277,0.82428473,0.56571317,0.23158549,0.5117434,-0.8273372,-0.9727247,0.11025331,-0.2040855,-0.013222743,0.85203457,0.5233185,0.6663971,7.7156525,5.927017,0.22431023,8.083472,5.5477514,-0.43130493,0.14883423,0.09454346,-16.378784,-28.919983,-22.079468,1,0.0,0.0,0.0,0.0
2.664559082,0.14508066,0.5601499,-0.815588,-0.98915327,0.10124882,-0.106417075,0.022967802,0.8221805,0.5687633,0.22929765,0.5127259,-0.8273661,-0.97327536,0.1098099,-0.20168504,-0.012556153,0.851501,0.5242026,0.6903229,7.8592224,5.8791656,0.2252372,8.062837,5.577663,-0.44839478,0.13922119,0.07972717,-16.378784,-28.079224,-22.198486,1,0.0,0.0,0.0,0.0
2.672859864,0.13651314,0.5641411,-0.8143151,-0.9903735,0.096722305,-0.099020615,0.022900837,0.8199937,0.5719142,0.2259264,0.51463217,-0.82711005,-0.9740793,0.10953295,-0.19791931,-0.011259834,0.85038596,0.5260389,0.6903229,7.8592224,5.8791656,0.2245805,8.041391,5.6085625,-0.474823,0.12333679,0.029174805,-16.378784,-28.079224,-22.198486,1,0.0,0.0,0.0,0.0
2.681160645,0.1594425,0.56506187,-0.8094957,-0.9869498,0.10996448,-0.11763498,0.022544732,0.8176876,0.57522064,0.22235197,0.516626,-0.82683563,-0.974915,0.10910411,-0.19400257,-0.01001561,0.8492313,0.52792597,0.5814514,8.137985,5.9557343,0.2210883,8.018776,5.640988,-0.51605225,0.15708923,-0.052520752,-16.018677,-27.539063,-22.37854,1,0.0,0.0,0.0,0.0
2.689461426,0.14968929,0.56964,-0.80814815,-0.9884957,0.10412862,-0.10969697,0.021663567,0.81527144,0.57867366,0.22106929,0.51761013,-0.826564,-0.9752126,0.10913979,-0.19248079,-0.009418982,0.84862727,0.5289074,0.5383911,8.641678,6.1591187,0.21244702,7.995082,5.67485,-0.5189514,0.19374084,-0.104888916,-16.018677,-27.539063,-22.37854,1,0.0,0.0,0.0,0.0
2.697762207,0.15524626,0.5727479,-0.8048966,-0.98767316,0.106491685,-0.11472241,0.020007765,0.8127849,0.58222014,0.2181983,0.51970476,-0.8260124,-0.97586924,0.10900108,-0.18920374,-0.008293843,0.847364,0.5309477,0.50727844,9.126221,6.278763,0.19620915,7.9706974,5.7096295,-0.55514526,0.24046326,-0.16629028,-16.378784,-27.178955,-22.499084,1,0.0,0.0,0.0,0.0
2.706062989,0.14453062,0.57784194,-0.8032495,-0.98934954,0.09856452,-0.10711067,0.017278846,0.8101751,0.5859332,0.21566005,0.52184117,-0.82533175,-0.9764414,0.108954966,-0.18625505,-0.0072715646,0.8460559,0.5330446,0.37806702,9.035294,6.528824,0.1694476,7.945104,5.746042,-0.60202026,0.43196106,-0.3590088,-16.378784,-27.178955,-22.499084,1,0.0,0.0,0.0,0.0
2.71436377,0.14313242,0.5823341,-0.80024993,-0.98961425,0.09506192,-0.107826434,0.013282281,0.80737233,0.58989275,0.21421915,0.5229828,-0.8249843,-0.97676176,0.10879077,-0.18466456,-0.0068257,0.84537184,0.5341346,0.22013855,8.766098,6.6927185,0.13025469,7.9176183,5.7848716,-0.6003418,0.46220398,-0.40603638,-16.679382,-26.818848,-22.499084,1,0.0,0.0,0.0,0.0
2.722664551,0.1313922,0.58790547,-0.79818743,-0.99129504,0.084717445,-0.10078157,0.008370368,0.8044812,0.59391904,0.21137515,0.5253822,-0.824193,-0.97738594,0.108350776,-0.18159522,-0.0061049545,0.84393936,0.53640383,0.07058716,8.431107,6.5659027,0.08208527,7.889266,5.824356,-0.57392883,0.47257996,-0.43948364,-16.679382,-26.818848,-22.499084,1,0.0,0.0,0.0,0.0
2.730965332,0.12020663,0.5931091,-0.7960979,-0.9927439,0.07432211,-0.09452768,0.0031024544,0.8016843,0.5977395,0.20976889,0.5266657,-0.8237841,-0.9777335,0.10795383,-0.17995308,-0.0058444724,0.8431899,0.53758407,0.07058716,8.431107,6.5659027,0.030424684,7.861838,5.8618226,-0.53666687,0.474411,-0.45811462,-16.679382,-26.818848,-22.499084,1,0.0,0.0,0.0,0.0
2.739266114,0.1357936,0.59584695,-0.79153425,-0.9907346,0.079875916,-0.109839335,-0.0022229047,0.7991159,0.60117286,0.20622663,0.5293844,-0.82293546,-0.9784886,0.10681886,-0.1764928,-0.0055275005,0.8416305,0.5400255,0.051452637,8.263611,6.250046,-0.02179925,7.83665,5.895492,-0.45114136,0.45089722,-0.43673706,-16.619873,-26.339722,-22.679138,1,0.0,0.0,0.0,0.0
2.747566895,0.12681821,0.6000541,-0.78984314,-0.99189925,0.07087635,-0.105414905,-0.0072734477,0.79681337,0.60418165,0.20344576,0.53209317,-0.82188004,-0.97907126,0.1059223,-0.1737813,-0.00541243,0.8400341,0.5425066,0.15553284,8.202591,5.871994,-0.071328156,7.8140697,5.9249983,-0.4146576,0.38308716,-0.3892517,-16.619873,-26.339722,-22.679138,1,0.0,0.0,0.0,0.0
2.755867676,0.124145254,0.60339165,-0.78772235,-0.9921942,0.06607252,-0.10575883,-0.01176719,0.794703,0.6068843,0.20192595,0.53350097,-0.821342,-0.9793857,0.10532734,-0.17236564,-0.0054474724,0.83921564,0.5437715,0.27757263,8.248062,5.704483,-0.115396716,7.7933745,5.9515023,-0.4126587,0.33483887,-0.36740112,-16.259766,-26.339722,-22.738647,1,0.0,0.0,0.0,0.0
