Time,Rot1,Rot2,Rot3,Rot4,Rot5,Rot6,Rot7,Rot8,Rot9,FRot1,FRot2,FRot3,FRot4,FRot5,FRot6,FRot7,FRot8,FRot9,AccX,AccY,AccZ,GravX,GravY,GravZ,GyroX,GyroY,GyroZ,MagX,MagY,MagZ,Imid
0.0,0.0,0.0,0.0,0.0,0.0,0.0,0.0,0.0,0.0,0.0,0.0,0.0,0.0,0.0,0.0,0.0,0.0,0.0,0.0,0.0,0.0,9.751355,0.1609535,-1.0274007,0.0,0.0,0.0,0.0,0.0,0.0,0,0.0,0.0,0.0,0.0
0.008300782,0.0,0.0,0.0,0.0,0.0,0.0,0.0,0.0,0.0,1.0,0.0,0.0,0.0,1.0,0.0,0.0,0.0,1.0,9.96611,0.08375549,-0.9786682,9.751599,0.16076945,-1.0251104,0.0,0.0,0.0,0.0,0.0,0.0,0,0.0,0.0,0.0,0.0
0.016601563,0.0,0.0,0.0,0.0,0.0,0.0,0.0,0.0,0.0,1.0,0.0,0.0,0.0,1.0,0.0,0.0,0.0,1.0,9.96611,0.08375549,-0.9786682,9.751602,0.1605052,-1.0251276,-0.017044067,-0.024734497,-0.00340271,0.0,0.0,0.0,0,0.0,0.0,0.0,0.0
0.024902344,-0.08312913,-0.49331272,-0.8658707,-0.065860614,0.8696981,-0.48917025,0.99436,0.016362475,-0.10478713,1.0,0.0,0.0,0.0,1.0,0.0,0.0,0.0,1.0,9.933807,0.105285645,-1.0372925,9.751341,0.16046107,-1.0276108,-0.017349243,-0.04534912,-0.005844116,-29.759216,68.93921,-36.419678,0,0.0,0.0,0.0,0.0
0.033203125,-0.08325632,-0.4959304,-0.8643618,-0.06626746,0.8682085,-0.4917545,0.99432236,0.016337391,-0.1051479,0.99938536,-0.010319206,-0.03350434,0.010302445,0.9999467,-6.72854E-4,0.033509497,3.2726378E-4,0.99943835,9.961319,0.09690857,-1.0600128,9.750972,0.16021508,-1.0311487,-0.014755249,-0.047332764,-0.004776001,-29.699707,68.8797,-36.65924,0,0.0,0.0,0.0,0.0
0.041503907,-0.08359505,-0.49602902,-0.86427265,-0.06642299,0.8681531,-0.4918315,0.99428356,0.016292894,-0.10552102,0.9946877,-0.030457692,-0.09832985,0.030215329,0.99953556,-0.0039533633,0.0984046,9.612928E-4,0.99514604,9.936203,0.100494385,-1.125824,9.750591,0.15977871,-1.0348078,-0.011703491,-0.042907715,-0.003250122,-29.699707,68.8797,-36.65924,0,0.0,0.0,0.0,0.0
0.049804688,-0.08384779,-0.49689722,-0.86374915,-0.066665165,0.8676567,-0.4926737,0.99424607,0.016272375,-0.10587685,0.9858474,-0.049791604,-0.16008016,0.048896126,0.9987584,-0.009530634,0.16035596,0.0015684516,0.987058,9.949356,0.093322754,-1.0983124,9.750224,0.1595775,-1.0382973,-0.01612854,-0.022140503,-0.015167236,-29.93927,68.8797,-36.71875,0,0.0,0.0,0.0,0.0
0.058105469,-0.084020525,-0.49694788,-0.8637033,-0.06683043,0.8676268,-0.49270412,0.9942204,0.016324397,-0.10610969,0.9800451,-0.059183218,-0.18976063,0.057749286,0.9982454,-0.013082137,0.19020191,0.0018625439,0.9817433,9.943375,0.110076904,-1.0683899,9.749971,0.16008765,-1.0405806,-0.017501831,-0.028549194,-0.014556885,-29.93927,68.8797,-36.71875,0,0.0,0.0,0.0,0.0
0.06640625,-0.084193535,-0.4969985,-0.8636572,-0.06699044,0.8675968,-0.49273503,0.994195,0.016371682,-0.106340215,0.96600264,-0.0773933,-0.24667625,0.074382484,0.99699765,-0.021515107,0.24760075,0.00243526,0.9688591,9.929016,0.122039795,-1.076767,9.7497225,0.16055135,-1.0428413,-0.017959595,-0.030380249,-0.0107421875,-29.93927,68.8797,-36.71875,0,0.0,0.0,0.0,0.0
0.074707032,-0.08396557,-0.50273824,-0.86035115,-0.067720726,0.8642829,-0.49842656,0.9941648,0.016412934,-0.106615804,0.94911593,-0.0948603,-0.3003006,0.08953566,0.9954861,-0.031476427,0.30193093,0.0029871685,0.95332515,9.929016,0.122039795,-1.076767,9.749427,0.1609559,-1.0455439,-0.019958496,-0.03831482,-0.008605957,-30.059814,68.5791,-37.139893,0,0.0,0.0,0.0,0.0
0.083007813,-0.08430918,-0.50167584,-0.8609374,-0.06780899,0.8648993,-0.4973441,0.9941297,0.016448628,-0.10693709,0.93973505,-0.103454344,-0.32587618,0.096671194,0.99462885,-0.03698759,0.32795238,0.0032556967,0.9446887,9.918243,0.095718384,-1.0779724,9.749083,0.16130593,-1.0486946,-0.020706177,-0.050231934,-0.011657715,-30.299377,68.51959,-36.95984,0,0.0,0.0,0.0,0.0
0.091308594,-0.08462344,-0.50176895,-0.86085236,-0.06799681,0.8648454,-0.49741215,0.99409014,0.016442483,-0.10730488,0.9193864,-0.120059274,-0.37458572,0.10974834,0.9927595,-0.048824225,0.37773535,0.0037781624,0.9259059,9.92543,0.107681274,-1.1042938,9.748694,0.16124567,-1.0523014,-0.012771606,-0.041229248,-0.00630188,-30.299377,68.51959,-36.95984,0,0.0,0.0,0.0,0.0
0.099609375,-0.08484777,-0.50327736,-0.8599493,-0.06832568,0.8639688,-0.4988883,0.99404854,0.016427059,-0.10769259,0.89723766,-0.13597928,-0.4200884,0.12131672,0.9907024,-0.061570577,0.4245549,0.004279694,0.9053921,9.931412,0.10169983,-1.0983124,9.748286,0.16109441,-1.0561036,-0.014602661,-0.037872314,-0.009521484,-30.358887,68.5791,-37.139893,0,0.0,0.0,0.0,0.0
0.107910157,-0.08515824,-0.5033691,-0.85986483,-0.06850104,0.86391556,-0.4989563,0.9940099,0.016411401,-0.10805084,0.8855944,-0.14372341,-0.4416629,0.126575,0.9896076,-0.06823228,0.4468795,0.0045226533,0.8945827,9.909882,0.06700134,-1.0875397,9.747908,0.16094087,-1.0596168,-0.016281128,-0.040161133,-0.0066070557,-30.358887,68.5791,-37.139893,0,0.0,0.0,0.0,0.0
0.116210938,-0.08546627,-0.50346005,-0.859781,-0.068641804,0.8638634,-0.49902722,0.99397373,0.016366923,-0.1083896,0.86138016,-0.1587287,-0.482524,0.13600789,0.98730963,-0.081985325,0.489414,0.00499347,0.8720373,9.923035,0.110076904,-1.1365967,9.747553,0.16050468,-1.0629389,-0.014297485,-0.042755127,-0.013031006,-30.358887,68.5791,-37.139893,0,0.0,0.0,0.0,0.0
0.124511719,-0.08620325,-0.4982998,-0.86270875,-0.068354316,0.8668497,-0.49386156,0.99392986,0.0163974,-0.10878619,0.84888333,-0.1659961,-0.501839,0.14019746,0.98611253,-0.08903167,0.5096486,0.00522095,0.86036676,9.934998,0.105285645,-1.1533356,9.747123,0.16080356,-1.0668281,-0.0155181885,-0.036026,-0.011352539,-30.239868,68.699646,-36.65924,0,0.0,0.0,0.0,0.0
0.1328125,-0.08605492,-0.50376594,-0.85954314,-0.06907832,0.8636843,-0.4992771,0.9938927,0.016410543,-0.109123595,0.82331413,-0.1798394,-0.5383416,0.14736505,0.98367965,-0.10323677,0.54812175,0.005663559,0.8363794,9.92543,0.105285645,-1.1509552,9.746758,0.16093245,-1.0701369,-0.017044067,-0.018310547,-0.0043182373,-30.299377,68.33954,-37.01935,0,0.0,0.0,0.0,0.0
0.141113282,-0.08623062,-0.50381786,-0.85949504,-0.06918056,0.8636541,-0.49931508,0.9938704,0.016404107,-0.10932784,0.79709995,-0.19334641,-0.57205665,0.1534588,0.98111165,-0.11777229,0.5840223,0.0060891593,0.8117148,9.92543,0.105285645,-1.1509552,9.746539,0.16086935,-1.0721399,-0.021469116,0.0045928955,-0.015167236,-30.299377,68.33954,-37.01935,0,0.0,0.0,0.0,0.0
0.149414063,-0.086324625,-0.5038457,-0.8594695,-0.069253094,0.86363775,-0.49933353,0.99385715,0.016416134,-0.10944606,0.783834,-0.19988614,-0.58791995,0.15604599,0.979799,-0.12507497,0.60104406,0.006295468,0.7991911,9.919449,0.1040802,-1.1760712,9.746409,0.16098729,-1.0732993,-0.014907837,0.0073394775,-0.011199951,-30.299377,68.33954,-37.01935,0,0.0,0.0,0.0,0.0
0.157714844,-0.0853733,-0.51520073,-0.8528069,-0.07041757,0.8569116,-0.510631,0.99385756,0.01645833,-0.10943655,0.7571085,-0.21255133,-0.6177448,0.16035138,0.977127,-0.13967942,0.6333041,0.0066962657,0.77387404,9.918243,0.107681274,-1.1497498,9.746413,0.1614011,-1.073206,-0.014297485,0.02078247,-0.013183594,-30.839539,67.67883,-37.799072,0,0.0,0.0,0.0,0.0
0.166015625,-0.08526961,-0.51516974,-0.852836,-0.07037203,0.85692984,-0.51060665,0.99386966,0.01647658,-0.109323606,0.7301881,-0.22519068,-0.6450693,0.1639489,0.97428894,-0.15453726,0.6632843,0.0070828614,0.748334,9.920639,0.095718384,-1.1198425,9.746532,0.16158007,-1.0720984,-0.015670776,0.022003174,-0.0105896,-30.839539,67.67883,-37.799072,0,0.0,0.0,0.0,0.0
0.174316407,-0.08476407,-0.52003676,-0.84992766,-0.07079925,0.853985,-0.5154584,0.99388254,0.016481888,-0.109205425,0.71673703,-0.23130721,-0.6578639,0.16534947,0.9728536,-0.16191182,0.6774567,0.007270744,0.73552674,9.923035,0.105285645,-1.1425781,9.746658,0.1616321,-1.0709394,-0.015670776,0.025817871,-0.0041656494,-31.318665,67.07916,-37.919617,0,0.0,0.0,0.0,0.0
0.182617188,-0.08443405,-0.5225568,-0.84841347,-0.070982814,0.8524451,-0.5179758,0.99389756,0.01648798,-0.10906793,0.6899007,-0.2433679,-0.6817691,0.16756546,0.969904,-0.17665799,0.7042435,0.007635522,0.7099175,9.936203,0.107681274,-1.1198425,9.746806,0.16169187,-1.0695912,-0.015823364,0.029632568,-0.012878418,-31.199646,66.89911,-38.09967,0,0.0,0.0,0.0,0.0
0.190917969,-0.08428092,-0.52251035,-0.8484573,-0.070909455,0.85247314,-0.5179397,0.9939158,0.016511207,-0.10889813,0.6632817,-0.25502867,-0.70357496,0.16892487,0.9669005,-0.19122706,0.7290554,0.007986095,0.6844081,9.932602,0.119644165,-1.1198425,9.7469845,0.16191964,-1.0679259,-0.01965332,0.01864624,-0.0067749023,-31.199646,66.89911,-38.09967,0,0.0,0.0,0.0,0.0
0.19921875,-0.08415812,-0.52247304,-0.8484923,-0.07085796,0.8524954,-0.5179099,0.9939298,0.016536111,-0.108765796,0.65009534,-0.26067042,-0.71374154,0.16927664,0.96539336,-0.1983961,0.7407574,0.008156604,0.6717231,9.932602,0.119644165,-1.1198425,9.747122,0.16216385,-1.0666281,-0.015213013,0.017868042,-0.008453369,-31.199646,66.89911,-38.09967,0,0.0,0.0,0.0,0.0
0.207519532,-0.08413271,-0.52117103,-0.8492952,-0.07066047,0.85329175,-0.51662374,0.993946,0.016546646,-0.10861595,0.6240235,-0.27159047,-0.7326891,0.16937631,0.9623755,-0.21247377,0.7628279,0.0084884465,0.6465459,9.930206,0.102890015,-1.0875397,9.747281,0.16226716,-1.0651586,-0.024536133,0.022155762,-0.015014648,-31.259155,66.8396,-37.919617,0,0.0,0.0,0.0,0.0
0.215820313,-0.08403772,-0.5211271,-0.8493316,-0.070626035,0.85331815,-0.51658493,0.9939565,0.0165723,-0.10851605,0.598425,-0.2819872,-0.7499139,0.16870305,0.9593777,-0.22612748,0.7832157,0.008807564,0.62168765,9.939789,0.10647583,-1.1186371,9.747384,0.16251875,-1.064179,-0.010635376,0.013137817,-0.0076904297,-31.3797,66.95862,-37.979126,0,0.0,0.0,0.0,0.0
0.224121094,-0.08396125,-0.5211037,-0.84935355,-0.07057495,0.8533325,-0.5165683,0.99396664,0.016571358,-0.108423725,0.58581954,-0.2870173,-0.757916,0.16811489,0.9578834,-0.23280174,0.7928133,0.008962865,0.6093987,9.938583,0.098098755,-1.1114655,9.747483,0.16250952,-1.0632735,-0.012924194,0.016036987,-0.011199951,-31.3797,66.95862,-37.979126,0,0.0,0.0,0.0,0.0
0.232421875,-0.08414387,-0.51809305,-0.85117525,-0.07023575,0.8551637,-0.5135775,0.9939752,0.016568532,-0.10834546,0.5610293,-0.296754,-0.7727763,0.16648239,0.954909,-0.24582995,0.81088203,0.009264174,0.5851363,9.936203,0.088531494,-1.0743713,9.747567,0.1624818,-1.062506,-0.01612854,0.010391235,-0.0134887695,-31.259155,67.07916,-37.739563,0,0.0,0.0,0.0,0.0
0.240722657,-0.084081635,-0.5180741,-0.85119295,-0.070181906,0.8551755,-0.5135654,0.99398434,0.01655693,-0.10826399,0.5368577,-0.3059432,-0.7862458,0.16422465,0.9520018,-0.25830752,0.82753485,0.009553437,0.56133294,9.914658,0.07417297,-1.0803528,9.747656,0.162368,-1.061707,-0.01965332,0.003982544,-0.013336182,-31.259155,67.07916,-37.739563,0,0.0,0.0,0.0,0.0
0.249023438,-0.08406344,-0.51806843,-0.8511982,-0.07016844,0.8551789,-0.5135615,0.9939868,0.016555505,-0.10824135,0.5250063,-0.3103898,-0.79248124,0.16291346,0.95056,-0.26437658,0.83536077,0.009693513,0.54961663,9.914658,0.07417297,-1.0803528,9.747681,0.16235405,-1.061485,-0.015975952,-0.0064086914,-0.010894775,-31.259155,67.07916,-37.739563,0,0.0,0.0,0.0,0.0
0.257324219,-0.0843305,-0.5153957,-0.8527928,-0.06995729,0.85679185,-0.5108947,0.993979,0.016575066,-0.10830939,0.5017877,-0.31899813,-0.80402064,0.1599638,0.947703,-0.27617145,0.85007095,0.009965259,0.52657384,9.939789,0.107681274,-1.1114655,9.747604,0.16254587,-1.0621523,-0.021316528,-0.0035095215,-0.007522583,-31.13861,67.43927,-37.678528,0,0.0,0.0,0.0,0.0
0.265625,-0.0843909,-0.5154141,-0.85277575,-0.070002295,0.8567808,-0.51090735,0.99397075,0.01658033,-0.10838467,0.49043462,-0.3231051,-0.80936825,0.15830831,0.94630927,-0.2818463,0.8569786,0.01009746,0.515253,9.939789,0.107681274,-1.1114655,9.747523,0.1625975,-1.0628905,-0.012924194,-0.0021362305,-0.009979248,-31.13861,67.43927,-37.678528,0,0.0,0.0,0.0,0.0
0.273925782,-0.084370255,-0.516415,-0.8521721,-0.070110664,0.85617846,-0.51190144,0.9939649,0.0165571,-0.10844218,0.46822944,-0.3310577,-0.81924474,0.15473767,0.94355375,-0.2928526,0.86995256,0.010354191,0.4930267,9.920639,0.12562561,-1.1497498,9.747466,0.16236968,-1.0634545,-0.013534546,0.01008606,-0.011352539,-31.019592,67.73987,-37.979126,0,0.0,0.0,0.0,0.0
0.282226563,-0.08515795,-0.5068494,-0.85781807,-0.06921925,0.8618749,-0.5023748,0.99396014,0.0165963,-0.10847923,0.44669572,-0.33871675,-0.82809055,0.15088362,0.9408287,-0.30343953,0.88187134,0.010599836,0.4713709,9.929016,0.102890015,-1.1090698,9.747419,0.16275412,-1.0638179,-0.016738892,0.0129852295,-0.011505127,-30.839539,68.03894,-37.139893,0,0.0,0.0,0.0,0.0
0.290527344,-0.08509923,-0.50683177,-0.8578343,-0.069197245,0.86188495,-0.50236046,0.99396676,0.016609278,-0.10841711,0.43621927,-0.34221447,-0.8322271,0.14875802,0.9395607,-0.30837753,0.88745916,0.01071977,0.46076164,9.929016,0.102890015,-1.1090698,9.747484,0.16288137,-1.0632087,-0.019348145,0.0129852295,-0.011505127,-30.839539,68.03894,-37.139893,0,0.0,0.0,0.0,0.0
0.298828125,-0.08506126,-0.50682026,-0.8578447,-0.06920486,0.8618911,-0.5023487,0.99396944,0.016636612,-0.108387984,0.41578072,-0.34898707,-0.83984184,0.144352,0.9370635,-0.31792206,0.8979359,0.010953004,0.43998998,9.938583,0.107681274,-1.1114655,9.747511,0.16314943,-1.0629231,-0.019348145,0.0056610107,-0.010437012,-30.839539,68.03894,-37.139893,0,0.0,0.0,0.0,0.0
0.307128907,-0.08481427,-0.50981176,-0.85609484,-0.06951316,0.8601247,-0.5053248,0.99396896,0.016651098,-0.1083895,0.39602542,-0.35547385,-0.8466418,0.13977039,0.93461937,-0.32703337,0.9075396,0.011178083,0.41981775,9.932602,0.105285645,-1.0911255,9.747506,0.16329148,-1.0629379,-0.011398315,-0.0018310547,-0.007522583,-30.718994,67.97943,-37.438965,0,0.0,0.0,0.0,0.0
0.315429688,-0.084821835,-0.5098141,-0.8560928,-0.06951681,0.86012346,-0.5053267,0.9939681,0.016650105,-0.108397886,0.38639253,-0.35867897,-0.8497354,0.1374515,0.9333927,-0.3314892,0.91203505,0.011287548,0.4099569,9.932602,0.105285645,-1.0911255,9.7474985,0.16328177,-1.0630202,-0.019348145,-0.0035095215,-0.00982666,-30.718994,67.97943,-37.438965,0,0.0,0.0,0.0,0.0
0.323730469,-0.08421225,-0.5175783,-0.8514817,-0.07030347,0.8554737,-0.5130518,0.9939646,0.016656868,-0.10842892,0.3676329,-0.3648862,-0.85539705,0.13271919,0.9309811,-0.3400879,0.9204519,0.011499911,0.3906867,9.940979,0.09690857,-1.138977,9.747464,0.1633481,-1.0633246,-0.01902771,-0.0035095215,-0.008911133,-31.079102,67.43927,-37.919617,0,0.0,0.0,0.0,0.0
0.33203125,-0.08446657,-0.5154497,-0.8527467,-0.070134476,0.856758,-0.5109274,0.99395496,0.01665067,-0.1085182,0.349494,-0.37116516,-0.86028504,0.1280104,0.9284931,-0.34858847,0.9281526,0.011704133,0.37201577,9.9039,0.098098755,-1.1318054,9.747369,0.1632873,-1.0642,-0.014144897,0.0045928955,-0.004776001,-30.899048,67.49878,-37.739563,0,0.0,0.0,0.0,0.0
0.340332032,-0.08451573,-0.5154645,-0.85273296,-0.07014211,0.8567496,-0.5109406,0.9939503,0.01662997,-0.108564585,0.34067816,-0.37415856,-0.8625217,0.12560274,0.9272896,-0.35264415,0.93175226,0.011803067,0.36290264,9.9039,0.098098755,-1.1318054,9.747323,0.1630843,-1.064655,-0.01826477,0.011917114,-0.010131836,-30.899048,67.49878,-37.739563,0,0.0,0.0,0.0,0.0
0.348632813,-0.084469154,-0.5154505,-0.852746,-0.07010493,0.8567581,-0.51093143,0.9939569,0.016623752,-0.10850526,0.32353342,-0.37995642,-0.866579,0.12073634,0.92492664,-0.36046284,0.93848217,0.0119942175,0.34511924,9.937393,0.09211731,-1.1210327,9.747388,0.16302332,-1.0640731,-0.014907837,0.022003174,-0.0105896,-30.899048,67.49878,-37.739563,0,0.0,0.0,0.0,0.0
0.356933594,-0.08403761,-0.5192791,-0.8504628,-0.07044345,0.85444254,-0.5147483,0.99396956,0.016651314,-0.108385116,0.3070311,-0.38551003,-0.8701229,0.11582228,0.9226233,-0.36790144,0.9446254,0.012177552,0.32792467,9.912262,0.110076904,-1.1126556,9.747512,0.16329361,-1.0628949,-0.014297485,0.022918701,-0.007080078,-30.778503,67.37976,-38.09967,0,0.0,0.0,0.0,0.0
0.365234375,-0.083935335,-0.5192486,-0.85049146,-0.07037643,0.854461,-0.51472664,0.9939829,0.016650809,-0.10826233,0.29900753,-0.38828126,-0.87168354,0.113381155,0.9214593,-0.37156093,0.947491,0.01226703,0.31954703,9.912262,0.110076904,-1.1126556,9.7476425,0.16328867,-1.0616908,-0.016281128,0.014968872,-0.005844116,-30.778503,67.37976,-38.09967,0,0.0,0.0,0.0,0.0
0.373535157,-0.08356917,-0.5226654,-0.8484321,-0.07064086,0.85237557,-0.51813674,0.99399495,0.016633727,-0.10815385,0.28342763,-0.39364716,-0.87447745,0.108484566,0.9191775,-0.3786079,0.9528378,0.012440632,0.30322492,9.944565,0.10647583,-1.1006927,9.747761,0.16312113,-1.060627,-0.013839722,0.0056610107,-0.008300781,-30.899048,67.07916,-38.279724,0,0.0,0.0,0.0,0.0
0.381835938,-0.08294198,-0.52964866,-0.8441522,-0.07123828,0.84805495,-0.5250979,0.99400485,0.016583294,-0.10807062,0.26843756,-0.39893332,-0.8768087,0.103627324,0.9168933,-0.38544533,0.957707,0.012606684,0.28746903,9.949356,0.0765686,-1.0624084,9.747858,0.16262656,-1.0598108,-0.014907837,-0.0033569336,-0.009216309,-30.958557,66.719055,-38.819885,0,0.0,0.0,0.0,0.0
0.390136719,-0.08295094,-0.52965134,-0.8441496,-0.07119804,0.848054,-0.5251048,0.994007,0.016543865,-0.108057015,0.26114842,-0.40164307,-0.87777233,0.101244025,0.9157084,-0.38888013,0.9599746,0.01268622,0.27979976,9.949356,0.0765686,-1.0624084,9.747879,0.1622399,-1.0596774,-0.014907837,-0.006866455,-0.008605957,-30.958557,66.719055,-38.819885,0,0.0,0.0,0.0,0.0
0.3984375,-0.083027914,-0.5296743,-0.8441278,-0.07124738,0.8480399,-0.5251212,0.9939971,0.016542165,-0.108148865,0.24700485,-0.4068911,-0.8794477,0.09648133,0.91338646,-0.39549536,0.96419907,0.012838986,0.26486826,9.920639,0.102890015,-1.1126556,9.747782,0.16222322,-1.0605781,-0.019348145,-0.0076293945,-0.007080078,-30.958557,66.719055,-38.819885,0,0.0,0.0,0.0,0.0
0.406738282,-0.083250515,-0.52805007,-0.84512275,-0.07114127,0.8490521,-0.5234973,0.993986,0.016541693,-0.10825017,0.24014436,-0.4094323,-0.88016814,0.09410447,0.91224915,-0.3986802,0.96616507,0.012913052,0.25760087,9.920639,0.102890015,-1.1126556,9.747673,0.1622186,-1.0615716,-0.024841309,-0.007019043,-0.0093688965,-31.019592,66.539,-38.519287,0,0.0,0.0,0.0,0.0
0.415039063,-0.083323054,-0.5280718,-0.84510195,-0.071208805,0.8490382,-0.5235106,0.9939751,0.016558202,-0.10834783,0.22684085,-0.41428515,-0.8814255,0.089350834,0.9100535,-0.40474573,0.96982455,0.0130567495,0.24345402,9.937393,0.11126709,-1.1210327,9.747566,0.16238049,-1.0625293,-0.014450073,-0.00289917,-0.0107421875,-31.019592,66.539,-38.519287,0,0.0,0.0,0.0,0.0
0.423339844,-0.08352823,-0.5264654,-0.8460834,-0.07108451,0.85003537,-0.5219068,0.9939668,0.01654947,-0.1084255,0.21407007,-0.41893575,-0.88242096,0.084633626,0.90791994,-0.41050994,0.97314495,0.013195411,0.22981454,9.92543,0.098098755,-1.1270142,9.747485,0.16229486,-1.063291,-0.01965332,-0.0030517578,-0.0035552979,-31.019592,67.01965,-38.63983,0,0.0,0.0,0.0,0.0
0.431640625,-0.083596535,-0.52648586,-0.846064,-0.071095936,0.85002327,-0.521925,0.9939602,0.016520591,-0.10849001,0.20788164,-0.4211533,-0.8828449,0.08228457,0.9068925,-0.4132496,0.9746868,0.013262494,0.22318071,9.92543,0.098098755,-1.1270142,9.74742,0.16201165,-1.0639236,-0.017044067,1.6784668E-4,-0.0056915283,-31.019592,67.01965,-38.63983,0,0.0,0.0,0.0,0.0
0.439941407,-0.08421009,-0.51965946,-0.85021335,-0.07043714,0.854214,-0.5151282,0.9939554,0.016507601,-0.108536765,0.19588047,-0.42544982,-0.8835289,0.0776304,0.90488297,-0.41852167,0.9775502,0.013391518,0.21027674,9.934998,0.10169983,-1.1234283,9.747373,0.16188428,-1.0643821,-0.012161255,0.00642395,-0.01272583,-30.899048,67.43927,-38.15918,0,0.0,0.0,0.0,0.0
0.448242188,-0.084187396,-0.51965266,-0.85021967,-0.070419855,0.85421807,-0.5151236,0.9939585,0.016505439,-0.10850827,0.18439008,-0.42928067,-0.8841484,0.07298281,0.90307003,-0.423247,0.9801397,0.013514918,0.19784726,9.950546,0.08973694,-1.0803528,9.747403,0.16186306,-1.0641026,-0.015213013,-0.0051879883,-0.011505127,-30.899048,67.43927,-38.15918,0,0.0,0.0,0.0,0.0
0.456542969,-0.084848,-0.51158345,-0.85503405,-0.06963126,0.85907495,-0.50709146,0.9939579,0.01651141,-0.10851298,0.17882198,-0.43113592,-0.88438934,0.07068969,0.90218484,-0.42551786,0.98133874,0.01357473,0.19180736,9.950546,0.08973694,-1.0803528,9.747397,0.16192162,-1.0641489,-0.014602661,-0.0059509277,-0.012878418,-30.53894,68.03894,-37.678528,0,0.0,0.0,0.0,0.0
0.46484375,-0.08489631,-0.5115977,-0.85502064,-0.06968202,0.859066,-0.5070994,0.9939502,0.016528694,-0.10858071,0.1680526,-0.43439472,-0.8849066,0.066104814,0.9006186,-0.4295537,0.98355913,0.013691026,0.18006688,9.923035,0.105285645,-1.0947113,9.747322,0.16209112,-1.064813,-0.018417358,-0.0065612793,-0.007827759,-30.53894,68.03894,-37.678528,0,0.0,0.0,0.0,0.0
0.473144532,-0.084573835,-0.51659477,-0.8520429,-0.07022014,0.8560706,-0.51206666,0.9939398,0.016523136,-0.10867652,0.15771872,-0.43751967,-0.8852691,0.061618052,0.8991029,-0.43337882,0.98555976,0.0138034,0.16876447,9.927826,0.0993042,-1.1114655,9.74722,0.16203661,-1.0657526,-0.023620605,-0.010528564,-0.0079956055,-30.659485,67.85889,-38.09967,0,0.0,0.0,0.0,0.0
0.481445313,-0.084662676,-0.516621,-0.8520182,-0.07027263,0.85605484,-0.5120858,0.99392855,0.016519003,-0.10878021,0.15270211,-0.4391382,-0.88534725,0.059430126,0.8983127,-0.4353188,0.98648375,0.013857796,0.16327226,9.927826,0.0993042,-1.1114655,9.747109,0.16199608,-1.0667695,-0.020095825,-0.009460449,-0.009674072,-30.659485,67.85889,-38.09967,0,0.0,0.0,0.0,0.0
0.489746094,-0.08483915,-0.5152655,-0.8528211,-0.07016933,0.8568715,-0.5107323,0.99392074,0.0165118,-0.108852066,0.14297459,-0.44227582,-0.8854097,0.055126633,0.89677036,-0.4390489,0.9881899,0.013963182,0.15259655,9.942184,0.095718384,-1.0923309,9.747034,0.16192545,-1.0674742,-0.01322937,-0.0048828125,-0.010131836,-31.079102,67.67883,-37.799072,0,0.0,0.0,0.0,0.0
0.498046875,-0.08487062,-0.51527506,-0.85281223,-0.07019465,0.8568658,-0.5107386,0.9939164,0.016516162,-0.10889226,0.13364747,-0.44522798,-0.8853871,0.05091446,0.8953068,-0.44253075,0.9897202,0.014064109,0.14232403,9.933807,0.10169983,-1.0827484,9.74699,0.16196823,-1.0678684,-0.018112183,-0.0076293945,-0.009521484,-31.079102,67.67883,-37.799072,0,0.0,0.0,0.0,0.0
0.506347657,-0.08458172,-0.519304,-0.8503936,-0.07062799,0.8544298,-0.5147439,0.99391025,0.016523667,-0.10894654,0.12912816,-0.44665837,-0.88533735,0.048846968,0.89459324,-0.44420364,0.9904241,0.0141131515,0.13733509,9.933807,0.10169983,-1.0827484,9.74693,0.16204183,-1.0684006,-0.020874023,-0.014801025,-0.009521484,-31.13861,67.559814,-38.15918,0,0.0,0.0,0.0,0.0
0.514648438,-0.084707506,-0.5193418,-0.85035795,-0.07070295,0.8544069,-0.5147717,0.9938942,0.016517797,-0.10909367,0.12035928,-0.4495972,-0.8850853,0.04481181,0.8931184,-0.447584,0.9917185,0.01420861,0.12764235,9.924225,0.08375549,-1.1318054,9.746773,0.16198426,-1.0698435,-0.01902771,-0.008392334,-0.012878418,-31.13861,67.559814,-38.15918,0,0.0,0.0,0.0,0.0
0.522949219,-0.084740736,-0.5202096,-0.8498241,-0.07089085,0.8538782,-0.5156224,0.99387795,0.016550532,-0.10923637,0.11194797,-0.4524167,-0.8847524,0.040876202,0.8916921,-0.45079315,0.992873,0.014300056,0.11831619,9.915863,0.088531494,-1.1629181,9.7466135,0.16230527,-1.0712428,-0.017959595,-0.013885498,-0.008758545,-31.318665,67.43927,-38.15918,0,0.0,0.0,0.0,0.0
0.53125,-0.084924854,-0.5202654,-0.84977156,-0.07099404,0.85384446,-0.515664,0.9938549,0.016536023,-0.109448366,0.10787085,-0.45380068,-0.88455003,0.038947172,0.89098775,-0.45235378,0.9934017,0.014345066,0.11378586,9.915863,0.088531494,-1.1629181,9.7463875,0.162163,-1.0733218,-0.016738892,-0.019088745,-0.0093688965,-31.318665,67.43927,-38.15918,0,0.0,0.0,0.0,0.0
0.539550782,-0.085049376,-0.52025586,-0.84976494,-0.07108602,0.85385007,-0.5156422,0.9938377,0.01655136,-0.10960233,0.09996359,-0.45648548,-0.88409746,0.03516285,0.88961387,-0.45535794,0.9943696,0.014431829,0.10498033,9.954147,0.110076904,-1.1425781,9.746219,0.1623134,-1.0748317,-0.020263672,-0.001373291,-0.008605957,-31.498718,67.37976,-38.09967,0,0.0,0.0,0.0,0.0
0.547851563,-0.085110545,-0.52027446,-0.8497474,-0.07111627,0.8538389,-0.51565653,0.9938303,0.016543053,-0.10967067,0.09237953,-0.4590596,-0.8835894,0.03147772,0.8882868,-0.45820907,0.99522614,0.014515764,0.09650968,9.939789,0.088531494,-1.1282196,9.746146,0.16223194,-1.0755019,-0.017349243,-0.0045776367,-0.00982666,-31.498718,67.37976,-38.09967,0,0.0,0.0,0.0,0.0
0.556152344,-0.085215844,-0.5196272,-0.85013276,-0.071069844,0.854233,-0.5150095,0.99382454,0.016531836,-0.10972402,0.088705085,-0.46030718,-0.8833169,0.029673163,0.88764036,-0.45958036,0.99561584,0.01455631,0.09239698,9.939789,0.088531494,-1.1282196,9.74609,0.16212194,-1.0760251,-0.0098724365,-0.0024414063,-0.008605957,-31.13861,67.43927,-38.09967,0,0.0,0.0,0.0,0.0
0.564453125,-0.085254736,-0.519639,-0.85012174,-0.07110771,0.85422575,-0.5150165,0.9938185,0.016542612,-0.10977712,0.08158471,-0.46269873,-0.88275355,0.026137795,0.88639474,-0.46219164,0.9963236,0.014634541,0.08441018,9.943375,0.117248535,-1.1270142,9.746031,0.1622276,-1.0765458,-0.014907837,9.1552734E-4,-0.008132935,-31.13861,67.43927,-38.09967,0,0.0,0.0,0.0,0.0
0.572753907,-0.085389785,-0.51858735,-0.85075,-0.070978805,0.8548654,-0.51397175,0.9938161,0.016497282,-0.109805495,0.074758336,-0.4649929,-0.8821523,0.022703493,0.8851922,-0.4646712,0.9969432,0.014710102,0.07673246,9.927826,0.08375549,-1.1246338,9.746007,0.16178308,-1.0768241,-0.01399231,0.009780884,-0.005844116,-31.318665,67.559814,-38.038635,0,0.0,0.0,0.0,0.0
0.581054688,-0.085400485,-0.5185906,-0.850747,-0.07093504,0.85486424,-0.5139797,0.99381834,0.016453655,-0.109792076,0.07145176,-0.46608284,-0.88185114,0.021023247,0.8846182,-0.4658419,0.9972225,0.014745846,0.0730061,9.927826,0.08375549,-1.1246338,9.746029,0.16135524,-1.0766925,-0.011703491,0.012374878,-0.008605957,-31.318665,67.559814,-38.038635,0,0.0,0.0,0.0,0.0
0.589355469,-0.08539079,-0.5185373,-0.85078055,-0.07090514,0.854897,-0.5139296,0.9938214,0.016439859,-0.10976729,0.065044835,-0.46819583,-0.8812275,0.017740738,0.8835005,-0.46809408,0.99772465,0.014813476,0.065773286,9.933807,0.09451294,-1.1557312,9.746058,0.16121995,-1.0764494,-0.019958496,0.022155762,-0.00982666,-31.3797,67.67883,-38.09967,0,0.0,0.0,0.0,0.0
0.59765625,-0.085303195,-0.5185107,-0.8508055,-0.07086545,0.8549128,-0.51390874,0.9938317,0.01645466,-0.109671295,0.05890439,-0.4702204,-0.8805811,0.014559422,0.8824236,-0.47023037,0.99815744,0.014877883,0.058824763,9.951752,0.1040802,-1.1413727,9.74616,0.16136509,-1.075508,-0.016281128,0.020309448,-0.012420654,-31.3797,67.67883,-38.09967,0,0.0,0.0,0.0,0.0
0.605957032,-0.08541123,-0.51589155,-0.8523854,-0.07056,0.85649544,-0.5113088,0.9938441,0.016472798,-0.10955564,0.05593212,-0.47120097,-0.88025063,0.013006528,0.88189983,-0.47125736,0.99834985,0.014909418,0.055455215,9.951752,0.1040802,-1.1413727,9.746282,0.16154297,-1.0743738,-0.014907837,0.020309448,-0.00982666,-31.559753,67.67883,-37.799072,0,0.0,0.0,0.0,0.0
0.614257813,-0.08528764,-0.5158535,-0.8524207,-0.07048667,0.8565182,-0.5112807,0.99385995,0.016478369,-0.109411225,0.05017861,-0.47299528,-0.8796349,0.009969514,0.8809378,-0.47312713,0.9986905,0.014971328,0.048919763,9.9266205,0.09690857,-1.1138611,9.746437,0.16159761,-1.0729576,-0.011398315,0.028869629,-0.008758545,-31.559753,67.67883,-37.799072,0,0.0,0.0,0.0,0.0
0.622558594,-0.084971525,-0.5176699,-0.85135055,-0.070558615,0.8554219,-0.5131032,0.99388194,0.016470948,-0.10921258,0.044667937,-0.47471514,-0.87900525,0.007032766,0.88001114,-0.47490096,0.9989772,0.015031007,0.042646844,9.936203,0.09690857,-1.0887299,9.746653,0.16152483,-1.0710095,-0.020401001,0.016952515,-0.010894775,-31.199646,67.67883,-38.038635,0,0.0,0.0,0.0,0.0
0.630859375,-0.0848256,-0.51762587,-0.85139185,-0.07046223,0.85544854,-0.51307195,0.9939012,0.01646933,-0.109037,0.04200174,-0.47558603,-0.8786659,0.0056042457,0.87954026,-0.47579142,0.99910176,0.015059807,0.039607525,9.936203,0.09690857,-1.0887299,9.746841,0.16150895,-1.0692877,-0.019180298,0.010543823,-0.011047363,-31.199646,67.67883,-38.038635,0,0.0,0.0,0.0,0.0
0.639160157,-0.0850286,-0.5138516,-0.85365486,-0.070024915,0.857721,-0.5093243,0.99391484,0.016469972,-0.10891324,0.036841534,-0.47727275,-0.87798256,0.0028204946,0.87862515,-0.47750372,0.9993171,0.015115625,0.033716045,9.957733,0.093322754,-1.0839539,9.746975,0.16151527,-1.0680741,-0.014450073,0.0015258789,-0.011962891,-31.199646,67.559814,-37.55951,0,0.0,0.0,0.0,0.0
0.647460938,-0.08499467,-0.5138413,-0.85366446,-0.06998034,0.8577275,-0.50931937,0.99392086,0.016450297,-0.10886106,0.03189906,-0.47873792,-0.87737817,1.250254E-4,0.87782687,-0.47897813,0.9994911,0.015169258,0.028061705,9.934998,0.07298279,-1.0743713,9.747034,0.16132231,-1.0675623,-0.018569946,-0.016937256,-0.011199951,-31.199646,67.559814,-37.55951,0,0.0,0.0,0.0,0.0
0.655761719,-0.08516852,-0.5125255,-0.8544377,-0.069860786,0.8585147,-0.5080075,0.9939143,0.016425451,-0.10892388,0.029505417,-0.47944784,-0.87707424,-0.0011874819,0.8774388,-0.47968712,0.99956393,0.015194879,0.025319861,9.934998,0.07298279,-1.0743713,9.74697,0.16107866,-1.0681784,-0.017196655,-0.023666382,0.0016326904,-31.318665,67.61932,-37.438965,0,0.0,0.0,0.0,0.0
0.6640625,-0.08532364,-0.51257306,-0.85439384,-0.06996012,0.8584866,-0.50804186,0.9938941,0.01642551,-0.10910886,0.024863265,-0.4807714,-0.8764934,-0.0037472267,0.87671345,-0.4809984,0.99968386,0.015243609,0.0199964,9.950546,0.117248535,-1.1114655,9.746772,0.16107924,-1.0699924,-0.009262085,-0.018615723,-0.00982666,-31.318665,67.61932,-37.438965,0,0.0,0.0,0.0,0.0
0.672363282,-0.08544839,-0.5132898,-0.8539509,-0.07011455,0.8580585,-0.508743,0.9938724,0.016403118,-0.1093088,0.020405164,-0.4820434,-0.8759097,-0.00622223,0.87601393,-0.48224565,0.9997724,0.015290414,0.014875823,9.943375,0.105285645,-1.1162567,9.746559,0.16085964,-1.0719532,-0.013381958,-0.02519226,-0.0066070557,-31.079102,67.85889,-37.678528,0,0.0,0.0,0.0,0.0
0.680664063,-0.08563239,-0.5133453,-0.8538992,-0.07022391,0.8580255,-0.50878364,0.99384886,0.016395781,-0.109523885,0.0182416,-0.4826746,-0.8756098,-0.007428566,0.8756659,-0.48286027,0.999806,0.015312668,0.012387966,9.943375,0.105285645,-1.1162567,9.746328,0.16078769,-1.0740625,-0.014144897,-0.024276733,-0.009521484,-31.079102,67.85889,-37.678528,0,0.0,0.0,0.0,0.0
0.688964844,-0.08608413,-0.5104266,-0.8556017,-0.0700751,0.85976475,-0.50585973,0.99382037,0.016409885,-0.10978028,0.014040472,-0.48390096,-0.8750101,-0.009781975,0.874988,-0.48404568,0.99985355,0.015355559,0.007551737,9.929016,0.11605835,-1.1353912,9.746049,0.160926,-1.0765768,-0.01826477,-0.021987915,-0.013641357,-31.318665,68.03894,-37.438965,0,0.0,0.0,0.0,0.0
0.697265625,-0.086258866,-0.51047987,-0.8555524,-0.07022784,0.85973257,-0.50589347,0.9937945,0.016445793,-0.11000943,0.01000146,-0.48496023,-0.87447906,-0.012059815,0.8744007,-0.4850547,0.9998773,0.01539731,0.0028967522,9.9266205,0.114852905,-1.146164,9.745795,0.16127814,-1.078824,-0.018112183,-0.017242432,-0.0107421875,-31.318665,68.03894,-37.438965,0,0.0,0.0,0.0,0.0
0.705566407,-0.086737156,-0.5067172,-0.85773796,-0.07000631,0.86195457,-0.50212896,0.99376845,0.016493835,-0.11023688,0.008040565,-0.48547482,-0.87421364,-0.0131709855,0.8741147,-0.485541,0.99988097,0.01541828,6.341935E-4,9.9266205,0.114852905,-1.146164,9.74554,0.16174926,-1.0810546,-0.020263672,-0.018920898,-0.011352539,-31.019592,68.2785,-37.1994,0,0.0,0.0,0.0,0.0
0.713867188,-0.086937115,-0.5067776,-0.85768205,-0.07018225,0.8619182,-0.5021668,0.9937386,0.016537128,-0.110499464,0.0061152107,-0.48590252,-0.87399167,-0.014265784,0.87387663,-0.48593843,0.99987954,0.015439791,-0.0015878407,9.917053,0.114852905,-1.1928253,9.745247,0.16217384,-1.0836296,-0.02255249,-0.013122559,-0.012268066,-31.019592,68.2785,-37.1994,0,0.0,0.0,0.0,0.0
0.722167969,-0.087106064,-0.50682855,-0.8576348,-0.07034656,0.8618873,-0.5021968,0.9937121,0.016587267,-0.11072925,0.0023740572,-0.4867346,-0.87354666,-0.01640185,0.87341267,-0.48670453,0.9998627,0.015483246,-0.005909817,9.917053,0.114852905,-1.1928253,9.7449875,0.16266553,-1.085883,-0.01965332,-0.009307861,-0.013793945,-31.019592,68.2785,-37.1994,0,0.0,0.0,0.0,0.0
0.73046875,-0.087125435,-0.50761634,-0.8571667,-0.07051042,0.8614229,-0.50297,0.99369884,0.016617704,-0.11084409,-0.0012221416,-0.48753536,-0.87310237,-0.018465964,0.87296516,-0.4874329,0.9998287,0.015526966,-0.010069698,9.920639,0.10169983,-1.1569366,9.744857,0.16296402,-1.0870092,-0.018875122,0.0143585205,-0.010131836,-31.019592,68.03894,-37.139893,0,0.0,0.0,0.0,0.0
0.738769532,-0.08718769,-0.50701356,-0.8575171,-0.07046415,0.8617778,-0.5023683,0.9936967,0.016623879,-0.11086269,-0.0029664612,-0.48793963,-0.87287235,-0.019471139,0.8727389,-0.48779884,0.99980605,0.0155487815,-0.0120896865,9.923035,0.09451294,-1.1736755,9.744836,0.16302456,-1.0871916,-0.021942139,0.020614624,-0.009063721,-30.839539,68.218994,-37.1994,0,0.0,0.0,0.0,0.0
0.747070313,-0.08705637,-0.5069741,-0.8575537,-0.070400715,0.8618006,-0.5023379,0.99371266,0.01664068,-0.110716574,-0.006349549,-0.4886996,-0.872429,-0.021426355,0.87231284,-0.4884785,0.99975026,0.015591356,-0.016009843,9.907486,0.11366272,-1.1210327,9.744992,0.16318934,-1.0857587,-0.015670776,0.022460938,-0.009521484,-30.839539,68.218994,-37.1994,0,0.0,0.0,0.0,0.0
0.755371094,-0.08679874,-0.50824666,-0.85682636,-0.07041338,0.86105126,-0.5036197,0.9937343,0.016618486,-0.11052552,-0.00959005,-0.48942742,-0.87199134,-0.02330713,0.8719039,-0.48912203,0.99968237,0.015632909,-0.01976875,9.936203,0.08255005,-1.1090698,9.745205,0.16297169,-1.0838851,-0.013687134,0.02368164,-0.013946533,-30.958557,68.099976,-37.25891,0,0.0,0.0,0.0,0.0
0.763671875,-0.086622514,-0.50819343,-0.8568756,-0.070335045,0.8610819,-0.5035779,0.9937552,0.016647208,-0.110332906,-0.0111567555,-0.48980615,-0.87175995,-0.024219254,0.87169087,-0.4894573,0.9996444,0.015652621,-0.02158798,9.949356,0.114852905,-1.1090698,9.74541,0.16325335,-1.0819962,-0.015975952,0.023529053,-0.0055389404,-30.958557,68.099976,-37.25891,0,0.0,0.0,0.0,0.0
0.771972657,-0.08647047,-0.5081476,-0.8569182,-0.070247814,0.8611089,-0.50354403,0.99377465,0.016654942,-0.11015675,-0.014187373,-0.49053848,-0.87130404,-0.025990065,0.8712782,-0.49010077,0.99956155,0.015692007,-0.025110278,9.94696,0.114852905,-1.0875397,9.745601,0.16332918,-1.0802687,-0.015365601,0.0070343018,-0.006164551,-30.958557,68.099976,-37.25891,0,0.0,0.0,0.0,0.0
0.780273438,-0.08640423,-0.50825816,-0.8568594,-0.07022125,0.8610438,-0.50365925,0.9937823,0.016651457,-0.11008834,-0.017088756,-0.4912397,-0.8708568,-0.027692012,0.8708824,-0.49071074,0.9994704,0.01573014,-0.02848571,9.94696,0.114852905,-1.0875397,9.745676,0.16329503,-1.079598,-0.019485474,-0.008850098,-0.007217407,-30.839539,68.159485,-37.319946,0,0.0,0.0,0.0,0.0
0.788574219,-0.086710654,-0.50479835,-0.8588712,-0.069895245,0.8630765,-0.50021344,0.9937786,0.01665718,-0.11012095,-0.018493736,-0.49158195,-0.8706349,-0.028518397,0.8706889,-0.49100664,0.99942213,0.015748566,-0.03012142,9.938583,0.105285645,-1.0660095,9.745639,0.16335113,-1.0799177,-0.01979065,-0.014343262,-0.0093688965,-30.53894,68.63861,-37.25891,0,0.0,0.0,0.0,0.0
0.796875,-0.08678872,-0.5048214,-0.85884976,-0.06994444,0.8630629,-0.50022984,0.9937683,0.016657468,-0.11021359,-0.021223813,-0.49210757,-0.8702756,-0.030122343,0.8703913,-0.49143836,0.99932086,0.015784547,-0.033296455,9.948166,0.102890015,-1.0875397,9.745538,0.16335396,-1.0808262,-0.018569946,-0.026260376,-0.008605957,-30.53894,68.63861,-37.25891,0,0.0,0.0,0.0,0.0
0.805175782,-0.08723861,-0.50211006,-0.86039233,-0.06980123,0.8646434,-0.4975135,0.993739,0.01665406,-0.11047818,-0.02384708,-0.4926131,-0.8699216,-0.03166753,0.8701047,-0.49184862,0.99921393,0.015819116,-0.036349297,9.931412,0.1040802,-1.1557312,9.745251,0.16332053,-1.0834209,-0.012008667,-0.010375977,-0.0055389404,-30.53894,68.63861,-36.95984,0,0.0,0.0,0.0,0.0
0.813476563,-0.08740071,-0.50215816,-0.8603478,-0.069880836,0.8646158,-0.49755022,0.99371916,0.016635576,-0.110659264,-0.025125422,-0.49280363,-0.86977774,-0.032418966,0.8699964,-0.49199104,0.9991585,0.015835814,-0.03783521,9.939789,0.098098755,-1.2215424,9.745056,0.16313928,-1.0851967,-0.015213013,0.005355835,-0.0053863525,-30.53894,68.63861,-36.95984,0,0.0,0.0,0.0,0.0
0.821777344,-0.0870023,-0.5082337,-0.85681325,-0.07052161,0.8610589,-0.50359124,0.99370885,0.016610254,-0.11075558,-0.027611375,-0.49317518,-0.8694917,-0.033881426,0.8697853,-0.49226576,0.9990444,0.015867485,-0.040725447,9.917053,0.117248535,-1.2131653,9.744955,0.16289096,-1.0861412,-0.018875122,0.02230835,-0.009063721,-30.958557,68.51959,-37.5,0,0.0,0.0,0.0,0.0
0.830078125,-0.08693873,-0.5082147,-0.8568311,-0.07050978,0.8610698,-0.50357455,0.9937153,0.016634839,-0.11069442,-0.029991467,-0.49377438,-0.8690728,-0.035297073,0.8694448,-0.4927677,0.99892676,0.015896898,-0.04350471,9.917053,0.117248535,-1.2131653,9.745018,0.16313204,-1.0855415,-0.012008667,0.05177307,-0.00982666,-30.958557,68.51959,-37.5,0,0.0,0.0,0.0,0.0
0.838378907,-0.08643621,-0.5117185,-0.8547941,-0.070762604,0.8589916,-0.5070759,0.99374115,0.016657738,-0.11045852,-0.031143878,-0.49406454,-0.8688672,-0.03598464,0.86927956,-0.49300918,0.9988669,0.015911657,-0.044851474,9.897903,0.11605835,-1.1904297,9.745272,0.16335662,-1.0832281,-0.0055999756,0.06414795,-0.007385254,-31.13861,68.099976,-37.61902,0,0.0,0.0,0.0,0.0
0.846679688,-0.08609702,-0.5116161,-0.8548896,-0.07056418,0.8590523,-0.50700074,0.9937847,0.016673328,-0.11006363,-0.03336391,-0.49476767,-0.8683846,-0.037322342,0.868879,-0.49361545,0.99874616,0.015941203,-0.04745509,9.929016,0.102890015,-1.1425781,9.745699,0.1635095,-1.0793555,-0.0023956299,0.07467651,-0.011199951,-31.13861,68.099976,-37.61902,0,0.0,0.0,0.0,0.0
0.854980469,-0.08567547,-0.5106527,-0.85550773,-0.07014634,0.8596258,-0.50608593,0.9938507,0.016651584,-0.10946926,-0.035480015,-0.49543852,-0.86791813,-0.038602814,0.8684962,-0.49419045,0.99862456,0.015970195,-0.049939577,9.958923,0.08375549,-1.0935211,9.7463455,0.16329625,-1.0735266,-0.0046844482,0.077438354,-0.014404297,-31.318665,68.2785,-37.61902,0,0.0,0.0,0.0,0.0
0.86328125,-0.08520084,-0.51050854,-0.8556411,-0.06983309,0.8597115,-0.5059835,0.99391353,0.016641859,-0.108898535,-0.036496345,-0.49574435,-0.8677013,-0.03921788,0.8683214,-0.49444908,0.998564,0.015983824,-0.051132604,9.944565,0.088531494,-1.1162567,9.746963,0.16320089,-1.0679299,-0.004989624,0.07621765,-0.006164551,-31.318665,68.2785,-37.61902,0,0.0,0.0,0.0,0.0
0.871582032,-0.08460599,-0.5120162,-0.8547989,-0.06967055,0.858815,-0.507526,0.99397576,0.01661456,-0.10833337,-0.038447913,-0.49633178,-0.8672811,-0.040401477,0.8679853,-0.49494374,0.99844354,0.016009884,-0.05342476,9.930206,0.08734131,-1.0468597,9.747573,0.16293319,-1.0623875,-0.0019226074,0.066589355,-0.00982666,-31.079102,68.33954,-37.85858,0,0.0,0.0,0.0,0.0
0.879882813,-0.08410674,-0.51186633,-0.85493803,-0.06931977,0.8589051,-0.5074219,0.9940427,0.016586507,-0.10772214,-0.03938283,-0.4966471,-0.86705863,-0.040971726,0.8678047,-0.49521345,0.9983838,0.016021978,-0.054525092,9.930206,0.08734131,-1.036087,9.748229,0.16265807,-1.0563934,-0.006210327,0.061401367,-0.012268066,-31.079102,68.33954,-37.85858,0,0.0,0.0,0.0,0.0
0.888183594,-0.08391496,-0.50890166,-0.8567248,-0.068772584,0.8606649,-0.50450593,0.9940969,0.016583582,-0.10722115,-0.04117541,-0.4972527,-0.8666281,-0.042066727,0.86745733,-0.49572983,0.9982659,0.016044332,-0.056635704,9.956528,0.10647583,-1.0301056,9.74876,0.1626294,-1.0514803,-3.9672852E-4,0.031158447,-0.0055389404,-30.958557,68.63861,-37.739563,0,0.0,0.0,0.0,0.0
0.896484375,-0.083643444,-0.5088204,-0.85679966,-0.06858307,0.86071324,-0.50444925,0.9941328,0.016568068,-0.10688949,-0.042884033,-0.49771577,-0.86627936,-0.043104697,0.8671914,-0.4961059,0.9981498,0.016065687,-0.05864255,9.956528,0.10647583,-1.0301056,9.749113,0.16247725,-1.0482278,-0.014755249,0.019866943,-0.008758545,-30.958557,68.63861,-37.739563,0,0.0,0.0,0.0,0.0
0.904785157,-0.08349528,-0.508776,-0.85684043,-0.06844384,0.8607403,-0.50442207,0.99415493,0.016528586,-0.10669033,-0.04370676,-0.4979387,-0.86611015,-0.043605074,0.8670632,-0.49628615,0.99809235,0.016075734,-0.05960918,9.944565,0.071777344,-1.0325012,9.74933,0.16209006,-1.0462748,-0.014755249,0.009017944,-0.013793945,-30.958557,68.63861,-37.739563,0,0.0,0.0,0.0,0.0
0.913085938,-0.08310947,-0.5120938,-0.85489935,-0.06875301,0.85876954,-0.5077282,0.9941659,0.016579878,-0.10657986,-0.045296416,-0.4983694,-0.8657807,-0.044571757,0.8668154,-0.49663308,0.99797875,0.016093668,-0.06147683,9.936203,0.12322998,-1.02771,9.749437,0.16259307,-1.0451914,-0.0155181885,-0.005340576,-0.007385254,-31.019592,68.63861,-38.09967,0,0.0,0.0,0.0,0.0
0.921386719,-0.082898945,-0.5151144,-0.8531031,-0.069083296,0.8569607,-0.5107307,0.9941606,0.016596144,-0.10662694,-0.046810262,-0.49891528,-0.86538565,-0.045508206,0.866501,-0.4970967,0.99786663,0.016112922,-0.06326588,9.94577,0.114852905,-1.0755768,9.749386,0.1627526,-1.0456532,-0.017807007,-0.011291504,-0.0056915283,-31.199646,67.91992,-37.979126,0,0.0,0.0,0.0,0.0
0.9296875,-0.083053604,-0.5151612,-0.85305977,-0.06913041,0.8569335,-0.5107701,0.99414444,0.016551089,-0.10678472,-0.04754154,-0.49924096,-0.8651579,-0.045967184,0.8663131,-0.49738166,0.99781096,0.016122587,-0.06413457,9.930206,0.07777405,-1.1066742,9.749227,0.16231073,-1.0472004,-0.017807007,-0.018920898,-0.011505127,-31.199646,67.91992,-37.979126,0,0.0,0.0,0.0,0.0
0.937988282,-0.08294129,-0.5185895,-0.85099095,-0.069564894,0.8548631,-0.5141691,0.9941235,0.016553253,-0.10697907,-0.048261028,-0.4995611,-0.86493325,-0.046418384,0.86612844,-0.49766135,0.9977556,0.016131157,-0.06498907,9.930206,0.07777405,-1.1066742,9.749022,0.16233195,-1.0491064,-0.018875122,-0.017242432,-0.011505127,-31.619263,67.37976,-37.979126,0,0.0,0.0,0.0,0.0
0.946289063,-0.08309313,-0.5186363,-0.85094756,-0.0696695,0.8548345,-0.51420224,0.9941035,0.016558426,-0.107164025,-0.050330788,-0.500687,-0.86416394,-0.047739,0.86547756,-0.49866772,0.99759096,0.01615598,-0.06746247,9.934998,0.098098755,-1.1210327,9.748825,0.16238269,-1.0509201,-0.015670776,-0.008392334,-0.0105896,-31.619263,67.37976,-37.979126,0,0.0,0.0,0.0,0.0
0.954589844,-0.083220415,-0.51867557,-0.8509112,-0.0697325,0.8548111,-0.5142328,0.9940884,0.016541503,-0.10730629,-0.05099562,-0.5010482,-0.8639156,-0.048164796,0.8652684,-0.4989897,0.9975368,0.016164029,-0.06825779,9.919449,0.07896423,-1.1210327,9.748677,0.16221674,-1.0523152,-0.015060425,-0.0045776367,-0.013031006,-31.619263,67.37976,-37.979126,0,0.0,0.0,0.0,0.0
0.962890625,-0.08326641,-0.51857233,-0.8509697,-0.069771126,0.85487336,-0.51412416,0.9940819,0.016563848,-0.107363604,-0.05228974,-0.5017503,-0.8634307,-0.048994888,0.86486125,-0.49961448,0.9974293,0.016178979,-0.06980656,9.919449,0.07896423,-1.1210327,9.748613,0.16243586,-1.0528773,-0.016433716,-0.01449585,-0.011199951,-31.199646,66.8396,-37.678528,0,0.0,0.0,0.0,0.0
0.971191407,-0.08326726,-0.51953644,-0.8503813,-0.06990091,0.8542879,-0.5150786,0.9940727,0.016553244,-0.107450284,-0.053532977,-0.5024201,-0.8629648,-0.049795624,0.864472,-0.50020856,0.99732375,0.016194219,-0.07129608,9.931412,0.08375549,-1.0624084,9.748523,0.16233188,-1.0537274,-0.015975952,-0.018173218,-0.008132935,-31.3797,66.89911,-37.799072,0,0.0,0.0,0.0,0.0
0.979492188,-0.08346104,-0.51959604,-0.85032594,-0.07000076,0.8542521,-0.51512444,0.9940493,0.016530644,-0.10766888,-0.05413598,-0.50276446,-0.8627266,-0.050186586,0.86427164,-0.5005156,0.9972716,0.016201397,-0.07202022,9.915863,0.07896423,-1.1222382,9.748294,0.16211024,-1.055871,-0.014907837,-0.02305603,-0.0107421875,-31.3797,66.89911,-37.799072,0,0.0,0.0,0.0,0.0
0.987792969,-0.08377263,-0.5184819,-0.8509751,-0.069983564,0.8549294,-0.51400185,0.99402434,0.016494984,-0.10790491,-0.05531291,-0.50343466,-0.86226094,-0.050950248,0.8638811,-0.5011122,0.99716824,0.016214436,-0.0734339,9.938583,0.07896423,-1.1246338,9.748049,0.16176054,-1.0581857,-0.016738892,-0.020767212,-0.010284424,-30.958557,67.13867,-37.85858,0,0.0,0.0,0.0,0.0
0.99609375,-0.08398712,-0.51854664,-0.8509145,-0.07010531,0.85489047,-0.51405,0.9939977,0.016480044,-0.10815266,-0.056453526,-0.50403345,-0.86183715,-0.0516859,0.86353165,-0.5016389,0.99706644,0.016225543,-0.074800834,9.934998,0.08734131,-1.134201,9.747787,0.16161403,-1.0606153,-0.017196655,-0.016174316,-0.011047363,-30.958557,67.13867,-37.85858,0,0.0,0.0,0.0,0.0
1.004394532,-0.0841677,-0.5186012,-0.85086346,-0.07022504,0.8548573,-0.51408875,0.9939739,0.01648225,-0.108370155,-0.057010762,-0.5043252,-0.8616297,-0.052045614,0.86336124,-0.501895,0.997016,0.016230632,-0.07546881,9.934998,0.08734131,-1.134201,9.747555,0.16163567,-1.0627482,-0.013381958,-0.013580322,-0.013031006,-30.958557,67.13867,-37.85858,0,0.0,0.0,0.0,0.0
1.012695313,-0.08442249,-0.5173763,-0.85158366,-0.07018566,0.8555996,-0.5128582,0.9939552,0.016472189,-0.10854423,-0.058098495,-0.50489324,-0.86122435,-0.052749157,0.863029,-0.5023927,0.9969163,0.016240597,-0.07677338,9.934998,0.090927124,-1.138977,9.747371,0.16153699,-1.0644553,-0.017807007,-0.0076293945,-0.0105896,-31.019592,67.07916,-37.678528,0,0.0,0.0,0.0,0.0
1.020996094,-0.0845422,-0.5174126,-0.8515497,-0.070255846,0.85557765,-0.51288503,0.99394,0.01646592,-0.10868367,-0.058630504,-0.50514394,-0.86104125,-0.053090885,0.8628822,-0.5026089,0.996867,0.016245227,-0.07740976,9.934998,0.090927124,-1.138977,9.747222,0.16147551,-1.0658227,-0.020568848,-0.003967285,-0.011657715,-31.019592,67.07916,-37.678528,0,0.0,0.0,0.0,0.0
1.029296875,-0.084239624,-0.521781,-0.8489101,-0.07074939,0.8529201,-0.51722515,0.99393064,0.016489023,-0.10876534,-0.05966676,-0.5056318,-0.8606837,-0.053757332,0.8625963,-0.50302875,0.99676985,0.016253967,-0.078649744,9.943375,0.10169983,-1.1282196,9.74713,0.16170208,-1.0666237,-0.016281128,0.010848999,-0.011810303,-30.899048,66.778564,-37.979126,0,0.0,0.0,0.0,0.0
1.037597657,-0.084437,-0.5189382,-0.8506313,-0.07046547,0.8546524,-0.5143966,0.9939341,0.016506026,-0.1087315,-0.060652614,-0.5062748,-0.86023664,-0.0544132,0.8622188,-0.50360495,0.9966747,0.016263273,-0.07984385,9.957733,0.10169983,-1.1078796,9.747164,0.16186881,-1.0662918,-0.016433716,0.015731812,-0.0093688965,-30.958557,66.89911,-37.739563,0,0.0,0.0,0.0,0.0
1.045898438,-0.08435425,-0.51891315,-0.8506548,-0.07041901,0.8546675,-0.5143779,0.9939444,0.016512303,-0.10863618,-0.061133314,-0.50652915,-0.8600528,-0.05472771,0.86206937,-0.5038267,0.9966281,0.016268129,-0.08042234,9.957733,0.10169983,-1.1078796,9.747266,0.1619304,-1.0653571,-0.016433716,0.019256592,-0.008911133,-30.958557,66.89911,-37.739563,0,0.0,0.0,0.0,0.0
1.054199219,-0.084258676,-0.5188842,-0.8506819,-0.070348725,0.8546852,-0.51435816,0.9939575,0.016505249,-0.10851748,-0.062062073,-0.5070216,-0.85969615,-0.055336926,0.86177963,-0.50425553,0.996537,0.016277796,-0.081540845,9.932602,0.0993042,-1.1126556,9.747394,0.16186121,-1.064193,-0.014602661,0.013900757,-0.0043182373,-30.958557,66.89911,-37.739563,0,0.0,0.0,0.0,0.0
1.0625,-0.08450659,-0.5149598,-0.8530386,-0.06990061,0.85705554,-0.5104601,0.99396807,0.016490687,-0.10842287,-0.06294954,-0.5074932,-0.8593533,-0.055920288,0.8615019,-0.50466573,0.9964489,0.016286803,-0.08261031,9.937393,0.10647583,-1.1042938,9.747497,0.16171838,-1.0632651,-0.015975952,0.009628296,-0.009216309,-30.958557,67.19971,-37.5,0,0.0,0.0,0.0,0.0
1.070800782,-0.08444286,-0.51494056,-0.85305667,-0.06987447,0.85706705,-0.5104446,0.99397534,0.016503474,-0.10835439,-0.06338343,-0.507643,-0.85923296,-0.05619656,0.86141354,-0.50478584,0.99640584,0.01629088,-0.083127126,9.937393,0.10647583,-1.1042938,9.747569,0.1618438,-1.0625937,-0.017044067,0.012832642,-0.015625,-30.958557,67.19971,-37.5,0,0.0,0.0,0.0,0.0
1.079101563,-0.08478013,-0.50980085,-0.85610485,-0.069347605,0.8601337,-0.50533247,0.99398345,0.016526671,-0.10827569,-0.06462954,-0.5080731,-0.8588858,-0.056992076,0.8611596,-0.50512964,0.99628055,0.016303385,-0.08461249,9.948166,0.100494385,-1.0803528,9.747648,0.16207129,-1.0618218,-0.0074310303,3.0517578E-4,-0.00630188,-30.479431,67.73987,-37.319946,0,0.0,0.0,0.0,0.0
1.087402344,-0.084894255,-0.5080263,-0.8571478,-0.069150835,0.8611831,-0.50356907,0.99398744,0.016522355,-0.10823993,-0.065429114,-0.5081416,-0.8587847,-0.057480436,0.8611191,-0.50514346,0.9962003,0.016312229,-0.08555046,9.952942,0.0993042,-1.051651,9.747687,0.16202897,-1.0614711,-0.015213013,-0.007171631,-0.0105896,-30.718994,68.099976,-37.319946,0,0.0,0.0,0.0,0.0
1.095703125,-0.08487282,-0.50801986,-0.8571537,-0.06912751,0.8611871,-0.50356555,0.99399096,0.016513875,-0.10820951,-0.065429114,-0.5081416,-0.8587847,-0.057480436,0.8611191,-0.50514346,0.9962003,0.016312229,-0.08555046,9.952942,0.0993042,-1.051651,9.747722,0.16194579,-1.0611728,-0.015213013,-0.007171631,-0.0105896,-30.718994,68.099976,-37.319946,0,0.0,0.0,0.0,0.0
1.104003907,-0.08494377,-0.5080411,-0.8571341,-0.06919475,0.86117417,-0.50357836,0.99398017,0.016533336,-0.10830514,-0.06619973,-0.5081368,-0.85872847,-0.057942383,0.8611218,-0.5050862,0.9961226,0.016320212,-0.086448684,9.936203,0.090927124,-1.0743713,9.747616,0.16213664,-1.0621107,-0.023468018,-0.01663208,-0.01272583,-30.718994,68.099976,-37.319946,0,0.0,0.0,0.0,0.0
1.112304688,-0.08469761,-0.5125582,-0.8544649,-0.069732435,0.85849285,-0.5080623,0.99396366,0.016552264,-0.108454235,-0.06694256,-0.508133,-0.85867316,-0.058388617,0.86112374,-0.5050313,0.99604696,0.01632865,-0.087315015,9.940979,0.095718384,-1.0779724,9.747454,0.16232227,-1.0635728,-0.01826477,-0.021835327,-0.009979248,-30.419922,67.73987,-37.61902,0,0.0,0.0,0.0,0.0
1.120605469,-0.0848276,-0.51259667,-0.854429,-0.06981799,0.85846984,-0.50808936,0.9939465,0.016554518,-0.10861041,-0.06729918,-0.5082216,-0.8585928,-0.058614008,0.86107147,-0.50509447,0.99600965,0.016333124,-0.087738305,9.940979,0.095718384,-1.0779724,9.747286,0.16234437,-1.0651042,-0.020263672,-0.025039673,-0.008132935,-30.419922,67.73987,-37.61902,0,0.0,0.0,0.0,0.0
1.12890625,-0.084585905,-0.51809216,-0.8511321,-0.07050691,0.8551643,-0.5135396,0.9939185,0.016572477,-0.10886391,-0.067995995,-0.5083951,-0.8584352,-0.059054766,0.8609689,-0.5052179,0.99593633,0.016341891,-0.088565595,9.929016,0.112457275,-1.1294098,9.74701,0.16252048,-1.0675902,-0.020263672,-0.024734497,-0.011047363,-31.019592,67.25922,-37.85858,0,0.0,0.0,0.0,0.0
1.137207032,-0.084214725,-0.5248574,-0.847014,-0.07130262,0.85102874,-0.52025586,0.99389327,0.016581114,-0.10909284,-0.06865835,-0.50878024,-0.8581543,-0.059501525,0.86074114,-0.5055534,0.9958643,0.016351026,-0.089370266,9.913467,0.09690857,-1.1150513,9.746764,0.1626052,-1.0698354,-0.016586304,-0.023971558,-0.007217407,-31.559753,66.8396,-38.279724,0,0.0,0.0,0.0,0.0
1.145507813,-0.084397845,-0.5249135,-0.846961,-0.07142487,0.85099405,-0.5202957,0.9938689,0.016582245,-0.10931393,-0.06897372,-0.50910354,-0.85793716,-0.059731774,0.86054987,-0.50585186,0.9958287,0.016355626,-0.08976498,9.913467,0.09690857,-1.1150513,9.746525,0.16261627,-1.0720035,-0.014450073,-0.023971558,-0.007217407,-31.559753,66.8396,-38.279724,0,0.0,0.0,0.0,0.0
1.153808594,-0.0845796,-0.52496916,-0.8469084,-0.07156222,0.8509595,-0.5203335,0.9938436,0.01659705,-0.10954176,-0.06959279,-0.5097329,-0.85751337,-0.06018403,0.86017704,-0.506432,0.99575835,0.016364599,-0.090539895,9.917053,0.11843872,-1.1162567,9.746277,0.16276146,-1.0742377,-0.01965332,-0.027023315,-0.0079956055,-31.559753,66.8396,-38.279724,0,0.0,0.0,0.0,0.0
1.162109375,-0.0850208,-0.52191585,-0.8487493,-0.07138219,0.85283536,-0.517278,0.99381894,0.016606193,-0.10976423,-0.07019385,-0.51033944,-0.8571035,-0.060624417,0.85981715,-0.50699025,0.99568945,0.016373802,-0.09129291,9.944565,0.11366272,-1.0959167,9.746035,0.16285113,-1.0764195,-0.015975952,-0.034194946,-0.004470825,-31.678772,67.01965,-38.038635,0,0.0,0.0,0.0,0.0
1.170410157,-0.085236266,-0.52198225,-0.8486869,-0.071518406,0.85279477,-0.517326,0.9937906,0.016601795,-0.11002038,-0.070493415,-0.5105719,-0.85694045,-0.060835782,0.85967904,-0.5071991,0.9956554,0.016378451,-0.09166276,9.944565,0.11366272,-1.0959167,9.745757,0.162808,-1.0789313,-0.011703491,-0.031295776,-0.0066070557,-31.678772,67.01965,-38.038635,0,0.0,0.0,0.0,0.0
1.178710938,-0.08559198,-0.52057564,-0.8495146,-0.07149432,0.8536547,-0.51590925,0.99376184,0.016577767,-0.11028419,-0.07108279,-0.51102555,-0.8566213,-0.061251502,0.8594093,-0.507606,0.995588,0.016387291,-0.0923903,9.948166,0.09451294,-1.0947113,9.745475,0.16257237,-1.0815184,-0.020263672,-0.040618896,-0.009521484,-31.259155,67.01965,-37.919617,0,0.0,0.0,0.0,0.0
1.187011719,-0.085851476,-0.5206545,-0.84944004,-0.07166046,0.8536066,-0.5159657,0.9937275,0.016574847,-0.11059373,-0.07137533,-0.5112172,-0.8564827,-0.061453305,0.85929525,-0.5077747,0.9955547,0.0163911,-0.09274847,9.948166,0.09451294,-1.0947113,9.745137,0.16254371,-1.084554,-0.018569946,-0.049316406,-0.010437012,-31.259155,67.01965,-37.919617,0,0.0,0.0,0.0,0.0
1.1953125,-0.08561959,-0.52727014,-0.8453729,-0.07254562,0.8495357,-0.52251905,0.9936833,0.016590232,-0.11098805,-0.07195315,-0.5115921,-0.8562104,-0.061851688,0.85907197,-0.5081041,0.9954884,0.016398376,-0.09345576,9.911072,0.1040802,-1.1126556,9.744704,0.1626946,-1.088421,-0.014144897,-0.047943115,-0.011962891,-31.439209,66.95862,-38.578796,0,0.0,0.0,0.0,0.0
1.203613282,-0.085984655,-0.5273806,-0.84526706,-0.07282181,0.8494666,-0.522593,0.99363154,0.016618902,-0.111445904,-0.07250163,-0.51221627,-0.85579085,-0.06226553,0.8586998,-0.5086823,0.9954228,0.016405974,-0.09415055,9.944565,0.110076904,-1.1521454,9.744197,0.16297576,-1.092911,-0.008804321,-0.05404663,-0.012420654,-31.439209,66.95862,-38.578796,0,0.0,0.0,0.0,0.0
1.211914063,-0.08648141,-0.5260146,-0.84606713,-0.072962776,0.8503123,-0.521196,0.993578,0.016657647,-0.111915685,-0.07277496,-0.51252115,-0.8555851,-0.062471956,0.85851777,-0.5089641,0.9953899,0.016410232,-0.0944968,9.944565,0.110076904,-1.1521454,9.743672,0.16335572,-1.097518,-0.009719849,-0.052368164,-0.015777588,-31.3797,67.01965,-38.459778,0,0.0,0.0,0.0,0.0
1.220214844,-0.086876296,-0.5261337,-0.8459526,-0.073227994,0.85023856,-0.5212791,0.9935241,0.016660618,-0.1123933,-0.07332414,-0.5130579,-0.85521644,-0.06287925,0.8581969,-0.50945485,0.99532396,0.01642003,-0.09518724,9.938583,0.095718384,-1.1557312,9.743144,0.16338485,-1.1022018,-0.010025024,-0.05053711,-0.0050811768,-31.3797,67.01965,-38.459778,0,0.0,0.0,0.0,0.0
1.228515625,-0.0872355,-0.52686036,-0.8454633,-0.07352951,0.8497891,-0.52196926,0.9934704,0.01663225,-0.112871565,-0.073866904,-0.513578,-0.85485744,-0.063281246,0.8578856,-0.5099292,0.99525833,0.016429557,-0.09586921,9.94577,0.095718384,-1.1724854,9.742617,0.16310665,-1.106892,-0.014450073,-0.046417236,-0.0093688965,-31.079102,66.95862,-38.519287,0,0.0,0.0,0.0,0.0
1.236816407,-0.08761193,-0.5269725,-0.8453544,-0.07375356,0.8497199,-0.5220501,0.9934206,0.016610088,-0.11331171,-0.07413735,-0.51384485,-0.8546737,-0.06348212,0.8577257,-0.51017314,0.9952254,0.01643361,-0.096209474,9.94577,0.095718384,-1.1724854,9.742128,0.16288932,-1.1112083,-0.018569946,-0.04244995,-0.009521484,-31.079102,66.95862,-38.519287,0,0.0,0.0,0.0,0.0
1.245117188,-0.08840216,-0.52173537,-0.8485148,-0.073430166,0.8529455,-0.51680946,0.9933746,0.016619511,-0.11371333,-0.07467704,-0.51436704,-0.85431254,-0.06388107,0.8574125,-0.51064956,0.99515957,0.016440596,-0.09688735,9.94696,0.10647583,-1.2047882,9.741677,0.16298173,-1.1151469,-0.012466431,-0.025497437,-0.007385254,-31.259155,67.25922,-38.09967,0,0.0,0.0,0.0,0.0
1.253417969,-0.08872558,-0.52183264,-0.8484211,-0.07361917,0.85288626,-0.5168801,0.99333173,0.016599577,-0.11408972,-0.07522413,-0.5146596,-0.85408825,-0.06425507,0.85723686,-0.5108975,0.9950943,0.016447684,-0.09755439,9.937393,0.08973694,-1.2538452,9.741257,0.16278625,-1.118838,-0.015823364,-0.011138916,-0.011199951,-31.259155,67.25922,-38.09967,0,0.0,0.0,0.0,0.0
1.26171875,-0.08945413,-0.5160762,-0.8518588,-0.073142886,0.85638213,-0.5111358,0.9933016,0.016584205,-0.11435421,-0.075495824,-0.51480335,-0.8539777,-0.06444025,0.85715044,-0.5110192,0.99506176,0.016450724,-0.09788534,9.937393,0.08973694,-1.2538452,9.740961,0.16263549,-1.1214317,-0.010940552,0.005355835,-0.0107421875,-30.718994,67.61932,-37.739563,0,0.0,0.0,0.0,0.0
1.270019532,-0.08948939,-0.5160865,-0.8518488,-0.07320499,0.8563752,-0.51113844,0.9932939,0.01661811,-0.114416614,-0.07604951,-0.5148538,-0.85389817,-0.06478446,0.85712004,-0.5110266,0.9949972,0.01645601,-0.09853808,9.912262,0.11605835,-1.2299042,9.740886,0.162968,-1.1220437,-0.012619019,0.026428223,-0.013946533,-30.718994,67.61932,-37.739563,0,0.0,0.0,0.0,0.0
1.278320313,-0.08997812,-0.5087093,-0.85622364,-0.07239513,0.8607774,-0.503807,0.9933091,0.016654812,-0.11427918,-0.07658249,-0.51490253,-0.8538211,-0.06511746,0.8570906,-0.5110336,0.99493456,0.01646243,-0.09916729,9.929016,0.122039795,-1.2143555,9.7410345,0.16332792,-1.120696,-0.010177612,0.05055237,-0.00340271,-30.119324,68.03894,-37.25891,0,0.0,0.0,0.0,0.0
1.286621094,-0.08974825,-0.50864244,-0.85628736,-0.07223416,0.86081696,-0.5037622,0.99334157,0.016641434,-0.11399818,-0.07684949,-0.514779,-0.85387164,-0.06526501,0.8571648,-0.51089036,0.9949043,0.016466277,-0.09946972,9.94696,0.107681274,-1.2012024,9.741353,0.16319673,-1.1179403,-0.010635376,0.048568726,-0.0053863525,-30.119324,68.03894,-37.25891,0,0.0,0.0,0.0,0.0
1.294921875,-0.08972627,-0.5078995,-0.8567306,-0.072070986,0.8612562,-0.5030344,0.99335545,0.016610023,-0.11388212,-0.07735865,-0.5145364,-0.85397184,-0.06554472,0.8573103,-0.5106104,0.9948464,0.016473213,-0.1000455,9.949356,0.1040802,-1.3483582,9.741489,0.16288869,-1.1168021,-0.03475952,0.04689026,-0.0035552979,-30.178833,67.97943,-37.139893,0,0.0,0.0,0.0,0.0
1.303222657,-0.08933547,-0.5077852,-0.8568391,-0.071819164,0.8613236,-0.50295484,0.99340886,0.016605763,-0.11341547,-0.07784662,-0.51427424,-0.85408545,-0.06580693,0.8574675,-0.5103127,0.99479115,0.016478632,-0.10059375,9.933807,0.10887146,-1.0911255,9.742013,0.16284691,-1.1122259,-0.07003784,0.055740356,0.0019378662,-30.178833,67.97943,-37.139893,0,0.0,0.0,0.0,0.0
1.311523438,-0.088945426,-0.5074858,-0.85705703,-0.07153376,0.8615002,-0.50269294,0.99346447,0.01659628,-0.11292888,-0.07807559,-0.5141447,-0.8541424,-0.06592896,0.857545,-0.51016647,0.9947651,0.016481172,-0.100850366,9.933807,0.10887146,-1.0911255,9.7425585,0.16275391,-1.1074541,-0.04637146,0.051620483,-0.0024871826,-30.239868,67.91992,-37.078857,0,0.0,0.0,0.0,0.0
1.319824219,-0.0884929,-0.5073529,-0.85718256,-0.0712339,0.8615787,-0.50260097,0.9935264,0.016583843,-0.112384334,-0.07850451,-0.51388156,-0.8542616,-0.06615421,0.85770273,-0.5098722,0.9947164,0.01648573,-0.10132896,9.931412,0.10887146,-1.0576324,9.743166,0.16263194,-1.1021138,-0.040863037,0.059570313,-0.008132935,-30.239868,67.91992,-37.078857,0,0.0,0.0,0.0,0.0
1.328125,-0.08844247,-0.50247175,-0.8600581,-0.07045485,0.8644347,-0.4977836,0.9935864,0.016570061,-0.11185432,-0.078898646,-0.51362354,-0.8543803,-0.06635832,0.85785717,-0.5095857,0.9946716,0.016489618,-0.101766974,9.923035,0.122039795,-1.1652985,9.743754,0.16249679,-1.0969162,-0.016433716,0.06994629,-0.012420654,-30.059814,68.03894,-36.65924,0,0.0,0.0,0.0,0.0
1.336425782,-0.08802826,-0.50235,-0.8601718,-0.07024159,0.8645049,-0.49769214,0.99363834,0.016608862,-0.11138672,-0.07908849,-0.51340127,-0.85449636,-0.06644266,0.85799015,-0.5093508,0.99465084,0.016491227,-0.10196889,9.923035,0.122039795,-1.1652985,9.744264,0.1628773,-1.0923306,-0.003768921,0.071777344,-0.010437012,-30.059814,68.03894,-36.65924,0,0.0,0.0,0.0,0.0
1.344726563,-0.08712513,-0.5073121,-0.8573468,-0.07048092,0.8616018,-0.5026675,0.993701,0.016631624,-0.110823005,-0.07944063,-0.51296526,-0.8547256,-0.06659742,0.85825086,-0.5088912,0.99461246,0.016495883,-0.10234215,9.937393,0.11366272,-1.1569366,9.744878,0.16310053,-1.0868025,-0.0084991455,0.09500122,-0.007827759,-30.358887,67.97943,-37.139893,0,0.0,0.0,0.0,0.0
1.353027344,-0.086572446,-0.50714874,-0.8574995,-0.07010059,0.8616986,-0.50255495,0.99377626,0.016603807,-0.110150784,-0.07974402,-0.5127418,-0.85483146,-0.06675317,0.8583843,-0.5086457,0.99457777,0.01650126,-0.10267816,9.929016,0.088531494,-1.1485596,9.745616,0.16282773,-1.0802102,-0.0068206787,0.104766846,-0.011657715,-30.358887,67.97943,-37.139893,0,0.0,0.0,0.0,0.0
1.361328125,-0.08606966,-0.50537646,-0.8585958,-0.06952024,0.86273974,-0.50084656,0.99386066,0.01658209,-0.1093896,-0.079880156,-0.5126301,-0.85488564,-0.066821,0.8584509,-0.5085243,0.99456227,0.016503312,-0.10282765,9.929016,0.088531494,-1.1485596,9.746444,0.16261476,-1.0727456,-0.0074310303,0.1162262,-0.011657715,-30.718994,67.91992,-36.898804,0,0.0,0.0,0.0,0.0
1.369628907,-0.085310124,-0.50514734,-0.8588063,-0.06903121,0.862874,-0.50068265,0.9939602,0.016571138,-0.10848283,-0.0801244,-0.5123435,-0.85503465,-0.06692986,0.85862195,-0.50822115,0.99453527,0.016506432,-0.10308764,9.937393,0.08135986,-1.0947113,9.74742,0.16250736,-1.0638531,-0.011398315,0.114089966,-0.014251709,-30.718994,67.91992,-36.898804,0,0.0,0.0,0.0,0.0
1.377929688,-0.08411044,-0.50947315,-0.8563659,-0.06895481,0.860327,-0.50505704,0.99406767,0.016569978,-0.1074931,-0.080328956,-0.5120592,-0.8551857,-0.067014635,0.85879153,-0.5079235,0.9945131,0.016508993,-0.103301294,9.933807,0.08375549,-1.0325012,9.748474,0.16249597,-1.0541472,-0.0098724365,0.10232544,-0.009979248,-30.839539,67.61932,-37.1994,0,0.0,0.0,0.0,0.0
1.386230469,-0.0833454,-0.5092412,-0.8565786,-0.06845787,0.86046445,-0.50489044,0.9941665,0.016559256,-0.10657732,-0.08040445,-0.51200753,-0.8552095,-0.067053646,0.8588223,-0.5078662,0.99450433,0.016510213,-0.1033851,9.933807,0.08375549,-1.0325012,9.749443,0.16239084,-1.0451665,-0.0071258545,0.09561157,-0.012420654,-30.839539,67.61932,-37.1994,0,0.0,0.0,0.0,0.0
1.39453125,-0.0825046,-0.5102388,-0.8560662,-0.06809835,0.8598735,-0.50594497,0.9942613,0.016553905,-0.105689935,-0.08052079,-0.51189804,-0.8552641,-0.06710964,0.8588875,-0.5077485,0.99449116,0.016512157,-0.103511594,9.952942,0.095718384,-0.9750824,9.750373,0.16233836,-1.0364642,-0.008651733,0.065979004,-0.004928589,-30.839539,67.49878,-37.25891,0,0.0,0.0,0.0,0.0
1.402832032,-0.08196217,-0.510074,-0.8562165,-0.06769551,0.8599722,-0.5058312,0.9943337,0.016502997,-0.1050149,-0.08059921,-0.51183236,-0.85529613,-0.067148894,0.85892665,-0.50767714,0.99448216,0.01651381,-0.103597775,9.964905,0.07417297,-0.9954071,9.751082,0.16183911,-1.0298444,-0.0016174316,0.038345337,-0.012420654,-30.839539,67.49878,-37.25891,0,0.0,0.0,0.0,0.0
1.411132813,-0.081695445,-0.5086171,-0.8571081,-0.067278996,0.86083543,-0.5044162,0.99438393,0.016456876,-0.10454559,-0.080626436,-0.51179713,-0.8553146,-0.06715986,0.8589476,-0.5076402,0.9944792,0.016513592,-0.10362611,9.964905,0.07417297,-0.9954071,9.751575,0.16138682,-1.0252421,-0.010482788,0.027496338,-0.009979248,-30.958557,67.559814,-37.139893,0,0.0,0.0,0.0,0.0
1.419433594,-0.08145252,-0.5085428,-0.85717535,-0.0671063,0.8608797,-0.5043638,0.9944155,0.016440174,-0.10424725,-0.08066872,-0.51167136,-0.85538584,-0.06716471,0.85902256,-0.5075127,0.9944755,0.016511345,-0.10366251,9.950546,0.08375549,-1.0109711,9.751885,0.16122302,-1.0223163,-0.017501831,0.014663696,-0.009521484,-30.958557,67.559814,-37.139893,0,0.0,0.0,0.0,0.0
1.427734375,-0.08114867,-0.510174,-0.8562344,-0.06717189,0.85991377,-0.50600016,0.99443597,0.016453637,-0.10405022,-0.08069982,-0.5115476,-0.8554569,-0.067162536,0.85909635,-0.5073881,0.9944731,0.016508527,-0.10368576,9.908676,0.107681274,-1.0073853,9.752086,0.16135506,-1.0203841,-0.015670776,0.0116119385,-0.014099121,-30.839539,67.73987,-37.438965,0,0.0,0.0,0.0,0.0
1.436035157,-0.0810207,-0.51013523,-0.8562697,-0.06711864,0.8599364,-0.5059689,0.99445,0.0164777,-0.10391222,-0.08070875,-0.5115202,-0.8554725,-0.06716271,0.8591127,-0.5073604,0.9944723,0.016507428,-0.103692986,9.908676,0.107681274,-1.0073853,9.752223,0.16159104,-1.0190308,-0.012466431,0.0018463135,-0.011962891,-30.839539,67.73987,-37.438965,0,0.0,0.0,0.0,0.0
1.444335938,-0.0808751,-0.51122165,-0.8556352,-0.06718813,0.85929084,-0.5070551,0.99445707,0.016480388,-0.103843264,-0.08072107,-0.5114654,-0.8555041,-0.067160964,0.85914534,-0.50730526,0.99447143,0.016506253,-0.103701636,9.954147,0.09690857,-1.0085754,9.752294,0.16161741,-1.0183547,-0.014450073,-0.014190674,-0.013183594,-31.199646,67.79938,-37.55951,0,0.0,0.0,0.0,0.0
1.452636719,-0.08092395,-0.51123667,-0.85562164,-0.0672419,0.85928154,-0.5070638,0.9944495,0.01650002,-0.10391297,-0.08072704,-0.5114557,-0.85550934,-0.06716196,0.8591511,-0.5072954,0.99447095,0.01650523,-0.1037071,9.940979,0.10887146,-1.0372925,9.752218,0.16180992,-1.0190382,-0.018417358,-0.025650024,-0.0052337646,-31.199646,67.79938,-37.55951,0,0.0,0.0,0.0,0.0
1.4609375,-0.081087045,-0.51067024,-0.85594434,-0.06727864,0.8596179,-0.5064884,0.9944337,0.016517127,-0.10406108,-0.0807309,-0.51145136,-0.85551155,-0.06716353,0.85915375,-0.50729084,0.9944705,0.016505126,-0.10371113,9.940979,0.10887146,-1.0372925,9.752064,0.16197768,-1.0204906,-0.021011353,-0.024429321,-0.007522583,-31.019592,67.97943,-37.61902,0,0.0,0.0,0.0,0.0
1.469238282,-0.08126235,-0.5107235,-0.85589594,-0.06738654,0.85958636,-0.5065276,0.9944121,0.016514242,-0.1042679,-0.080745004,-0.5114204,-0.8555287,-0.0671681,0.8591721,-0.507259,0.994469,0.0165056,-0.103724994,9.939789,0.10887146,-1.0504456,9.751852,0.1619494,-1.0225189,-0.01689148,-0.031295776,-0.011199951,-31.019592,67.97943,-37.61902,0,0.0,0.0,0.0,0.0
1.477539063,-0.08146544,-0.5107851,-0.85583997,-0.06752631,0.8595496,-0.5065714,0.99438596,0.016523646,-0.10451501,-0.080755286,-0.5114065,-0.85553604,-0.06717244,0.8591804,-0.5072444,0.99446785,0.016505774,-0.10373578,9.939789,0.10887146,-1.0504456,9.7515955,0.16204162,-1.0249422,-0.017349243,-0.037872314,-0.00982666,-31.019592,67.97943,-37.61902,0,0.0,0.0,0.0,0.0
1.485839844,-0.082057916,-0.5067044,-0.8582058,-0.06730437,0.8619614,-0.50248647,0.99435234,0.016528014,-0.10483418,-0.08078347,-0.5113819,-0.855548,-0.06718652,0.859195,-0.5072178,0.99446464,0.016506482,-0.103766724,9.957733,0.102890015,-1.0396881,9.751266,0.16208445,-1.0280721,-0.018569946,-0.056655884,-0.0076904297,-30.718994,67.97943,-37.1994,0,0.0,0.0,0.0,0.0
1.494140625,-0.08227541,-0.5086221,-0.85704976,-0.06772658,0.86083084,-0.5043644,0.99430573,0.016548254,-0.105272464,-0.080808915,-0.5112885,-0.85560155,-0.067188986,0.85925055,-0.50712335,0.99446243,0.01650691,-0.10378806,9.950546,0.12562561,-1.0540314,9.750809,0.16228293,-1.0323702,-0.009109497,-0.061538696,-0.005844116,-30.358887,68.099976,-37.5,0,0.0,0.0,0.0,0.0
1.502441407,-0.08267307,-0.5087398,-0.8569416,-0.0679967,0.86076087,-0.5044473,0.9942543,0.016565,-0.10575438,-0.08086702,-0.511183,-0.85565907,-0.0672105,0.8593133,-0.50701416,0.9944563,0.016508548,-0.10384698,9.9266205,0.08135986,-1.0636139,9.750304,0.16244717,-1.0370963,-0.011245728,-0.058792114,-0.010437012,-30.358887,68.099976,-37.5,0,0.0,0.0,0.0,0.0
1.510742188,-0.0832032,-0.50767124,-0.8575239,-0.06817248,0.8613914,-0.50334626,0.994198,0.016579505,-0.106279716,-0.08093843,-0.5110864,-0.8557101,-0.06724182,0.85937077,-0.5069127,0.9944483,0.016510783,-0.10392249,9.943375,0.10887146,-1.0935211,9.749752,0.16258942,-1.042248,-0.006668091,-0.050842285,-0.0121154785,-30.239868,68.39905,-37.55951,1,0.0,0.0,0.0,0.0
1.519042969,-0.083625786,-0.5077952,-0.85740936,-0.068468235,0.8613178,-0.50343204,0.9941423,0.016605396,-0.10679623,-0.08098367,-0.5110182,-0.8557465,-0.067260616,0.8594113,-0.5068415,0.99444336,0.016512157,-0.10396968,9.940979,0.11605835,-1.1174469,9.749206,0.1628433,-1.0473132,-0.012161255,-0.050842285,-0.005844116,-30.239868,68.39905,-37.55951,1,0.0,0.0,0.0,0.0
1.52734375,-0.08401845,-0.5079103,-0.8573028,-0.0687038,0.8612501,-0.5035157,0.9940929,0.01659535,-0.107256256,-0.08108817,-0.5108907,-0.8558127,-0.06730884,0.859487,-0.50670666,0.9944316,0.01651585,-0.1040817,9.940979,0.105285645,-1.1377869,9.748721,0.1627448,-1.0518246,-0.011703491,-0.032211304,-0.007385254,-30.239868,68.39905,-37.55951,1,0.0,0.0,0.0,0.0
1.535644532,-0.084376395,-0.5073769,-0.85758334,-0.06882761,0.86156446,-0.50296044,0.99405396,0.016587421,-0.10761726,-0.08120395,-0.5107728,-0.8558721,-0.067364424,0.85955703,-0.5065805,0.9944184,0.016518997,-0.10420734,9.919449,0.105285645,-1.1377869,9.74834,0.16266704,-1.0553648,-0.020568848,-0.0132751465,-0.0069122314,-30.659485,68.2785,-37.379456,1,0.0,0.0,0.0,0.0
1.543945313,-0.08439333,-0.50970495,-0.85620016,-0.06921341,0.8601887,-0.50525725,0.99402577,0.016620196,-0.1078726,-0.08126724,-0.51070493,-0.85590655,-0.06739391,0.85959727,-0.5065082,0.9944112,0.016520366,-0.104275495,9.937393,0.1268158,-1.154541,9.748063,0.16298845,-1.0578688,-0.017807007,-0.004119873,-0.011657715,-30.718994,68.2785,-37.61902,1,0.0,0.0,0.0,0.0
1.552246094,-0.08448284,-0.5097316,-0.8561754,-0.0692594,0.8601731,-0.5052775,0.994015,0.016610915,-0.10797357,-0.08139088,-0.5106653,-0.85591847,-0.06746605,0.85962075,-0.5064587,0.9943962,0.016524319,-0.10441786,9.923035,0.093322754,-1.1234283,9.747957,0.16289744,-1.058859,-0.014907837,4.7302246E-4,-0.009216309,-30.718994,68.2785,-37.61902,1,0.0,0.0,0.0,0.0
1.560546875,-0.08442228,-0.51100165,-0.85542405,-0.06944658,0.8594187,-0.5065342,0.9940071,0.016643494,-0.1080414,-0.08151335,-0.5106283,-0.8559289,-0.06753726,0.8596426,-0.5064121,0.99438137,0.016527748,-0.1045588,9.932602,0.11126709,-1.1676941,9.74788,0.16321693,-1.0595242,-0.018569946,0.022766113,-0.011657715,-31.13861,67.91992,-37.5,1,0.0,0.0,0.0,0.0
1.568847657,-0.084288076,-0.5109609,-0.85546166,-0.069403864,0.8594422,-0.5065001,0.9940214,0.01668043,-0.10790336,-0.08157158,-0.51063585,-0.8559189,-0.067575455,0.85963815,-0.50641465,0.99437404,0.016530063,-0.104628496,9.949356,0.10647583,-1.0863342,9.74802,0.16357915,-1.0581706,-0.014907837,0.021087646,-0.013641357,-31.13861,67.91992,-37.5,1,0.0,0.0,0.0,0.0
1.577148438,-0.08438768,-0.5072398,-0.85766333,-0.06896441,0.8616427,-0.5028078,0.9940436,0.016717467,-0.10769353,-0.08162597,-0.5106424,-0.85590976,-0.06761204,0.8596343,-0.50641644,0.99436706,0.016533071,-0.104694046,9.949356,0.10647583,-1.0863342,9.748238,0.16394235,-1.0561128,-0.022384644,0.021087646,-0.013641357,-30.899048,68.03894,-37.1994,1,0.0,0.0,0.0,0.0
1.585449219,-0.08421055,-0.50718623,-0.8577125,-0.06888721,0.8616738,-0.50276524,0.994064,0.016747275,-0.10750067,-0.08178801,-0.51044255,-0.8560135,-0.06769214,0.8597527,-0.5062046,0.9943483,0.016543917,-0.10487041,9.962524,0.10887146,-1.056427,9.748438,0.16423467,-1.0542215,-0.012466431,0.011764526,-0.011352539,-30.899048,68.03894,-37.1994,1,0.0,0.0,0.0,0.0
1.59375,-0.083654016,-0.51297337,-0.8543186,-0.06941329,0.8582409,-0.50853163,0.9940744,0.01676035,-0.10740248,-0.08183638,-0.5103775,-0.8560477,-0.06771622,0.8597913,-0.5061359,0.9943427,0.016547984,-0.10492304,9.952942,0.105285645,-1.0911255,9.74854,0.16436288,-1.0532585,-0.014755249,0.0062713623,-0.008605957,-30.958557,67.79938,-37.678528,1,0.0,0.0,0.0,0.0
1.602050782,-0.08364451,-0.51297045,-0.85432124,-0.06941041,0.8582425,-0.5085291,0.99407536,0.016763125,-0.10739277,-0.08190849,-0.51048034,-0.8559795,-0.06778317,0.85973,-0.5062309,0.99433213,0.016556393,-0.10502116,9.943375,0.1040802,-1.1186371,9.7485485,0.16439009,-1.0531633,-0.013687134,0.009933472,-0.009063721,-30.958557,67.79938,-37.678528,1,0.0,0.0,0.0,0.0
1.610351563,-0.083475485,-0.5147289,-0.8532796,-0.06956671,0.8571891,-0.5102816,0.99407864,0.016763845,-0.10736228,-0.08197746,-0.51057893,-0.855914,-0.06784744,0.8596713,-0.506322,0.9943221,0.01656458,-0.105115145,9.929016,0.110076904,-1.1030884,9.748581,0.16439717,-1.0528642,-0.020263672,0.0129852295,-0.008758545,-31.079102,67.79938,-37.85858,1,0.0,0.0,0.0,0.0
1.618652344,-0.083430424,-0.5147153,-0.85329217,-0.06954203,0.85719717,-0.5102714,0.9940841,0.016767513,-0.10731067,-0.08200756,-0.5106621,-0.8558616,-0.06788166,0.8596219,-0.50640136,0.9943173,0.016568566,-0.105160065,9.956528,0.08973694,-1.0863342,9.748635,0.16443314,-1.0523582,-0.022384644,0.010543823,-0.010131836,-31.079102,67.79938,-37.85858,1,0.0,0.0,0.0,0.0
1.626953125,-0.0834342,-0.51414347,-0.8536365,-0.06943922,0.8575407,-0.509708,0.99409103,0.016748764,-0.107249945,-0.08206419,-0.51082283,-0.8557602,-0.06794715,0.8595262,-0.50655496,0.9943082,0.016576443,-0.10524528,9.939789,0.09451294,-1.0731812,9.748703,0.16424927,-1.0517627,-0.016433716,-0.004425049,-0.0069122314,-31.199646,67.91992,-37.85858,1,0.0,0.0,0.0,0.0
1.635253907,-0.08345556,-0.51414996,-0.8536305,-0.06942044,0.8575374,-0.50971615,0.99409056,0.016720757,-0.10725877,-0.08209166,-0.5108893,-0.85571784,-0.067976855,0.85948664,-0.5066181,0.9943038,0.01657989,-0.10528533,9.939789,0.09451294,-1.0731812,9.748698,0.16397461,-1.0518492,-0.017654419,-0.0050354004,-0.007217407,-31.199646,67.91992,-37.85858,1,0.0,0.0,0.0,0.0
1.643554688,-0.08380373,-0.5104772,-0.8557978,-0.069064215,0.8597292,-0.50605905,0.994086,0.016695363,-0.107304215,-0.082145914,-0.5110185,-0.85563546,-0.06803385,0.85940963,-0.506741,0.9942954,0.016585471,-0.10536355,9.954147,0.09690857,-1.0839539,9.748653,0.16372558,-1.0522949,-0.016738892,-0.006713867,-0.0050811768,-31.13861,67.97943,-37.5,1,0.0,0.0,0.0,0.0
1.651855469,-0.083855845,-0.51049304,-0.8557833,-0.06906041,0.8597204,-0.5060746,0.9940819,0.016663432,-0.107347436,-0.0822116,-0.51099706,-0.8556421,-0.06807472,0.8594223,-0.506714,0.99428725,0.01658982,-0.10544047,9.950546,0.08375549,-1.0576324,9.748613,0.16341245,-1.0527188,-0.01965332,-0.011444092,-0.010437012,-31.13861,67.97943,-37.5,1,0.0,0.0,0.0,0.0
1.66015625,-0.08392022,-0.51051265,-0.8557653,-0.06908752,0.859709,-0.5060903,0.9940746,0.016651498,-0.10741702,-0.0822116,-0.51099706,-0.8556421,-0.06807472,0.8594223,-0.506714,0.99428725,0.01658982,-0.10544047,9.950546,0.08375549,-1.0576324,9.748542,0.16329542,-1.0534011,-0.01965332,-0.011444092,-0.010437012,-31.13861,67.97943,-37.5,1,0.0,0.0,0.0,0.0
1.668457032,-0.08409332,-0.5094395,-0.85638756,-0.06903799,0.8603453,-0.5050146,0.99406344,0.016654922,-0.10751998,-0.082312174,-0.5109686,-0.8556493,-0.06813441,0.85943913,-0.5066774,0.9942748,0.016593447,-0.10555685,9.937393,0.08494568,-1.0600128,9.748432,0.16332899,-1.0544108,-0.020095825,-0.020004272,-0.0043182373,-30.899048,68.33954,-37.61902,1,0.0,0.0,0.0,0.0
1.676757813,-0.08425435,-0.5094878,-0.856343,-0.06913901,0.8603167,-0.5050495,0.9940428,0.016654091,-0.10771091,-0.08238265,-0.51090807,-0.8556787,-0.06817032,0.8594751,-0.5066116,0.9942665,0.016595881,-0.10563461,9.954147,0.095718384,-1.0947113,9.74823,0.16332084,-1.0562832,-0.020568848,-0.0259552,-0.009216309,-30.899048,68.33954,-37.61902,1,0.0,0.0,0.0,0.0
1.685058594,-0.08464078,-0.5075122,-0.85747737,-0.06910586,0.8614832,-0.5030618,0.9940122,0.016677186,-0.10798865,-0.08242001,-0.5108797,-0.855692,-0.068189725,0.85949194,-0.5065804,0.9942621,0.016597046,-0.105676085,9.919449,0.114852905,-1.1294098,9.74793,0.16354734,-1.0590069,-0.020568848,-0.026565552,-0.012573242,-30.839539,68.39905,-37.438965,1,0.0,0.0,0.0,0.0
1.693359375,-0.084983535,-0.5058751,-0.8584103,-0.0691336,0.86244446,-0.5014082,0.99398106,0.01673355,-0.10826655,-0.08250772,-0.5107464,-0.8557632,-0.06822627,0.8595711,-0.5064412,0.9942523,0.01660022,-0.10576758,9.944565,0.12921143,-1.1413727,9.747624,0.16410007,-1.0617322,-0.017044067,-0.020309448,-0.009674072,-30.659485,68.5791,-37.379456,1,0.0,0.0,0.0,0.0
1.701660157,-0.085145704,-0.5059233,-0.8583657,-0.069285914,0.8624152,-0.5014372,0.9939565,0.016777433,-0.10848432,-0.082605526,-0.51055384,-0.85586864,-0.068262696,0.8596854,-0.5062422,0.9942417,0.016605496,-0.105866544,9.944565,0.12921143,-1.1413727,9.747384,0.16453043,-1.0638678,-0.01826477,-0.001373291,-0.009979248,-30.659485,68.5791,-37.379456,1,0.0,0.0,0.0,0.0
1.709960938,-0.08526872,-0.5059599,-0.8583319,-0.069401756,0.862393,-0.5014593,0.9939379,0.01681095,-0.10864968,-0.082656205,-0.5104614,-0.8559189,-0.06828342,0.85974026,-0.50614625,0.99423605,0.016608937,-0.10591892,9.930206,0.12322998,-1.159317,9.747201,0.16485909,-1.0654893,-0.017959595,-0.0048828125,-0.011657715,-30.659485,68.5791,-37.379456,1,0.0,0.0,0.0,0.0
1.718261719,-0.08492821,-0.5108852,-0.8554435,-0.06992191,0.8594846,-0.5063568,0.99393064,0.016810272,-0.10871655,-0.08275945,-0.5102834,-0.8560151,-0.06832823,0.85984576,-0.505961,0.9942244,0.016616937,-0.10602712,9.929016,0.090927124,-1.1437683,9.74713,0.16485246,-1.0661452,-0.019958496,0.017410278,-0.014862061,-31.079102,68.45856,-37.799072,1,0.0,0.0,0.0,0.0
1.7265625,-0.084920585,-0.5108829,-0.85544556,-0.069934346,0.8594856,-0.5063533,0.99393046,0.016825207,-0.108716294,-0.0828454,-0.51030725,-0.8559925,-0.0683913,0.85983145,-0.5059768,0.99421287,0.016624592,-0.106133655,9.920639,0.09690857,-1.0935211,9.747128,0.1649989,-1.0661426,-0.01399231,0.008865356,-0.009674072,-31.079102,68.45856,-37.799072,1,0.0,0.0,0.0,0.0
1.734863282,-0.08553657,-0.50181866,-0.8607331,-0.06902609,0.8648082,-0.49733493,0.99394107,0.01687272,-0.108611315,-0.082886934,-0.51031876,-0.8559816,-0.06842214,0.85982454,-0.50598437,0.99420726,0.016628606,-0.10618532,9.937393,0.11843872,-1.0755768,9.747232,0.16546488,-1.0651132,-0.016433716,0.008102417,-0.010894775,-31.3797,68.63861,-36.898804,1,0.0,0.0,0.0,0.0
1.743164063,-0.08543971,-0.5022008,-0.8605198,-0.06902882,0.8645863,-0.49772024,0.99394923,0.016875593,-0.10853634,-0.0829914,-0.5099831,-0.85617155,-0.06844688,0.86002356,-0.5056428,0.9941969,0.016638273,-0.1062813,9.938583,0.107681274,-1.0552368,9.747313,0.16549304,-1.0643779,-0.013381958,-0.01373291,-0.0043182373,-31.199646,68.63861,-36.95984,1,0.0,0.0,0.0,0.0
1.751464844,-0.085520655,-0.5022255,-0.8604974,-0.06905775,0.86457247,-0.49774054,0.9939403,0.01685692,-0.10862135,-0.08308805,-0.5096758,-0.8563451,-0.0684707,0.8602055,-0.50532997,0.9941872,0.016647672,-0.10637065,9.934998,0.110076904,-1.0959167,9.747224,0.1653099,-1.0652115,-0.018569946,-0.01878357,-0.0037078857,-31.199646,68.63861,-36.95984,1,0.0,0.0,0.0,0.0
1.759765625,-0.08565739,-0.5022671,-0.86045945,-0.06912718,0.8645484,-0.49777243,0.99392366,0.016843243,-0.10877529,-0.08313654,-0.5095272,-0.85642886,-0.06848281,0.86029345,-0.5051785,0.9941823,0.016651858,-0.10641568,9.934998,0.110076904,-1.0959167,9.747062,0.1651758,-1.0667212,-0.018569946,-0.017562866,-0.014251709,-31.199646,68.63861,-36.95984,1,0.0,0.0,0.0,0.0
1.768066407,-0.08592282,-0.50046057,-0.861485,-0.06904294,0.865595,-0.495962,0.9939066,0.016865006,-0.108927645,-0.083235994,-0.5092403,-0.8565898,-0.06850901,0.86046314,-0.5048859,0.99417216,0.016659435,-0.10650905,9.933807,0.110076904,-1.085144,9.746894,0.1653892,-1.0682153,-0.019348145,-0.023666382,-0.008758545,-31.3797,68.699646,-36.779785,1,0.0,0.0,0.0,0.0
1.776367188,-0.086043656,-0.50049776,-0.8614513,-0.06915414,0.86557287,-0.4959851,0.99388844,0.016896557,-0.10908856,-0.08334209,-0.50889367,-0.8567855,-0.0685311,0.860668,-0.5045335,0.9941617,0.016667577,-0.10660492,9.929016,0.08973694,-1.0947113,9.7467165,0.16569862,-1.0697933,-0.01612854,-0.018920898,-0.012573242,-31.3797,68.699646,-36.779785,1,0.0,0.0,0.0,0.0
1.784667969,-0.08618139,-0.5006631,-0.86134154,-0.06931423,0.8654763,-0.49613127,0.9938653,0.016945938,-0.10929103,-0.0833959,-0.50872624,-0.85687965,-0.06854401,0.8607669,-0.50436306,0.9941563,0.016672155,-0.10665456,9.949356,0.11843872,-1.1198425,9.74649,0.16618288,-1.0717789,-0.01612854,-0.02168274,-0.016998291,-31.259155,68.759155,-36.839294,1,0.0,0.0,0.0,0.0
1.79296875,-0.08576167,-0.5084319,-0.8568208,-0.07027036,0.8609344,-0.5038393,0.9938345,0.016999014,-0.10956286,-0.08350578,-0.5084077,-0.8570579,-0.06857537,0.8609548,-0.5040378,0.9941449,0.016682995,-0.10675895,9.92543,0.1040802,-1.159317,9.746187,0.16670337,-1.0744447,-0.022079468,-0.023513794,-0.015777588,-31.199646,68.45856,-37.5,1,0.0,0.0,0.0,0.0
1.801269532,-0.0859621,-0.5084925,-0.85676473,-0.07045559,0.8608975,-0.5038763,0.99380404,0.017049594,-0.10983071,-0.08355087,-0.5084082,-0.8570533,-0.06860926,0.86095446,-0.50403386,0.9941388,0.016689317,-0.106815,9.92543,0.1040802,-1.159317,9.745889,0.1671994,-1.0770713,-0.018112183,-0.017089844,-0.011657715,-31.199646,68.45856,-37.5,1,0.0,0.0,0.0,0.0
1.809570313,-0.08612228,-0.5085409,-0.8567199,-0.07056751,0.86086875,-0.5039098,0.9937823,0.017058732,-0.110026464,-0.083646365,-0.5084115,-0.857042,-0.06868237,0.8609522,-0.5040278,0.9941257,0.016703583,-0.10693443,9.92543,0.09690857,-1.174881,9.745675,0.16728902,-1.078991,-0.019180298,0.0032196045,-0.011810303,-31.199646,68.45856,-37.5,1,0.0,0.0,0.0,0.0
1.817871094,-0.08618898,-0.5084467,-0.8567692,-0.07059659,0.8609244,-0.50381076,0.9937744,0.01706205,-0.1100968,-0.08374437,-0.5084167,-0.8570293,-0.06875699,0.86094886,-0.5040233,0.9941123,0.016717644,-0.10705682,9.9062805,0.09451294,-1.1844482,9.745598,0.16732155,-1.0796808,-0.018569946,0.023986816,-0.014709473,-31.439209,68.51959,-37.5,1,0.0,0.0,0.0,0.0
1.826171875,-0.0861325,-0.5084294,-0.85678506,-0.0705824,0.8609342,-0.5037959,0.9937803,0.017080737,-0.11004059,-0.08379325,-0.5084173,-0.85702425,-0.06879377,0.8609484,-0.50401914,0.9941057,0.01672453,-0.1071176,9.9062805,0.09451294,-1.1844482,9.745656,0.16750482,-1.0791296,-0.016433716,0.033447266,-0.011962891,-31.439209,68.51959,-37.5,1,0.0,0.0,0.0,0.0
1.834472657,-0.085823625,-0.5097553,-0.8560279,-0.07061229,0.86014956,-0.5051303,0.99380493,0.017093986,-0.10981614,-0.08388598,-0.5084179,-0.85701483,-0.06886468,0.8609478,-0.5040105,0.99409294,0.016738638,-0.10723348,9.920639,0.1040802,-1.1318054,9.745897,0.16763474,-1.0769285,-0.01322937,0.04185486,-0.0066070557,-31.259155,68.63861,-37.739563,1,0.0,0.0,0.0,0.0
1.842773438,-0.08558629,-0.5093322,-0.85630345,-0.070408046,0.86040014,-0.5047318,0.99383986,0.017092545,-0.10949955,-0.08396287,-0.50847095,-0.85697585,-0.06893382,0.8609162,-0.504055,0.99408174,0.01675271,-0.10733584,9.954147,0.1040802,-1.1138611,9.74624,0.1676206,-1.0738238,-0.013076782,0.046585083,-0.011810303,-31.019592,68.45856,-37.61902,1,0.0,0.0,0.0,0.0
1.851074219,-0.085288696,-0.50924295,-0.8563863,-0.070229776,0.8604529,-0.5046668,0.99387807,0.017101452,-0.10915091,-0.083995335,-0.50848824,-0.8569624,-0.06896327,0.8609058,-0.5040687,0.9940769,0.01675951,-0.10737909,9.954147,0.1040802,-1.1138611,9.746614,0.16770796,-1.0704048,-0.011703491,0.04597473,-0.011810303,-31.019592,68.45856,-37.61902,1,0.0,0.0,0.0,0.0
1.859375,-0.08493744,-0.50913733,-0.856484,-0.07005652,0.8605145,-0.5045858,0.9939204,0.017144058,-0.10875829,-0.084046565,-0.5085182,-0.85693955,-0.06901337,0.8608879,-0.50409245,0.9940691,0.016773049,-0.10744922,9.937393,0.12322998,-1.0803528,9.747029,0.16812578,-1.0665545,-0.007888794,0.048110962,-0.009063721,-31.019592,68.45856,-37.61902,1,0.0,0.0,0.0,0.0
1.867675782,-0.08425808,-0.5129877,-0.8542507,-0.07022709,0.85822463,-0.5084473,0.99396616,0.017150743,-0.10833799,-0.084081896,-0.5085428,-0.85692155,-0.06905468,0.8608731,-0.50411206,0.99406326,0.016787741,-0.1075011,9.933807,0.10887146,-1.051651,9.7474785,0.16819134,-1.0624328,-0.0055999756,0.03878784,-0.006164551,-30.778503,68.39905,-38.038635,1,0.0,0.0,0.0,0.0
1.875976563,-0.08395276,-0.51289725,-0.85433507,-0.07000208,0.8582792,-0.50838625,0.9940079,0.017124806,-0.10795877,-0.08408547,-0.50863177,-0.8568684,-0.06907807,0.86082035,-0.50419897,0.99406135,0.016795002,-0.107517794,9.933807,0.10887146,-1.051651,9.747888,0.16793698,-1.0587139,-0.0025482178,0.03543091,-0.00340271,-30.778503,68.39905,-38.038635,1,0.0,0.0,0.0,0.0
1.884277344,-0.08379155,-0.5117897,-0.85501486,-0.06969861,0.85894096,-0.50730926,0.9940428,0.017085118,-0.10764301,-0.084080294,-0.5088009,-0.8567684,-0.06911462,0.86072016,-0.504365,0.9940592,0.016808063,-0.10753518,9.933807,0.105285645,-1.051651,9.74823,0.16754778,-1.0556173,-0.0057525635,0.019088745,-0.009979248,-30.839539,68.39905,-37.919617,1,0.0,0.0,0.0,0.0
1.892578125,-0.083662115,-0.51112175,-0.8554269,-0.06950778,0.8593388,-0.5066612,0.9940671,0.017070472,-0.10742105,-0.0840689,-0.50891936,-0.85669917,-0.06913775,0.8606498,-0.5044817,0.99405855,0.016819034,-0.10753943,9.931412,0.11366272,-1.0636139,9.748467,0.16740415,-1.0534406,-0.010025024,0.013290405,-0.012878418,-30.778503,68.39905,-37.85858,1,0.0,0.0,0.0,0.0
1.900878907,-0.083542235,-0.51108617,-0.8554599,-0.069467366,0.8593594,-0.50663185,0.99407995,0.017101394,-0.10729661,-0.08406077,-0.5089634,-0.85667384,-0.069145165,0.8606237,-0.5045253,0.9940587,0.016824065,-0.10753705,9.931412,0.11366272,-1.0636139,9.748594,0.16770738,-1.0522203,-0.015213013,0.008407593,-0.012878418,-30.778503,68.39905,-37.85858,1,0.0,0.0,0.0,0.0
1.909179688,-0.08350754,-0.5110758,-0.85546947,-0.06945619,0.8593653,-0.5066232,0.99408364,0.0171108,-0.107260846,-0.08404017,-0.50904745,-0.85662585,-0.069157906,0.86057377,-0.5046087,0.99405956,0.016835049,-0.10752743,9.938583,0.098098755,-1.1030884,9.748631,0.16779964,-1.0518696,-0.016281128,0.00642395,-0.0105896,-30.778503,68.39905,-37.85858,1,0.0,0.0,0.0,0.0
1.917480469,-0.083119825,-0.51579434,-0.8526707,-0.06991371,0.85654145,-0.5113205,0.994084,0.0171125,-0.107256666,-0.08401909,-0.50912786,-0.85658014,-0.06916975,0.860526,-0.5046885,0.9940605,0.01684597,-0.10751686,9.94577,0.102890015,-1.1114655,9.748634,0.1678163,-1.0518286,-0.016433716,0.005508423,-0.0064697266,-30.899048,68.159485,-38.21869,1,0.0,0.0,0.0,0.0
1.92578125,-0.08313229,-0.51579803,-0.8526672,-0.06991583,0.8565393,-0.5113238,0.99408287,0.017107418,-0.107268535,-0.08400126,-0.5092615,-0.85650253,-0.06918477,0.8604469,-0.5048214,0.994061,0.0168513,-0.10751176,9.94577,0.102890015,-1.1114655,9.748623,0.16776647,-1.051945,-0.012619019,0.006881714,-0.0105896,-30.899048,68.159485,-38.21869,1,0.0,0.0,0.0,0.0
1.934082032,-0.083048545,-0.5165113,-0.8522434,-0.06998027,0.8561092,-0.51203483,0.9940854,0.017116472,-0.107244246,-0.083966985,-0.5095209,-0.85635155,-0.069213904,0.8602931,-0.50507945,0.9940619,0.01686144,-0.10750215,9.920639,0.11366272,-1.1162567,9.748648,0.16785525,-1.0517068,-0.017501831,0.022613525,-0.010284424,-31.318665,67.79938,-38.038635,1,0.0,0.0,0.0,0.0
1.942382813,-0.08294729,-0.5164806,-0.85227203,-0.06994121,0.8561274,-0.51201,0.9940966,0.01713909,-0.10713673,-0.083948724,-0.509661,-0.85626996,-0.069229364,0.8602099,-0.5052189,0.9940623,0.016866542,-0.10749704,9.920639,0.11366272,-1.1162567,9.748757,0.16807707,-1.0506524,-0.018112183,0.029022217,-0.011962891,-31.318665,67.79938,-38.038635,1,0.0,0.0,0.0,0.0
1.950683594,-0.08223476,-0.5227328,-0.8485209,-0.070442125,0.8523239,-0.51824874,0.9941204,0.017153556,-0.10691309,-0.08390911,-0.5099317,-0.85611266,-0.06925772,0.86004925,-0.50548846,0.9940637,0.016877333,-0.10748268,9.943375,0.10647583,-1.0827484,9.748991,0.16821893,-1.0484593,-0.0084991455,0.033294678,-0.0121154785,-31.079102,67.318726,-38.459778,1,0.0,0.0,0.0,0.0
1.958984375,-0.08200997,-0.52266526,-0.8485843,-0.07032767,0.8523648,-0.51819706,0.99414706,0.017181635,-0.10666025,-0.08384315,-0.51044077,-0.8558157,-0.06930529,0.859747,-0.5059958,0.99406594,0.016888272,-0.10746014,9.924225,0.098098755,-1.0456696,9.749252,0.16849428,-1.0459797,-0.019958496,0.026275635,-0.01776123,-31.079102,67.318726,-38.459778,1,0.0,0.0,0.0,0.0
1.967285157,-0.081888676,-0.5213972,-0.8493757,-0.07010242,0.8531405,-0.5169496,0.994173,0.017210979,-0.10641376,-0.08380659,-0.51068634,-0.85567284,-0.0693261,0.85960114,-0.5062409,0.9940676,0.016894137,-0.10744414,9.924225,0.098098755,-1.0456696,9.749506,0.16878204,-1.0435624,-0.017501831,0.023071289,-0.0105896,-31.199646,67.25922,-38.279724,1,0.0,0.0,0.0,0.0
1.975585938,-0.08168823,-0.52133644,-0.8494324,-0.06999059,0.8531773,-0.516904,0.9941973,0.0172273,-0.106183186,-0.083730675,-0.5111121,-0.85542595,-0.06935751,0.85934776,-0.50666654,0.9940718,0.016906684,-0.107403226,9.952942,0.10647583,-1.0145569,9.749745,0.16894211,-1.0413014,-0.012161255,0.010543823,-0.009979248,-31.199646,67.25922,-38.279724,1,0.0,0.0,0.0,0.0
1.983886719,-0.08206016,-0.51606685,-0.8526085,-0.069438614,0.85637534,-0.5116637,0.9942054,0.017216753,-0.10610924,-0.08364992,-0.5115183,-0.85519105,-0.069383346,0.85910577,-0.50707316,0.9940768,0.016919382,-0.107354976,9.94696,0.102890015,-1.0755768,9.749825,0.16883868,-1.0405762,-0.015670776,-0.002746582,-0.005996704,-31.019592,67.67883,-37.979126,1,0.0,0.0,0.0,0.0
1.9921875,-0.08207851,-0.51607233,-0.8526034,-0.06942386,0.8563724,-0.51167035,0.9942049,0.017193876,-0.106117494,-0.08361812,-0.51160944,-0.8551397,-0.0693846,0.8590514,-0.50716513,0.9940794,0.016925327,-0.10733008,9.94696,0.102890015,-1.0755768,9.74982,0.16861433,-1.0406572,-0.015670776,-0.009002686,-0.0052337646,-31.019592,67.67883,-37.979126,1,0.0,0.0,0.0,0.0
2.000488282,-0.08204545,-0.5177525,-0.8515873,-0.06958232,0.8553587,-0.5133417,0.99419653,0.017138073,-0.10620471,-0.08355702,-0.51178646,-0.85503966,-0.06938637,0.8589457,-0.5073438,0.9940844,0.016935961,-0.10728195,9.943375,0.09690857,-1.076767,9.749738,0.16806708,-1.0415125,-0.015975952,-0.01159668,-0.0021820068,-31.019592,67.67883,-38.15918,1,0.0,0.0,0.0,0.0
2.008789063,-0.082168035,-0.5177894,-0.85155296,-0.06958515,0.8553376,-0.5133763,0.9941862,0.017072326,-0.10631187,-0.08349712,-0.51202315,-0.8549038,-0.069394454,0.85880446,-0.5075818,0.9940888,0.016943965,-0.10723927,9.934998,0.08375549,-1.0396881,9.749637,0.16742232,-1.0425633,-0.01322937,-0.03526306,-0.015625,-31.019592,67.67883,-38.15918,1,0.0,0.0,0.0,0.0
2.017089844,-0.08222318,-0.51949,-0.85051125,-0.06984793,0.8543062,-0.51505536,0.9941633,0.017056955,-0.10652909,-0.083470486,-0.51213866,-0.8548373,-0.06939837,0.8587356,-0.5076978,0.99409086,0.01694653,-0.107220665,9.934998,0.08375549,-1.0396881,9.749412,0.1672716,-1.0446935,-0.01689148,-0.043518066,-0.014709473,-31.019592,67.67883,-38.339233,1,0.0,0.0,0.0,0.0
2.025390625,-0.08251555,-0.5195777,-0.8504294,-0.07005571,0.8542525,-0.5151161,0.99412435,0.017072346,-0.10688851,-0.08342112,-0.5124306,-0.85466707,-0.06941649,0.8585614,-0.50798994,0.9940937,0.016950902,-0.107193284,9.949356,0.098098755,-1.0731812,9.74903,0.16742252,-1.0482183,-0.013687134,-0.04748535,-0.011810303,-31.019592,67.67883,-38.339233,1,0.0,0.0,0.0,0.0
2.033691407,-0.08323674,-0.51516294,-0.8530408,-0.06983449,0.85692227,-0.5106928,0.9940798,0.017063273,-0.107303575,-0.08338533,-0.5127142,-0.8545005,-0.06944198,0.8583919,-0.5082727,0.9940949,0.016955713,-0.107181184,9.960129,0.09451294,-1.0935211,9.748593,0.16733354,-1.0522887,-0.008956909,-0.040618896,-0.0105896,-30.778503,68.159485,-38.15918,1,0.0,0.0,0.0,0.0
2.041992188,-0.0835469,-0.515255,-0.852955,-0.070022,0.85686725,-0.51075965,0.99404067,0.017053232,-0.10766778,-0.08338241,-0.5127632,-0.8544714,-0.06944985,0.8583626,-0.5083211,0.99409467,0.016957864,-0.107183665,9.960129,0.09451294,-1.0935211,9.748209,0.16723508,-1.0558603,-0.015670776,-0.029922485,-0.00982666,-30.778503,68.159485,-38.15918,1,0.0,0.0,0.0,0.0
2.050292969,-0.08420349,-0.510332,-0.8558452,-0.06969268,0.8598084,-0.5058384,0.99400836,0.01705279,-0.10796526,-0.08338899,-0.5128619,-0.8544115,-0.06947248,0.85830355,-0.5084178,0.99409246,0.016961638,-0.10720285,9.908676,0.09690857,-1.1377869,9.747892,0.16723074,-1.0587776,-0.02330017,-0.0073242188,-0.008300781,-30.599976,68.33954,-37.739563,1,0.0,0.0,0.0,0.0
2.05859375,-0.08430787,-0.51036286,-0.8558166,-0.06976462,0.85978997,-0.5058598,0.9939945,0.017057758,-0.10809233,-0.08342112,-0.5127619,-0.85446835,-0.06948124,0.8583632,-0.50831574,0.9940891,0.01696525,-0.10723295,9.920639,0.10169983,-1.1270142,9.747757,0.16727948,-1.0600238,-0.015670776,0.005508423,-0.0053863525,-30.599976,68.33954,-37.739563,1,0.0,0.0,0.0,0.0
2.066894532,-0.08445377,-0.50905097,-0.8565832,-0.06964784,0.8605676,-0.504552,0.99399036,0.017047849,-0.108132474,-0.08343882,-0.512714,-0.85449535,-0.06948695,0.8583918,-0.50826675,0.9940873,0.0169671,-0.10725014,9.920639,0.10169983,-1.1270142,9.747715,0.16718228,-1.0604173,-0.019958496,0.0070343018,-0.011657715,-30.479431,68.45856,-37.678528,1,0.0,0.0,0.0,0.0
2.075195313,-0.08440053,-0.5090353,-0.8565977,-0.069609456,0.86057687,-0.50454134,0.9939975,0.017043743,-0.10806682,-0.083478965,-0.51256907,-0.8545783,-0.069493465,0.85847825,-0.5081198,0.99408346,0.0169703,-0.10728508,9.936203,0.08375549,-1.0671997,9.7477865,0.16714203,-1.0597736,-0.021774292,-0.0022888184,-0.016082764,-30.479431,68.45856,-37.678528,1,0.0,0.0,0.0,0.0
2.083496094,-0.08441412,-0.50829875,-0.8570336,-0.0695869,0.86101073,-0.50380355,0.99399793,0.017110184,-0.1080524,-0.08351539,-0.5124293,-0.8546586,-0.06949816,0.85856164,-0.50797826,0.99408007,0.016973203,-0.10731601,9.940979,0.11126709,-1.0743713,9.747789,0.16779357,-1.0596321,-0.019485474,-0.017868042,-0.011199951,-30.778503,68.33954,-37.5,1,0.0,0.0,0.0,0.0
2.091796875,-0.084461965,-0.50831306,-0.8570204,-0.06966537,0.86100143,-0.50380856,0.99398834,0.017151987,-0.108133696,-0.0835333,-0.5123468,-0.8547063,-0.06949999,0.8586108,-0.5078949,0.9940784,0.016975943,-0.107330695,9.940979,0.11126709,-1.0743713,9.747696,0.16820353,-1.0604293,-0.019958496,-0.022750854,-0.0093688965,-30.778503,68.33954,-37.5,1,0.0,0.0,0.0,0.0
2.100097657,-0.08443967,-0.51141506,-0.85517514,-0.070071,0.8591632,-0.5068813,0.9939618,0.01712209,-0.10838282,-0.08357006,-0.5121873,-0.8547984,-0.06950671,0.8587058,-0.5077333,0.9940749,0.016982917,-0.10736256,9.914658,0.08734131,-1.1318054,9.747436,0.16791035,-1.0628724,-0.016586304,-0.025497437,-0.0040130615,-30.599976,68.159485,-37.739563,1,0.0,0.0,0.0,0.0
2.108398438,-0.08471807,-0.51149756,-0.8550983,-0.07020756,0.8591148,-0.5069444,0.99392843,0.01708701,-0.10869354,-0.08360458,-0.5121568,-0.8548133,-0.06952915,0.858724,-0.50769955,0.9940704,0.016988428,-0.107403085,9.940979,0.105285645,-1.1629181,9.747108,0.16756633,-1.0659195,-0.013534546,-0.01953125,-0.004776001,-30.599976,68.159485,-37.739563,1,0.0,0.0,0.0,0.0
2.116699219,-0.084684014,-0.51503456,-0.8529759,-0.07066636,0.85699975,-0.5104484,0.99389887,0.017049883,-0.108969815,-0.08362685,-0.51214355,-0.85481894,-0.06954274,0.85873175,-0.50768447,0.99406755,0.0169904,-0.10742891,9.940979,0.105285645,-1.1629181,9.746818,0.16720222,-1.0686288,-0.018569946,-0.012359619,-0.009063721,-30.659485,68.03894,-38.038635,1,0.0,0.0,0.0,0.0
2.125,-0.08484804,-0.5150831,-0.8529303,-0.07075367,0.85697097,-0.5104847,0.99387866,0.017034328,-0.109156325,-0.08366884,-0.5122582,-0.85474616,-0.06958709,0.8586634,-0.5077941,0.994061,0.016992755,-0.107489936,9.962524,0.095718384,-1.1652985,9.74662,0.16704969,-1.0704579,-0.017654419,0.0056610107,-0.011199951,-30.659485,68.03894,-38.038635,1,0.0,0.0,0.0,0.0
2.133300782,-0.08506016,-0.51255035,-0.85443366,-0.070534684,0.85848767,-0.5079604,0.99387604,0.017060017,-0.109175675,-0.08371559,-0.5123701,-0.8546745,-0.069633074,0.8585965,-0.50790083,0.9940538,0.0169944,-0.10755582,9.92543,0.107681274,-1.1126556,9.746595,0.16730164,-1.0706477,-0.017044067,0.011306763,-0.009674072,-30.778503,68.218994,-37.85858,1,0.0,0.0,0.0,0.0
2.141601563,-0.085012786,-0.5125363,-0.8544468,-0.07052552,0.8584957,-0.5079481,0.99388075,0.017078226,-0.109129995,-0.08374254,-0.51237375,-0.8546697,-0.069651134,0.85859436,-0.507902,0.99405026,0.016995711,-0.10758828,9.92543,0.107681274,-1.1126556,9.746641,0.16748019,-1.0701997,-0.018112183,0.016647339,-0.012268066,-30.778503,68.218994,-37.85858,1,0.0,0.0,0.0,0.0
2.149902344,-0.08468338,-0.51542246,-0.8527417,-0.07081076,0.8567651,-0.51082224,0.99388856,0.017125132,-0.109051205,-0.08379282,-0.5123802,-0.85466087,-0.06968573,0.8585904,-0.5079038,0.9940436,0.016998978,-0.107649304,9.923035,0.114852905,-1.1138611,9.746718,0.16794018,-1.0694271,-0.018722534,0.013137817,-0.016998291,-30.958557,68.218994,-38.15918,1,0.0,0.0,0.0,0.0
2.158203125,-0.08455481,-0.51538414,-0.8527776,-0.07075672,0.8567877,-0.51079196,0.99390346,0.017149832,-0.10891241,-0.083828256,-0.51250076,-0.8545852,-0.06973018,0.85851836,-0.5080196,0.99403745,0.017003976,-0.10770487,9.940979,0.08734131,-1.0875397,9.746863,0.1681824,-1.0680659,-0.014450073,0.02078247,-0.0093688965,-30.958557,68.218994,-38.15918,1,0.0,0.0,0.0,0.0
2.166503907,-0.08452257,-0.5140928,-0.8535598,-0.0705471,0.85756296,-0.5095181,0.99392104,0.017150396,-0.10875119,-0.083842866,-0.5125585,-0.8545491,-0.06975067,0.8584839,-0.5080751,0.9940348,0.017006895,-0.10772905,9.940979,0.08734131,-1.0875397,9.747036,0.16818793,-1.0664849,-0.012466431,0.020614624,-0.012573242,-30.899048,68.03894,-37.919617,1,0.0,0.0,0.0,0.0
2.174804688,-0.08437673,-0.51404923,-0.85360056,-0.07044864,0.85758924,-0.50948757,0.9939404,0.017146097,-0.10857465,-0.08386986,-0.51261926,-0.85450995,-0.06978217,0.85844743,-0.5081323,0.9940303,0.017012576,-0.10776956,9.936203,0.093322754,-1.0827484,9.747226,0.16814578,-1.0647537,-0.015060425,0.019866943,-0.010437012,-30.899048,68.03894,-37.919617,1,0.0,0.0,0.0,0.0
2.183105469,-0.083890274,-0.5189673,-0.8506676,-0.070865706,0.8546225,-0.5143914,0.993952,0.01713072,-0.1084715,-0.08388997,-0.5126758,-0.85447407,-0.06980851,0.8584136,-0.5081859,0.9940267,0.017017866,-0.10780142,9.914658,0.10647583,-1.1090698,9.747339,0.16799498,-1.063742,-0.009567261,0.023834229,-0.011962891,-31.259155,67.79938,-38.279724,1,0.0,0.0,0.0,0.0
2.19140625,-0.0837687,-0.5189307,-0.8507019,-0.07079819,0.8546445,-0.5143642,0.99396706,0.017140543,-0.1083318,-0.083890066,-0.51280195,-0.8543984,-0.069829606,0.85833824,-0.50831026,0.9940253,0.017020123,-0.10781481,9.914658,0.10647583,-1.1090698,9.747487,0.16809131,-1.0623721,-0.017044067,0.022918701,-0.010131836,-31.259155,67.79938,-38.279724,1,0.0,0.0,0.0,0.0
2.199707032,-0.08401,-0.51460946,-0.85329914,-0.070307806,0.85725325,-0.5100721,0.9939814,0.017142434,-0.10819891,-0.08388535,-0.5130452,-0.8542528,-0.06986789,0.85819274,-0.5085506,0.99402297,0.01702489,-0.10783518,9.942184,0.093322754,-1.1246338,9.747628,0.16810985,-1.0610689,-0.016738892,0.028869629,-0.010894775,-31.259155,67.97943,-37.919617,1,0.0,0.0,0.0,0.0
2.208007813,-0.08381351,-0.5145499,-0.85335433,-0.070203945,0.8572886,-0.510027,0.9940053,0.017161695,-0.1079758,-0.08389045,-0.5131072,-0.8542151,-0.06988538,0.8581556,-0.50861084,0.9940213,0.017029544,-0.107849754,9.952942,0.105285645,-1.0755768,9.747863,0.16829875,-1.0588809,-0.014907837,0.032073975,-0.011199951,-31.259155,67.97943,-37.919617,1,0.0,0.0,0.0,0.0
2.216308594,-0.08390206,-0.51074016,-0.8556313,-0.0697129,0.8595636,-0.5062515,0.9940325,0.01717299,-0.107724346,-0.083888896,-0.51313597,-0.854198,-0.06989172,0.8581383,-0.5086391,0.994021,0.017032187,-0.107852235,9.952942,0.105285645,-1.0755768,9.748129,0.16840951,-1.056415,-0.012313843,0.02810669,-0.011199951,-31.13861,68.33954,-37.739563,1,0.0,0.0,0.0,0.0
2.224609375,-0.08368737,-0.51067525,-0.85569096,-0.069612935,0.85960144,-0.5062008,0.9940576,0.017204547,-0.1074874,-0.0838895,-0.5130412,-0.8542548,-0.069884665,0.8581949,-0.5085446,0.9940215,0.01703776,-0.10784725,9.939789,0.112457275,-1.0863342,9.748375,0.16871898,-1.0540913,-0.01399231,0.03878784,-0.009216309,-31.13861,68.33954,-37.739563,1,0.0,0.0,0.0,0.0
2.232910157,-0.08352369,-0.51062584,-0.85573655,-0.06949855,0.85963106,-0.5061664,0.99407935,0.017195566,-0.10728731,-0.08388552,-0.51299393,-0.8542836,-0.06987926,0.8582231,-0.5084979,0.9940222,0.017041096,-0.10784013,9.936203,0.08973694,-1.1282196,9.748589,0.1686309,-1.0521291,-0.010025024,0.03604126,-0.008453369,-31.13861,68.33954,-37.739563,1,0.0,0.0,0.0,0.0
2.241210938,-0.08347155,-0.5085267,-0.8569907,-0.06916236,0.86087453,-0.50409484,0.9941072,0.01719392,-0.107029445,-0.0838713,-0.51290023,-0.85434127,-0.06986418,0.85827893,-0.5084056,0.99402446,0.017047215,-0.10781832,9.955338,0.11126709,-1.0791626,9.748861,0.16861477,-1.0496004,-0.020095825,0.027191162,-0.008132935,-30.958557,68.5791,-37.678528,1,0.0,0.0,0.0,0.0
2.249511719,-0.08324285,-0.508682,-0.8569208,-0.069050014,0.8607828,-0.5042669,0.9941342,0.01719378,-0.10677851,-0.083863355,-0.51281285,-0.8543944,-0.06985009,0.858331,-0.5083195,0.99402606,0.017050147,-0.10780255,9.944565,0.1040802,-1.0492554,9.749126,0.16861337,-1.0471395,-0.019180298,0.025360107,-0.013946533,-30.839539,68.51959,-37.678528,1,0.0,0.0,0.0,0.0
2.2578125,-0.083051614,-0.5086248,-0.85697335,-0.0689711,0.8608159,-0.5042212,0.9941556,0.01723,-0.10657255,-0.08383891,-0.5126495,-0.8544949,-0.069818266,0.8584286,-0.5081592,0.9940304,0.017055837,-0.10776202,9.950546,0.11126709,-1.0552368,9.749336,0.16896859,-1.0451198,-0.017196655,0.0158844,-0.016082764,-30.839539,68.51959,-37.678528,1,0.0,0.0,0.0,0.0
2.266113282,-0.0828381,-0.5099131,-0.85622805,-0.06904075,0.8600532,-0.5055115,0.99416864,0.017239012,-0.10644996,-0.08380779,-0.5124903,-0.85459346,-0.06978451,0.8585235,-0.50800353,0.9940354,0.017062735,-0.10771484,9.942184,0.090927124,-1.0456696,9.749464,0.16905697,-1.0439175,-0.018722534,-0.004119873,-0.009979248,-30.839539,68.2785,-37.678528,1,0.0,0.0,0.0,0.0
2.274414063,-0.08288284,-0.5099265,-0.85621583,-0.06906849,0.8600454,-0.50552124,0.994163,0.017238492,-0.10650284,-0.08378847,-0.51243883,-0.8546262,-0.0697696,0.8585541,-0.5079537,0.9940381,0.01706626,-0.1076896,9.948166,0.0993042,-1.0983124,9.749408,0.16905186,-1.044436,-0.01902771,-0.0077819824,-0.008453369,-30.839539,68.2785,-37.678528,1,0.0,0.0,0.0,0.0
2.282714844,-0.08296918,-0.50995237,-0.85619193,-0.06911291,0.86003006,-0.505541,0.99415267,0.01722959,-0.10660029,-0.08375252,-0.5123394,-0.8546893,-0.06974164,0.8586133,-0.50785756,0.99404305,0.017073084,-0.10764242,9.948166,0.0993042,-1.0983124,9.749308,0.16896456,-1.0453918,-0.018722534,-0.0048828125,-0.009521484,-30.839539,68.2785,-37.678528,1,0.0,0.0,0.0,0.0
2.291015625,-0.08301674,-0.51012844,-0.85608256,-0.069151975,0.859926,-0.5057128,0.994146,0.017217169,-0.10666462,-0.08372157,-0.51224494,-0.8547489,-0.06971665,0.8586696,-0.5077658,0.9940474,0.017079279,-0.107601166,9.954147,0.09451294,-1.0887299,9.749242,0.16884275,-1.0460227,-0.019348145,0.0061187744,-0.009521484,-31.019592,67.97943,-37.5,1,0.0,0.0,0.0,0.0
2.299316407,-0.08223284,-0.52041125,-0.84994704,-0.07017173,0.85374224,-0.51594585,0.9941397,0.017214552,-0.10672381,-0.0837075,-0.5122026,-0.85477567,-0.069705315,0.85869473,-0.5077248,0.9940494,0.017082037,-0.10758244,9.930206,0.0993042,-1.138977,9.74918,0.16881709,-1.0466031,-0.017349243,0.01802063,-0.011199951,-31.619263,67.318726,-38.15918,1,0.0,0.0,0.0,0.0
2.307617188,-0.082187966,-0.5203974,-0.8499598,-0.07013835,0.8537507,-0.5159363,0.9941457,0.01721102,-0.106667854,-0.083649114,-0.5125286,-0.854586,-0.069724195,0.8585001,-0.5080512,0.994053,0.017087286,-0.10754842,9.9218445,0.095718384,-1.1234283,9.749239,0.16878246,-1.0460544,-0.013839722,0.02230835,-0.011199951,-31.619263,67.318726,-38.15918,1,0.0,0.0,0.0,0.0
2.315917969,-0.08194871,-0.521506,-0.8493031,-0.07017606,0.85307354,-0.51704997,0.9941628,0.017229168,-0.10650553,-0.083591186,-0.51284105,-0.8544043,-0.06974095,0.85831344,-0.5083643,0.9940567,0.017092185,-0.10751346,9.960129,0.102890015,-1.1186371,9.749407,0.16896042,-1.0444624,-0.017959595,0.039093018,-0.011810303,-31.678772,67.318726,-38.279724,1,0.0,0.0,0.0,0.0
2.32421875,-0.08168785,-0.52142566,-0.8493776,-0.07001829,0.8531224,-0.5169907,0.9941954,0.017240113,-0.10619908,-0.08355835,-0.5130148,-0.8543031,-0.06974991,0.8582095,-0.5085385,0.9940588,0.017094925,-0.1074933,9.968506,0.095718384,-1.0648041,9.749727,0.16906777,-1.0414573,-0.015975952,0.039093018,-0.011810303,-31.678772,67.318726,-38.279724,1,0.0,0.0,0.0,0.0
2.332519532,-0.08140566,-0.5213387,-0.84945816,-0.0698497,0.8531754,-0.5169262,0.9942304,0.017253675,-0.10586865,-0.08348418,-0.51334876,-0.8541098,-0.06976106,0.85800976,-0.508874,0.9940643,0.017100673,-0.107441984,9.962524,0.105285645,-1.0456696,9.75007,0.16920075,-1.0382168,-0.012008667,0.032836914,-0.012573242,-31.678772,67.318726,-38.279724,1,0.0,0.0,0.0,0.0
2.340820313,-0.08100035,-0.5231313,-0.84839416,-0.06989555,0.8520768,-0.51872885,0.99426025,0.017281763,-0.105583064,-0.08340163,-0.51366603,-0.853927,-0.06976511,0.8578197,-0.5091937,0.9940709,0.017106732,-0.107379526,9.962524,0.105285645,-1.0456696,9.750363,0.16947623,-1.0354162,-0.01322937,0.022155762,-0.013946533,-31.559753,67.25922,-38.459778,1,0.0,0.0,0.0,0.0
2.349121094,-0.08093239,-0.52168846,-0.8492885,-0.069705755,0.85295993,-0.51730114,0.9942792,0.017333888,-0.105396785,-0.08335354,-0.513856,-0.85381746,-0.06976817,0.85770583,-0.50938505,0.9940747,0.017110234,-0.107343614,9.94696,0.12083435,-1.0648041,9.750547,0.16998735,-1.0335894,-0.017807007,0.012680054,-0.007522583,-31.3797,67.37976,-38.398743,1,0.0,0.0,0.0,0.0
2.357421875,-0.080808446,-0.52165073,-0.8493236,-0.0696228,0.8529831,-0.51727414,0.99429506,0.017332166,-0.10524702,-0.08325757,-0.5141669,-0.8536396,-0.069766454,0.85751927,-0.5096993,0.99408287,0.017119087,-0.10726657,9.923035,0.102890015,-1.022934,9.750704,0.1699705,-1.0321207,-0.0155181885,0.0045928955,-0.0055389404,-31.3797,67.37976,-38.398743,1,0.0,0.0,0.0,0.0
2.365722657,-0.080772,-0.5215534,-0.8493868,-0.06957447,0.8530428,-0.5171822,0.9943014,0.0173218,-0.105188765,-0.08316049,-0.514464,-0.8534701,-0.06976152,0.85734093,-0.50999993,0.9940914,0.017127525,-0.107186675,9.948166,0.10887146,-1.022934,9.750766,0.16986884,-1.0315495,-0.021316528,-0.020309448,-0.0053863525,-31.619263,67.13867,-38.21869,1,0.0,0.0,0.0,0.0
2.374023438,-0.08081822,-0.5215676,-0.8493736,-0.06957191,0.85303456,-0.5171958,0.9942978,0.017293697,-0.10522722,-0.08311264,-0.5146061,-0.853389,-0.069758125,0.8572555,-0.5101438,0.9940956,0.017131412,-0.10714673,9.963715,0.100494385,-1.0097656,9.7507305,0.16959324,-1.0319265,-0.023468018,-0.024734497,-0.007827759,-31.619263,67.13867,-38.21869,1,0.0,0.0,0.0,0.0
2.382324219,-0.08096955,-0.5216144,-0.84933054,-0.069672905,0.853006,-0.5172295,0.99427843,0.017295485,-0.105409905,-0.083021566,-0.5148824,-0.85323125,-0.06975133,0.8570895,-0.51042366,0.99410367,0.01713784,-0.10707064,9.948166,0.10647583,-1.0169525,9.750541,0.16961078,-1.0337181,-0.016586304,-0.04748535,-0.0121154785,-31.619263,67.13867,-38.21869,1,0.0,0.0,0.0,0.0
2.390625,-0.08111355,-0.5230014,-0.84846336,-0.06997361,0.8521561,-0.5185881,0.9942456,0.017305527,-0.1057177,-0.082980484,-0.51501733,-0.85315377,-0.06975005,0.85700834,-0.5105601,0.9941072,0.017140992,-0.107037455,9.948166,0.10647583,-1.0169525,9.750219,0.16970927,-1.0367366,-0.014144897,-0.054504395,-0.007827759,-31.858826,67.13867,-38.339233,1,0.0,0.0,0.0,0.0
2.398925782,-0.081552245,-0.5220307,-0.84901893,-0.07009955,0.85275114,-0.51759213,0.9942008,0.017305044,-0.106137894,-0.082906485,-0.51533437,-0.8529695,-0.06975944,0.8568176,-0.51087886,0.99411273,0.01714751,-0.106985174,9.934998,0.08375549,-1.031311,9.74978,0.16970453,-1.0408572,-0.007888794,-0.07298279,-0.00982666,-31.739807,67.01965,-38.15918,1,0.0,0.0,0.0,0.0
2.407226563,-0.08201882,-0.52217543,-0.848885,-0.07037282,0.8526631,-0.5177001,0.9941431,0.017277276,-0.106681384,-0.08285286,-0.5156002,-0.8528141,-0.06977324,0.85665756,-0.5111453,0.9941162,0.017153747,-0.106951624,9.944565,0.07896423,-1.0432739,9.749214,0.16943221,-1.046187,-0.012466431,-0.08078003,-0.0107421875,-31.739807,67.01965,-38.15918,1,0.0,0.0,0.0,0.0
2.415527344,-0.08258179,-0.5223499,-0.8487231,-0.07072399,0.8525565,-0.5178277,0.9940716,0.017261943,-0.1073483,-0.082836285,-0.51573193,-0.852736,-0.06978534,0.85657823,-0.5112766,0.9941168,0.017156217,-0.10694629,9.94696,0.098098755,-1.0432739,9.748513,0.16928186,-1.0527273,-0.012466431,-0.10093689,-0.007522583,-31.739807,67.01965,-38.15918,1,0.0,0.0,0.0,0.0
2.423828125,-0.083392136,-0.52084893,-0.8495659,-0.070981376,0.8534746,-0.51627785,0.9939856,0.017249841,-0.10814364,-0.082826346,-0.51599467,-0.85257804,-0.06982249,0.8564199,-0.5115367,0.994115,0.017160406,-0.10696217,9.929016,0.08494568,-1.0624084,9.747669,0.16916317,-1.0605268,-0.012619019,-0.1217041,-0.008605957,-31.439209,67.07916,-38.038635,1,0.0,0.0,0.0,0.0
2.432128907,-0.084190294,-0.5210933,-0.8493373,-0.07146576,0.853326,-0.5164565,0.9938836,0.017217906,-0.1090821,-0.08284886,-0.51618725,-0.8524593,-0.06986817,0.8563038,-0.5117249,0.9941099,0.017163947,-0.10700885,9.951752,0.090927124,-1.0540314,9.746669,0.16884999,-1.06973,-0.017501831,-0.13819885,-0.0037078857,-31.439209,67.07916,-38.038635,1,0.0,0.0,0.0,0.0
2.440429688,-0.08530933,-0.51868665,-0.85069764,-0.07173326,0.8547919,-0.51398945,0.99376893,0.017175218,-0.110128805,-0.08287586,-0.51628554,-0.85239714,-0.069899954,0.8562445,-0.51181966,0.9941054,0.017165028,-0.10705033,9.931412,0.11843872,-1.1162567,9.745544,0.16843136,-1.0799947,-0.014144897,-0.15118408,-0.0076904297,-31.079102,67.49878,-38.038635,1,0.0,0.0,0.0,0.0
2.448730469,-0.08625675,-0.51989967,-0.8498612,-0.0725372,0.8540538,-0.5151023,0.99362874,0.017215502,-0.11137997,-0.082972325,-0.51638067,-0.85233,-0.06997224,0.85618705,-0.51190585,0.9940923,0.01716543,-0.10717215,9.939789,0.13400269,-1.1174469,9.744169,0.1688264,-1.0922644,-0.010635376,-0.1647644,-0.011962891,-30.839539,67.19971,-37.979126,1,0.0,0.0,0.0,0.0
2.45703125,-0.0873383,-0.520222,-0.8495534,-0.073310435,0.8538562,-0.5153202,0.99347746,0.017273938,-0.11271207,-0.083102845,-0.5165202,-0.8522328,-0.07007333,0.8561029,-0.51203275,0.9940743,0.017167414,-0.10733888,9.939789,0.13400269,-1.1174469,9.742686,0.16939947,-1.1053278,-0.010787964,-0.1782074,-0.009063721,-30.839539,67.19971,-37.979126,1,0.0,0.0,0.0,0.0
2.465332032,-0.08851923,-0.52057326,-0.849216,-0.07407449,0.8536424,-0.51556545,0.99331635,0.017267786,-0.11412497,-0.08318782,-0.51659435,-0.8521796,-0.07013772,0.8560581,-0.51209885,0.9940626,0.017169544,-0.10744636,9.94577,0.09451294,-1.1114655,9.741106,0.16933914,-1.1191837,-0.0098724365,-0.18721008,-0.013641357,-30.839539,67.19971,-37.979126,1,0.0,0.0,0.0,0.0
2.473632813,-0.08980938,-0.5208294,-0.84892344,-0.074899055,0.8534861,-0.51570493,0.9931387,0.017268425,-0.11566068,-0.08339961,-0.5167521,-0.8520633,-0.07029266,0.8559628,-0.5122369,0.99403393,0.017173434,-0.107710846,9.951752,0.107681274,-1.1102753,9.739364,0.1693454,-1.1342438,-0.013534546,-0.22721863,-0.004623413,-30.839539,67.318726,-38.038635,1,0.0,0.0,0.0,0.0
2.481933594,-0.09128565,-0.52126545,-0.8484982,-0.07588601,0.8532195,-0.5160017,0.9929291,0.017285597,-0.11744345,-0.08365445,-0.51691383,-0.85194016,-0.070474036,0.85586506,-0.51237524,0.99399966,0.017177192,-0.10802592,9.942184,0.13279724,-1.1090698,9.7373085,0.1695138,-1.1517268,0.005706787,-0.2973175,-0.009674072,-30.839539,67.318726,-38.038635,1,0.0,0.0,0.0,0.0
2.490234375,-0.09307829,-0.5229862,-0.8472437,-0.07726737,0.8521657,-0.5175358,0.9926561,0.017292941,-0.119727895,-0.083807714,-0.5170011,-0.8518722,-0.0705816,0.8558124,-0.51244855,0.99397916,0.01717936,-0.10821443,9.9218445,0.1268158,-1.1772614,9.734632,0.16958582,-1.1741296,0.013641357,-0.32450867,-0.011047363,-30.778503,67.19971,-38.09967,1,0.0,0.0,0.0,0.0
2.498535157,-0.09531246,-0.52305543,-0.8469524,-0.07865205,0.85212296,-0.51739746,0.9923353,0.017300118,-0.12235734,-0.0841768,-0.5172386,-0.8516916,-0.07084405,0.8556687,-0.5126521,0.9939293,0.01718386,-0.10867073,9.911072,0.13160706,-1.2550354,9.731485,0.1696562,-1.1999156,0.019760132,-0.35671997,-0.010284424,-30.958557,67.13867,-37.979126,1,0.0,0.0,0.0,0.0
2.506835938,-0.09791234,-0.5238193,-0.8461834,-0.08037609,0.8516536,-0.5179052,0.991944,0.017303614,-0.12548995,-0.084619924,-0.51746935,-0.8515074,-0.0711505,0.85552907,-0.51284266,0.9938697,0.017188467,-0.10921301,9.877579,0.12083435,-1.4333038,9.727648,0.16969049,-1.2306361,0.019607544,-0.35610962,-0.014099121,-30.958557,67.13867,-37.979126,1,0.0,0.0,0.0,0.0
2.515136719,-0.100457504,-0.5245633,-0.845424,-0.08207634,0.8511954,-0.5183916,0.99155015,0.01731298,-0.1285632,-0.08488727,-0.51759666,-0.8514035,-0.0713332,0.85545206,-0.5129458,0.99383384,0.017190767,-0.109538816,9.877579,0.12083435,-1.4333038,9.723785,0.16978233,-1.2607743,0.019607544,-0.31915283,-0.010284424,-30.958557,67.13867,-37.979126,1,0.0,0.0,0.0,0.0
2.5234375,-0.1025878,-0.526567,-0.8439212,-0.083737485,0.84995747,-0.5201541,0.9911931,0.017306365,-0.13128866,-0.085507676,-0.51787317,-0.8511732,-0.07175422,0.8552846,-0.5131663,0.99375033,0.017195608,-0.11029298,9.848862,0.0765686,-1.5565338,9.7202835,0.16971746,-1.2875019,-0.0013122559,-0.23760986,-0.0055389404,-31.259155,66.95862,-37.979126,1,0.0,0.0,0.0,0.0
2.531738282,-0.10462818,-0.5271654,-0.8432969,-0.08500671,0.8495882,-0.52055144,0.9908717,0.017221544,-0.13370346,-0.08618924,-0.5182186,-0.8508943,-0.07222261,0.85507524,-0.5134493,0.9936575,0.017199997,-0.11112538,9.832108,0.07298279,-1.6127625,9.717133,0.16888566,-1.3111831,-0.011245728,-0.18980408,-0.0076904297,-31.259155,66.95862,-37.979126,1,0.0,0.0,0.0,0.0
2.540039063,-0.10613046,-0.5290604,-0.84192115,-0.08621002,0.84841067,-0.52227104,0.990608,0.017153177,-0.13565256,-0.086560965,-0.51839805,-0.85074717,-0.07247478,0.85496646,-0.513595,0.9936069,0.017200429,-0.1115775,9.856033,0.07896423,-1.6259155,9.714546,0.16821522,-1.3302971,-0.011245728,-0.14964294,-0.0056915283,-31.439209,66.8396,-38.038635,1,0.0,0.0,0.0,0.0
2.548339844,-0.107494354,-0.52910435,-0.8417206,-0.087001584,0.8483844,-0.5221824,0.9903916,0.017099356,-0.13722946,-0.08734323,-0.51882184,-0.85040873,-0.07301,0.8547094,-0.5139469,0.9934993,0.017198559,-0.112532265,9.838089,0.08135986,-1.6665955,9.712424,0.1676874,-1.3457613,-0.013534546,-0.059402466,-0.012878418,-31.13861,66.8396,-38.038635,1,0.0,0.0,0.0,0.0
2.556640625,-0.10832295,-0.52934414,-0.8414635,-0.08753779,0.8482352,-0.5223351,0.9902541,0.017078968,-0.13822097,-0.08775,-0.5190282,-0.85024095,-0.07328541,0.8545841,-0.5141159,0.9934431,0.017196575,-0.11302695,9.838089,0.08135986,-1.6665955,9.711076,0.16748746,-1.3554846,-0.009414673,-0.010375977,-0.016540527,-31.13861,66.8396,-38.038635,1,0.0,0.0,0.0,0.0
2.564941407,-0.108570755,-0.5294158,-0.84138656,-0.0876758,0.8481911,-0.52238387,0.9902148,0.017053638,-0.1385057,-0.08857209,-0.5194382,-0.84990525,-0.073841,0.85433507,-0.5144503,0.9933289,0.017191919,-0.11402607,9.86322,0.08015442,-1.6187439,9.7106905,0.16723906,-1.358277,-0.0074310303,0.060638428,-0.0056915283,-31.13861,66.8396,-38.038635,1,0.0,0.0,0.0,0.0
2.573242188,-0.109076165,-0.52102745,-0.84654164,-0.08634339,0.85337025,-0.514105,0.9902763,0.017016672,-0.13806963,-0.08937095,-0.5198347,-0.84957916,-0.07438056,0.85409397,-0.5147728,0.9932172,0.017186444,-0.11499679,9.908676,0.0993042,-1.409378,9.711293,0.16687654,-1.3540006,-3.9672852E-4,0.07009888,-0.007827759,-30.778503,67.07916,-37.319946,1,0.0,0.0,0.0,0.0
2.581542969,-0.10860519,-0.5208916,-0.84668577,-0.08599617,0.85345376,-0.51402456,0.9903583,0.016986009,-0.1374842,-0.0897658,-0.51985854,-0.8495229,-0.07461963,0.8540795,-0.51476216,0.99316365,0.017183049,-0.11545879,9.908676,0.0993042,-1.409378,9.712097,0.16657585,-1.3482594,0.0026550293,0.09513855,-0.0121154785,-30.778503,67.07916,-37.319946,1,0.0,0.0,0.0,0.0
2.58984375,-0.10844431,-0.5172195,-0.8489545,-0.08522327,0.8556839,-0.5104331,0.99044275,0.016997125,-0.1368732,-0.09051318,-0.5198994,-0.8494185,-0.075069934,0.85405475,-0.51473767,0.99306184,0.017175246,-0.11633203,9.810577,0.11843872,-1.8149567,9.712926,0.16668487,-1.3422676,-0.012008667,0.23762512,-0.017150879,-30.899048,67.43927,-37.139893,1,0.0,0.0,0.0,0.0
2.598144532,-0.10742116,-0.51562625,-0.85005313,-0.08439033,0.8566437,-0.50895953,0.9906255,0.01706323,-0.13553554,-0.09122282,-0.5197935,-0.8494075,-0.07547478,0.85411936,-0.5145713,0.99296623,0.017168192,-0.11714648,9.805786,0.102890015,-1.6522369,9.714718,0.16733313,-1.3291496,-0.012008667,0.3793335,-0.014556885,-30.659485,67.318726,-36.95984,1,0.0,0.0,0.0,0.0
2.606445313,-0.10538643,-0.5150358,-0.85066545,-0.083115295,0.85699785,-0.5085729,0.9909518,0.017106641,-0.13312331,-0.091546185,-0.51971024,-0.84942365,-0.07565483,0.8541701,-0.5144607,0.9929228,0.017166093,-0.11751461,9.805786,0.102890015,-1.6522369,9.717917,0.16775884,-1.3054937,-0.01109314,0.4282074,-0.016540527,-30.659485,67.318726,-36.95984,1,0.0,0.0,0.0,0.0
2.614746094,-0.10270469,-0.51425403,-0.8514662,-0.08140632,0.8574668,-0.50805885,0.9913752,0.01713469,-0.12992938,-0.09209311,-0.51952535,-0.84947765,-0.07595345,0.8542827,-0.5142298,0.9928494,0.01716374,-0.118133284,9.869202,0.09211731,-1.5086823,9.72207,0.16803391,-1.274172,-0.01826477,0.49127197,-0.009979248,-30.659485,67.318726,-36.95984,1,0.0,0.0,0.0,0.0
2.623046875,-0.099346265,-0.5126043,-0.85285825,-0.07916292,0.8584532,-0.5067457,0.99189895,0.017171444,-0.12586337,-0.09251229,-0.5193169,-0.8495596,-0.07617203,0.8544094,-0.51398677,0.9927937,0.01716259,-0.118600786,9.933807,0.10887146,-1.1581268,9.727206,0.16839436,-1.2342981,-0.0071258545,0.52090454,-0.013946533,-30.899048,67.37976,-36.898804,1,0.0,0.0,0.0,0.0
2.631347657,-0.095740534,-0.5115296,-0.8539152,-0.07688029,0.8590934,-0.5060118,0.99243295,0.017203413,-0.12157661,-0.092648506,-0.519183,-0.84962654,-0.0762329,0.85449076,-0.51384246,0.9927763,0.017162766,-0.11874612,9.933807,0.10887146,-1.1581268,9.732442,0.16870785,-1.1922592,-0.008804321,0.5094452,-0.016235352,-30.899048,67.37976,-36.898804,1,0.0,0.0,0.0,0.0
2.639648438,-0.09203266,-0.51223403,-0.8539006,-0.07484251,0.8586727,-0.5070302,0.9929393,0.017244728,-0.11736282,-0.092770465,-0.51888067,-0.84979784,-0.076259404,0.8546743,-0.5135331,0.99276286,0.017164374,-0.11885807,9.930206,0.08734131,-1.0624084,9.737409,0.16911303,-1.1509361,-0.0057525635,0.47676086,-0.0134887695,-30.53894,67.49878,-37.1994,1,0.0,0.0,0.0,0.0
2.647949219,-0.08885249,-0.50790334,-0.8568194,-0.072299786,0.86124134,-0.5030271,0.9934173,0.017252652,-0.113244735,-0.09274148,-0.518618,-0.84996134,-0.076202944,0.85483366,-0.5132762,0.9927699,0.017167557,-0.11879876,9.938583,0.107681274,-0.9403839,9.742096,0.16919072,-1.1105515,-0.012619019,0.44851685,-0.016845703,-30.119324,67.61932,-36.95984,1,0.0,0.0,0.0,0.0
2.65625,-0.08547902,-0.50690967,-0.8577505,-0.070226744,0.8618255,-0.50231946,0.9938619,0.01729925,-0.10926662,-0.092664585,-0.5184045,-0.85010004,-0.076123856,0.8549631,-0.51307225,0.9927831,0.01716926,-0.118687764,9.938583,0.107681274,-0.9403839,9.746456,0.1696477,-1.0715395,-0.008651733,0.41461182,-0.018981934,-30.119324,67.61932,-36.95984,1,0.0,0.0,0.0,0.0
2.664550782,-0.08242216,-0.50600374,-0.85858417,-0.06817749,0.86236006,-0.5016842,0.99426275,0.017186232,-0.10557564,-0.09238295,-0.5179511,-0.850407,-0.07588659,0.85523784,-0.5126495,0.9928276,0.017174408,-0.118314944,10.000809,-0.011962891,-0.79322815,9.750387,0.16853936,-1.0353434,-0.007736206,0.32466125,-0.014099121,-30.119324,67.61932,-36.95984,1,0.0,0.0,0.0,0.0
2.672851563,-0.0799988,-0.5036945,-0.8601697,-0.06628951,0.8637135,-0.49960452,0.9945884,0.017052472,-0.10248572,-0.091992594,-0.5174798,-0.85073614,-0.07557603,0.855523,-0.51221925,0.9928875,0.017174877,-0.11781085,10.013962,-0.78604126,-0.24287415,9.75358,0.16722763,-1.0050416,-0.012161255,0.27763367,-0.013183594,-30.239868,67.91992,-36.95984,1,0.0,0.0,0.0,0.0
2.681152344,-0.07767676,-0.5029982,-0.8607899,-0.06345502,0.86414224,-0.49923095,0.9949571,0.015842795,-0.09904152,-0.091755666,-0.5172054,-0.8509286,-0.075386554,0.855689,-0.5119699,0.99292386,0.017172428,-0.11750465,10.013962,-0.78604126,-0.24287415,9.757196,0.15536475,-0.97126555,0.030593872,0.27626038,-0.022338867,-30.239868,67.91992,-36.95984,1,0.0,0.0,0.0,0.0
2.689453125,-0.07609645,-0.5029136,-0.8609804,-0.06086677,0.8642167,-0.49942434,0.9952409,0.014400672,-0.09637455,-0.09120568,-0.5166455,-0.8513278,-0.074905396,0.85602826,-0.51147324,0.99301094,0.017119776,-0.116774164,9.972092,-0.96310425,-0.6699829,9.759979,0.14122234,-0.94511145,0.18772888,0.26724243,-0.028152466,-30.419922,67.97943,-37.01935,1,0.0,0.0,0.0,0.0
2.697753907,-0.07461912,-0.5024654,-0.86137134,-0.058281537,0.8645004,-0.4992419,0.99550754,0.012949053,-0.09379271,-0.09090793,-0.5163722,-0.85152537,-0.07462009,0.8561942,-0.5112371,0.99305975,0.017065395,-0.11636658,9.972092,-0.96310425,-0.6699829,9.762594,0.12698683,-0.91979223,0.2084961,0.26939392,-0.027389526,-30.419922,67.97943,-37.01935,1,0.0,0.0,0.0,0.0
2.706054688,-0.07304068,-0.51444066,-0.85440964,-0.056538057,0.857456,-0.51144165,0.9957251,0.010950617,-0.09171465,-0.09027319,-0.51582426,-0.8519249,-0.07396375,0.8565276,-0.5107737,0.9931667,0.016902393,-0.11547378,9.940979,-1.3471527,-1.0480499,9.764728,0.10738887,-0.89941347,0.16543579,0.30160522,-0.019439697,-31.13861,67.49878,-37.979126,1,0.0,0.0,0.0,0.0
2.714355469,-0.07162307,-0.5140025,-0.85479325,-0.05389408,0.8577365,-0.5112566,0.9959746,0.0094505325,-0.08913542,-0.0895924,-0.5157699,-0.85202974,-0.07327379,0.85656506,-0.5108105,0.9932795,0.016666714,-0.11453413,9.944565,-1.0157471,-0.81715393,9.767175,0.09267806,-0.87411994,0.1715393,0.3336792,-0.02861023,-31.13861,67.49878,-37.979126,1,0.0,0.0,0.0,0.0
2.72265625,-0.06998784,-0.51296324,-0.8555527,-0.05111375,0.8583732,-0.510473,0.99623746,0.008003598,-0.08629517,-0.0892342,-0.5157349,-0.8520885,-0.07288625,0.8565889,-0.5108258,0.99334025,0.016522396,-0.11402701,9.944565,-1.0157471,-0.81715393,9.7697525,0.078488484,-0.84626657,0.18360901,0.37826538,-0.02708435,-30.899048,67.559814,-37.979126,1,0.0,0.0,0.0,0.0
