Time,Rot1,Rot2,Rot3,Rot4,Rot5,Rot6,Rot7,Rot8,Rot9,FRot1,FRot2,FRot3,FRot4,FRot5,FRot6,FRot7,FRot8,FRot9,AccX,AccY,AccZ,GravX,GravY,GravZ,GyroX,GyroY,GyroZ,MagX,MagY,MagZ,Imid
0.0,0.0,0.0,0.0,0.0,0.0,0.0,0.0,0.0,0.0,1.0,0.0,0.0,0.0,1.0,0.0,0.0,0.0,1.0,9.98764,0.18664551,-0.8063812,9.772169,0.21131319,-0.7940129,0.0,0.0,0.0,0.0,0.0,0.0,0,0.0,0.0,0.0,0.0
0.008300781,0.0,0.0,0.0,0.0,0.0,0.0,0.0,0.0,0.0,1.0,0.0,0.0,0.0,1.0,0.0,0.0,0.0,1.0,9.993622,0.20817566,-0.82073975,9.772598,0.21123868,-0.78872085,0.010894775,0.061706543,-0.0037078857,0.0,0.0,0.0,0,0.0,0.0,0.0,0.0
0.016601562,0.004969012,-0.9793292,-0.20221145,-0.08262434,0.20112044,-0.9760757,0.99656844,0.02155772,-0.07991707,1.0,0.0,0.0,0.0,1.0,0.0,0.0,0.0,1.0,9.994827,0.19502258,-0.7992096,9.772998,0.21140903,-0.78371876,0.0067749023,0.07147217,-0.008911133,-22.198486,6.539917,-32.218933,0,0.0,0.0,0.0,0.0
0.024902343,0.0050899205,-0.9793122,-0.20229127,-0.08206457,0.20120247,-0.97610605,0.99661404,0.02156925,-0.07934273,0.9964027,-0.054156005,-0.06518375,0.053984657,0.9985321,-0.00438846,0.06532573,8.53751E-4,0.99786365,9.976868,0.19621277,-0.7776642,9.773445,0.21152209,-0.7780864,0.008758545,0.07086182,-0.0011138916,-22.198486,6.539917,-32.218933,0,0.0,0.0,0.0,0.0
0.033203125,0.0055108643,-0.9800362,-0.19874275,-0.08146114,0.19764525,-0.97688305,0.9966613,0.02157328,-0.07874567,0.99208224,-0.08037527,-0.096502274,0.079874456,0.9967639,-0.009047799,0.096917205,0.0012680938,0.99529165,9.976868,0.19621277,-0.7776642,9.773909,0.21156162,-0.7722312,0.007080078,0.06491089,-0.0015716553,-22.738647,6.478882,-32.57904,0,0.0,0.0,0.0,0.0
0.041503906,0.0063980375,-0.9819636,-0.18896198,-0.08089337,0.1878383,-0.9788632,0.99670225,0.021548575,-0.07823254,0.9789618,-0.13121903,-0.1562543,0.12924908,0.99135125,-0.022746515,0.15788767,0.0020722437,0.9874549,9.998413,0.18424988,-0.7549286,9.77431,0.21131933,-0.76719916,0.008605957,0.044906616,0.0017852783,-23.098755,6.1187744,-32.57904,0,0.0,0.0,0.0,0.0
0.049804687,0.006426722,-0.9819596,-0.18898158,-0.08045316,0.18786508,-0.9788942,0.9967376,0.021495245,-0.077794395,0.96056426,-0.18011725,-0.211835,0.17526756,0.983641,-0.041612387,0.21586469,0.0028435695,0.97641915,10.018753,0.18304443,-0.7549286,9.774657,0.21079636,-0.76290244,0.009063721,0.040023804,-0.0011138916,-23.098755,6.1187744,-32.57904,0,0.0,0.0,0.0,0.0
0.058105468,0.006444001,-0.98195726,-0.18899338,-0.08008242,0.18788351,-0.9789212,0.9967674,0.021443214,-0.077426784,0.94967395,-0.20368312,-0.23797604,0.19677465,0.97903156,-0.052696284,0.2437194,0.0032166338,0.96984047,9.960129,0.18902588,-0.80519104,9.774949,0.21028611,-0.7592974,0.008300781,0.036346436,-0.0015716553,-23.098755,6.1187744,-32.57904,0,0.0,0.0,0.0,0.0
0.06640625,0.006365939,-0.98173225,-0.19016127,-0.079802305,0.18905985,-0.9787175,0.99679035,0.02140576,-0.07714094,0.9250276,-0.24906226,-0.2868657,0.23667935,0.96847945,-0.07765569,0.29716468,0.003938466,0.9548181,9.957733,0.19142151,-0.80519104,9.775174,0.20991881,-0.7564942,0.014404297,0.044296265,-9.613037E-4,-23.519897,6.239319,-32.998657,0,0.0,0.0,0.0,0.0
0.074707031,0.006395248,-0.98172814,-0.19018139,-0.07949144,0.18908432,-0.97873807,0.996815,0.021377064,-0.07682974,0.9114721,-0.2708616,-0.3096009,0.2550349,0.9626088,-0.09133232,0.32276294,0.0042878413,0.94647014,9.957733,0.19142151,-0.80519104,9.775416,0.20963739,-0.75344235,0.0121154785,0.04673767,-0.0043182373,-23.519897,6.239319,-32.998657,0,0.0,0.0,0.0,0.0
0.083007812,0.007640732,-0.98446476,-0.1754158,-0.07898205,0.17427874,-0.98152363,0.99684674,0.021354256,-0.07642343,0.88234055,-0.312756,-0.35165167,0.2885932,0.9498205,-0.12064379,0.37173802,0.00496463,0.9283244,9.999603,0.18664551,-0.7537384,9.775727,0.20941372,-0.74945784,0.0067749023,0.051315308,-4.5776367E-5,-23.878479,5.758667,-33.358765,0,0.0,0.0,0.0,0.0
0.091308593,0.008210663,-0.98560035,-0.16889185,-0.0785224,0.16774052,-0.982699,0.99687856,0.021330405,-0.076014444,0.85087615,-0.35298517,-0.38911593,0.31850937,0.9356121,-0.15225574,0.41780558,0.005613713,0.90851915,9.98645,0.19142151,-0.7118683,9.776039,0.20917982,-0.7454471,0.014404297,0.04093933,-0.003250122,-23.939514,5.5786133,-33.718872,0,0.0,0.0,0.0,0.0
0.099609375,0.008265148,-0.9855935,-0.16892938,-0.07809847,0.1677829,-0.9827256,0.9969114,0.0213155,-0.075586595,0.83447754,-0.3723944,-0.40616432,0.33203593,0.9280556,-0.16871542,0.4397718,0.005928073,0.89808995,9.98645,0.19142151,-0.7118683,9.776361,0.20903365,-0.7412513,0.008453369,0.04093933,-0.003250122,-23.939514,5.5786133,-33.718872,0,0.0,0.0,0.0,0.0
0.107910156,0.0083135655,-0.9855873,-0.16896275,-0.07772972,0.16782038,-0.98274827,0.9969398,0.02130357,-0.075214244,0.80077446,-0.40958592,-0.437035,0.35608444,0.9122481,-0.20250247,0.48162648,0.0065374654,0.87635213,9.992432,0.21057129,-0.73579407,9.77664,0.20891666,-0.7375998,0.007843018,0.031158447,-0.004623413,-23.939514,5.5786133,-33.718872,0,0.0,0.0,0.0,0.0
0.116210937,0.008020816,-0.98480004,-0.17350672,-0.077518865,0.1723778,-0.9819759,0.99695855,0.021326292,-0.07495797,0.7662693,-0.44467393,-0.46378484,0.37629136,0.89566416,-0.23704521,0.5208033,0.007122251,0.85364693,10.003189,0.20578003,-0.74417114,9.776824,0.20913948,-0.73508656,0.0020446777,0.012069702,-0.0026397705,-23.939514,5.819702,-34.13849,0,0.0,0.0,0.0,0.0
0.124511718,0.008059086,-0.9847951,-0.17353271,-0.07738185,0.17240378,-0.9819822,0.996969,0.021342162,-0.074815854,0.7488887,-0.46137318,-0.47571054,0.38495436,0.88717526,-0.25442126,0.5394218,0.0074063553,0.84200317,10.003189,0.20578003,-0.74417114,9.776926,0.20929512,-0.7336929,0.005859375,0.00932312,-0.0024871826,-23.939514,5.819702,-34.13849,0,0.0,0.0,0.0,0.0
0.1328125,0.00964873,-0.9881517,-0.15317668,-0.077142954,0.1519917,-0.9853667,0.99697334,0.021324039,-0.07476242,0.7140388,-0.493308,-0.49678546,0.39970037,0.86981833,-0.289233,0.57479405,0.0079582585,0.8182594,10.005585,0.18185425,-0.7537384,9.776969,0.20911738,-0.7331689,0.006011963,0.0035247803,-0.0055389404,-24.479675,5.0994873,-34.439087,0,0.0,0.0,0.0,0.0
0.141113281,0.0091873575,-0.98724467,-0.1589453,-0.0771996,0.15777732,-0.98445237,0.9969733,0.021315029,-0.07476534,0.67900217,-0.5240628,-0.514115,0.41177297,0.85163736,-0.3242791,0.6077821,0.008487587,0.7940585,10.013962,0.18066406,-0.707077,9.776968,0.20902903,-0.7331975,0.0066223145,-0.010223389,-0.0021820068,-24.179077,5.3390503,-34.55963,0,0.0,0.0,0.0,0.0
0.149414062,0.0091658775,-0.98724717,-0.15893064,-0.07720255,0.15776426,-0.9844542,0.9969733,0.02129324,-0.074771956,0.66167694,-0.53864306,-0.52158153,0.41657105,0.8424887,-0.34158653,0.62341976,0.008744155,0.7818385,10.013962,0.18066406,-0.707077,9.776968,0.20881535,-0.7332624,0.004638672,-0.018310547,-0.0015716553,-24.179077,5.3390503,-34.55963,0,0.0,0.0,0.0,0.0
0.157714843,0.009134749,-0.9872509,-0.15890944,-0.07735535,0.15774217,-0.9844458,0.9969617,0.021285161,-0.0749282,0.6274685,-0.5664756,-0.53421783,0.42402822,0.82402676,-0.37573934,0.6530569,0.009241138,0.75725245,10.013962,0.19262695,-0.7381897,9.776855,0.20873615,-0.73479474,-9.1552734E-5,-0.033432007,-0.0043182373,-24.179077,5.3390503,-34.55963,0,0.0,0.0,0.0,0.0
0.166015625,0.009935378,-0.9888672,-0.14846906,-0.07750791,0.14726812,-0.98605514,0.9969422,0.021304354,-0.07518186,0.594016,-0.5926118,-0.5440187,0.4288476,0.80542964,-0.40911227,0.6806135,0.009718116,0.7325782,9.974487,0.19979858,-0.7465668,9.776664,0.20892435,-0.73728216,0.0018920898,-0.037261963,-0.010131836,-24.119568,4.9194336,-34.379578,0,0.0,0.0,0.0,0.0
0.174316406,0.009929984,-0.98886776,-0.14846535,-0.077789694,0.14725879,-0.9860343,0.99692035,0.021340378,-0.07546144,0.5775344,-0.6052398,-0.5478493,0.43046886,0.79598105,-0.42557108,0.69365025,0.009949859,0.7202433,9.974487,0.19979858,-0.7465668,9.776449,0.20927761,-0.7400239,-5.645752E-4,-0.034957886,-0.004776001,-24.119568,4.9194336,-34.379578,0,0.0,0.0,0.0,0.0
0.182617187,0.009785241,-0.98865974,-0.14985415,-0.07817704,0.14864625,-0.9857955,0.9968915,0.0213614,-0.07583594,0.5453332,-0.62931085,-0.5536962,0.43201625,0.77708405,-0.45771417,0.71831304,0.0104009565,0.69564223,9.997208,0.19381714,-0.83628845,9.776166,0.20948377,-0.7436966,6.1035156E-5,-0.012207031,-0.0026397705,-24.35913,4.978943,-34.439087,0,0.0,0.0,0.0,0.0
0.190917968,0.010116601,-0.9893191,-0.14541472,-0.078292005,0.14419207,-0.98644763,0.9968791,0.021364307,-0.07599704,0.514264,-0.6518317,-0.557358,0.43147662,0.75828624,-0.48870227,0.7411886,0.010835021,0.67120945,9.982849,0.20100403,-0.76091003,9.776045,0.20951228,-0.7452764,0.005554199,-0.0016784668,0.006668091,-23.999023,4.798889,-34.318542,0,0.0,0.0,0.0,0.0
0.19921875,0.010083639,-0.9893227,-0.14539218,-0.07833707,0.14417113,-0.98644716,0.9968759,0.021336574,-0.07604688,0.49913418,-0.6626219,-0.55838805,0.4305553,0.74887264,-0.5037975,0.7519888,0.011045622,0.65908337,9.982849,0.20100403,-0.76091003,9.776013,0.20924032,-0.7457651,0.0054016113,-3.0517578E-4,-0.0026397705,-23.999023,4.798889,-34.318542,0,0.0,0.0,0.0,0.0
0.207519531,0.010051711,-0.9893262,-0.14537033,-0.07834579,0.1441516,-0.98644924,0.9968755,0.02130466,-0.076060586,0.46980625,-0.6831699,-0.5590715,0.42745042,0.73016965,-0.53304636,0.77237827,0.011453172,0.63505954,9.970886,0.19023132,-0.75852966,9.77601,0.20892735,-0.74589956,-0.0011749268,-0.0076293945,-0.0053863525,-23.999023,4.798889,-34.318542,0,0.0,0.0,0.0,0.0
0.215820312,0.009551213,-0.98840123,-0.151565,-0.07845549,0.15036394,-0.98551285,0.9968718,0.021303944,-0.076109335,0.44175756,-0.70240825,-0.55809754,0.42283762,0.7116757,-0.56100446,0.79123867,0.011843318,0.61139274,10.0247345,0.20578003,-0.7537384,9.775973,0.20892033,-0.74637765,8.239746E-4,-0.016021729,-0.005996704,-23.999023,5.039978,-34.379578,0,0.0,0.0,0.0,0.0
0.224121093,0.009560741,-0.9884001,-0.15157147,-0.0785632,0.15036736,-0.9855036,0.99686325,0.021330083,-0.07621425,0.42827433,-0.71147203,-0.5571252,0.41997284,0.70261127,-0.5744215,0.8001274,0.012032543,0.59970933,10.0247345,0.20578003,-0.7537384,9.775889,0.20917666,-0.7474064,-0.003768921,-0.026565552,-0.0037078857,-23.999023,5.039978,-34.379578,0,0.0,0.0,0.0,0.0
0.232421875,0.010134182,-0.9894882,-0.14425784,-0.07870416,0.14302841,-0.98658425,0.99684656,0.021351919,-0.07642737,0.40228623,-0.7287244,-0.55419,0.41336057,0.6846948,-0.6002717,0.8168836,0.01240075,0.5766692,9.96611,0.19979858,-0.77526855,9.775725,0.2093908,-0.74949646,-5.645752E-4,-0.034500122,-0.0041656494,-24.238586,4.798889,-34.61914,0,0.0,0.0,0.0,0.0
0.240722656,0.010114138,-0.98949045,-0.14424412,-0.07899213,0.14301008,-0.986564,0.99682397,0.021372395,-0.07671553,0.38971925,-0.73703104,-0.5521812,0.40971228,0.67574173,-0.61278784,0.8247756,0.012579785,0.56532025,9.96611,0.19979858,-0.77526855,9.775504,0.2095916,-0.7523224,0.0026550293,-0.041381836,-0.0055389404,-24.238586,4.798889,-34.61914,0,0.0,0.0,0.0,0.0
0.249023437,0.010319001,-0.9899754,-0.14086284,-0.0793401,0.13961563,-0.9870221,0.99679416,0.02136115,-0.07710405,0.36556062,-0.7528349,-0.5473618,0.4017003,0.65808237,-0.6368394,0.83964413,0.012927993,0.54298306,10.000809,0.16870117,-0.8003998,9.775212,0.20948134,-0.7561325,-3.9672852E-4,-0.0418396,-0.008453369,-24.41864,4.6798706,-34.67865,0,0.0,0.0,0.0,0.0
0.257324218,0.010283947,-0.98997915,-0.14083865,-0.0797013,0.13958648,-0.9869971,0.99676573,0.021375248,-0.07746712,0.34263313,-0.76770186,-0.5415131,0.39290556,0.64067,-0.659672,0.8533626,0.013261968,0.5211491,9.9673,0.18902588,-0.8027954,9.774933,0.20961958,-0.75969297,-0.0013122559,-0.030838013,-0.0024871826,-24.41864,4.6798706,-34.67865,0,0.0,0.0,0.0,0.0
0.265625,0.009152235,-0.9879982,-0.15419397,-0.08012599,0.15298001,-0.98497564,0.9967428,0.021369675,-0.07776423,0.3316442,-0.77476877,-0.53828,0.38823664,0.6321021,-0.6706111,0.8598165,0.013424243,0.51042664,9.9673,0.18902588,-0.8027954,9.774708,0.20956492,-0.7626066,2.1362305E-4,-0.03251648,-0.0038604736,-24.299622,5.1589966,-34.498596,0,0.0,0.0,0.0,0.0
0.273925781,0.009088867,-0.9880055,-0.15415043,-0.08039764,0.15293571,-0.9849604,0.9967215,0.021345505,-0.07804331,0.31080025,-0.787878,-0.5316499,0.37827048,0.6156782,-0.6912683,0.8719603,0.013738901,0.48938388,9.996017,0.17228699,-0.7956085,9.774499,0.2093279,-0.7653434,0.0023498535,-0.03312683,-0.009216309,-24.299622,5.1589966,-34.498596,0,0.0,0.0,0.0,0.0
0.282226562,0.010285112,-0.9902282,-0.13907686,-0.08053177,0.13781217,-0.9871791,0.99669904,0.021353353,-0.07832741,0.29114884,-0.8001413,-0.5244103,0.36781755,0.59964716,-0.71072745,0.88314354,0.014040141,0.4688926,9.997208,0.18066406,-0.7992096,9.774279,0.20940487,-0.7681295,0.0020446777,-0.030532837,-0.004623413,-24.238586,4.6188354,-34.67865,0,0.0,0.0,0.0,0.0
0.290527343,0.010254368,-0.99023145,-0.13905582,-0.08080644,0.13778771,-0.98716,0.99667704,0.021359308,-0.078604154,0.28164658,-0.8061534,-0.52037674,0.36252564,0.5915365,-0.72018033,0.88839763,0.014186414,0.45885554,9.997208,0.18066406,-0.7992096,9.774063,0.20946325,-0.77084345,0.0037231445,-0.030532837,-0.0053863525,-24.238586,4.6188354,-34.67865,0,0.0,0.0,0.0,0.0
0.298828125,0.009015673,-0.9881077,-0.15349922,-0.08125195,0.15227397,-0.98499286,0.99665284,0.021352483,-0.07891281,0.2634993,-0.8175847,-0.5119799,0.35167697,0.5756265,-0.7382259,0.8982714,0.014470477,0.43920287,10.000809,0.19023132,-0.8458557,9.773826,0.20939633,-0.77387035,0.002960205,-0.023361206,-0.0011138916,-23.999023,5.1589966,-34.61914,0,0.0,0.0,0.0,0.0
0.307128906,0.008940464,-0.98811626,-0.15344836,-0.08152975,0.15222327,-0.9849777,0.99663085,0.021316765,-0.079199925,0.2466547,-0.8279427,-0.50365895,0.34040755,0.5606189,-0.75487036,0.9073501,0.014743017,0.42011723,9.992432,0.18066406,-0.85902405,9.77361,0.20904605,-0.77668595,0.0032653809,-0.013580322,-8.087158E-4,-23.999023,5.1589966,-34.61914,0,0.0,0.0,0.0,0.0
0.315429687,0.008753122,-0.9878973,-0.15486288,-0.08175391,0.15364335,-0.98473865,0.9966141,0.021280179,-0.07941959,0.23862258,-0.83286846,-0.49938902,0.33470297,0.55327106,-0.7628008,0.91161025,0.014874499,0.4107865,9.992432,0.18066406,-0.85902405,9.773446,0.20868728,-0.7788401,-9.1552734E-5,-0.0045776367,-0.0029449463,-23.519897,5.218506,-34.61914,0,0.0,0.0,0.0,0.0
0.323730468,0.008769241,-0.9878953,-0.15487355,-0.08181263,0.15365148,-0.9847324,0.99660915,0.02130597,-0.07947492,0.22332852,-0.84220934,-0.49072167,0.32318613,0.53893834,-0.77787924,0.9196059,0.015128176,0.39255068,9.982849,0.21176147,-0.8386841,9.7733965,0.2089402,-0.77938265,0.0054016113,0.01725769,-0.0041656494,-23.519897,5.218506,-34.61914,0,0.0,0.0,0.0,0.0
0.33203125,0.009326013,-0.98886734,-0.14850691,-0.08170723,0.14726317,-0.9857167,0.9966127,0.021326898,-0.07942425,0.20218427,-0.8551039,-0.4774084,0.30580455,0.51822513,-0.7987029,0.93037903,0.015491497,0.36627167,9.980469,0.1986084,-0.82432556,9.773433,0.20914543,-0.77888584,0.0050964355,0.019699097,0.0023956299,-23.339844,4.978943,-34.61914,0,0.0,0.0,0.0,0.0
0.340332031,0.009333965,-0.9888665,-0.14851215,-0.08164518,0.1472691,-0.985721,0.99661773,0.021325987,-0.07936159,0.20218427,-0.8551039,-0.4774084,0.30580455,0.51822513,-0.7987029,0.93037903,0.015491497,0.36627167,9.980469,0.1986084,-0.82432556,9.773481,0.2091365,-0.7782713,0.0050964355,0.019699097,0.0023956299,-23.339844,4.978943,-34.61914,0,0.0,0.0,0.0,0.0
0.348632812,0.009283932,-0.9887956,-0.148987,-0.08152943,0.14774886,-0.98565876,0.9966277,0.021297613,-0.07924425,0.1891416,-0.863142,-0.46820012,0.29427794,0.50471646,-0.8115799,0.93681693,0.015722552,0.3494665,9.982849,0.18902588,-0.81355286,9.77358,0.20885827,-0.7771207,0.0064697266,0.023986816,-0.0011138916,-23.339844,4.978943,-34.498596,0,0.0,0.0,0.0,0.0
0.356933593,0.009298618,-0.98879397,-0.1489967,-0.0813622,0.14776096,-0.9856708,0.9966413,0.021288076,-0.079076484,0.17695802,-0.87065154,-0.45896822,0.28280497,0.4916419,-0.82359546,0.9427127,0.015943334,0.33322456,9.996017,0.19142151,-0.78604126,9.773712,0.20876472,-0.7754754,-8.69751E-4,0.013900757,-0.0026397705,-23.339844,4.978943,-34.498596,0,0.0,0.0,0.0,0.0
0.365234375,0.00927398,-0.98871815,-0.14950085,-0.081238754,0.14826809,-0.9856049,0.99665153,0.02128574,-0.07894719,0.17117204,-0.8742227,-0.45435104,0.27710402,0.48525983,-0.8292987,0.94547004,0.016050234,0.32531354,9.996017,0.19142151,-0.78604126,9.773813,0.20874181,-0.7742075,0.003112793,0.007949829,-0.0035552979,-23.399353,4.978943,-34.379578,0,0.0,0.0,0.0,0.0
0.373535156,0.009271016,-0.98871845,-0.1494989,-0.08120957,0.148267,-0.9856074,0.9966539,0.021278322,-0.078918815,0.16018675,-0.8810089,-0.4451556,0.26579028,0.47282028,-0.8401169,0.9506291,0.01625757,0.30990314,9.978073,0.19621277,-0.82432556,9.773836,0.20866905,-0.77392924,-5.645752E-4,0.009170532,-0.0017242432,-23.399353,4.978943,-34.379578,0,0.0,0.0,0.0,0.0
0.381835937,0.0102380635,-0.9904282,-0.13764882,-0.08109493,0.13638021,-0.9873318,0.9966538,0.021270987,-0.07892243,0.14993505,-0.88735974,-0.43601853,0.25461984,0.460784,-0.85020393,0.9553471,0.0164564,0.29502708,9.984055,0.19740295,-0.8410797,9.773835,0.20859712,-0.77396464,0.0079956055,0.013900757,-9.613037E-4,-23.579407,4.559326,-34.55963,0,0.0,0.0,0.0,0.0
0.390136718,0.010239372,-0.9904281,-0.1376497,-0.0810693,0.13638152,-0.9873337,0.9966558,0.021268839,-0.07889684,0.14501038,-0.8904903,-0.431276,0.24913137,0.45470098,-0.85509104,0.95755184,0.016552694,0.28778544,9.984055,0.19740295,-0.8410797,9.773855,0.20857607,-0.7737137,-5.645752E-4,0.014816284,-0.0050811768,-23.579407,4.559326,-34.55963,0,0.0,0.0,0.0,0.0
0.3984375,0.010417245,-0.9906461,-0.13605767,-0.08093156,0.13478339,-0.98756444,0.9966653,0.02129906,-0.078770466,0.13566807,-0.8964458,-0.42187566,0.23828444,0.4428371,-0.8643586,0.96167284,0.01673946,0.27368793,10.001999,0.20458984,-0.78245544,9.773948,0.20887244,-0.7724744,-9.1552734E-5,0.016189575,-0.0079956055,-23.458862,4.499817,-34.55963,0,0.0,0.0,0.0,0.0
0.406738281,0.010460417,-0.9906418,-0.13608639,-0.08081351,0.13481113,-0.9875703,0.9966743,0.021328017,-0.078647055,0.12695472,-0.9020441,-0.4125516,0.22763935,0.43131202,-0.8730122,0.965434,0.016920028,0.26009783,9.998413,0.1878357,-0.7896271,9.774036,0.20915641,-0.77126414,-5.645752E-4,0.013442993,-0.0030975342,-23.458862,4.499817,-34.55963,0,0.0,0.0,0.0,0.0
0.415039062,0.010039493,-0.98987615,-0.14157853,-0.08075353,0.14032061,-0.98680747,0.99668354,0.021340013,-0.07852724,0.12282774,-0.90470606,-0.4079464,0.22239514,0.42569667,-0.8771104,0.96718854,0.017008191,0.25348958,9.998413,0.1878357,-0.7896271,9.774127,0.20927404,-0.7700892,0.0067749023,0.013442993,-0.005996704,-23.399353,4.6798706,-34.379578,0,0.0,0.0,0.0,0.0
0.423339843,0.010060868,-0.98987395,-0.14159279,-0.08065908,0.14033517,-0.9868132,0.9966909,0.021348936,-0.07843041,0.115054354,-0.9096799,-0.3990551,0.2120481,0.4149546,-0.88478714,0.97046286,0.017179737,0.24063823,10.012772,0.19381714,-0.7992096,9.7741995,0.20936155,-0.7691396,0.00982666,0.013595581,-0.0014190674,-23.399353,4.6798706,-34.379578,0,0.0,0.0,0.0,0.0
0.431640625,0.010260582,-0.99022716,-0.1390856,-0.080564976,0.13782208,-0.98717487,0.9966965,0.021334417,-0.07836349,0.1078204,-0.91433656,-0.3903376,0.20193571,0.4045835,-0.89192724,0.97344583,0.017344845,0.22825955,9.997208,0.18544006,-0.8063812,9.774254,0.20921917,-0.7684834,-0.0034637451,0.0027618408,-0.0011138916,-23.519897,4.6188354,-34.61914,0,0.0,0.0,0.0,0.0
0.439941406,0.010235219,-0.9902298,-0.13906872,-0.080538735,0.1378078,-0.987179,0.9966989,0.021304416,-0.07834137,0.10438419,-0.916573,-0.38600248,0.19697623,0.39948764,-0.8953268,0.9748356,0.017424641,0.22224328,9.997208,0.18544006,-0.8063812,9.774278,0.20892495,-0.76826644,-8.69751E-4,0.001083374,1.0681152E-4,-23.519897,4.6188354,-34.61914,0,0.0,0.0,0.0,0.0
0.448242187,0.010376306,-0.99050385,-0.13709295,-0.08052168,0.1358274,-0.98745483,0.9966988,0.021285087,-0.078347646,0.0978726,-0.92083174,-0.37747836,0.18724203,0.38956383,-0.90176517,0.9774259,0.017578285,0.21054602,9.979263,0.19142151,-0.80877686,9.774277,0.2087354,-0.76832795,0.0037231445,0.012832642,-0.0052337646,-23.75946,4.559326,-34.739685,0,0.0,0.0,0.0,0.0
0.456542968,0.010364311,-0.9905051,-0.1370849,-0.08047486,0.13582133,-0.98745954,0.99670273,0.021266224,-0.07830306,0.09180155,-0.92485076,-0.36908478,0.1777652,0.37991697,-0.907779,0.9797816,0.01772508,0.19928324,9.973282,0.18066406,-0.7920227,9.774315,0.20855042,-0.76789075,-0.0016174316,0.0071868896,-0.0027923584,-23.75946,4.559326,-34.739685,0,0.0,0.0,0.0,0.0
0.46484375,0.009822367,-0.9895722,-0.14370197,-0.08048948,0.14246017,-0.98652244,0.9967071,0.021256484,-0.07825086,0.088927895,-0.92676383,-0.3649665,0.17312269,0.37522265,-0.91062415,0.9808773,0.017795905,0.19381163,9.973282,0.18066406,-0.7920227,9.774358,0.2084549,-0.7673788,-0.002090454,0.0016937256,-0.0055389404,-23.878479,4.798889,-34.67865,0,0.0,0.0,0.0,0.0
0.473144531,0.009876837,-0.9895664,-0.14373867,-0.08045949,0.14249313,-0.9865201,0.9967089,0.02130884,-0.07821263,0.083529875,-0.9303108,-0.35713392,0.16400944,0.36633357,-0.9159152,0.98291594,0.01793295,0.18317954,9.992432,0.22013855,-0.7788696,9.774376,0.20896833,-0.76700383,-0.0025482178,-0.0015258789,-0.0030975342,-23.878479,4.798889,-34.67865,0,0.0,0.0,0.0,0.0
0.481445312,0.010929687,-0.9913109,-0.13108492,-0.08037931,0.12979753,-0.9882772,0.99670446,0.021338075,-0.07826224,0.07851188,-0.9336364,-0.34951243,0.15515764,0.3577662,-0.92083085,0.98476493,0.018066637,0.17294973,9.991226,0.1986084,-0.8039856,9.774332,0.20925504,-0.76749045,-0.0010070801,-0.017700195,-0.0067749023,-24.119568,4.319763,-34.67865,0,0.0,0.0,0.0,0.0
0.489746093,0.010941558,-0.9913097,-0.13109301,-0.080507375,0.12980193,-0.98826617,0.99669397,0.021367125,-0.07838751,0.07609773,-0.93531173,-0.34554467,0.1508482,0.35335988,-0.9232452,0.98562366,0.01813207,0.16797997,9.991226,0.1986084,-0.8039856,9.774229,0.20953992,-0.76871884,0.0034179688,-0.019226074,-0.0056915283,-24.119568,4.319763,-34.67865,0,0.0,0.0,0.0,0.0
0.498046875,0.011308959,-0.9918986,-0.12652785,-0.08063832,0.12521915,-0.9888466,0.99667925,0.021385817,-0.078568935,0.07152873,-0.9385031,-0.33778045,0.14241555,0.34478772,-0.9278142,0.98721904,0.018260181,0.15831967,9.980469,0.19262695,-0.8147583,9.774085,0.20972323,-0.77049804,8.239746E-4,-0.005493164,2.593994E-4,-24.238586,4.1397095,-34.61914,0,0.0,0.0,0.0,0.0
0.506347656,0.011277412,-0.99190164,-0.12650612,-0.08082332,0.125196,-0.98883426,0.9966646,0.021376139,-0.078756906,0.067259885,-0.9415556,-0.33007446,0.13424298,0.3363556,-0.9321179,0.98866326,0.018383961,0.14902048,9.978073,0.19142151,-0.8542328,9.773941,0.20962831,-0.77234143,-0.0014801025,0.0058135986,-0.008453369,-24.238586,4.1397095,-34.61914,0,0.0,0.0,0.0,0.0
0.514648437,0.011299892,-0.99195695,-0.12607008,-0.08090922,0.12475769,-0.9888827,0.9966574,0.0213745,-0.07884872,0.06524066,-0.94300914,-0.3263088,0.13024767,0.3322553,-0.934153,0.9893327,0.018443808,0.14450128,9.978073,0.19142151,-0.8542328,9.77387,0.20961224,-0.7732418,9.765625E-4,0.016494751,-0.009063721,-24.179077,4.1397095,-34.739685,0,0.0,0.0,0.0,0.0
0.522949218,0.011326674,-0.9919543,-0.1260884,-0.080913454,0.124773756,-0.9888804,0.9966568,0.021402976,-0.07884918,0.06329386,-0.94441915,-0.32259312,0.126314,0.3282226,-0.9361168,0.989969,0.018502422,0.14006785,10.009171,0.20698547,-0.8721771,9.773864,0.20989148,-0.7732463,0.0037231445,0.0158844,-0.0069122314,-24.179077,4.1397095,-34.739685,0,0.0,0.0,0.0,0.0
0.53125,0.011888613,-0.9927311,-0.119764626,-0.08080713,0.118427515,-0.98966914,0.99665886,0.021443632,-0.07881182,0.059613537,-0.9471057,-0.31533614,0.11863325,0.3203811,-0.93983084,0.991147,0.01861729,0.1314573,9.994827,0.18185425,-0.8530426,9.773885,0.2102902,-0.77287996,-0.0034637451,0.024597168,-0.0027923584,-24.41864,3.8986206,-34.739685,0,0.0,0.0,0.0,0.0
0.539550781,0.011900317,-0.99273,-0.11977274,-0.0805928,0.118439294,-0.9896853,0.9966761,0.02143039,-0.07859743,0.056172963,-0.9497038,-0.30807033,0.111214384,0.3125891,-0.9433554,0.9922076,0.018729215,0.12317977,9.997208,0.18424988,-0.7896271,9.774054,0.21016033,-0.77077746,0.011199951,0.035583496,-0.0027923584,-24.41864,3.8986206,-34.739685,0,0.0,0.0,0.0,0.0
0.547851562,0.011813517,-0.9926022,-0.12083577,-0.08033125,0.11951151,-0.9895777,0.99669826,0.021397283,-0.07832512,0.054549225,-0.9509408,-0.3045258,0.10759971,0.30880216,-0.9450203,0.99269664,0.01878324,0.11916588,9.988831,0.18902588,-0.8075714,9.774271,0.20983568,-0.7681071,0.009979248,0.035125732,5.645752E-4,-24.479675,3.9596558,-34.91974,0,0.0,0.0,0.0,0.0
0.556152343,0.011818276,-0.9926018,-0.120839074,-0.0800673,0.11952009,-0.98959804,0.9967194,0.021370599,-0.078062415,0.05148733,-0.9532851,-0.29765156,0.100557834,0.30148083,-0.94815475,0.9935981,0.018886758,0.11138274,10.010376,0.19381714,-0.79681396,9.774479,0.209574,-0.7655308,0.005706787,0.030090332,-0.0015716553,-24.479675,3.9596558,-34.91974,0,0.0,0.0,0.0,0.0
0.564453125,0.012273837,-0.9932495,-0.11534589,-0.07978641,0.11401395,-0.9902701,0.9967364,0.02135745,-0.077848434,0.048651036,-0.95548356,-0.29100558,0.09376112,0.2944329,-0.9510616,0.99440527,0.01898512,0.103911676,10.010376,0.19381714,-0.79681396,9.774646,0.20944506,-0.76343244,0.0038757324,0.019561768,-0.009521484,-24.41864,3.718567,-34.61914,0,0.0,0.0,0.0,0.0
0.572753906,0.012328796,-0.99324447,-0.1153841,-0.079600975,0.114051744,-0.9902807,0.99675053,0.021393655,-0.0776571,0.047302477,-0.95656335,-0.28766122,0.09045872,0.29090253,-0.9524668,0.9947762,0.019032568,0.1002899,10.003189,0.20219421,-0.7692871,9.774784,0.2098001,-0.761556,-0.0014801025,0.01802063,-0.00982666,-24.41864,3.718567,-34.61914,0,0.0,0.0,0.0,0.0
0.581054687,0.012361645,-0.99319994,-0.11576308,-0.079464994,0.11442998,-0.99024814,0.9967611,0.021440208,-0.07751009,0.04475929,-0.95862097,-0.2811447,0.08402981,0.28404212,-0.95512253,0.9954575,0.019126069,0.09326627,10.00679,0.18902588,-0.79800415,9.774887,0.21025662,-0.7601143,0.002960205,0.0116119385,-0.00340271,-24.299622,3.718567,-34.498596,0,0.0,0.0,0.0,0.0
0.589355468,0.012369463,-0.9931992,-0.115768515,-0.07940491,0.114436075,-0.9902522,0.99676573,0.021441475,-0.07744938,0.042408466,-0.9605467,-0.27486673,0.077826254,0.2774543,-0.95758146,0.9960646,0.019217711,0.086522155,9.991226,0.19621277,-0.80519104,9.774933,0.21026905,-0.759519,-0.0040740967,0.010848999,-0.0030975342,-24.299622,3.718567,-34.498596,0,0.0,0.0,0.0,0.0
0.59765625,0.011247065,-0.99148035,-0.12977025,-0.07951969,0.12848057,-0.9885188,0.9967698,0.021437222,-0.077397175,0.04129935,-0.9614642,-0.2718102,0.07480691,0.27425423,-0.9587432,0.9963425,0.019262187,0.08325069,9.982849,0.19740295,-0.79800415,9.774973,0.21022734,-0.75900704,-0.007583618,0.007949829,-0.004928589,-24.41864,4.1992188,-34.199524,0,0.0,0.0,0.0,0.0
0.605957031,0.0112577705,-0.9914792,-0.12977776,-0.07941688,0.12848945,-0.9885259,0.9967779,0.02143514,-0.07729368,0.039243795,-0.9630641,-0.266397,0.06890748,0.26857603,-0.96079063,0.99685085,0.019348321,0.07690226,9.991226,0.19142151,-0.76091003,9.775052,0.21020693,-0.7579921,-3.9672852E-4,0.011154175,-0.0027923584,-24.41864,4.1992188,-34.199524,0,0.0,0.0,0.0,0.0
0.614257812,0.010475253,-0.9901394,-0.13969316,-0.07943555,0.13843532,-0.9871807,0.996785,0.02143757,-0.07720213,0.037336193,-0.96456903,-0.26117542,0.06322285,0.26311412,-0.96269095,0.99730074,0.019430958,0.07080647,9.991226,0.19142151,-0.76091003,9.775122,0.21023075,-0.75709426,0.0050964355,0.0071868896,-0.004470825,-24.299622,4.559326,-34.13849,0,0.0,0.0,0.0,0.0
0.622558593,0.010496327,-0.99013716,-0.13970785,-0.07936089,0.13844995,-0.98718464,0.9967907,0.021449152,-0.077124946,0.036446758,-0.9652355,-0.2588283,0.060452104,0.26065558,-0.9635374,0.9975054,0.019471092,0.06785057,9.969696,0.1878357,-0.7788696,9.775177,0.21034431,-0.75633734,-9.1552734E-5,0.007949829,-0.007385254,-24.299622,4.559326,-34.13849,0,0.0,0.0,0.0,0.0
0.630859375,0.010521604,-0.9901343,-0.13972546,-0.07932774,0.13846628,-0.9871849,0.99679303,0.021470878,-0.077088244,0.03476228,-0.96651065,-0.25426126,0.05506539,0.2558809,-0.9651387,0.9978774,0.019549426,0.062116288,9.98645,0.1878357,-0.7788696,9.775201,0.21055739,-0.75597745,0.0034179688,0.0027618408,-0.00982666,-24.299622,4.559326,-34.13849,0,0.0,0.0,0.0,0.0
0.639160156,0.008913137,-0.9870778,-0.15999384,-0.07953798,0.15879342,-0.98410285,0.99679196,0.02149703,-0.07709483,0.033195727,-0.96771294,-0.24985962,0.049877323,0.25128993,-0.9666259,0.9982035,0.019625517,0.05660868,9.972092,0.19142151,-0.7896271,9.77519,0.21081385,-0.756042,0.0028076172,-0.00579834,-0.0011138916,-23.81897,5.279541,-33.898926,0,0.0,0.0,0.0,0.0
0.647460937,0.007870033,-0.984987,-0.1724494,-0.0796796,0.17128868,-0.9819937,0.99678946,0.02146902,-0.07713531,0.032473475,-0.96818566,-0.24811691,0.04734174,0.2494592,-0.9672274,0.99835074,0.019662946,0.053936403,10.001999,0.17826843,-0.79800415,9.775166,0.21053916,-0.75643903,9.765625E-4,0.0027618408,2.593994E-4,-23.81897,5.6396484,-33.299255,0,0.0,0.0,0.0,0.0
0.655761718,0.00783338,-0.9849917,-0.17242397,-0.07972463,0.1712652,-0.9819941,0.9967862,0.02143877,-0.07718651,0.03111892,-0.9689697,-0.24521302,0.042396635,0.24639067,-0.9682428,0.99861616,0.019734465,0.048748463,9.98645,0.1878357,-0.8063812,9.775133,0.21024252,-0.7569411,0.0035705566,-0.0045776367,-0.0015716553,-23.81897,5.6396484,-33.299255,0,0.0,0.0,0.0,0.0
0.6640625,0.006875515,-0.98289764,-0.18402454,-0.079845406,0.18290168,-0.9798835,0.9967835,0.021430718,-0.07722231,0.02984541,-0.9697137,-0.24241415,0.03763715,0.24344045,-0.96918535,0.99884564,0.019801954,0.043762837,9.973282,0.19262695,-0.78723145,9.775107,0.21016355,-0.7572922,-0.0030059814,-0.0016784668,-0.0053863525,-23.458862,6.059265,-33.239746,0,0.0,0.0,0.0,0.0
0.672363281,0.006897052,-0.9828947,-0.18403922,-0.07988585,0.18291378,-0.9798779,0.9967801,0.021460397,-0.07725781,0.029246006,-0.9700141,-0.24128267,0.035318054,0.242238,-0.96957386,0.99894816,0.01983453,0.041343506,9.976868,0.20578003,-0.7800598,9.775074,0.21045461,-0.75764036,-2.593994E-4,4.7302246E-4,-0.0069122314,-23.458862,6.059265,-33.239746,0,0.0,0.0,0.0,0.0
0.680664062,0.0069243456,-0.9828911,-0.18405782,-0.07984353,0.18293114,-0.97987825,0.99678344,0.02148084,-0.07721081,0.028099794,-0.9705926,-0.23908237,0.030811662,0.23990418,-0.97030747,0.99913013,0.019898916,0.036646828,9.976868,0.20578003,-0.7525482,9.775106,0.21065508,-0.7571794,5.187988E-4,0.0044403076,-3.5095215E-4,-23.458862,6.059265,-33.239746,0,0.0,0.0,0.0,0.0
0.688964843,0.006890029,-0.9828253,-0.18441018,-0.079777345,0.18328649,-0.97981715,0.99678886,0.021462722,-0.07714433,0.02755212,-0.97087103,-0.23801301,0.028624538,0.23877203,-0.97065365,0.9992104,0.019930553,0.034369413,9.984055,0.1878357,-0.7525482,9.77516,0.2104774,-0.7565275,0.0037231445,0.0032196045,-0.0043182373,-23.699951,6.059265,-33.17871,0,0.0,0.0,0.0,0.0
0.697265625,0.0067156698,-0.98240316,-0.18665218,-0.07977025,0.18553524,-0.97939444,0.99679065,0.021466581,-0.07712055,0.026503947,-0.9714043,-0.23594745,0.024378996,0.23658824,-0.9713042,0.99935144,0.019991228,0.029952385,9.988831,0.1986084,-0.7848511,9.775178,0.21051526,-0.7562943,2.1362305E-4,0.0058135986,-0.006164551,-23.75946,6.1187744,-33.059692,0,0.0,0.0,0.0,0.0
0.705566406,0.0067272913,-0.9824015,-0.18666025,-0.07973121,0.18554322,-0.9793961,0.99679375,0.021471329,-0.077079855,0.025517115,-0.9718905,-0.23404635,0.020295378,0.23457798,-0.97188544,0.9994684,0.020049654,0.02571064,10.017548,0.18066406,-0.77168274,9.7752075,0.21056181,-0.7558952,0.0018920898,0.0012207031,-0.010437012,-23.75946,6.1187744,-33.059692,0,0.0,0.0,0.0,0.0
0.713867187,0.006737216,-0.98240006,-0.1866671,-0.079753764,0.1855488,-0.97939306,0.9967918,0.02148579,-0.07710003,0.025044715,-0.9721248,-0.2331225,0.018313866,0.23360267,-0.9721596,0.9995186,0.020078087,0.023653878,9.999603,0.2033844,-0.76091003,9.775188,0.21070363,-0.756093,0.0018920898,-0.014190674,-0.0038604736,-23.75946,6.1187744,-33.059692,0,0.0,0.0,0.0,0.0
0.722167968,0.006718718,-0.9823393,-0.18698779,-0.07983269,0.18586822,-0.9793262,0.99678564,0.021507552,-0.07717398,0.02413951,-0.9725766,-0.23132667,0.0144649325,0.23170966,-0.97267747,0.999604,0.020133832,0.019661613,9.982849,0.18664551,-0.7692871,9.775128,0.21091704,-0.75681823,0.0069274902,-0.016174316,-0.0030975342,-23.75946,6.1187744,-32.998657,0,0.0,0.0,0.0,0.0
0.73046875,0.0066928198,-0.9823429,-0.18696982,-0.07994695,0.18584985,-0.97932035,0.99677664,0.02150208,-0.07729146,0.023284324,-0.97300404,-0.22961056,0.010761698,0.22990347,-0.9731539,0.9996709,0.020188231,0.015824322,10.001999,0.19262695,-0.77526855,9.77504,0.21086337,-0.7579703,-7.019043E-4,-0.016174316,-0.005996704,-23.75946,6.1187744,-32.998657,0,0.0,0.0,0.0,0.0
0.738769531,0.007956945,-0.98518634,-0.17130242,-0.07997173,0.17013218,-0.98217076,0.9967653,0.021514433,-0.077433325,0.022873722,-0.9732103,-0.2287763,0.008961987,0.2290266,-0.97337896,0.99969816,0.020214507,0.013960588,10.001999,0.19262695,-0.77526855,9.774929,0.21098451,-0.75936157,-7.019043E-4,-0.020462036,-0.0055389404,-23.579407,5.5786133,-33.17871,0,0.0,0.0,0.0,0.0
0.747070312,0.007878545,-0.9850477,-0.17210153,-0.08013584,0.17093137,-0.9820187,0.9967528,0.021528376,-0.07759093,0.022081818,-0.9737517,-0.22653899,0.005476055,0.22670864,-0.97394717,0.99974114,0.020265985,0.010338457,9.984055,0.19740295,-0.7992096,9.774806,0.21112126,-0.7609071,0.0037231445,-0.018615723,-0.00630188,-23.579407,5.6396484,-33.358765,0,0.0,0.0,0.0,0.0
0.755371093,0.007859648,-0.98505,-0.17208856,-0.08039336,0.17091435,-0.98200047,0.9967322,0.021552958,-0.077848166,0.021335987,-0.9742593,-0.22441801,0.0021178136,0.22451264,-0.9744689,0.9997701,0.020315979,0.0068534985,9.951752,0.1986084,-0.8650055,9.774604,0.21136232,-0.76342976,3.6621094E-4,0.0019989014,-5.0354004E-4,-23.579407,5.6396484,-33.358765,0,0.0,0.0,0.0,0.0
0.763671875,0.007845537,-0.98505193,-0.17207892,-0.0805406,0.17090267,-0.9819906,0.9967205,0.021563582,-0.07799585,0.020978939,-0.97450393,-0.22338769,4.825145E-4,0.2234467,-0.97471607,0.9997798,0.020340718,0.0051578865,9.982849,0.19381714,-0.84706116,9.774489,0.2114665,-0.76487803,3.6621094E-4,0.008407593,-0.0037078857,-23.579407,5.6396484,-33.358765,0,0.0,0.0,0.0,0.0
0.771972656,0.008681142,-0.98679686,-0.16173038,-0.0804727,0.16052248,-0.9837463,0.996719,0.02155492,-0.07801668,0.020295298,-0.9749751,-0.2213856,-0.0026988327,0.22137699,-0.97518456,0.9997904,0.020389143,0.0018616172,9.988831,0.20100403,-0.8003998,9.774475,0.21138158,-0.7650824,2.1362305E-4,0.013748169,-0.0027923584,-23.81897,5.218506,-33.1192,0,0.0,0.0,0.0,0.0
0.780273437,0.008692366,-0.9867955,-0.16173823,-0.08038921,0.16053122,-0.9837517,0.9967257,0.021553136,-0.077932306,0.019653259,-0.97551495,-0.21905343,-0.0057492326,0.21898186,-0.975712,0.9997904,0.020435309,-0.0013047549,9.981659,0.19621277,-0.8027954,9.77454,0.21136408,-0.76425487,0.0040283203,0.014968872,-0.004470825,-23.81897,5.218506,-33.1192,0,0.0,0.0,0.0,0.0
0.788574218,0.008488204,-0.98635125,-0.1644363,-0.08031834,0.16323842,-0.9833119,0.9967331,0.021553801,-0.07783648,0.019347543,-0.9757746,-0.21792117,-0.0072282767,0.21781975,-0.9759623,0.9997867,0.020457666,-0.0028388917,9.981659,0.19621277,-0.8027954,9.774613,0.21137059,-0.7633152,0.0079956055,0.014816284,-0.0041656494,-23.519897,5.3390503,-33.239746,0,0.0,0.0,0.0,0.0
0.796875,0.008721084,-0.9868019,-0.16169682,-0.08021626,0.16049144,-0.98377216,0.99673927,0.021550275,-0.0777579,0.018764056,-0.97625107,-0.21582808,-0.010098707,0.21567,-0.97641414,0.99977297,0.020501073,-0.0058120303,9.96611,0.19023132,-0.7645111,9.774673,0.21133602,-0.7625446,2.1362305E-4,0.014663696,-0.0011138916,-23.579407,5.218506,-33.1192,0,0.0,0.0,0.0,0.0
0.805175781,0.008718296,-0.98680234,-0.1616949,-0.080157995,0.160491,-0.9837771,0.99674404,0.021537995,-0.077700876,0.01821751,-0.97672784,-0.21370769,-0.01285251,0.21349673,-0.9768593,0.99975145,0.020542622,-0.008664026,9.969696,0.20100403,-0.8183441,9.77472,0.21121559,-0.7619853,0.0012817383,0.01725769,-0.0056915283,-23.579407,5.218506,-33.1192,0,0.0,0.0,0.0,0.0
0.813476562,0.008698273,-0.9868047,-0.16168103,-0.080087185,0.16048025,-0.98378456,0.9967499,0.021505805,-0.07763451,0.017956795,-0.97695726,-0.2126783,-0.014187969,0.2124422,-0.97707057,0.9997381,0.02056253,-0.010046259,10.00679,0.17706299,-0.83151245,9.774777,0.2108999,-0.76133454,0.0026550293,0.019699097,-0.0055389404,-23.579407,5.218506,-33.1192,0,0.0,0.0,0.0,0.0
0.821777343,0.007734086,-0.98480093,-0.17351486,-0.08009437,0.17235246,-0.98177373,0.99675727,0.021490684,-0.07754401,0.0174584,-0.97739947,-0.2106788,-0.01677804,0.21039486,-0.9774725,0.9997068,0.020599883,-0.01272569,9.988831,0.20100403,-0.8003998,9.77485,0.21075162,-0.760447,-2.593994E-4,0.022155762,-0.0017242432,-23.278809,5.5786133,-32.699585,0,0.0,0.0,0.0,0.0
0.830078125,0.007756572,-0.984798,-0.17353037,-0.07996554,0.17236897,-0.9817813,0.99676746,0.021491705,-0.0774129,0.017216288,-0.9775619,-0.20994362,-0.018037375,0.20963691,-0.977613,0.9996891,0.0206177,-0.014023483,9.988831,0.20100403,-0.8003998,9.774949,0.21076162,-0.75916123,-0.003768921,0.0158844,-3.5095215E-4,-23.278809,5.5786133,-32.699585,0,0.0,0.0,0.0,0.0
0.838378906,0.007719993,-0.9846546,-0.17434372,-0.07983879,0.1731854,-0.9816479,0.9967779,0.021497706,-0.07727664,0.016753137,-0.97787535,-0.20851648,-0.020476894,0.20816645,-0.97787905,0.99964994,0.02065231,-0.016536409,9.994827,0.21057129,-0.79322815,9.775052,0.21082048,-0.75782496,0.002960205,0.027038574,-0.004928589,-23.2193,5.6396484,-32.87964,0,0.0,0.0,0.0,0.0
0.846679687,0.0071257357,-0.98324144,-0.18216848,-0.07973559,0.18103437,-0.98023915,0.99679065,0.021510238,-0.077109344,0.01631578,-0.97816753,-0.20717649,-0.022816254,0.20678589,-0.97812015,0.99960655,0.020685786,-0.018944245,10.009171,0.19023132,-0.7884369,9.775177,0.21094339,-0.7561844,2.1362305E-4,0.023834229,-0.011657715,-23.15979,5.8792114,-32.63855,0,0.0,0.0,0.0,0.0
0.854980468,0.00719585,-0.9832321,-0.18221655,-0.07957552,0.18108034,-0.9802436,0.99680287,0.021553662,-0.076938175,0.016103111,-0.9782756,-0.20668204,-0.023950737,0.20627213,-0.9782015,0.9995834,0.020702275,-0.020108799,10.009171,0.19023132,-0.7884369,9.775297,0.21136922,-0.75450575,2.1362305E-4,0.020477295,-0.007827759,-23.15979,5.8792114,-32.63855,0,0.0,0.0,0.0,0.0
0.86328125,0.0072264355,-0.983228,-0.18223749,-0.07948764,0.18110077,-0.9802471,0.99680966,0.02156932,-0.07684575,0.015696812,-0.9784843,-0.20572357,-0.026146434,0.20527689,-0.9783546,0.9995349,0.020735987,-0.02236168,9.981659,0.19621277,-0.74775696,9.775364,0.21152277,-0.7535994,0.005706787,-3.0517578E-4,-8.087158E-4,-23.15979,5.8792114,-32.63855,0,0.0,0.0,0.0,0.0
0.871582031,0.0076243193,-0.98409295,-0.17749052,-0.07941655,0.17633912,-0.98112047,0.9968123,0.021576062,-0.0768088,0.015312068,-0.9786834,-0.20480305,-0.028252466,0.2043218,-0.978496,0.9994835,0.020768987,-0.024521632,9.988831,0.1986084,-0.7621155,9.77539,0.21158889,-0.75323707,0.005859375,-0.001373291,-0.0066070557,-23.519897,5.758667,-32.939148,0,0.0,0.0,0.0,0.0
0.879882812,0.007640342,-0.98409086,-0.1775016,-0.07941677,0.17634894,-0.9811188,0.9968122,0.021592688,-0.07680595,0.015130013,-0.97879946,-0.20426157,-0.029272094,0.2037638,-0.9785824,0.999457,0.020785129,-0.02556856,9.988831,0.1986084,-0.7621155,9.775389,0.21175194,-0.7532091,0.007232666,-0.0030517578,-0.0053863525,-23.519897,5.758667,-32.939148,0,0.0,0.0,0.0,0.0
0.888183593,0.007809283,-0.98444045,-0.17554498,-0.0794459,0.17438461,-0.9814674,0.9968086,0.021610888,-0.07684793,0.014780741,-0.97902346,-0.20321037,-0.031250972,0.20268096,-0.978746,0.9994022,0.020817112,-0.027599663,9.991226,0.20100403,-0.80158997,9.775353,0.21193041,-0.7536208,0.0018920898,0.003829956,-0.00630188,-23.339844,5.6991577,-32.998657,0,0.0,0.0,0.0,0.0
0.896484375,0.0076393154,-0.9840033,-0.17798647,-0.079457454,0.17683154,-0.9810286,0.996809,0.021636736,-0.07683552,0.014452351,-0.97925353,-0.20212288,-0.033152778,0.20156355,-0.97891426,0.9993458,0.020848546,-0.029551905,9.982849,0.20578003,-0.78245544,9.775357,0.21218391,-0.7534991,-0.0010070801,0.004135132,-0.00340271,-23.399353,5.819702,-33.17871,0,0.0,0.0,0.0,0.0
0.904785156,0.007664957,-0.9839999,-0.17800394,-0.079436995,0.17684743,-0.9810273,0.9968104,0.021659633,-0.07681047,0.014293464,-0.9793547,-0.20164378,-0.03407612,0.20107013,-0.978984,0.99931705,0.02086431,-0.030498618,9.982849,0.20578003,-0.78245544,9.775371,0.21240844,-0.75325346,-0.0028533936,0.008255005,-0.00340271,-23.399353,5.819702,-33.17871,0,0.0,0.0,0.0,0.0
0.913085937,0.0076797972,-0.98399794,-0.17801407,-0.07939778,0.17685723,-0.98102874,0.99681336,0.021668024,-0.07676903,0.0139888525,-0.97954994,-0.20071416,-0.035867386,0.20011303,-0.9791161,0.99925864,0.020895803,-0.032334547,10.000809,0.19502258,-0.76330566,9.7754,0.21249074,-0.7528471,6.713867E-4,7.7819824E-4,-0.0066070557,-23.399353,5.819702,-33.17871,0,0.0,0.0,0.0,0.0
0.921386718,0.00805292,-0.98478,-0.17361863,-0.07936798,0.17244706,-0.98181605,0.9968129,0.021686247,-0.076771304,0.013700226,-0.97973657,-0.19982128,-0.037586547,0.19919418,-0.9792389,0.99919945,0.020926386,-0.03409591,9.979263,0.18304443,-0.75613403,9.775395,0.21266943,-0.7528693,0.0014343262,-0.014953613,-0.0055389404,-23.579407,5.6991577,-33.4198,0,0.0,0.0,0.0,0.0
0.9296875,0.008034916,-0.98478234,-0.17360632,-0.07943046,0.1724348,-0.98181313,0.99680805,0.021678414,-0.07683621,0.01356516,-0.97984457,-0.19930017,-0.03841951,0.19866058,-0.9793149,0.9991696,0.020941582,-0.03495029,9.979263,0.18304443,-0.75613403,9.775348,0.21259263,-0.7535059,-0.0016174316,-0.01663208,-6.5612793E-4,-23.579407,5.6991577,-33.4198,0,0.0,0.0,0.0,0.0
0.937988281,0.008242271,-0.98534954,-0.17034803,-0.07956415,0.16916749,-0.9823706,0.99679565,0.02165056,-0.077004164,0.013304884,-0.9800535,-0.19828816,-0.0400385,0.1976245,-0.97945976,0.99910957,0.02097076,-0.036610503,9.98645,0.2033844,-0.8374939,9.775227,0.21231946,-0.75515294,0.0054016113,-0.012359619,-0.0024871826,-23.939514,5.6396484,-33.779907,0,0.0,0.0,0.0,0.0
0.946289062,0.009195704,-0.9873684,-0.15817414,-0.07964553,0.15695508,-0.98438895,0.9967808,0.02165001,-0.077196166,0.013061127,-0.9802788,-0.1971873,-0.041598663,0.19650069,-0.9796209,0.99904907,0.020997679,-0.03821177,9.954147,0.19262695,-0.7788696,9.775081,0.21231408,-0.7570358,0.0032653809,-0.010528564,-6.5612793E-4,-24.479675,5.279541,-34.379578,0,0.0,0.0,0.0,0.0
0.954589843,0.009168321,-0.98737174,-0.15815516,-0.0797329,0.15693636,-0.9843849,0.9967741,0.021635326,-0.07728717,0.012953889,-0.98043615,-0.19641058,-0.042356193,0.19571272,-0.9797461,0.99901855,0.021010727,-0.038992304,9.954147,0.19262695,-0.7788696,9.775015,0.21217006,-0.7579282,0.0038757324,-0.010528564,-6.5612793E-4,-24.479675,5.279541,-34.379578,0,0.0,0.0,0.0,0.0
0.962890625,0.009127893,-0.98737663,-0.1581271,-0.07979504,0.15691018,-0.9843841,0.99676955,0.02160311,-0.07735549,0.012748084,-0.9807399,-0.19490203,-0.04382981,0.19418246,-0.9799858,0.9989577,0.021035459,-0.040510185,9.999603,0.19142151,-0.7645111,9.77497,0.21185414,-0.7585982,0.0011291504,-0.010528564,-0.003250122,-24.479675,5.279541,-34.379578,0,0.0,0.0,0.0,0.0
0.971191406,0.009040441,-0.9871957,-0.1592575,-0.07991291,0.15804136,-0.9841935,0.99676085,0.021624275,-0.077460915,0.012552976,-0.9810295,-0.19345176,-0.045248307,0.1927115,-0.9802116,0.9988969,0.021057935,-0.04197082,10.003189,0.21655273,-0.7776642,9.774885,0.21206169,-0.7596321,0.0014343262,-0.018173218,-0.002029419,-24.719238,5.3390503,-34.498596,0,0.0,0.0,0.0,0.0
0.979492187,0.009045402,-0.98719513,-0.15926097,-0.080051735,0.15804142,-0.9841823,0.9967497,0.02165144,-0.077597134,0.012458839,-0.98116475,-0.1927705,-0.045938957,0.19202024,-0.9803152,0.99886656,0.021069264,-0.042681336,10.003189,0.21655273,-0.7776642,9.7747755,0.21232809,-0.76096797,0.007843018,-0.017089844,-6.5612793E-4,-24.719238,5.3390503,-34.498596,0,0.0,0.0,0.0,0.0
0.987792968,0.009455976,-0.9880103,-0.15409836,-0.080193326,0.1528596,-0.9849888,0.99673444,0.021671688,-0.077786386,0.012279009,-0.98142594,-0.19144829,-0.04728477,0.19067863,-0.980513,0.998806,0.021092318,-0.044065155,9.978073,0.18902588,-0.78125,9.774626,0.21252666,-0.7628239,0.0012817383,-0.030227661,-0.007385254,-24.778748,5.218506,-34.979248,0,0.0,0.0,0.0,0.0
0.99609375,0.009418694,-0.98801464,-0.1540726,-0.08039849,0.15283236,-0.9849763,0.9967183,0.021664394,-0.077995405,0.012197809,-0.9815718,-0.19070406,-0.047940243,0.18992485,-0.9806275,0.9987758,0.021103906,-0.044740126,9.978073,0.18902588,-0.78125,9.774467,0.21245514,-0.7648736,0.0064697266,-0.025497437,-0.0035552979,-24.778748,5.218506,-34.979248,0,0.0,0.0,0.0,0.0
1.004394531,0.00926027,-0.9878148,-0.15535837,-0.08064334,0.15412122,-0.98475546,0.9967,0.02164772,-0.07823348,0.012041323,-0.9818535,-0.18925844,-0.04922059,0.18846072,-0.98084646,0.99871534,0.021126103,-0.046058092,9.974487,0.18664551,-0.8003998,9.774288,0.21229161,-0.7672084,-0.0033111572,-0.01878357,0.0034637451,-24.659729,5.279541,-35.038757,0,0.0,0.0,0.0,0.0
1.012695312,0.009215221,-0.98782,-0.15532745,-0.08084334,0.1540896,-0.984744,0.99668425,0.021631826,-0.0784387,0.011889554,-0.9821122,-0.18792044,-0.050460704,0.18710494,-0.98104304,0.99865526,0.021146761,-0.047333483,9.9673,0.1986084,-0.8267212,9.774134,0.21213575,-0.7692209,-0.0017852783,-0.007171631,-0.0056915283,-24.659729,5.279541,-35.038757,0,0.0,0.0,0.0,0.0
1.020996093,0.009127442,-0.98769486,-0.156127,-0.08096943,0.1548908,-0.98460793,0.9966748,0.021628466,-0.078559324,0.011816144,-0.9822373,-0.18727063,-0.051066242,0.18644655,-0.98113704,0.99862534,0.021156464,-0.04795609,9.9673,0.1986084,-0.8267212,9.774041,0.2121028,-0.7704038,-0.0014801025,-6.1035156E-4,-0.0024871826,-24.958801,5.279541,-34.858704,0,0.0,0.0,0.0,0.0
1.029296875,0.009128862,-0.9876946,-0.156128,-0.08097278,0.15489163,-0.9846076,0.99667454,0.021630464,-0.0785624,0.011673295,-0.9824726,-0.18604109,-0.052246634,0.18520033,-0.9813109,0.998566,0.021175154,-0.04916899,9.991226,0.19979858,-0.79681396,9.774038,0.2121224,-0.770434,-5.645752E-4,0.009170532,-0.00340271,-24.958801,5.279541,-34.858704,0,0.0,0.0,0.0,0.0
1.037597656,0.00912404,-0.9877257,-0.15593158,-0.08097574,0.15469612,-0.984638,0.9966743,0.021610552,-0.078570366,0.011538966,-0.9826971,-0.18485998,-0.053380817,0.1840033,-0.981475,0.99850756,0.021193184,-0.050333966,9.974487,0.1878357,-0.83509827,9.774036,0.21192713,-0.7705121,0.005706787,0.005355835,-0.0021820068,-24.958801,5.3390503,-35.279846,0,0.0,0.0,0.0,0.0
1.045898437,0.009107282,-0.98772764,-0.15592004,-0.08098272,0.15468578,-0.984639,0.9966739,0.021594215,-0.07858012,0.01147461,-0.98280627,-0.18428308,-0.053931046,0.18341868,-0.98155445,0.9984788,0.02120153,-0.050899107,9.974487,0.1878357,-0.83509827,9.774032,0.2117669,-0.7706077,-0.010025024,0.0062713623,-0.0035552979,-24.958801,5.3390503,-35.279846,0,0.0,0.0,0.0,0.0
1.054197892,0.0089927,-0.98753405,-0.15714863,-0.080983594,0.15591952,-0.98444444,0.9966749,0.021579273,-0.078571916,0.0114118215,-0.9829129,-0.18371737,-0.054470513,0.18284546,-0.9816316,0.99845016,0.021209383,-0.051453166,9.997208,0.18424988,-0.8111725,9.774042,0.21162038,-0.7705273,-0.0028533936,0.0032196045,-0.0021820068,-24.958801,5.3390503,-34.979248,0,0.0,0.0,0.0,0.0
1.062498674,0.009001958,-0.98753285,-0.15715505,-0.08099646,0.1559249,-0.9844424,0.9966737,0.021590915,-0.07858305,0.011229495,-0.98320496,-0.18215899,-0.056025792,0.18126565,-0.981837,0.9983661,0.021231135,-0.05304931,9.980469,0.20458984,-0.8123627,9.774031,0.21173455,-0.77063644,-0.0033111572,0.009933472,-0.008605957,-24.958801,5.3390503,-34.979248,0,0.0,0.0,0.0,0.0
1.070799455,0.008768264,-0.9869841,-0.16057906,-0.08100847,0.15935628,-0.98389184,0.9966748,0.021635285,-0.07855678,0.011172386,-0.9832979,-0.18166015,-0.056523938,0.18075997,-0.98190165,0.9983387,0.02123833,-0.05356035,9.980469,0.20458984,-0.8123627,9.774041,0.21216966,-0.7703789,-8.69751E-4,0.009933472,4.119873E-4,-24.958801,5.4595947,-34.91974,0,0.0,0.0,0.0,0.0
1.079100236,0.008767565,-0.98698413,-0.16057856,-0.08094743,0.15935719,-0.98389673,0.9966798,0.0216248,-0.07849666,0.0110570155,-0.9834527,-0.18082733,-0.057491593,0.179914,-0.9820008,0.99828476,0.02125405,-0.05455095,9.974487,0.19502258,-0.79441833,9.77409,0.21206684,-0.7697893,0.0014343262,0.0062713623,-0.0050811768,-24.958801,5.4595947,-34.91974,0,0.0,0.0,0.0,0.0
1.087401017,0.008487798,-0.9864408,-0.16389848,-0.080950215,0.16268861,-0.98335123,0.996682,0.0216141,-0.07847171,0.010947781,-0.9836007,-0.18002729,-0.058418766,0.17910144,-0.98209465,0.9982321,0.02126873,-0.055499975,9.998413,0.19023132,-0.8147583,9.774112,0.21196193,-0.76954466,-0.0030059814,0.006729126,-0.0052337646,-24.778748,5.5786133,-34.858704,0,0.0,0.0,0.0,0.0
1.095701799,0.00850542,-0.9864385,-0.16391064,-0.08092941,0.1626998,-0.983351,0.99668354,0.021629008,-0.078448065,0.010891254,-0.9836601,-0.17970549,-0.058868743,0.17877366,-0.9821275,0.9982063,0.021275636,-0.05595977,9.998413,0.19023132,-0.8147583,9.774127,0.2121081,-0.76931274,0.0026550293,0.008255005,-0.00630188,-24.778748,5.5786133,-34.858704,0,0.0,0.0,0.0,0.0
1.10400258,0.008670212,-0.98673266,-0.16212167,-0.08090234,0.16090408,-0.9836486,0.9966843,0.021644466,-0.07843391,0.010783152,-0.9837752,-0.17908122,-0.059741188,0.1781379,-0.9821903,0.9981556,0.021289632,-0.056851007,9.982849,0.19023132,-0.8183441,9.774135,0.21225971,-0.7691739,0.0026550293,0.0036773682,-0.004928589,-24.839783,5.519104,-34.91974,0,0.0,0.0,0.0,0.0
1.112303361,0.008671497,-0.9867326,-0.16212256,-0.08090193,0.16090488,-0.9836486,0.9966843,0.021645732,-0.078433275,0.0106854765,-0.983898,-0.17841104,-0.060577776,0.17745654,-0.98226243,0.99810624,0.021303685,-0.057706144,9.974487,0.18066406,-0.8111725,9.774135,0.21227212,-0.76916766,0.0037231445,0.0029144287,-0.007217407,-24.839783,5.519104,-34.91974,0,0.0,0.0,0.0,0.0
1.120604142,0.008534193,-0.9864706,-0.1637158,-0.0809321,0.16250326,-0.98338324,0.99668306,0.02164225,-0.078450315,0.010638542,-0.9839574,-0.17808586,-0.0609836,0.17712599,-0.982297,0.99808204,0.021310525,-0.058120906,9.974487,0.18066406,-0.8111725,9.774122,0.21223797,-0.7693348,5.187988E-4,0.0030670166,-0.0040130615,-25.019836,5.519104,-34.55963,0,0.0,0.0,0.0,0.0
1.128904924,0.008550277,-0.9864687,-0.16372713,-0.08090106,0.16251397,-0.98338413,0.9966855,0.021653906,-0.07841681,0.010544005,-0.98406106,-0.17751786,-0.061772596,0.17654763,-0.9823517,0.99803454,0.021323662,-0.05892649,9.993622,0.19262695,-0.7692871,9.774146,0.21235228,-0.76900625,-0.0034637451,-0.004425049,-0.0024871826,-25.019836,5.519104,-34.55963,0,0.0,0.0,0.0,0.0
1.137205705,0.008920492,-0.9871956,-0.15926467,-0.08086008,0.15803729,-0.9841168,0.99668556,0.02165696,-0.07841495,0.010454751,-0.98416024,-0.17697282,-0.06252913,0.1759927,-0.98240346,0.9979884,0.021336742,-0.059698723,9.988831,0.19262695,-0.77049255,9.774146,0.21238221,-0.7689879,0.0014343262,-0.0036621094,-0.012573242,-25.079346,5.3390503,-34.498596,0,0.0,0.0,0.0,0.0
1.145506486,0.008943406,-0.9871928,-0.15928088,-0.080883645,0.15805115,-0.98411274,0.9966835,0.021684539,-0.07843424,0.010417536,-0.9842241,-0.17661934,-0.062895134,0.17563424,-0.9824443,0.99796575,0.021343146,-0.060073227,9.988831,0.19262695,-0.77049255,9.774126,0.21265268,-0.76917714,-0.0071258545,-0.009613037,-0.0105896,-25.079346,5.3390503,-34.498596,0,0.0,0.0,0.0,0.0
1.153807267,0.00924192,-0.9877282,-0.1559095,-0.08092889,0.15466586,-0.9846467,0.99667704,0.021717604,-0.07850632,0.010346989,-0.9843476,-0.1759339,-0.06360636,0.17493908,-0.98252255,0.9979214,0.021356665,-0.06080067,9.992432,0.18544006,-0.8027954,9.774063,0.21297695,-0.76988405,0.0037231445,-0.010223389,-0.0050811768,-24.839783,5.279541,-34.91974,0,0.0,0.0,0.0,0.0
1.162108049,0.009236713,-0.9877287,-0.15590587,-0.08103988,0.15466024,-0.9846384,0.9966681,0.021729419,-0.07861687,0.010289653,-0.9844894,-0.17514211,-0.06429141,0.17413764,-0.9826203,0.9978781,0.021370957,-0.061502393,9.982849,0.18902588,-0.8147583,9.773975,0.2130928,-0.7709682,0.0034179688,-0.016937256,-0.0064697266,-24.839783,5.279541,-34.91974,0,0.0,0.0,0.0,0.0
1.17040883,0.008423157,-0.9861682,-0.16553369,-0.08127785,0.16431664,-0.9830534,0.9966559,0.021734634,-0.07876956,0.010262116,-0.9845579,-0.17475799,-0.064625844,0.17374879,-0.9826672,0.9978568,0.021378128,-0.061844856,9.982849,0.18902588,-0.8147583,9.773856,0.21314397,-0.7724655,0.002960205,-0.019699097,-0.0064697266,-24.839783,5.5786133,-34.498596,0,0.0,0.0,0.0,0.0
1.178709611,0.008416379,-0.9861691,-0.16552897,-0.08144827,0.16430874,-0.9830407,0.99664205,0.021755688,-0.07893887,0.010145192,-0.98465514,-0.17421632,-0.0656047,0.17319447,-0.9827003,0.99779415,0.021399092,-0.062840916,9.970886,0.19979858,-0.8195343,9.77372,0.21335042,-0.77412593,0.0015869141,-0.023361206,-0.0055389404,-24.839783,5.5786133,-34.498596,0,0.0,0.0,0.0,0.0
1.187010392,0.00866088,-0.98668593,-0.16240628,-0.081620455,0.1611729,-0.98354536,0.9966259,0.021774042,-0.07913786,0.010107852,-0.98468626,-0.17404276,-0.065921344,0.17301685,-0.9827103,0.99777365,0.021406224,-0.06316301,9.970886,0.19262695,-0.80877686,9.7735615,0.21353042,-0.77607733,0.0047912598,-0.02168274,-0.0015716553,-24.899292,5.519104,-34.858704,0,0.0,0.0,0.0,0.0
1.195311174,0.00862893,-0.9866899,-0.16238408,-0.0818159,0.16114902,-0.983533,0.9966101,0.021772437,-0.079336375,0.010075225,-0.9847276,-0.17381041,-0.06623508,0.17278029,-0.98273087,0.9977532,0.02141358,-0.06348272,9.970886,0.19262695,-0.80877686,9.773407,0.21351467,-0.7780241,0.004180908,-0.021377563,-0.0012664795,-24.899292,5.519104,-34.858704,0,0.0,0.0,0.0,0.0
1.203611955,0.008560237,-0.9866586,-0.16257799,-0.08202849,0.16134313,-0.9834835,0.99659324,0.021754878,-0.07955298,0.010010993,-0.9848079,-0.17335862,-0.06685153,0.17232028,-0.9827699,0.99771273,0.02142779,-0.064110816,9.994827,0.19023132,-0.82192993,9.773241,0.21334247,-0.7801482,-0.0016174316,-0.02381897,-0.0030975342,-24.778748,5.519104,-34.799194,0,0.0,0.0,0.0,0.0
1.211912736,0.00854443,-0.98666054,-0.16256703,-0.08223583,0.16132896,-0.98346853,0.9965763,0.021772012,-0.07976037,0.00994711,-0.9848834,-0.17293233,-0.067452244,0.17188609,-0.98280483,0.9976729,0.02144074,-0.06472283,9.994827,0.19023132,-0.82192993,9.773075,0.21351051,-0.7821821,0.0054016113,-0.026565552,-0.0026397705,-24.778748,5.519104,-34.799194,0,0.0,0.0,0.0,0.0
1.220213517,0.008914234,-0.98741686,-0.15788746,-0.082416885,0.15663104,-0.9842125,0.9965581,0.021786096,-0.07998358,0.009915956,-0.98492014,-0.17272519,-0.067747794,0.17167507,-0.9828214,0.9976532,0.021447364,-0.06502384,9.984055,0.21176147,-0.8111725,9.772897,0.21364862,-0.78437096,0.0107421875,-0.029312134,-0.0064697266,-24.958801,5.3390503,-34.799194,0,0.0,0.0,0.0,0.0
1.228514299,0.008866895,-0.9874225,-0.1578544,-0.082675435,0.15659621,-0.9841963,0.9965371,0.02177745,-0.080247074,0.009867791,-0.9850234,-0.17213826,-0.06832806,0.17108007,-0.982885,0.9976141,0.021460777,-0.06561655,9.992432,0.19740295,-0.8267212,9.772691,0.21356383,-0.786955,-0.0016174316,-0.036483765,-0.0050811768,-24.958801,5.3390503,-34.799194,0,0.0,0.0,0.0,0.0
1.23681508,0.008259086,-0.9863757,-0.16430093,-0.0830713,0.1630618,-0.9831124,0.9965094,0.0217683,-0.08059277,0.009820137,-0.98512244,-0.17157334,-0.06889569,0.17050731,-0.98294485,0.9975755,0.021473318,-0.066196285,9.978073,0.19262695,-0.85543823,9.772419,0.21347411,-0.7903451,0.0020446777,-0.03665161,-6.5612793E-4,-24.839783,5.5786133,-34.739685,0,0.0,0.0,0.0,0.0
1.245115861,0.008189877,-0.98638433,-0.16425282,-0.08343473,0.16301148,-0.9830899,0.9964795,0.021755774,-0.08096366,0.0097868275,-0.985148,-0.17142811,-0.069179125,0.17035851,-0.9829508,0.99755627,0.021479217,-0.066484414,9.978073,0.19262695,-0.85543823,9.772126,0.21335126,-0.79398227,3.6621094E-4,-0.034194946,-0.0012664795,-24.839783,5.5786133,-34.739685,0,0.0,0.0,0.0,0.0
1.253416642,0.008151896,-0.9864775,-0.16369379,-0.083772436,0.16245005,-0.9831541,0.9964515,0.021727597,-0.081315346,0.0097196065,-0.985198,-0.17114417,-0.06974338,0.17006755,-0.9829613,0.9975176,0.02149017,-0.06705805,9.972092,0.18902588,-0.87098694,9.771852,0.21307495,-0.7974312,-0.0014801025,-0.016479492,-0.0076904297,-24.899292,5.5786133,-34.858704,0,0.0,0.0,0.0,0.0
1.261717424,0.008105897,-0.9864831,-0.16366182,-0.084024444,0.16241646,-0.9831381,0.9964307,0.021720815,-0.08157218,0.009653443,-0.9852498,-0.1708496,-0.070298605,0.16976616,-0.9829738,0.99747926,0.021499572,-0.06762286,9.974487,0.18664551,-0.8650055,9.771647,0.21300843,-0.7999499,0.0021972656,4.7302246E-4,-4.5776367E-5,-24.899292,5.5786133,-34.858704,0,0.0,0.0,0.0,0.0
1.270018205,0.0074518817,-0.98524654,-0.17097859,-0.084222935,0.16975738,-0.9818802,0.996419,0.021717176,-0.081715345,0.009620497,-0.985275,-0.17070602,-0.07057306,0.1696192,-0.98297954,0.9974602,0.021503998,-0.06790205,9.974487,0.18664551,-0.8650055,9.771533,0.21297275,-0.8013538,-0.0013122559,0.0029144287,-0.0066070557,-25.2594,5.8792114,-34.979248,0,0.0,0.0,0.0,0.0
1.278318986,0.0074636615,-0.98524505,-0.17098685,-0.08427003,0.16976364,-0.98187524,0.9964151,0.021737453,-0.08175957,0.009534738,-0.9852739,-0.17071722,-0.071113914,0.16962457,-0.98293966,0.9974226,0.021512441,-0.068449356,9.991226,0.20578003,-0.8542328,9.771494,0.21317159,-0.8017875,-3.9672852E-4,0.0056610107,-0.0024871826,-25.2594,5.8792114,-34.979248,0,0.0,0.0,0.0,0.0
1.286619767,0.0074708904,-0.9852441,-0.17099193,-0.08429557,0.16976756,-0.9818723,0.9964128,0.021749321,-0.0817834,0.009493377,-0.98527336,-0.17072277,-0.07137717,0.16962726,-0.98292005,0.9974042,0.02151694,-0.068715684,9.993622,0.19740295,-0.87098694,9.771472,0.213288,-0.8020212,-0.0042266846,0.0116119385,-0.0030975342,-25.2594,5.8792114,-34.979248,0,0.0,0.0,0.0,0.0
1.294920549,0.006058531,-0.9823148,-0.18713893,-0.0843507,0.18597336,-0.97892743,0.9964177,0.021716159,-0.081732206,0.009413411,-0.98527217,-0.1707338,-0.07188894,0.16963273,-0.98288184,0.99736816,0.021526143,-0.06923335,9.991226,0.16390991,-0.8374939,9.77152,0.21296278,-0.80151916,-0.0055999756,0.010848999,-0.008453369,-25.19989,6.3598633,-34.199524,0,0.0,0.0,0.0,0.0
1.30322133,0.0072023943,-0.9846867,-0.17418502,-0.08420779,0.17297357,-0.98132014,0.9964222,0.021735588,-0.08167245,0.009350357,-0.9852157,-0.17106295,-0.07213922,0.16996005,-0.9828069,0.9973507,0.021529945,-0.0694835,9.973282,0.19381714,-0.84706116,9.771564,0.2131533,-0.8009332,-0.0031585693,0.017410278,-0.0027923584,-25.318909,5.9387207,-34.61914,0,0.0,0.0,0.0,0.0
1.311522111,0.00723998,-0.98468167,-0.17421164,-0.08410748,0.17299923,-0.98132426,0.9964304,0.02175727,-0.08156657,0.009266732,-0.985195,-0.17118704,-0.07261762,0.17007937,-0.98275113,0.99731684,0.021538086,-0.06996643,9.979263,0.21176147,-0.85543823,9.771645,0.21336593,-0.7998948,0.0032653809,0.023529053,-0.008300781,-25.318909,5.9387207,-34.61914,0,0.0,0.0,0.0,0.0
1.319822892,0.007992522,-0.9860606,-0.1661944,-0.08391285,0.16495211,-0.98272544,0.996441,0.021800302,-0.08142477,0.009187761,-0.9851748,-0.17130743,-0.07307319,0.17019513,-0.98269725,0.9972843,0.021546766,-0.07042615,9.979263,0.21176147,-0.85543823,9.771749,0.21378793,-0.7985043,6.713867E-4,0.027648926,-0.0014190674,-25.318909,5.6396484,-34.67865,0,0.0,0.0,0.0,0.0
1.328123674,0.00801038,-0.9860583,-0.16620706,-0.083675206,0.16496848,-0.98274297,0.99646086,0.021779556,-0.08118717,0.009162746,-0.9851928,-0.17120518,-0.07328991,0.17009023,-0.9826993,0.9972686,0.021551836,-0.0706462,9.964905,0.19502258,-0.7992096,9.771943,0.21358448,-0.7961742,0.0012817383,0.026275635,0.0060577393,-25.318909,5.6396484,-34.67865,0,0.0,0.0,0.0,0.0
1.336424455,0.008013602,-0.98605794,-0.16620934,-0.08347915,0.16497478,-0.98275864,0.9964773,0.02175045,-0.080993235,0.009115073,-0.9852276,-0.17100744,-0.0737011,0.16988748,-0.9827036,0.99723876,0.021560851,-0.07106382,9.993622,0.19621277,-0.7920227,9.772104,0.21329907,-0.7942723,0.006011963,0.0070343018,-0.007522583,-25.318909,5.6396484,-34.67865,0,0.0,0.0,0.0,0.0
1.344725236,0.008840867,-0.98757786,-0.15688202,-0.08335694,0.15561424,-0.9842946,0.9964805,0.021779219,-0.080945686,0.0090696225,-0.98526096,-0.17081755,-0.074088216,0.16969296,-0.98270816,0.99721044,0.02156836,-0.07145717,9.98764,0.21176147,-0.8147583,9.772136,0.21358117,-0.793806,-0.0019226074,-0.005493164,-0.0079956055,-25.619507,5.279541,-34.67865,0,0.0,0.0,0.0,0.0
1.353026017,0.009291919,-0.9884006,-0.15158525,-0.0833781,0.15029809,-0.9851186,0.9964747,0.02179253,-0.081014395,0.009062447,-0.98530924,-0.17053913,-0.07427343,0.16941176,-0.98274267,0.99719673,0.021572579,-0.07164702,9.968506,0.1878357,-0.8458557,9.7720785,0.21371171,-0.79447985,0.007232666,-0.0022888184,-0.006164551,-25.2594,5.0994873,-34.799194,0,0.0,0.0,0.0,0.0
1.361326799,0.009308822,-0.9883985,-0.15159722,-0.08341517,0.15030782,-0.98511386,0.99647135,0.021815758,-0.08104824,0.009064772,-0.9854387,-0.16978945,-0.07463372,0.16865608,-0.98284537,0.99716985,0.021581287,-0.072018124,9.979263,0.20219421,-0.80519104,9.772046,0.2139395,-0.7948118,9.765625E-4,-0.006866455,-0.0040130615,-25.2594,5.0994873,-34.799194,0,0.0,0.0,0.0,0.0
1.36962758,0.009455937,-0.988668,-0.1498202,-0.08344131,0.14852421,-0.9853822,0.9964678,0.021818904,-0.08109132,0.009068215,-0.9855624,-0.16906983,-0.07498105,0.16793059,-0.98294306,0.9971437,0.021590572,-0.07237567,9.979263,0.20219421,-0.80519104,9.772012,0.21397036,-0.79523426,0.003112793,-0.011138916,-0.006164551,-25.079346,4.978943,-34.439087,0,0.0,0.0,0.0,0.0
1.377928361,0.009447365,-0.98866904,-0.14981407,-0.08349687,0.14851758,-0.98537844,0.99646324,0.02181824,-0.08114767,0.009072686,-0.9856282,-0.16868529,-0.07515015,0.1675431,-0.98299634,0.997131,0.021595139,-0.07255004,10.001999,0.19023132,-0.8063812,9.771967,0.21396385,-0.7957869,-0.0057525635,-0.00793457,-0.0093688965,-25.079346,4.978943,-34.439087,0,0.0,0.0,0.0,0.0
1.386229142,0.009490027,-0.98866403,-0.14984444,-0.08356201,0.14854297,-0.9853692,0.99645746,0.021872483,-0.08120508,0.009081366,-0.98575556,-0.16793877,-0.07548044,0.1667908,-0.9830989,0.9971059,0.021603974,-0.07289058,9.991226,0.20698547,-0.8063812,9.77191,0.2144958,-0.7963498,0.0025024414,-0.004272461,-0.010131836,-25.079346,4.978943,-34.439087,0,0.0,0.0,0.0,0.0
1.394529924,0.009710558,-0.98900586,-0.14755726,-0.083662584,0.14624327,-0.9857046,0.99644685,0.021916762,-0.08132268,0.00909181,-0.98587716,-0.16722293,-0.075800434,0.16606918,-0.9831965,0.9970816,0.021614604,-0.073220044,9.990036,0.20219421,-0.84825134,9.771806,0.21493001,-0.79750305,0.0011291504,-0.014343262,-0.0029449463,-25.019836,4.9194336,-34.61914,0,0.0,0.0,0.0,0.0
1.402830705,0.00900528,-0.9877446,-0.1558189,-0.083873965,0.15452997,-0.9844215,0.99643564,0.021934139,-0.08145446,0.009101057,-0.9859436,-0.16683008,-0.075957656,0.16567333,-0.98325115,0.99706954,0.021620646,-0.07338217,10.001999,0.20936584,-0.8566284,9.771696,0.21510042,-0.7987954,-0.0028533936,-0.004119873,-0.0040130615,-24.539185,5.218506,-34.498596,0,0.0,0.0,0.0,0.0
1.411131486,0.008988806,-0.9877466,-0.15580748,-0.083958104,0.15451811,-0.98441625,0.9964288,0.021930026,-0.08154039,0.009093845,-0.98601735,-0.16639434,-0.076271065,0.16523252,-0.98330104,0.9970457,0.021633063,-0.073702,9.98645,0.19740295,-0.84706116,9.771628,0.21506009,-0.7996381,0.005706787,0.0029144287,-0.0029449463,-24.539185,5.218506,-34.498596,0,0.0,0.0,0.0,0.0
1.419432267,0.010639232,-0.99056464,-0.13663247,-0.083770275,0.13527693,-0.9872601,0.99642825,0.021949429,-0.08154063,0.00908652,-0.98608804,-0.16597533,-0.07657528,0.1648086,-0.98334855,0.9970224,0.021644823,-0.07401243,9.993622,0.2033844,-0.830307,9.771624,0.21525037,-0.7996404,-0.0028533936,0.008865356,-0.0076904297,-24.719238,4.559326,-34.979248,0,0.0,0.0,0.0,0.0
1.427733049,0.010671228,-0.99056125,-0.13665463,-0.08374388,0.13529697,-0.98725957,0.9964301,0.021979263,-0.08150966,0.009113296,-0.9861862,-0.16538948,-0.07671937,0.16421928,-0.9834359,0.99701107,0.021650918,-0.074163005,9.970886,0.18902588,-0.8374939,9.771642,0.21554294,-0.7993367,0.0052490234,0.0059661865,-0.001876831,-24.719238,4.559326,-34.979248,0,0.0,0.0,0.0,0.0
1.43603383,0.010670413,-0.9905613,-0.13665408,-0.08370189,0.13529743,-0.9872632,0.99643373,0.021972712,-0.08146819,0.009167013,-0.9863756,-0.1642536,-0.07699803,0.16307653,-0.98360425,0.99698913,0.02166392,-0.074454054,9.970886,0.18902588,-0.8374939,9.771677,0.2154787,-0.79893,0.004638672,0.012527466,-0.0040130615,-24.719238,4.559326,-34.979248,0,0.0,0.0,0.0,0.0
1.444334611,0.009934573,-0.98936355,-0.1451249,-0.08370007,0.14379998,-0.98606086,0.9964415,0.021943055,-0.081381194,0.009193313,-0.9864669,-0.16370259,-0.07713237,0.16252218,-0.9836855,0.99697846,0.021670094,-0.0745944,9.991226,0.18066406,-0.830307,9.771752,0.21518785,-0.79807687,0.0012817383,0.017562866,-0.0029449463,-24.35913,4.8599243,-34.799194,0,0.0,0.0,0.0,0.0
1.452635392,0.0099899145,-0.98942924,-0.14467168,-0.08357098,0.14334661,-0.9861377,0.99645174,0.021941785,-0.081255555,0.009241788,-0.98670447,-0.16226196,-0.077642575,0.16107091,-0.9838841,0.99693847,0.021691283,-0.07512169,9.968506,0.19502258,-0.78125,9.771853,0.2151754,-0.7968448,0.0020446777,0.01512146,-0.004928589,-24.35913,4.8599243,-34.91974,0,0.0,0.0,0.0,0.0
1.460936174,0.010009625,-0.98942715,-0.14468513,-0.08345329,0.14336102,-0.9861457,0.99646145,0.021945396,-0.08113596,0.009241788,-0.98670447,-0.16226196,-0.077642575,0.16107091,-0.9838841,0.99693847,0.021691283,-0.07512169,9.968506,0.19502258,-0.78125,9.771949,0.21521083,-0.79567194,0.0020446777,0.01512146,-0.004928589,-24.35913,4.8599243,-34.91974,0,0.0,0.0,0.0,0.0
1.469236955,0.010037731,-0.9894241,-0.14470431,-0.083332166,0.14338052,-0.9861531,0.9964713,0.02195726,-0.08101163,0.009255088,-0.986762,-0.16191074,-0.077758774,0.1607172,-0.9839327,0.9969292,0.021696366,-0.07524195,10.003189,0.2033844,-0.8003998,9.772045,0.21532717,-0.7944527,0.0020446777,0.008560181,-0.0043182373,-24.35913,4.8599243,-34.91974,0,0.0,0.0,0.0,0.0
1.477537736,0.00986223,-0.9890781,-0.14706168,-0.083265334,0.14574577,-0.98581177,0.99647856,0.021967445,-0.08091854,0.009282311,-0.9868732,-0.16123013,-0.07797956,0.16003168,-0.98402697,0.9969117,0.021706698,-0.07547047,9.970886,0.21655273,-0.8159485,9.772117,0.21542704,-0.7935399,-0.0031585693,0.008560181,-0.0064697266,-24.058533,4.978943,-35.099792,0,0.0,0.0,0.0,0.0
1.485838517,0.009899631,-0.989074,-0.14708672,-0.08324558,0.14576815,-0.9858102,0.9964799,0.02200348,-0.080893,0.009302337,-0.98696446,-0.16066949,-0.07818892,0.15946656,-0.9841021,0.99689513,0.021717021,-0.07568627,10.000809,0.19023132,-0.7692871,9.77213,0.21578042,-0.79328936,0.004333496,-0.0025939941,-0.0056915283,-24.058533,4.978943,-35.099792,0,0.0,0.0,0.0,0.0
1.494139299,0.009061393,-0.9875301,-0.1571692,-0.08328786,0.15588413,-0.9842577,0.9964843,0.022009032,-0.08083674,0.009312898,-0.9870085,-0.16039813,-0.078290015,0.159193,-0.98413837,0.9968871,0.02172275,-0.07579036,10.000809,0.19023132,-0.7692871,9.772173,0.21583487,-0.79273766,0.004333496,-3.0517578E-4,-0.00630188,-24.058533,5.279541,-34.55963,0,0.0,0.0,0.0,0.0
1.50244008,0.008138239,-0.98573,-0.16813748,-0.08340462,0.16688803,-0.98244184,0.9964825,0.022018787,-0.080856256,0.00930229,-0.9870293,-0.16027027,-0.07848803,0.159062,-0.98414373,0.99687165,0.021734087,-0.07599034,9.980469,0.19023132,-0.80519104,9.772155,0.21593052,-0.79292893,-0.0025482178,-0.01373291,-0.0040130615,-23.939514,5.758667,-34.91974,0,0.0,0.0,0.0,0.0
1.510740861,0.008130727,-0.9857309,-0.16813247,-0.08347572,0.16688207,-0.9824368,0.9964766,0.022022903,-0.080927715,0.009257675,-0.98697907,-0.16058215,-0.07868302,0.1593721,-0.984078,0.99685675,0.021745363,-0.07618308,9.969696,0.18664551,-0.8386841,9.772098,0.2159709,-0.79362977,3.6621094E-4,-0.017868042,-0.0043182373,-23.939514,5.758667,-34.91974,0,0.0,0.0,0.0,0.0
1.519041642,0.008097908,-0.98573494,-0.16811062,-0.08364318,0.16685927,-0.9824266,0.9964629,0.022016907,-0.08109879,0.009235842,-0.9869547,-0.16073337,-0.07877905,0.15952246,-0.98404604,0.99684936,0.021750914,-0.076278016,9.978073,0.1878357,-0.825531,9.771963,0.2159121,-0.79530746,-0.0033111572,-0.018173218,-0.0064697266,-23.939514,5.758667,-34.91974,0,0.0,0.0,0.0,0.0
1.527342424,0.008231423,-0.9860463,-0.16626753,-0.08383513,0.1650073,-0.9827229,0.99644566,0.022028267,-0.08130708,0.009192157,-0.98690736,-0.16102579,-0.078971945,0.15981315,-0.9839833,0.99683446,0.021761449,-0.07646897,9.944565,0.19142151,-0.8614197,9.771794,0.21602352,-0.7973501,0.0063171387,-0.01586914,-0.0079956055,-23.699951,5.6396484,-34.61914,0,0.0,0.0,0.0,0.0
1.535643205,0.008209939,-0.98604894,-0.16625324,-0.08402605,0.16499056,-0.9827094,0.99642974,0.022037588,-0.081499234,0.009155099,-0.9868738,-0.1612336,-0.079164624,0.16001898,-0.9839344,0.9968195,0.021772016,-0.0766605,9.988831,0.19621277,-0.8638153,9.771638,0.21611492,-0.7992345,0.0037231445,-0.014038086,0.0030059814,-23.699951,5.6396484,-34.61914,0,0.0,0.0,0.0,0.0
1.543943986,0.008789448,-0.9872526,-0.15891814,-0.0841162,0.15763104,-0.9839089,0.99641716,0.022015607,-0.08165845,0.00913669,-0.98685753,-0.16133414,-0.07926187,0.16011849,-0.9839104,0.996812,0.02177733,-0.07675722,9.988831,0.19621277,-0.8638153,9.771515,0.21589936,-0.8007959,9.765625E-4,-0.0022888184,-0.0015716553,-24.058533,5.3390503,-34.498596,0,0.0,0.0,0.0,0.0
1.552244767,0.0084959455,-0.9867936,-0.16175993,-0.08420526,0.16048521,-0.98343986,0.9964122,0.021976288,-0.08172974,0.009122487,-0.98687327,-0.16123857,-0.079454005,0.16002011,-0.98391086,0.9967968,0.021786764,-0.07695125,10.009171,0.19262695,-0.8542328,9.771466,0.21551378,-0.80149496,0.0032653809,0.0036773682,-0.001876831,-23.878479,5.4595947,-34.55963,0,0.0,0.0,0.0,0.0
1.560545549,0.008485702,-0.98679477,-0.16175303,-0.08419705,0.16047934,-0.98344153,0.996413,0.02196432,-0.08172344,0.009097781,-0.9868701,-0.16125928,-0.07964209,0.16003855,-0.9838927,0.996782,0.021794269,-0.077140406,9.997208,0.1986084,-0.83270264,9.771474,0.21539642,-0.80143315,-0.0013122559,0.003829956,-0.004623413,-23.878479,5.4595947,-34.55963,0,0.0,0.0,0.0,0.0
1.56884633,0.008462618,-0.9867975,-0.16173752,-0.08423743,0.16046488,-0.9834404,0.9964098,0.021946833,-0.08176733,0.009085595,-0.9868686,-0.16126917,-0.079733156,0.16004737,-0.98388386,0.99677485,0.02179767,-0.077232026,9.998413,0.19023132,-0.8757782,9.771442,0.2152249,-0.80186355,-0.0013122559,0.0047454834,2.593994E-4,-23.878479,5.4595947,-34.55963,0,0.0,0.0,0.0,0.0
1.577147111,0.009143605,-0.9880456,-0.15389076,-0.08415426,0.1525909,-0.9847,0.9964108,0.021954268,-0.08175301,0.009060986,-0.9868658,-0.16128768,-0.0799117,0.16006382,-0.9838667,0.9967608,0.021803576,-0.07741179,9.980469,0.20458984,-0.8386841,9.771452,0.21529783,-0.8017232,0.0040283203,0.008255005,-0.006164551,-24.179077,5.1589966,-34.55963,0,0.0,0.0,0.0,0.0
1.585447892,0.009151592,-0.98804474,-0.15389621,-0.084127694,0.15259625,-0.98470145,0.99641293,0.021958515,-0.08172541,0.00906305,-0.9869136,-0.16099474,-0.08007965,0.15976791,-0.98390114,0.99674726,0.021809546,-0.07758371,9.98764,0.19502258,-0.8422699,9.771473,0.21533948,-0.8014525,0.0028076172,0.009017944,-0.004776001,-24.179077,5.1589966,-34.55963,0,0.0,0.0,0.0,0.0
1.593748674,0.009009377,-0.9877586,-0.15572987,-0.08413721,0.15443514,-0.9844139,0.99641347,0.021971636,-0.08171589,0.009064229,-0.98693675,-0.16085273,-0.08016068,0.15962449,-0.9839178,0.9967407,0.021812523,-0.07766665,9.976868,0.19621277,-0.86260986,9.771478,0.21546812,-0.80135906,0.0028076172,0.008407593,-0.008911133,-24.179077,5.218506,-34.498596,0,0.0,0.0,0.0,0.0
1.602049455,0.009233544,-0.9881287,-0.1533503,-0.084077716,0.15204658,-0.9847907,0.9964164,0.02198645,-0.081675686,0.009061251,-0.9869698,-0.16065,-0.08031814,0.15941916,-0.9839382,0.99672806,0.02181882,-0.077827044,9.98645,0.18664551,-0.8422699,9.771507,0.21561342,-0.8009649,-0.0068206787,0.012069702,-0.0052337646,-24.238586,5.0994873,-34.318542,0,0.0,0.0,0.0,0.0
1.610350236,0.0092604365,-0.9881256,-0.1533688,-0.084024146,0.15206403,-0.9847926,0.9964207,0.022006294,-0.081618235,0.009064139,-0.98699355,-0.1605041,-0.08039332,0.15927184,-0.983956,0.996722,0.021822173,-0.07790404,9.98645,0.18664551,-0.8422699,9.771549,0.21580802,-0.80040145,6.713867E-4,0.013900757,-0.0093688965,-24.238586,5.0994873,-34.318542,0,0.0,0.0,0.0,0.0
1.618651017,0.009292577,-0.9881219,-0.15339096,-0.08393613,0.15208542,-0.9847968,0.9964278,0.022026341,-0.081525855,0.00907092,-0.9870394,-0.16022167,-0.08053697,0.1589866,-0.9839904,0.9967103,0.021829465,-0.078051,9.997208,0.19502258,-0.82073975,9.771619,0.21600462,-0.7994955,-0.002090454,0.009628296,-0.0053863525,-24.238586,5.0994873,-34.318542,0,0.0,0.0,0.0,0.0
1.626951799,0.009426345,-0.9883823,-0.15169568,-0.08387048,0.1503864,-0.98506325,0.99643207,0.022008337,-0.08147851,0.009078797,-0.98708314,-0.15995125,-0.08067153,0.15871346,-0.9840234,0.99669933,0.021837262,-0.078188576,10.003189,0.17826843,-0.8410797,9.771661,0.21582806,-0.7990312,-0.0040740967,0.009475708,2.593994E-4,-24.35913,5.0994873,-34.739685,0,0.0,0.0,0.0,0.0
1.63525258,0.009388505,-0.9883866,-0.15166979,-0.08382362,0.15036471,-0.98507047,0.99643636,0.021961853,-0.08143845,0.00908522,-0.98710984,-0.15978615,-0.08073552,0.15854695,-0.984045,0.99669415,0.021840686,-0.078254394,10.003189,0.17826843,-0.8410797,9.771703,0.2153722,-0.7986384,0.0035705566,0.0076446533,0.0017852783,-24.35913,5.0994873,-34.739685,0,0.0,0.0,0.0,0.0
1.643553361,0.009857037,-0.9892608,-0.14582767,-0.083704345,0.14450662,-0.985957,0.9964419,0.021925027,-0.08138104,0.009096242,-0.98716164,-0.15946506,-0.08085777,0.15822332,-0.98408717,0.99668413,0.021845482,-0.07838045,9.948166,0.18664551,-0.8159485,9.771757,0.21501108,-0.7980754,0.0052490234,0.008102417,-0.004623413,-24.41864,4.8599243,-34.61914,0,0.0,0.0,0.0,0.0
1.651854142,0.009185268,-0.98810655,-0.15349609,-0.08375588,0.15220292,-0.98479396,0.9964439,0.021901796,-0.08136171,0.009124793,-0.98724836,-0.15892556,-0.0809708,0.1576808,-0.98416483,0.99667466,0.021848632,-0.07849949,9.998413,0.1878357,-0.8386841,9.771777,0.21478325,-0.79788584,-0.0027008057,0.0059661865,-4.5776367E-5,-24.539185,5.1589966,-34.67865,0,0.0,0.0,0.0,0.0
1.660154924,0.009160655,-0.9881094,-0.1534791,-0.08373161,0.15218852,-0.9847983,0.99644625,0.02187245,-0.08134185,0.009125691,-0.9872659,-0.15881707,-0.08102651,0.15757135,-0.9841778,0.9966702,0.021849694,-0.07855675,9.998413,0.1878357,-0.8386841,9.7718,0.21449547,-0.79769105,2.1362305E-4,0.0076446533,-0.0030975342,-24.539185,5.1589966,-34.67865,0,0.0,0.0,0.0,0.0
1.668455705,0.009153661,-0.98811024,-0.15347427,-0.083675936,0.1521855,-0.9848035,0.99645096,0.02185666,-0.081287995,0.009126496,-0.9872998,-0.15860577,-0.08113368,0.1573583,-0.9842031,0.9966614,0.021850593,-0.07866713,9.973282,0.19621277,-0.8183441,9.771846,0.21434063,-0.79716295,0.006164551,0.008102417,-0.004623413,-24.539185,5.1589966,-34.67865,0,0.0,0.0,0.0,0.0
1.676756486,0.009174702,-0.98814726,-0.15323418,-0.083604686,0.15194607,-0.9848465,0.99645674,0.021846771,-0.08121969,0.009127049,-0.9873324,-0.15840271,-0.081234366,0.15715362,-0.9842275,0.9966532,0.021850836,-0.07877097,9.979263,0.19142151,-0.8338928,9.771903,0.21424364,-0.79649305,0.003112793,0.009780884,-0.0038604736,-24.179077,5.218506,-35.099792,0,0.0,0.0,0.0,0.0
1.685057267,0.009174145,-0.9881473,-0.1532338,-0.08355154,0.15194689,-0.9848508,0.9964612,0.021838086,-0.08116726,0.009127755,-0.987349,-0.15829943,-0.08128174,0.15704958,-0.9842402,0.9966493,0.021850754,-0.078819916,9.979263,0.19142151,-0.8338928,9.771946,0.21415846,-0.79597884,0.0032653809,0.008865356,-0.005844116,-24.179077,5.218506,-35.099792,0,0.0,0.0,0.0,0.0
1.693358049,0.009120881,-0.98798746,-0.15426427,-0.08354478,0.15297839,-0.9846916,0.9964622,0.021869231,-0.08114591,0.00912913,-0.98738116,-0.1580989,-0.08137166,0.15684763,-0.9842649,0.996642,0.021850253,-0.07891295,9.9756775,0.2141571,-0.850647,9.771956,0.2144639,-0.7957696,-0.002090454,0.008102417,-0.001876831,-24.299622,5.218506,-34.858704,0,0.0,0.0,0.0,0.0
1.70165883,0.008257538,-0.9863086,-0.1647035,-0.08363393,0.1634508,-0.9830001,0.9964623,0.02189196,-0.081139155,0.009128464,-0.9874054,-0.15794712,-0.08145778,0.15669447,-0.98428226,0.996635,0.021851005,-0.079001464,9.9756775,0.2141571,-0.850647,9.771957,0.2146868,-0.7957033,-0.003616333,0.009475708,-0.0026397705,-24.179077,5.5786133,-34.61914,0,0.0,0.0,0.0,0.0
1.709959611,0.008275822,-0.98630637,-0.16471592,-0.08361252,0.16346218,-0.98300004,0.99646395,0.021907443,-0.08111477,0.009111329,-0.9873839,-0.15808241,-0.08150139,0.15682971,-0.98425704,0.9966316,0.021851825,-0.07904423,9.996017,0.21534729,-0.8410797,9.771974,0.21483864,-0.79546416,-0.0027008057,0.009475708,-0.0026397705,-24.179077,5.5786133,-34.61914,0,0.0,0.0,0.0,0.0
1.718260392,0.008300259,-0.98630327,-0.16473249,-0.08352906,0.16347855,-0.9830043,0.99647075,0.021919146,-0.08102809,0.009078756,-0.98734206,-0.15834531,-0.08158523,0.15709254,-0.98420817,0.996625,0.021854026,-0.07912632,9.990036,0.21534729,-0.80877686,9.77204,0.2149534,-0.79461414,-0.002090454,0.011306763,-0.0052337646,-24.179077,5.5786133,-34.61914,0,0.0,0.0,0.0,0.0
1.726561174,0.008065389,-0.98586184,-0.16736552,-0.08348655,0.16612275,-0.98256457,0.9964763,0.021897536,-0.08096637,0.009048401,-0.9873017,-0.15859844,-0.08166234,0.15734558,-0.9841614,0.996619,0.021856608,-0.079201646,10.004395,0.18544006,-0.83628845,9.772095,0.21474148,-0.79400885,0.0035705566,0.00932312,-0.0029449463,-24.058533,5.6396484,-34.379578,0,0.0,0.0,0.0,0.0
1.734861955,0.008060917,-0.9858625,-0.1673625,-0.08342612,0.16612141,-0.98257,0.99648136,0.021882815,-0.08090758,0.009029049,-0.9872737,-0.158774,-0.081698924,0.1575213,-0.98413026,0.9966162,0.021857426,-0.07923693,10.004395,0.18544006,-0.83628845,9.772144,0.21459712,-0.79343235,0.009521484,0.010848999,-0.0041656494,-24.058533,5.6396484,-34.379578,0,0.0,0.0,0.0,0.0
1.743162736,0.007324091,-0.9843457,-0.17609626,-0.08341729,0.17488576,-0.98104864,0.9964878,0.021874761,-0.080830574,0.008991277,-0.9872192,-0.15911429,-0.08176754,0.15786201,-0.98406994,0.99661094,0.02185843,-0.07930311,9.992432,0.19621277,-0.7884369,9.772207,0.21451813,-0.79267716,0.009979248,0.0029144287,-1.9836426E-4,-24.119568,5.9387207,-34.199524,0,0.0,0.0,0.0,0.0
1.751463517,0.007321932,-0.98434603,-0.17609479,-0.083376445,0.17488536,-0.9810523,0.9964912,0.021865353,-0.080790766,0.008958475,-0.9871647,-0.15945444,-0.08180084,0.15820292,-0.9840125,0.99660844,0.021858755,-0.07933363,9.992432,0.19621277,-0.7884369,9.772241,0.21442586,-0.79228675,6.713867E-4,-9.1552734E-4,-0.010437012,-24.119568,5.9387207,-34.199524,0,0.0,0.0,0.0,0.0
1.759764299,0.0077776522,-0.9852712,-0.17082217,-0.083322324,0.16959472,-0.9819853,0.99649227,0.021870838,-0.08077603,0.008894662,-0.9870584,-0.16011429,-0.081863746,0.15886436,-0.9839006,0.99660385,0.021859018,-0.07939125,9.985245,0.17945862,-0.7848511,9.772251,0.21447967,-0.7921423,-0.0027008057,-0.012054443,-0.008758545,-24.238586,5.758667,-34.318542,0,0.0,0.0,0.0,0.0
1.76806508,0.0078036385,-0.98526794,-0.17083998,-0.08340097,0.16960865,-0.9819763,0.99648553,0.021911206,-0.08084873,0.008850982,-0.9869898,-0.16053881,-0.08192194,0.1592897,-0.983827,0.99659944,0.021859488,-0.079446256,9.996017,0.19262695,-0.8291168,9.772185,0.21487553,-0.79285526,0.0028076172,-0.010528564,-0.008605957,-24.238586,5.758667,-34.318542,0,0.0,0.0,0.0,0.0
1.776365861,0.008044491,-0.9857624,-0.16795167,-0.08350924,0.16670811,-0.9824635,0.99647444,0.021928934,-0.08097918,0.008830338,-0.9869565,-0.16074497,-0.08195163,0.1594962,-0.9837911,0.99659723,0.021860521,-0.07947429,9.996017,0.19262695,-0.8291168,9.772077,0.21504939,-0.79413456,-0.0028533936,-0.014190674,-0.00340271,-24.179077,5.6396484,-34.259033,0,0.0,0.0,0.0,0.0
1.784666642,0.008024853,-0.9857649,-0.16793822,-0.0836342,0.16669354,-0.9824553,0.99646413,0.021929435,-0.081105955,0.008799648,-0.9869102,-0.16103046,-0.08201349,0.15978184,-0.9837395,0.9965924,0.021863231,-0.07953393,9.972092,0.18902588,-0.81715393,9.7719755,0.2150543,-0.79537773,-0.0011749268,-0.01739502,-0.008605957,-24.179077,5.6396484,-34.259033,0,0.0,0.0,0.0,0.0
1.792967424,0.008528357,-0.98682696,-0.16155383,-0.08374327,0.16028732,-0.98351145,0.99645084,0.021916788,-0.08127314,0.00876941,-0.9868658,-0.1613042,-0.08207768,0.16005571,-0.9836897,0.9965874,0.021865852,-0.07959606,9.979263,0.17347717,-0.8267212,9.771845,0.21493027,-0.7970172,-0.006515503,-0.029159546,-0.0038604736,-24.058533,5.4595947,-34.61914,0,0.0,0.0,0.0,0.0
1.801268205,0.008485921,-0.98683214,-0.16152516,-0.08394515,0.16025777,-0.9834992,0.9964342,0.021905148,-0.081479825,0.008764608,-0.986865,-0.16130915,-0.08211095,0.1600603,-0.9836862,0.99658465,0.021866871,-0.079629555,9.979263,0.17347717,-0.8267212,9.771682,0.21481612,-0.79904413,0.0028076172,-0.023666382,-0.0053863525,-24.058533,5.4595947,-34.61914,0,0.0,0.0,0.0,0.0
1.809568986,0.0085139675,-0.9869167,-0.16100608,-0.08413693,0.15973392,-0.98356795,0.99641776,0.021920623,-0.08167617,0.008753609,-0.98686373,-0.16131765,-0.08218349,0.16006806,-0.9836789,0.9965788,0.021868387,-0.079702735,9.988831,0.20219421,-0.825531,9.771521,0.21496789,-0.80096966,-8.69751E-4,-0.013885498,-0.004623413,-24.35913,5.3985596,-34.379578,0,0.0,0.0,0.0,0.0
1.817869767,0.008463015,-0.98692286,-0.16097096,-0.084309354,0.15969932,-0.9835589,0.9964037,0.021895232,-0.08185529,0.008744117,-0.9868658,-0.16130526,-0.08226075,0.16005476,-0.9836745,0.9965725,0.021870457,-0.07978079,9.968506,0.17468262,-0.85543823,9.771382,0.21471888,-0.8027262,0.0067749023,-0.005340576,-0.003250122,-24.35913,5.3985596,-34.379578,0,0.0,0.0,0.0,0.0
1.826170549,0.0080920635,-0.98631495,-0.16467312,-0.08445434,0.16341604,-0.9829357,0.9963945,0.02186134,-0.08197621,0.008738494,-0.986867,-0.1612985,-0.08230169,0.16004758,-0.9836723,0.99656916,0.021870952,-0.07982225,9.968506,0.17468262,-0.85543823,9.771292,0.21438651,-0.803912,0.0049438477,-0.0038146973,-0.00340271,-24.539185,5.5786133,-34.61914,0,0.0,0.0,0.0,0.0
1.83447133,0.0080854455,-0.98631585,-0.16466859,-0.08455269,0.1634099,-0.98292834,0.9963862,0.021870583,-0.08207441,0.008713156,-0.9868454,-0.16143219,-0.08238712,0.16018099,-0.9836434,0.9965623,0.021870572,-0.07990766,9.974487,0.19979858,-0.8805542,9.771211,0.21447717,-0.8048751,-9.1552734E-5,0.0061187744,-0.0053863525,-24.539185,5.5786133,-34.61914,0,0.0,0.0,0.0,0.0
1.842772111,0.008434206,-0.9869917,-0.16054986,-0.0845152,0.1592775,-0.9836096,0.99638647,0.021864869,-0.08207242,0.008688577,-0.9868246,-0.1615604,-0.082472906,0.16030885,-0.9836154,0.99655545,0.021870572,-0.079993434,10.000809,0.18185425,-0.85783386,9.771214,0.21442112,-0.8048555,0.0021972656,0.013900757,-0.007827759,-24.659729,5.4595947,-34.858704,0,0.0,0.0,0.0,0.0
1.851072892,0.00843953,-0.986991,-0.16055351,-0.08446,0.15928191,-0.98361355,0.9963911,0.021861587,-0.082017004,0.008683455,-0.98682797,-0.16154012,-0.08251375,0.16028816,-0.98361546,0.9965521,0.021870458,-0.080035016,10.000809,0.18185425,-0.85783386,9.771259,0.21438894,-0.80431205,-0.0052948,0.014663696,-0.004470825,-24.659729,5.4595947,-34.858704,0,0.0,0.0,0.0,0.0
1.859373674,0.008076836,-0.98625344,-0.16504219,-0.08441758,0.16378589,-0.9828774,0.99639773,0.021871002,-0.08193426,0.008673713,-0.9868344,-0.16150102,-0.08259084,0.16024828,-0.9836154,0.9965458,0.021870105,-0.08011354,9.974487,0.19023132,-0.86021423,9.771324,0.21448126,-0.8035006,-0.0027008057,0.021087646,-0.004470825,-24.899292,5.6396484,-34.91974,0,0.0,0.0,0.0,0.0
1.867674455,0.0080990745,-0.9862507,-0.1650576,-0.084258884,0.1638029,-0.9828881,0.99641097,0.021868054,-0.08177373,0.0086503085,-0.98681164,-0.1616413,-0.08266337,0.16038838,-0.98358643,0.99653995,0.021870142,-0.08018577,9.980469,0.18304443,-0.83151245,9.771454,0.21445236,-0.8019264,-9.1552734E-5,0.026733398,-0.0043182373,-24.899292,5.6396484,-34.91974,0,0.0,0.0,0.0,0.0
1.875975236,0.0066439155,-0.98321724,-0.1823175,-0.08420161,0.18112397,-0.9798491,0.99642664,0.021861464,-0.08158511,0.008639378,-0.98680055,-0.16170968,-0.08269539,0.16045673,-0.9835726,0.9965374,0.0218701,-0.08021761,9.980469,0.18304443,-0.83151245,9.771607,0.21438773,-0.80007666,-5.645752E-4,0.027191162,-0.004776001,-24.41864,6.298828,-34.858704,0,0.0,0.0,0.0,0.0
1.884276017,0.006689459,-0.9832113,-0.18234834,-0.08398325,0.18115577,-0.9798619,0.9964447,0.02186895,-0.081361435,0.008561492,-0.9866669,-0.16252732,-0.08275594,0.16127661,-0.9834334,0.99653304,0.021869758,-0.08027177,10.003189,0.19381714,-0.8027954,9.771785,0.21446113,-0.79788315,0.0012817383,0.017410278,-0.0050811768,-24.41864,6.298828,-34.858704,0,0.0,0.0,0.0,0.0
1.892576799,0.0055884114,-0.9806726,-0.19557586,-0.08388399,0.19442986,-0.9773231,0.9964599,0.021867372,-0.08117619,0.008452705,-0.98647475,-0.16369493,-0.08282922,0.16244751,-0.9832345,0.9965279,0.021869713,-0.08033581,10.010376,0.1878357,-0.7956085,9.771934,0.21444567,-0.7960665,0.006164551,-0.009918213,-0.004928589,-24.119568,6.6589355,-34.07898,0,0.0,0.0,0.0,0.0
1.90087758,0.0055924323,-0.980672,-0.19557859,-0.08379471,0.19443421,-0.97732985,0.99646735,0.021854106,-0.08108778,0.008396033,-0.98636895,-0.16433442,-0.08285121,0.16308896,-0.98312646,0.99652654,0.021869667,-0.08035256,9.997208,0.19502258,-0.7848511,9.772007,0.21431558,-0.7951995,0.004638672,-0.016784668,-0.0067749023,-24.119568,6.6589355,-34.07898,0,0.0,0.0,0.0,0.0
1.909178361,0.0058297166,-0.98121977,-0.19280514,-0.083804704,0.19165073,-0.97787875,0.99646515,0.021858733,-0.08111356,0.008286031,-0.9861624,-0.16557513,-0.082890354,0.16433358,-0.98291594,0.9965243,0.02186905,-0.08038167,9.976868,0.19023132,-0.8063812,9.771985,0.21436095,-0.7954523,-5.645752E-4,-0.019699097,-0.009979248,-24.238586,6.5994263,-34.318542,0,0.0,0.0,0.0,0.0
1.917479142,0.0058500106,-0.9812169,-0.19281892,-0.083945975,0.19165972,-0.97786486,0.99645317,0.021906894,-0.081248,0.0082373535,-0.986071,-0.16612113,-0.08290931,0.16488127,-0.9828226,0.9965231,0.021868844,-0.08039628,9.990036,0.20698547,-0.80519104,9.771867,0.21483323,-0.79677063,-5.645752E-4,-0.024276733,-0.008132935,-24.238586,6.5994263,-34.318542,0,0.0,0.0,0.0,0.0
1.925779924,0.006302411,-0.98218876,-0.18779118,-0.08409354,0.18660912,-0.9788285,0.9964379,0.021961005,-0.08141964,0.00819011,-0.985981,-0.1666565,-0.08293067,0.16541821,-0.98273057,0.99652165,0.021869605,-0.08041327,9.990036,0.20698547,-0.80519104,9.771718,0.2153639,-0.7984539,-0.0043792725,-0.028244019,-0.0064697266,-24.299622,6.3598633,-34.07898,0,0.0,0.0,0.0,0.0
1.934080705,0.006267822,-0.9821935,-0.18776742,-0.08429726,0.18658376,-0.9788158,0.99642086,0.021963323,-0.08162675,0.008116269,-0.98583955,-0.1674949,-0.08297746,0.16625877,-0.9825848,0.9965184,0.021873223,-0.08045305,9.976868,0.17826843,-0.79800415,9.771551,0.21538663,-0.800485,-0.0017852783,-0.036331177,-0.0069122314,-24.299622,6.3598633,-34.07898,0,0.0,0.0,0.0,0.0
1.942381486,0.007243283,-0.98435175,-0.17606553,-0.08454919,0.1748368,-0.9809604,0.99639297,0.021991573,-0.08195976,0.008044043,-0.9857031,-0.16829915,-0.08303057,0.16706501,-0.9824435,0.99651456,0.021876791,-0.08049962,9.969696,0.20100403,-0.8614197,9.771277,0.21566367,-0.8037507,-0.0052948,-0.030227661,-0.0038604736,-24.238586,5.9387207,-34.199524,0,0.0,0.0,0.0,0.0
1.950682267,0.0072085434,-0.98435634,-0.17604169,-0.08487292,0.17480874,-0.98093754,0.99636567,0.022012303,-0.08228507,0.008028254,-0.98567677,-0.16845463,-0.08306103,0.16722058,-0.9824145,0.9965121,0.021879088,-0.08052883,9.969696,0.20100403,-0.8614197,9.771009,0.21586695,-0.8069409,0.0037231445,-0.030685425,-0.0064697266,-24.238586,5.9387207,-34.199524,0,0.0,0.0,0.0,0.0
1.958983049,0.0073089316,-0.9846771,-0.17423472,-0.085211255,0.17299232,-0.98123026,0.9963361,0.0220185,-0.08264117,0.00799631,-0.98562557,-0.1687553,-0.08313298,0.16752124,-0.98235714,0.9965064,0.021884363,-0.080598444,9.970886,0.18902588,-0.9308014,9.77072,0.21592772,-0.81043303,-7.019043E-4,-0.007019043,-0.011199951,-24.058533,5.819702,-33.898926,0,0.0,0.0,0.0,0.0
1.96728383,0.007330443,-0.9846742,-0.17424949,-0.085399054,0.1730011,-0.98121226,0.99631983,0.022073464,-0.08282208,0.007969519,-0.98558855,-0.16897254,-0.08321537,0.16773811,-0.9823132,0.9964997,0.021889675,-0.08067933,9.985245,0.20219421,-0.8913269,9.77056,0.21646674,-0.81220716,0.008300781,0.016799927,-0.008605957,-24.058533,5.819702,-33.898926,0,0.0,0.0,0.0,0.0
1.975584611,0.0075368956,-0.9849908,-0.17244263,-0.085424274,0.17118293,-0.981529,0.99631613,0.022128468,-0.08285193,0.007956968,-0.98557055,-0.1690781,-0.083259106,0.16784337,-0.98229146,0.9964962,0.021893352,-0.080722205,9.985245,0.20219421,-0.8913269,9.770524,0.21700615,-0.8124999,0.0028076172,0.02368164,-0.0024871826,-23.939514,5.6991577,-33.599854,0,0.0,0.0,0.0,0.0
1.983885392,0.007576009,-0.98498565,-0.17246965,-0.08535236,0.1712082,-0.9815307,0.99632204,0.022156777,-0.08277378,0.007940649,-0.9855478,-0.16921124,-0.08334475,0.1679755,-0.9822616,0.9964891,0.021902664,-0.080806404,9.990036,0.21176147,-0.9020996,9.770582,0.21728379,-0.8117336,0.002960205,0.037872314,-0.0023345947,-23.939514,5.6991577,-33.599854,0,0.0,0.0,0.0,0.0
1.992186174,0.008707918,-0.9871071,-0.15982364,-0.08496437,0.15852132,-0.98369294,0.99634594,0.022145238,-0.08248856,0.007926453,-0.9855257,-0.1693404,-0.083424285,0.16810365,-0.9822329,0.9964826,0.021912726,-0.08088432,9.98645,0.20100403,-0.8147583,9.770816,0.2171706,-0.8089365,0.012268066,0.044296265,-6.5612793E-4,-23.699951,5.279541,-33.898926,0,0.0,0.0,0.0,0.0
2.000486955,0.008736179,-0.9871038,-0.15984288,-0.084618084,0.15854587,-0.983719,0.9963752,0.022119544,-0.08214175,0.007941787,-0.9855583,-0.16915017,-0.083455145,0.16791214,-0.9822631,0.99647987,0.021917377,-0.08091639,9.98645,0.20100403,-0.8147583,9.771103,0.21691863,-0.80553544,0.004486084,0.04460144,0.0010223389,-23.699951,5.279541,-33.898926,0,0.0,0.0,0.0,0.0
2.008787736,0.010424108,-0.9900483,-0.14034168,-0.08408916,0.13898423,-0.986718,0.9964037,0.022086868,-0.08180354,0.0079727825,-0.98562115,-0.16878188,-0.083501495,0.16754153,-0.9823224,0.99647576,0.021925382,-0.08096507,9.974487,0.1986084,-0.83270264,9.771382,0.2165982,-0.8022187,0.011352539,0.042312622,5.645752E-4,-24.179077,4.559326,-33.95996,0,0.0,0.0,0.0,0.0
2.017088517,0.010461609,-0.9900442,-0.14036785,-0.08374208,0.13901496,-0.9867432,0.99643254,0.022077616,-0.08145404,0.008069036,-0.9858122,-0.167658,-0.08352629,0.16641308,-0.98251206,0.9964729,0.021931777,-0.08099845,9.982849,0.21655273,-0.8183441,9.771666,0.21650746,-0.7987913,0.0015869141,0.034057617,-0.0040130615,-24.179077,4.559326,-33.95996,0,0.0,0.0,0.0,0.0
2.025389299,0.0118195545,-0.99210775,-0.124829195,-0.08325743,0.12342799,-0.98885465,0.99645793,0.022080781,-0.081141494,0.008116687,-0.9859042,-0.16711344,-0.083531305,0.16586636,-0.98260415,0.99647206,0.021934694,-0.081007585,9.982849,0.21655273,-0.8183441,9.7719145,0.2165385,-0.79572624,-0.0019226074,0.034057617,-0.0043182373,-24.539185,4.0786743,-34.739685,0,0.0,0.0,0.0,0.0
2.03369008,0.0118612405,-0.99210376,-0.12485816,-0.08296143,0.12346005,-0.9888756,0.99648213,0.0220877,-0.08084195,0.008263414,-0.9861845,-0.16544428,-0.08352349,0.16419108,-0.9828861,0.9964715,0.02194048,-0.0810128,9.9756775,0.2033844,-0.80519104,9.772152,0.21660636,-0.79278874,0.0023498535,0.03543091,-0.0055389404,-24.539185,4.0786743,-34.739685,0,0.0,0.0,0.0,0.0
2.041990861,0.01233548,-0.9927519,-0.11954708,-0.08257726,0.11813638,-0.98955786,0.9965083,0.022078538,-0.08052146,0.008406419,-0.9864508,-0.16384207,-0.08350418,0.16258305,-0.983155,0.99647194,0.021946311,-0.08100602,9.994827,0.18664551,-0.7776642,9.7724085,0.21651651,-0.78964573,-0.0013122559,0.026428223,-5.0354004E-4,-24.659729,3.8986206,-34.91974,1,0.0,0.0,0.0,0.0
2.050291642,0.012349231,-0.9927505,-0.119556636,-0.08230248,0.1181509,-0.989579,0.9965309,0.022060348,-0.08024677,0.008485589,-0.9865963,-0.16295914,-0.08348752,0.16169703,-0.98330253,0.99647266,0.021948958,-0.08099639,9.994827,0.18664551,-0.7776642,9.77263,0.21633811,-0.78695196,6.713867E-4,0.01878357,-0.0055389404,-24.659729,3.8986206,-34.91974,1,0.0,0.0,0.0,0.0
2.058592424,0.012080822,-0.9923329,-0.123002194,-0.08218099,0.12160967,-0.9891701,0.9965442,0.02205843,-0.08008175,0.00856367,-0.98673815,-0.16209392,-0.08346561,0.16082886,-0.9834467,0.9964738,0.021951184,-0.08098142,9.996017,0.19621277,-0.8147583,9.77276,0.21631931,-0.78533375,-0.0014801025,0.017868042,-0.005996704,-24.778748,4.019165,-34.858704,1,0.0,0.0,0.0,0.0
2.066893205,0.012096704,-0.9923313,-0.12301332,-0.082008146,0.12162331,-0.9891827,0.9965582,0.022053942,-0.079908006,0.008704534,-0.98698926,-0.16055058,-0.083417684,0.15928032,-0.9837029,0.99647665,0.021955432,-0.0809459,9.973282,0.18304443,-0.7692871,9.772898,0.21627529,-0.78362983,-0.0074310303,0.008560181,-0.008758545,-24.778748,4.019165,-34.858704,1,0.0,0.0,0.0,0.0
2.075193986,0.011071017,-0.9907229,-0.13544619,-0.08205323,0.13409758,-0.9875653,0.9965665,0.022047147,-0.07980741,0.008840576,-0.987228,-0.15906835,-0.08336462,0.15779316,-0.983947,0.99647987,0.02195933,-0.08090491,9.973282,0.18304443,-0.7692871,9.772979,0.21620867,-0.7826433,0.0054016113,-0.0062561035,-0.001876831,-24.539185,4.499817,-34.91974,1,0.0,0.0,0.0,0.0
2.083494767,0.011049399,-0.9907251,-0.13543127,-0.08208095,0.13408384,-0.98756486,0.99656445,0.022028327,-0.07983812,0.0088857245,-0.98730344,-0.15859684,-0.08333907,0.15732014,-0.9840249,0.99648166,0.021961087,-0.08088305,10.001999,0.18544006,-0.79441833,9.772959,0.2160241,-0.7829445,6.713867E-4,-0.014953613,-0.003250122,-24.539185,4.499817,-34.91974,1,0.0,0.0,0.0,0.0
2.091795549,0.011017838,-0.9907285,-0.13540955,-0.08217429,0.13406262,-0.98756,0.99655706,0.022007955,-0.07993533,0.008972422,-0.98744935,-0.15768108,-0.08329035,0.15640147,-0.98417544,0.99648494,0.02196375,-0.080841705,9.976868,0.19023132,-0.79800415,9.772886,0.21582432,-0.7838978,0.003112793,-0.01083374,-0.001876831,-24.539185,4.499817,-34.91974,1,0.0,0.0,0.0,0.0
2.10009633,0.01170771,-0.9918971,-0.12650329,-0.082175426,0.1251296,-0.9887314,0.99654907,0.02197124,-0.08004459,0.009054292,-0.98758876,-0.15680064,-0.08324701,0.1555183,-0.9843191,0.9964878,0.021965498,-0.08080571,9.969696,0.18066406,-0.8039856,9.772808,0.21546428,-0.7849693,0.0032653809,-0.010070801,-0.0029449463,-24.778748,4.1992188,-35.21881,1,0.0,0.0,0.0,0.0
2.108397111,0.01137053,-0.99145496,-0.12995332,-0.082300045,0.12859286,-0.98827666,0.99654275,0.021932393,-0.08013461,0.009107905,-0.9876841,-0.15619607,-0.08322643,0.15491185,-0.9844165,0.99648905,0.021965612,-0.0807905,9.991226,0.20219421,-0.80996704,9.772746,0.2150833,-0.7858521,0.0052490234,-0.00793457,-0.0023345947,-24.778748,4.3792725,-35.57892,1,0.0,0.0,0.0,0.0
2.116697892,0.011352708,-0.99145675,-0.12994114,-0.082380496,0.12858038,-0.98827153,0.9965363,0.021924172,-0.08021696,0.009198282,-0.98784673,-0.15515897,-0.083191015,0.15387166,-0.98458254,0.9964912,0.021964297,-0.080764614,9.997208,0.19502258,-0.8195343,9.772683,0.21500269,-0.78665966,0.004486084,-0.008850098,-0.0017242432,-24.778748,4.3792725,-35.57892,1,0.0,0.0,0.0,0.0
2.124998674,0.010715305,-0.99048036,-0.13723613,-0.082583636,0.13589856,-0.9872747,0.9965265,0.021912409,-0.08034128,0.009284233,-0.98800194,-0.1541623,-0.08316005,0.15287203,-0.98474085,0.9964929,0.021962708,-0.080742985,9.997208,0.19502258,-0.8195343,9.772587,0.21488734,-0.7878788,-0.0052948,-0.029922485,-0.004928589,-24.899292,4.6188354,-35.279846,1,0.0,0.0,0.0,0.0
2.133299455,0.010687429,-0.9904834,-0.13721685,-0.082800224,0.13587682,-0.98725957,0.9965088,0.021912852,-0.080560066,0.009313016,-0.98805434,-0.15382428,-0.083148725,0.15253305,-0.9847943,0.99649364,0.0219617,-0.080734916,9.993622,0.20817566,-0.7776642,9.772413,0.21489167,-0.7900244,0.0037231445,-0.036331177,-0.0038604736,-24.899292,4.6188354,-35.279846,1,0.0,0.0,0.0,0.0
2.141600236,0.010655904,-0.99048674,-0.13719504,-0.083057895,0.13585195,-0.9872414,0.9964877,0.02191508,-0.08082012,0.009367626,-0.98815584,-0.15316744,-0.08313528,0.15187423,-0.9848974,0.99649423,0.021959765,-0.080727905,10.004395,0.19740295,-0.7908325,9.772206,0.21491353,-0.79257464,0.007843018,-0.039245605,-0.004776001,-24.899292,4.6188354,-35.279846,1,0.0,0.0,0.0,0.0
2.149901017,0.010032512,-0.98955667,-0.14379454,-0.08346735,0.1424712,-0.9862733,0.99645996,0.02189695,-0.081166334,0.009418642,-0.9882531,-0.15253577,-0.08313251,0.15124059,-0.9849951,0.996494,0.021957995,-0.080731474,9.992432,0.18664551,-0.8291168,9.7719345,0.21473573,-0.79596984,0.0020446777,-0.03970337,-0.0050811768,-24.719238,4.9194336,-35.57892,1,0.0,0.0,0.0,0.0
2.158201799,0.009479141,-0.98874784,-0.14929135,-0.08389839,0.14798523,-0.9854245,0.99642926,0.02186628,-0.08155157,0.009430859,-0.9882799,-0.15236104,-0.08313923,0.15106529,-0.9850214,0.9964933,0.021956775,-0.080740154,9.980469,0.1758728,-0.86260986,9.771633,0.21443497,-0.7997477,6.1035156E-5,-0.030838013,-0.0027923584,-24.659729,5.0994873,-35.339355,1,0.0,0.0,0.0,0.0
2.16650258,0.009455087,-0.98875046,-0.14927495,-0.0842486,0.14796315,-0.9853978,0.9963999,0.021893231,-0.081901856,0.009432675,-0.9882986,-0.1522396,-0.08316922,0.15094347,-0.9850375,0.9964908,0.021953192,-0.08077223,9.970886,0.21057129,-0.8877411,9.771345,0.21469927,-0.80318284,8.239746E-4,-0.020462036,-0.0069122314,-24.659729,5.0994873,-35.339355,1,0.0,0.0,0.0,0.0
2.174803361,0.00865305,-0.9873219,-0.15849434,-0.08458246,0.15720958,-0.98393637,0.9963789,0.021919897,-0.08214979,0.009433451,-0.98831666,-0.1521222,-0.0832119,0.15082544,-0.985052,0.99648726,0.021950817,-0.0808169,9.990036,0.20817566,-0.879364,9.771139,0.21496075,-0.80561423,-0.0052948,-0.0061035156,-8.087158E-4,-24.719238,5.3985596,-34.979248,1,0.0,0.0,0.0,0.0
2.183104142,0.008613037,-0.9873268,-0.15846682,-0.08472848,0.15718222,-0.98392826,0.9963668,0.021901263,-0.08230087,0.009418022,-0.98829716,-0.15224968,-0.08323932,0.15095316,-0.9850301,0.99648505,0.021950198,-0.08084351,9.968506,0.18424988,-0.87338257,9.771021,0.21477802,-0.8070959,0.0018920898,0.002456665,-0.0040130615,-24.719238,5.3985596,-34.979248,1,0.0,0.0,0.0,0.0
2.191404924,0.008576033,-0.9873311,-0.15844133,-0.08478146,0.1571587,-0.98392737,0.9963626,0.021871084,-0.08235958,0.00938652,-0.9882595,-0.15249597,-0.08329833,0.15119986,-0.9849873,0.99648046,0.021948263,-0.08090113,9.968506,0.18424988,-0.87338257,9.77098,0.21448207,-0.8076716,8.239746E-4,0.0129852295,-0.0014190674,-24.719238,5.3985596,-34.979248,1,0.0,0.0,0.0,0.0
2.199705705,0.0091199605,-0.9883065,-0.15220763,-0.08465886,0.15090433,-0.9849166,0.9963682,0.021868123,-0.08229265,0.009370494,-0.9882413,-0.15261492,-0.083328,0.15131907,-0.98496646,0.9964781,0.021946719,-0.08093023,9.988831,0.1986084,-0.81715393,9.771034,0.21445301,-0.80701524,-0.0027008057,0.0048980713,-0.0052337646,-24.719238,5.1589966,-34.979248,1,0.0,0.0,0.0,0.0
2.208006486,0.009053844,-0.98822117,-0.15276411,-0.0846392,0.15146479,-0.98483217,0.9963705,0.02184635,-0.08227091,0.009360561,-0.98824394,-0.15259875,-0.08338068,0.15130259,-0.9849646,0.9964738,0.021943606,-0.08098417,9.979263,0.18664551,-0.8279114,9.771057,0.21423952,-0.8068021,0.002960205,-0.0018310547,-0.0023345947,-24.479675,5.0994873,-34.439087,1,0.0,0.0,0.0,0.0
2.216307267,0.0090077035,-0.9882266,-0.1527321,-0.08465293,0.15143639,-0.98483545,0.9963697,0.021800326,-0.08229218,0.009348446,-0.98824304,-0.15260525,-0.08343041,0.15130897,-0.98495936,0.99646974,0.021939758,-0.08103502,10.010376,0.20817566,-0.850647,9.7710495,0.21378817,-0.8070106,0.004486084,-0.0033569336,0.0030059814,-24.479675,5.0994873,-34.439087,1,0.0,0.0,0.0,0.0
2.224608049,0.008998475,-0.9882276,-0.1527257,-0.084665306,0.15143049,-0.98483527,0.9963688,0.021792589,-0.08230596,0.009341635,-0.98824275,-0.15260774,-0.08345491,0.15131146,-0.9849569,0.99646777,0.02193697,-0.0810602,9.978073,0.20936584,-0.82192993,9.77104,0.21371228,-0.8071457,0.004486084,3.0517578E-4,-0.0069122314,-24.479675,5.0994873,-34.439087,1,0.0,0.0,0.0,0.0
2.23290883,0.008873363,-0.9880354,-0.15397209,-0.08472333,0.15268163,-0.9846372,0.996365,0.021782069,-0.08235484,0.009328062,-0.9882421,-0.15261233,-0.083502814,0.15131608,-0.98495215,0.9964639,0.021931252,-0.08110951,9.993622,0.19023132,-0.8542328,9.771004,0.21360914,-0.8076252,0.0026550293,-0.0010681152,-0.0023345947,-24.179077,5.1589966,-34.498596,1,0.0,0.0,0.0,0.0
2.241209611,0.008868371,-0.988036,-0.15396868,-0.08471379,0.15267886,-0.9846384,0.99636585,0.021775408,-0.082346246,0.009310136,-0.9882339,-0.1526662,-0.083551034,0.15137017,-0.98493975,0.99646,0.021925341,-0.0811587,9.980469,0.19621277,-0.82432556,9.771011,0.2135438,-0.80754083,0.0032653809,0.0048980713,-0.0017242432,-24.179077,5.1589966,-34.498596,1,0.0,0.0,0.0,0.0
2.249510392,0.009716978,-0.9895316,-0.14398888,-0.084591806,0.14266606,-0.9861494,0.9963683,0.021762673,-0.08231999,0.009301328,-0.98823,-0.15269224,-0.08357432,0.15139633,-0.98493373,0.9964581,0.021922342,-0.081182465,9.980469,0.19621277,-0.82432556,9.771035,0.21341892,-0.80728334,0.0032653809,0.0021514893,-0.0035552979,-24.299622,4.798889,-34.61914,1,0.0,0.0,0.0,0.0
2.257811174,0.0097132,-0.9895369,-0.14395314,-0.084569864,0.14263123,-0.98615634,0.9963702,0.021752829,-0.08229958,0.009317425,-0.988283,-0.15234765,-0.08361473,0.15105069,-0.9849833,0.99645454,0.021916019,-0.081227615,9.980469,0.19142151,-0.80996704,9.771054,0.21332239,-0.80708325,-0.0010070801,-0.004119873,-0.007522583,-24.179077,4.798889,-34.61914,1,0.0,0.0,0.0,0.0
2.266111955,0.009712714,-0.9895369,-0.14395279,-0.08460056,0.14263025,-0.9861538,0.9963676,0.02175672,-0.08233005,0.009332786,-0.98833406,-0.15201534,-0.08365253,0.15071742,-0.9850312,0.99645126,0.021909555,-0.08127003,9.998413,0.19502258,-0.82432556,9.7710285,0.21336053,-0.807382,-0.0030059814,-0.01083374,-0.0079956055,-24.179077,4.798889,-34.61914,1,0.0,0.0,0.0,0.0
2.274412736,0.0097326245,-0.98953474,-0.1439664,-0.08468649,0.14264031,-0.986145,0.9963601,0.021789787,-0.08241195,0.009340232,-0.9883588,-0.1518542,-0.08367144,0.15055579,-0.9850544,0.9964496,0.021906497,-0.08129118,9.963715,0.21894836,-0.8458557,9.770955,0.21368483,-0.80818516,-0.0033111572,-0.012054443,-0.011352539,-24.179077,4.798889,-34.61914,1,0.0,0.0,0.0,0.0
2.282713517,0.010214412,-0.9903052,-0.13853304,-0.08474976,0.13718443,-0.9869134,0.9963499,0.021821378,-0.082526855,0.009355443,-0.9884066,-0.15154201,-0.083711706,0.15024251,-0.98509884,0.99644613,0.021901874,-0.08133562,9.984055,0.19740295,-0.84706116,9.770855,0.21399462,-0.809312,-0.0023956299,-0.008850098,-0.002029419,-24.238586,4.559326,-34.379578,1,0.0,0.0,0.0,0.0
2.291014299,0.010198773,-0.9903068,-0.13852222,-0.08488886,0.13717188,-0.9869031,0.99633825,0.021824196,-0.08266704,0.009388929,-0.98848504,-0.15102722,-0.08375284,0.14972582,-0.98517394,0.9964423,0.021898687,-0.08138266,9.973282,0.20578003,-0.8685913,9.7707405,0.21402225,-0.8106867,-7.019043E-4,-0.01083374,-0.0021820068,-24.238586,4.559326,-34.379578,1,0.0,0.0,0.0,0.0
2.29931508,0.009691781,-0.9895107,-0.14413394,-0.0850901,0.1428018,-0.9860869,0.99632615,0.021821313,-0.08281357,0.009404835,-0.988523,-0.1507773,-0.0837756,0.14947493,-0.98521006,0.99644023,0.021897197,-0.081408314,9.973282,0.20578003,-0.8685913,9.770622,0.21399398,-0.8121237,0.002960205,-0.012207031,-0.004623413,-23.81897,4.73938,-34.13849,1,0.0,0.0,0.0,0.0
2.307615861,0.010859275,-0.9914058,-0.13037086,-0.08505243,0.12899028,-0.9879917,0.9963173,0.021817235,-0.08292074,0.009415848,-0.98856294,-0.15051426,-0.08382772,0.14921075,-0.98524565,0.9964357,0.021894192,-0.08146403,9.964905,0.1986084,-0.87338257,9.770535,0.21395399,-0.81317466,0.0067749023,0.0044403076,-8.087158E-4,-24.119568,4.319763,-34.858704,1,0.0,0.0,0.0,0.0
2.315916642,0.010841442,-0.9914076,-0.13035876,-0.08505016,0.12897974,-0.98799324,0.9963177,0.021798305,-0.08292105,0.009471952,-0.98868346,-0.14971761,-0.083876826,0.14841112,-0.98536223,0.9964311,0.021891143,-0.08152189,9.964905,0.1878357,-0.8530426,9.770539,0.21376835,-0.8131777,0.0040283203,0.009475708,-0.0056915283,-24.119568,4.319763,-34.858704,1,0.0,0.0,0.0,0.0
2.324217424,0.010850836,-0.99140674,-0.13036513,-0.0849517,0.12898748,-0.9880008,0.99632597,0.021795372,-0.082822055,0.009498847,-0.98874164,-0.14933091,-0.083900556,0.148023,-0.9854187,0.99642885,0.021889286,-0.08154993,9.98645,0.19142151,-0.81715393,9.77062,0.21373959,-0.8122069,0.0040283203,0.015274048,-0.0052337646,-24.119568,4.319763,-34.858704,1,0.0,0.0,0.0,0.0
2.332518205,0.010780963,-0.9912623,-0.1314636,-0.08484126,0.13009039,-0.9878655,0.9963361,0.021803683,-0.08269746,0.009551557,-0.9888542,-0.14858066,-0.08394257,0.14727005,-0.9855279,0.9964248,0.021885566,-0.08160029,10.016357,0.17706299,-0.84706116,9.7707205,0.2138211,-0.8109851,-0.0046844482,0.013595581,-0.0050811768,-24.238586,4.319763,-34.55963,1,0.0,0.0,0.0,0.0
2.340818986,0.010772385,-0.9912632,-0.13145772,-0.08474187,0.13008739,-0.98787457,0.99634475,0.021781735,-0.082600154,0.009599587,-0.9889552,-0.14790359,-0.08397852,0.14659055,-0.98562616,0.99642134,0.021882325,-0.08164378,9.979263,0.16630554,-0.8458557,9.770804,0.21360587,-0.8100308,0.002960205,0.017105103,-0.00630188,-24.238586,4.319763,-34.55963,1,0.0,0.0,0.0,0.0
2.349119767,0.010870685,-0.9914172,-0.13028291,-0.08461561,0.12891124,-0.98803943,0.99635434,0.021764638,-0.08248803,0.009622758,-0.989004,-0.1475751,-0.08399393,0.14626092,-0.9856737,0.9964197,0.021880314,-0.0816629,9.979263,0.17826843,-0.83270264,9.770899,0.21343818,-0.80893123,0.002960205,0.019256592,-0.008911133,-24.539185,4.319763,-34.91974,1,0.0,0.0,0.0,0.0
2.357420549,0.010745695,-0.99116796,-0.13217689,-0.08455064,0.1308105,-0.9877954,0.9963612,0.021790188,-0.08239823,0.009671687,-0.98910534,-0.14689127,-0.08401888,0.14557485,-0.98577315,0.99641716,0.021875732,-0.08169557,9.98764,0.19023132,-0.8518524,9.770966,0.21368875,-0.80805063,-0.008346558,0.010391235,-0.0067749023,-24.839783,4.3792725,-34.858704,1,0.0,0.0,0.0,0.0
2.36572133,0.010774048,-0.991165,-0.13219672,-0.084507376,0.13082887,-0.9877967,0.9963646,0.021814166,-0.082351185,0.009692982,-0.9891488,-0.14659724,-0.084029734,0.14527984,-0.9858158,0.9964161,0.021874022,-0.08170972,9.98764,0.19023132,-0.8518524,9.770999,0.2139239,-0.8075893,-0.0014801025,0.005355835,-0.00630188,-24.839783,4.3792725,-34.858704,1,0.0,0.0,0.0,0.0
2.374022111,0.01080678,-0.9911615,-0.13221963,-0.0844692,0.13084985,-0.9877972,0.9963675,0.021843392,-0.08230855,0.009735493,-0.98923266,-0.14602742,-0.08404893,0.14470805,-0.98589826,0.99641407,0.021871652,-0.081735134,9.963715,0.20100403,-0.82432556,9.771028,0.21421051,-0.8071712,-0.003921509,0.0045928955,-0.0055389404,-24.839783,4.3792725,-34.858704,1,0.0,0.0,0.0,0.0
2.382322892,0.010366482,-0.99040794,-0.1377844,-0.08453007,0.13643064,-0.98703665,0.99636704,0.021879025,-0.082304955,0.009777638,-0.9893127,-0.14548114,-0.08406592,0.14415978,-0.9859771,0.9964122,0.021870533,-0.08175795,9.957733,0.19979858,-0.8374939,9.771023,0.21455994,-0.8071359,-0.0033111572,-0.0015258789,-0.007080078,-24.539185,4.559326,-34.61914,1,0.0,0.0,0.0,0.0
2.390623674,0.010406911,-0.9904036,-0.1378125,-0.0845616,0.1364546,-0.9870305,0.9963639,0.021925587,-0.082330056,0.009789338,-0.98933524,-0.1453273,-0.084075235,0.1440053,-0.9859989,0.9964113,0.021870703,-0.08176887,9.957733,0.19979858,-0.8374939,9.770992,0.21501657,-0.80738205,-0.0042266846,-0.006866455,-0.010131836,-24.539185,4.559326,-34.61914,1,0.0,0.0,0.0,0.0
2.398924455,0.010159695,-0.98992485,-0.14122853,-0.084645405,0.1398775,-0.98654413,0.99635935,0.021977335,-0.08237148,0.009813664,-0.98937863,-0.14502984,-0.08409444,0.14370643,-0.9860409,0.9964094,0.021872876,-0.08179096,10.005585,0.17108154,-0.80877686,9.770947,0.21552403,-0.8077883,0.001739502,-0.014038086,-0.0029449463,-24.41864,4.6798706,-34.55963,1,0.0,0.0,0.0,0.0
2.407225236,0.011022895,-0.99131405,-0.13105285,-0.08468054,0.12966457,-0.9879353,0.9963472,0.021987535,-0.08251575,0.009827294,-0.98940057,-0.14487934,-0.08411622,0.14355485,-0.9860611,0.9964075,0.021877015,-0.08181389,9.991226,0.19979858,-0.83628845,9.770828,0.21562406,-0.809203,0.0040283203,-0.024887085,-0.004623413,-24.539185,4.319763,-34.739685,1,0.0,0.0,0.0,0.0
2.415526017,0.011008877,-0.99131554,-0.13104314,-0.08486575,0.12965198,-0.9879212,0.99633163,0.021996975,-0.08270141,0.009851017,-0.9894407,-0.14460307,-0.08412776,0.14327732,-0.98610044,0.99640626,0.021879226,-0.081828006,9.991226,0.19979858,-0.83628845,9.770676,0.21571665,-0.8110238,-0.0043792725,-0.02168274,-0.008605957,-24.539185,4.319763,-34.739685,1,0.0,0.0,0.0,0.0
2.423826799,0.010977156,-0.9913188,-0.13102113,-0.08507799,0.12962797,-0.98790604,0.9963138,0.021991415,-0.08291647,0.00989645,-0.9895185,-0.14406654,-0.084157266,0.14273824,-0.98617613,0.9964033,0.02188389,-0.08186257,9.968506,0.17826843,-0.8685913,9.770501,0.21566212,-0.8131328,-2.593994E-4,-0.019699097,-0.0064697266,-24.539185,4.319763,-34.739685,1,0.0,0.0,0.0,0.0
2.43212758,0.011740283,-0.9924506,-0.12208247,-0.08520941,0.12065382,-0.9890309,0.9962939,0.022014074,-0.083149604,0.009938756,-0.98959315,-0.14355037,-0.08419394,0.14221954,-0.98624796,0.9963999,0.021888148,-0.081904255,9.991226,0.19502258,-0.90927124,9.770306,0.21588433,-0.8154191,-0.0059051514,-0.01159668,-0.008605957,-24.598694,4.019165,-35.038757,1,0.0,0.0,0.0,0.0
2.440428361,0.011745095,-0.9924502,-0.12208581,-0.08542087,0.12065207,-0.98901296,0.9962757,0.022044722,-0.08335886,0.009974316,-0.9896549,-0.14312157,-0.08421453,0.14178881,-0.9863082,0.9963978,0.021890666,-0.08192908,9.991226,0.19502258,-0.90927124,9.770128,0.2161849,-0.81747127,-0.003616333,-0.008392334,-0.0076904297,-24.598694,4.019165,-35.038757,1,0.0,0.0,0.0,0.0
2.448729142,0.011307981,-0.9918204,-0.12714018,-0.08561014,0.12572117,-0.98836493,0.9962645,0.022060895,-0.08348821,0.010043356,-0.98977405,-0.14228967,-0.08426302,0.140953,-0.9864238,0.9963929,0.021896765,-0.08198572,9.980469,0.18902588,-0.87457275,9.770018,0.21634349,-0.8187397,2.1362305E-4,-0.0074768066,-0.0024871826,-24.119568,4.1397095,-34.439087,1,0.0,0.0,0.0,0.0
2.457029924,0.012499924,-0.99344766,-0.11360235,-0.08555126,0.11213209,-0.9900037,0.99625534,0.022093795,-0.08358906,0.010092596,-0.9898596,-0.14169036,-0.08431672,0.1403505,-0.9865051,0.9963879,0.021903265,-0.08204522,9.982849,0.21534729,-0.8721771,9.769927,0.2166661,-0.8197286,-0.0022277832,-0.0030517578,-0.008132935,-24.539185,3.718567,-35.21881,1,0.0,0.0,0.0,0.0
2.465330705,0.012529839,-0.993445,-0.1136229,-0.085631415,0.112148285,-0.989995,0.99624807,0.022134164,-0.08366489,0.010139964,-0.9899393,-0.14112954,-0.084342085,0.13978714,-0.986583,0.99638534,0.021907074,-0.082076095,9.982849,0.21534729,-0.8721771,9.769856,0.21706201,-0.8204723,-0.0022277832,-0.0012207031,-0.008132935,-24.539185,3.718567,-35.21881,1,0.0,0.0,0.0,0.0
2.473631486,0.012569181,-0.99344134,-0.113649935,-0.08567447,0.11217098,-0.9899886,0.9962439,0.022180244,-0.08370266,0.010233078,-0.99009264,-0.1400421,-0.0843943,0.1386946,-0.98673266,0.9963799,0.021916067,-0.0821389,9.984055,0.20817566,-0.8721771,9.769815,0.2175139,-0.82084274,-0.002090454,0.0056610107,-0.010894775,-24.539185,3.718567,-35.21881,1,0.0,0.0,0.0,0.0
2.481932267,0.012395992,-0.99317056,-0.11601099,-0.08567109,0.1145384,-0.9897178,0.99624634,0.022207322,-0.08366619,0.0103241345,-0.9902388,-0.13899863,-0.08444615,0.13764605,-0.9868751,0.9963746,0.02192653,-0.08220077,9.973282,0.19142151,-0.8458557,9.769839,0.21777944,-0.82048506,-0.0034637451,0.005355835,-0.008911133,-24.539185,3.779602,-34.979248,1,0.0,0.0,0.0,0.0
2.490233049,0.012428358,-0.9931676,-0.11603337,-0.08562597,0.114559,-0.98971945,0.99624985,0.022236057,-0.08361716,0.010364966,-0.9903026,-0.13853951,-0.08447104,0.13718458,-0.9869372,0.99637204,0.021932146,-0.08222998,9.973282,0.19142151,-0.8458557,9.769874,0.21806122,-0.8200042,-0.0013122559,0.011306763,-0.0069122314,-24.539185,3.779602,-34.979248,1,0.0,0.0,0.0,0.0
2.49853383,0.012916665,-0.9937638,-0.11075491,-0.08553776,0.10925996,-0.9903259,0.99625117,0.022265436,-0.083593056,0.010445552,-0.99042594,-0.13764945,-0.08451776,0.13628988,-0.9870571,0.9963672,0.021944178,-0.08228496,9.984055,0.19621277,-0.87815857,9.769887,0.21834934,-0.81976783,-0.0052948,0.012374878,-0.011047363,-24.539185,3.5995483,-35.1593,1,0.0,0.0,0.0,0.0
2.506834611,0.012949684,-0.9937608,-0.110777654,-0.08549476,0.10928084,-0.9903274,0.9962545,0.022295335,-0.08354619,0.010494352,-0.9904999,-0.13711236,-0.08453881,0.13575016,-0.98712975,0.99636495,0.021950603,-0.08231108,9.984055,0.19621277,-0.87815857,9.769919,0.21864256,-0.8193083,-0.0016174316,0.013900757,-0.00630188,-24.539185,3.5995483,-35.1593,1,0.0,0.0,0.0,0.0
2.515135392,0.012698969,-0.9933808,-0.114163235,-0.08544154,0.11267686,-0.9899513,0.99626225,0.022325646,-0.08344511,0.010590453,-0.9906425,-0.13607107,-0.08457799,0.13470364,-0.9872697,0.9963606,0.021964254,-0.082359985,9.98764,0.19142151,-0.8446655,9.769996,0.2189398,-0.818317,-0.0025482178,0.01222229,-0.011505127,-24.659729,3.718567,-35.099792,1,0.0,0.0,0.0,0.0
2.523436174,0.012696229,-0.9933811,-0.11416134,-0.085334785,0.11267759,-0.98996043,0.99627143,0.0223107,-0.083339386,0.010673115,-0.99076015,-0.13520457,-0.084613174,0.13383248,-0.9873852,0.9963567,0.021978563,-0.08240296,9.961319,0.16870117,-0.8386841,9.770085,0.21879323,-0.81728023,2.1362305E-4,0.011764526,-0.0052337646,-24.659729,3.718567,-35.099792,1,0.0,0.0,0.0,0.0
2.531736955,0.012674132,-0.99338317,-0.11414605,-0.08523953,0.11266632,-0.98997,0.9962799,0.022276763,-0.083247565,0.010713243,-0.99081707,-0.13478416,-0.08462798,0.13340987,-0.9874411,0.99635506,0.021985205,-0.08242159,9.961319,0.16870117,-0.8386841,9.770168,0.21846043,-0.8163797,-0.003616333,0.009933472,-0.004623413,-24.659729,3.718567,-35.099792,1,0.0,0.0,0.0,0.0
2.540037736,0.012669015,-0.9933836,-0.11414249,-0.08517657,0.11266461,-0.9899755,0.9962853,0.022264281,-0.08318566,0.010790301,-0.9909269,-0.133968,-0.084652975,0.1325896,-0.98754936,0.9963521,0.021996748,-0.082454234,9.982849,0.18304443,-0.8494568,9.770222,0.21833801,-0.81577265,2.1362305E-4,0.0048980713,-0.004776001,-24.659729,3.718567,-35.099792,1,0.0,0.0,0.0,0.0
2.548338517,0.011898534,-0.9923378,-0.12297942,-0.08525695,0.12153346,-0.98891896,0.99628794,0.022251539,-0.083157636,0.010864225,-0.9910318,-0.13318379,-0.08467438,0.13180149,-0.9876531,0.99634945,0.02200734,-0.082483076,9.993622,0.19262695,-0.85902405,9.770247,0.21821307,-0.8154979,-7.019043E-4,-0.005340576,-0.0053863525,-24.479675,4.0786743,-35.279846,1,0.0,0.0,0.0,0.0
2.556639299,0.011893433,-0.99233836,-0.122975945,-0.085309274,0.12152925,-0.98891497,0.9962835,0.022252586,-0.08321027,0.010884775,-0.99105895,-0.13297983,-0.08468618,0.13159627,-0.9876794,0.9963482,0.022012224,-0.08249661,9.993622,0.19262695,-0.85902405,9.770204,0.21822332,-0.816014,-5.645752E-4,-0.009460449,-0.005996704,-24.479675,4.0786743,-35.279846,1,0.0,0.0,0.0,0.0
2.56494008,0.011434235,-0.99175066,-0.12767015,-0.0854364,0.12624264,-0.9883133,0.99627805,0.022208288,-0.08328813,0.010924445,-0.9911116,-0.1325839,-0.084711194,0.13119784,-0.9877303,0.99634564,0.022021744,-0.08252498,9.969696,0.16749573,-0.8386841,9.77015,0.21778892,-0.8167776,9.765625E-4,-0.009918213,-0.0012664795,-24.539185,4.258728,-35.279846,1,0.0,0.0,0.0,0.0
2.573240861,0.011420915,-0.99175215,-0.12766106,-0.08552632,0.12623267,-0.98830694,0.9962704,0.022205746,-0.0833792,0.01094449,-0.9911374,-0.13238926,-0.08474001,0.13100158,-0.98775387,0.996343,0.02202913,-0.08255526,9.978073,0.20578003,-0.8446655,9.770076,0.21776399,-0.8176707,8.239746E-4,-0.009002686,-0.001876831,-24.539185,4.258728,-35.279846,1,0.0,0.0,0.0,0.0
2.581541642,0.012128827,-0.9927873,-0.119274154,-0.08551746,0.117815994,-0.9893463,0.99626285,0.022199633,-0.08347168,0.010953932,-0.99114984,-0.13229482,-0.08475579,0.13090633,-0.9877651,0.9963415,0.022032663,-0.08257175,9.978073,0.20578003,-0.8446655,9.770001,0.21770403,-0.8185775,-8.69751E-4,-0.012512207,-5.0354004E-4,-24.598694,3.9596558,-35.4599,1,0.0,0.0,0.0,0.0
2.589842424,0.012103249,-0.9927897,-0.11925666,-0.08563381,0.117798105,-0.98933834,0.99625313,0.02218661,-0.08359062,0.0110000055,-0.99121803,-0.13177975,-0.08478637,0.13038854,-0.987831,0.9963384,0.022039274,-0.08260749,9.999603,0.18902588,-0.850647,9.769906,0.21757634,-0.819744,0.0012817383,-0.01373291,-0.009979248,-24.598694,3.9596558,-35.4599,1,0.0,0.0,0.0,0.0
2.598143205,0.009651781,-0.9890322,-0.14738435,-0.08604887,0.14602299,-0.9855318,0.9962442,0.022194395,-0.083695725,0.011043244,-0.9912833,-0.13128404,-0.08482032,0.12989022,-0.98789376,0.9963351,0.022045108,-0.08264656,9.98645,0.18902588,-0.83509827,9.769818,0.21765266,-0.82077473,6.713867E-4,-0.006713867,-0.00630188,-23.939514,4.978943,-34.979248,1,0.0,0.0,0.0,0.0
2.606443986,0.009647028,-0.98903275,-0.14738117,-0.08612102,0.14601862,-0.98552614,0.996238,0.022200014,-0.08376786,0.0110157905,-0.99124086,-0.13160649,-0.08484503,0.13021328,-0.98784906,0.9963333,0.022048095,-0.082667455,9.98645,0.18902588,-0.83509827,9.769757,0.21770778,-0.8214821,5.187988E-4,-0.0061035156,-0.007080078,-23.939514,4.978943,-34.979248,1,0.0,0.0,0.0,0.0
2.614744767,0.009761164,-0.98918843,-0.14632449,-0.086168766,0.14495502,-0.9856788,0.9962327,0.022229977,-0.08382223,0.0109623205,-0.9911582,-0.1322318,-0.084895976,0.13083975,-0.987762,0.9963295,0.02205411,-0.08271103,9.979263,0.19740295,-0.8386841,9.769706,0.2180016,-0.8220153,9.765625E-4,-0.007019043,-0.008453369,-24.299622,4.978943,-35.279846,1,0.0,0.0,0.0,0.0
2.623045549,0.009747891,-0.9891899,-0.14631556,-0.08628838,0.14494458,-0.98567,0.9962225,0.022233536,-0.0839427,0.010915376,-0.991084,-0.1327905,-0.08494686,0.13139929,-0.9876832,0.9963257,0.022061074,-0.08275521,9.988831,0.18424988,-0.8901367,9.769606,0.21803652,-0.82319665,0.0020446777,-0.005493164,-9.613037E-4,-24.299622,4.978943,-35.279846,1,0.0,0.0,0.0,0.0
2.63134633,0.009114307,-0.98818636,-0.15298577,-0.08644764,0.15164067,-0.98464817,0.99621475,0.022199648,-0.084044285,0.010892373,-0.99104804,-0.13306126,-0.08497385,0.13167043,-0.98764485,0.99632365,0.022064524,-0.08277896,9.988831,0.18424988,-0.8901367,9.769529,0.21770418,-0.82419294,-0.0025482178,0.002609253,0.0014801025,-24.35913,5.218506,-35.1593,1,0.0,0.0,0.0,0.0
2.639647111,0.009039365,-0.988195,-0.15293513,-0.08647463,0.15159592,-0.98465276,0.9962131,0.022125639,-0.084083445,0.010789351,-0.99089086,-0.13423458,-0.08506157,0.1328463,-0.9874798,0.99631727,0.02207247,-0.08285341,9.984055,0.19023132,-0.879364,9.769513,0.2169784,-0.8245769,-0.0034637451,0.0071868896,-6.5612793E-4,-24.35913,5.218506,-35.1593,1,0.0,0.0,0.0,0.0
2.647947892,0.008264506,-0.98688346,-0.16122217,-0.086539544,0.15991691,-0.9833297,0.99621415,0.02207883,-0.08408282,0.010754826,-0.9908404,-0.13460915,-0.08509028,0.13322179,-0.98742676,0.9963152,0.022073532,-0.08287811,9.984055,0.19023132,-0.879364,9.769524,0.21651937,-0.8245708,-0.0034637451,0.013900757,-0.0038604736,-24.479675,5.519104,-35.038757,1,0.0,0.0,0.0,0.0
2.656248674,0.008241745,-0.9868862,-0.16120672,-0.086483404,0.15990467,-0.9833367,0.9962192,0.022046119,-0.084031396,0.010705716,-0.9907683,-0.1351425,-0.08511998,0.13375673,-0.9873518,0.99631315,0.022073638,-0.082902215,9.984055,0.19023132,-0.879364,9.769573,0.21619858,-0.8240665,0.007385254,0.024291992,0.0034637451,-24.479675,5.519104,-35.038757,1,0.0,0.0,0.0,0.0
2.664549455,0.008204961,-0.9868313,-0.16154498,-0.0863188,0.16024844,-0.98329526,0.99623376,0.022012265,-0.08386725,0.010609394,-0.99062777,-0.13617659,-0.085175365,0.13479401,-0.98720604,0.9963095,0.022072548,-0.082947,9.982849,0.20100403,-0.8638153,9.769716,0.2158666,-0.8224568,0.002960205,0.03665161,-0.0017242432,-24.899292,5.519104,-34.979248,1,0.0,0.0,0.0,0.0
2.672850236,0.008217122,-0.98682976,-0.16155341,-0.086013995,0.16026255,-0.98331964,0.99626005,0.02197591,-0.083564274,0.010515177,-0.99048984,-0.13718314,-0.08522194,0.13580386,-0.9870636,0.9963065,0.022070162,-0.082983464,9.98645,0.19740295,-0.8195343,9.769974,0.21551007,-0.8194856,0.0050964355,0.035736084,-0.0050811768,-24.899292,5.519104,-34.979248,1,0.0,0.0,0.0,0.0
2.681151017,0.007603515,-0.9855663,-0.16911948,-0.085765004,0.16785844,-0.98207337,0.9962864,0.02197174,-0.08325077,0.010469545,-0.9904226,-0.13767141,-0.085238405,0.13629387,-0.9869947,0.9963056,0.022068275,-0.0829951,9.98645,0.19740295,-0.8195343,9.770232,0.21546917,-0.81641114,9.765625E-4,0.031158447,-0.0069122314,-24.598694,5.6991577,-34.318542,1,0.0,0.0,0.0,0.0
2.689451799,0.0076714037,-0.9855576,-0.1691667,-0.08550677,0.16790554,-0.9820878,0.9963081,0.02199889,-0.08298377,0.010356536,-0.9902496,-0.13891956,-0.08526106,0.13754658,-0.9868189,0.9963048,0.022064455,-0.08300521,9.991226,0.21057129,-0.8338928,9.770445,0.21573542,-0.8137928,0.0011291504,0.03253174,-0.0055389404,-24.598694,5.6991577,-34.318542,1,0.0,0.0,0.0,0.0
