Time,Rot1,Rot2,Rot3,Rot4,Rot5,Rot6,Rot7,Rot8,Rot9,FRot1,FRot2,FRot3,FRot4,FRot5,FRot6,FRot7,FRot8,FRot9,AccX,AccY,AccZ,GravX,GravY,GravZ,GyroX,GyroY,GyroZ,MagX,MagY,MagZ,Imid
0.0,0.0,0.0,0.0,0.0,0.0,0.0,0.0,0.0,0.0,1.0,0.0,0.0,0.0,1.0,0.0,0.0,0.0,1.0,10.084549,-0.102890015,0.75613403,9.783456,-0.06787566,0.67065114,0.0,0.0,0.0,0.0,0.0,0.0,0,0.0,0.0,0.0,0.0
0.008300781,0.0,0.0,0.0,0.0,0.0,0.0,0.0,0.0,0.0,1.0,0.0,0.0,0.0,1.0,0.0,0.0,0.0,1.0,10.118057,-0.0382843,0.76091003,9.78354,-0.06678019,0.6695259,-0.003921509,-0.017700195,-0.029220581,0.0,0.0,0.0,0,0.0,0.0,0.0,0.0
0.016601563,-0.0651062,-0.40108362,0.9137249,0.021367345,-0.91601795,-0.40056768,0.9976495,-0.0065555647,0.06820854,1.0,0.0,0.0,0.0,1.0,0.0,0.0,0.0,1.0,10.118057,-0.0382843,0.76091003,9.7836,-0.06428813,0.6688973,-0.017654419,-0.013122559,-0.03364563,-15.119934,-37.319946,-17.459106,0,0.0,0.0,0.0,0.0
0.024902344,-0.064933546,-0.40114638,0.9137096,0.021621907,-0.91599256,-0.40061212,0.99765533,-0.006257022,0.0681522,0.99240583,-0.10785349,-0.059146237,0.10767799,0.99416673,-0.006155894,0.059465155,-2.5960198E-4,0.99823034,10.085754,-0.059814453,0.6771698,9.783657,-0.061360423,0.66834474,-0.032318115,-0.029006958,-0.031051636,-15.119934,-37.319946,-17.459106,0,0.0,0.0,0.0,0.0
0.033203125,-0.06447447,-0.4113018,0.90921605,0.022383776,-0.9114785,-0.41073802,0.99766827,-0.0061304276,0.06797359,0.9709888,-0.21026437,-0.11388424,0.2088921,0.97764444,-0.023988348,0.11638219,-4.971012E-4,0.99320436,10.061813,-0.15553284,0.69511414,9.783784,-0.06011896,0.66659325,-0.03353882,-0.01739502,-0.02784729,-15.299988,-37.25891,-17.939758,0,0.0,0.0,0.0,0.0
0.041503906,-0.064311214,-0.41136143,0.90920067,0.022412162,-0.91145235,-0.41079485,0.9976782,-0.006041565,0.067836106,0.95581275,-0.25897652,-0.139116,0.25636715,0.96588343,-0.036675606,0.14386797,-6.097684E-4,0.9895967,10.004395,-0.18185425,0.64845276,9.783881,-0.059247512,0.66524494,-0.03125,-0.005493164,-0.024475098,-15.299988,-37.25891,-17.939758,0,0.0,0.0,0.0,0.0
0.049804688,-0.06413907,-0.41412944,0.90795535,0.022581002,-0.91019803,-0.41355723,0.9976855,-0.0060226335,0.06773072,0.9177969,-0.35153198,-0.1845916,0.34480432,0.93617547,-0.06844991,0.19687246,-8.2486874E-4,0.98042876,9.94696,-0.14715576,0.63409424,9.783953,-0.05906186,0.66421145,-0.02330017,0.0035247803,-0.019439697,-15.539551,-37.319946,-18.119812,0,0.0,0.0,0.0,0.0
0.058105469,-0.06407318,-0.41415375,0.9079489,0.022595333,-0.9101872,-0.4135802,0.99768937,-0.0059839915,0.06767654,0.89549875,-0.3952268,-0.20464054,0.38551947,0.91858315,-0.087062195,0.22238864,-9.2882465E-4,0.97495764,9.94696,-0.14715576,0.63409424,9.783991,-0.05868291,0.66368014,-0.024993896,0.003829956,-0.018676758,-15.539551,-37.319946,-18.119812,0,0.0,0.0,0.0,0.0
0.06640625,-0.064114906,-0.41705582,0.9066166,0.022827828,-0.9088611,-0.41647393,0.99768144,-0.0060060984,0.06779202,0.8455331,-0.47742465,-0.23903881,0.45976752,0.87867194,-0.1286446,0.27145478,-0.0011290105,0.9624505,9.930206,-0.17826843,0.7286072,9.783913,-0.058899704,0.6648126,-0.027893066,0.01008606,-0.020202637,-15.419006,-37.01935,-18.119812,0,0.0,0.0,0.0,0.0
0.074707031,-0.06442711,-0.41438603,0.90781796,0.022666413,-0.91008085,-0.41381037,0.9976649,-0.006083629,0.06802652,0.7900244,-0.5525179,-0.26567927,0.5242027,0.83349997,-0.17461187,0.31791982,-0.0013221443,0.94811666,9.963715,-0.21057129,0.79681396,9.783751,-0.059660017,0.66711223,-0.018722534,0.016342163,-0.014251709,-15.419006,-37.55951,-18.23883,0,0.0,0.0,0.0,0.0
0.083007813,-0.06471609,-0.41428074,0.90784544,0.02268708,-0.91012824,-0.41370517,0.9976458,-0.006177025,0.068298765,0.76067877,-0.58749557,-0.27607366,0.5528462,0.8092261,-0.19878156,0.3401893,-0.0014173745,0.9403559,9.963715,-0.21057129,0.79681396,9.783564,-0.06057592,0.6697821,-0.010482788,0.016342163,-0.014251709,-15.419006,-37.55951,-18.23883,0,0.0,0.0,0.0,0.0
0.091308594,-0.06497064,-0.414188,0.9078696,0.02272455,-0.91017,-0.41361123,0.9976284,-0.006241659,0.06854656,0.69983196,-0.65227675,-0.2911533,0.6030494,0.75797915,-0.24859393,0.3828402,-0.0016058579,0.92381316,10.04985,-0.16989136,0.6663971,9.783393,-0.061209768,0.6722122,-0.010177612,0.026428223,-0.012573242,-15.419006,-37.55951,-18.23883,0,0.0,0.0,0.0,0.0
0.099609375,-0.06496314,-0.42158142,0.90446055,0.023261487,-0.90676856,-0.42098644,0.99761647,-0.0063095014,0.068713136,0.6372616,-0.71031106,-0.29892454,0.6441543,0.7038857,-0.29934973,0.4230401,-0.0017894368,0.9061092,10.106079,-0.13040161,0.58384705,9.783276,-0.06187507,0.6738457,0.0023498535,0.017105103,-0.008453369,-15.419006,-37.139893,-18.418884,0,0.0,0.0,0.0,0.0
0.107910156,-0.064986594,-0.42157277,0.9044628,0.023252558,-0.90677243,-0.42097855,0.99761516,-0.0063268887,0.068730704,0.6058225,-0.73676187,-0.3002683,0.6613599,0.67614967,-0.32469174,0.4422468,-0.0018798385,0.8968914,10.106079,-0.13040161,0.58384705,9.783263,-0.062045585,0.67401797,-0.003768921,0.016799927,-0.011352539,-15.419006,-37.139893,-18.418884,0,0.0,0.0,0.0,0.0
0.116210938,-0.06512172,-0.41686213,0.90663385,0.022972576,-0.9089479,-0.41627604,0.99761283,-0.0062808963,0.06876866,0.5430869,-0.7849665,-0.29813462,0.6896944,0.61953485,-0.37483102,0.4789346,-0.002055943,0.8778482,10.071396,-0.08734131,0.6699829,9.78324,-0.061594553,0.6743902,-0.012161255,-0.014038086,-0.012878418,-15.419006,-37.25891,-18.23883,0,0.0,0.0,0.0,0.0
0.124511719,-0.06491541,-0.41932756,0.90551114,0.022985563,-0.90781265,-0.41874555,0.997626,-0.0063693547,0.0685695,0.48113385,-0.827295,-0.28998828,0.7105858,0.56176335,-0.42366233,0.5133985,-0.002223252,0.85814744,10.08934,-0.19023132,0.6316986,9.783369,-0.062462036,0.67243713,-2.593994E-4,-0.04916382,-0.011199951,-15.419006,-37.25891,-18.359375,0,0.0,0.0,0.0,0.0
0.1328125,-0.06455895,-0.41945782,0.9054762,0.02274537,-0.90775186,-0.4188903,0.9976547,-0.006447727,0.06814424,0.4507772,-0.8462818,-0.28391358,0.7183867,0.5327304,-0.44734645,0.5298306,-0.0023061747,0.84810036,10.08934,-0.19023132,0.6316986,9.78365,-0.063230604,0.6682667,5.187988E-4,-0.06565857,-0.012268066,-15.419006,-37.25891,-18.359375,0,0.0,0.0,0.0,0.0
0.141113281,-0.06446109,-0.4194936,0.9054666,0.022842754,-0.9077362,-0.41891888,0.9976587,-0.0063206153,0.06809606,0.39161202,-0.8801964,-0.26813114,0.7292022,0.47460318,-0.49296653,0.56116325,-0.0024701813,0.8277015,9.908676,-0.022735596,0.92481995,9.78369,-0.061984062,0.6677942,3.6621094E-4,-0.009765625,-0.0027923584,-15.419006,-37.25891,-18.359375,0,0.0,0.0,0.0,0.0
0.149414063,-0.06434036,-0.42271885,0.90397406,0.023039633,-0.9062387,-0.422138,0.99766195,-0.006333281,0.06804701,0.33492187,-0.90901625,-0.24802575,0.7342446,0.41675237,-0.53591275,0.5905187,-0.0026226596,0.8070197,9.923035,-0.08255005,0.7417755,9.783722,-0.06210827,0.6673132,-0.003768921,0.017562866,0.005142212,-15.238953,-37.1994,-18.47992,0,0.0,0.0,0.0,0.0
0.157714844,-0.064534,-0.4226489,0.90399295,0.02305176,-0.9062709,-0.42206833,0.99764925,-0.00639913,0.06822809,0.3076765,-0.921607,-0.23659194,0.7348002,0.38811505,-0.55626917,0.6044864,-0.0026968725,0.7966109,9.923035,-0.08255005,0.7417755,9.783597,-0.06275403,0.669089,-0.010787964,0.015274048,0.010482788,-15.238953,-37.1994,-18.47992,0,0.0,0.0,0.0,0.0
0.166015625,-0.06495366,-0.41202214,0.90885574,0.02214111,-0.9111499,-0.4114798,0.99764264,-0.006604046,0.06830515,0.25545347,-0.94345576,-0.21126932,0.73246914,0.33148623,-0.5946476,0.63105655,-0.0028434827,0.77573156,10.054642,-0.10887146,0.6305084,9.783532,-0.06476357,0.6698447,-0.018569946,0.012527466,0.024536133,-15.119934,-37.319946,-17.999268,0,0.0,0.0,0.0,0.0
0.174316406,-0.06493106,-0.41533136,0.9073499,0.022197653,-0.90964484,-0.41479337,0.9976428,-0.0067919344,0.06828358,0.20607723,-0.9612957,-0.18287352,0.72617817,0.27550244,-0.62989175,0.6558944,-0.002992402,0.75484675,10.02832,-0.08135986,0.5970154,9.783534,-0.06660613,0.6696332,-0.017044067,0.0032196045,0.028503418,-15.179443,-37.078857,-18.058777,0,0.0,0.0,0.0,0.0
0.182617188,-0.064967155,-0.41531822,0.9073533,0.021945104,-0.90964895,-0.41479775,0.9976461,-0.007036268,0.06821151,0.18268238,-0.968739,-0.167845,0.721672,0.24806327,-0.6462618,0.6676951,-0.003068393,0.7444285,10.02832,-0.08135986,0.5970154,9.783566,-0.06900222,0.6689264,-0.027130127,-0.0012207031,0.030029297,-15.179443,-37.078857,-18.058777,0,0.0,0.0,0.0,0.0
0.190917969,-0.06500359,-0.41530502,0.90735674,0.02170267,-0.90965307,-0.41480127,0.99764895,-0.0072715073,0.06814394,0.13840698,-0.98094326,-0.13635944,0.7103358,0.19426781,-0.6765228,0.6901207,-0.003225522,0.7236871,9.993622,-0.057434082,0.6352997,9.783595,-0.071309134,0.66826385,-0.03475952,-0.004425049,0.028198242,-15.179443,-37.078857,-18.058777,0,0.0,0.0,0.0,0.0
0.19921875,-0.065198295,-0.41103733,0.90928406,0.02122324,-0.9115879,-0.41055697,0.9976466,-0.0074696625,0.06815752,0.09749317,-0.98985463,-0.1033584,0.6963456,0.14204371,-0.70351005,0.711054,-0.0033857445,0.7031292,10.005585,-0.023925781,0.7238312,9.783571,-0.073252365,0.66839695,-0.038116455,-0.02519226,0.031097412,-15.299988,-37.25891,-17.939758,0,0.0,0.0,0.0,0.0
0.207519531,-0.06521491,-0.41103125,0.9092856,0.021000868,-0.91158885,-0.4105662,0.9976502,-0.007679251,0.0680812,0.07822227,-0.99318856,-0.08635849,0.6885182,0.116466686,-0.71580595,0.72098815,-0.0034674234,0.6929387,10.005585,-0.023925781,0.7238312,9.783607,-0.07530773,0.6676485,-0.03933716,-0.025344849,0.035690308,-15.299988,-37.25891,-17.939758,0,0.0,0.0,0.0,0.0
0.215820313,-0.06520931,-0.41358694,0.9081265,0.020841815,-0.9104294,-0.4131392,0.99765396,-0.008013515,0.067988366,0.04214467,-0.997771,-0.05173694,0.67145276,0.0666309,-0.7380458,0.739848,-0.003634213,0.67276424,9.993622,-0.114852905,0.75971985,9.783644,-0.07858574,0.66673815,-0.032318115,-0.020004272,0.030334473,-15.419006,-36.95984,-17.939758,0,0.0,0.0,0.0,0.0
0.224121094,-0.06527091,-0.4135641,0.9081324,0.020530362,-0.9104369,-0.41313797,0.99765635,-0.008321607,0.06791567,0.025349045,-0.9990918,-0.03424856,0.662317,0.042446274,-0.74802035,0.7487948,-0.0037217997,0.66279143,9.993622,-0.114852905,0.75971985,9.783667,-0.08160709,0.6660252,-0.026062012,-0.018920898,0.0262146,-15.419006,-36.95984,-17.939758,0,0.0,0.0,0.0,0.0
0.232421875,-0.06532637,-0.41317892,0.90830374,0.02025016,-0.91060954,-0.4127714,0.9976585,-0.0085715605,0.067853756,-0.005909838,-0.99998206,9.66731E-4,0.6430849,-0.0045409137,-0.7657814,0.76577204,-0.0039039538,0.6431002,9.976868,-0.12083435,0.7154541,9.783688,-0.0840583,0.6654181,-0.011245728,-0.0019836426,0.015380859,-15.359497,-37.139893,-17.999268,0,0.0,0.0,0.0,0.0
0.240722656,-0.065377496,-0.41316018,0.9083086,0.020081434,-0.91061646,-0.41276455,0.99765855,-0.008745371,0.06783067,-0.03417897,-0.998757,0.036279406,0.62285376,-0.04967574,-0.7807596,0.78159136,-0.0040887934,0.62377745,9.978073,-0.11605835,0.68196106,9.783689,-0.0857628,0.6651916,0.0107421875,0.0019989014,0.0098724365,-15.359497,-37.139893,-17.999268,0,0.0,0.0,0.0,0.0
0.249023438,-0.06533366,-0.4186562,0.90579164,0.020376535,-0.90810144,-0.41825405,0.99765533,-0.008869174,0.06786036,-0.04723551,-0.9974291,0.05388872,0.61245906,-0.0715381,-0.7872586,0.78908974,-0.0041819257,0.61426365,9.978073,-0.11605835,0.68196106,9.783657,-0.086976886,0.66548276,0.016235352,0.008255005,0.0052948,-15.7196045,-37.139893,-18.299866,0,0.0,0.0,0.0,0.0
0.257324219,-0.06537724,-0.4186399,0.90579605,0.020317812,-0.90810835,-0.41824213,0.9976538,-0.008939721,0.06787546,-0.07115009,-0.9935153,0.088685006,0.5912988,-0.113614656,-0.7984093,0.8033077,-0.004367543,0.59554815,10.022339,-0.12802124,0.61735535,9.783641,-0.08766871,0.6656309,0.02067566,0.024749756,-0.0069122314,-15.7196045,-37.139893,-18.299866,0,0.0,0.0,0.0,0.0
0.265625,-0.065297045,-0.4226924,0.9039178,0.020681793,-0.9062296,-0.42227945,0.99765146,-0.008878959,0.067916155,-0.09247558,-0.988086,0.12302166,0.5698273,-0.15383554,-0.80723697,0.8165446,-0.004548603,0.5772644,10.060623,-0.08375549,0.624527,9.783619,-0.08707285,0.66603,0.015777588,0.009475708,-0.0011138916,-15.838623,-37.1994,-18.539429,0,0.0,0.0,0.0,0.0
0.273925781,-0.065296255,-0.4226927,0.90391773,0.020734377,-0.90623003,-0.4222762,0.9976505,-0.008830882,0.0679377,-0.10216893,-0.98488116,0.13989513,0.5590498,-0.17316943,-0.8108488,0.82281524,-0.004635211,0.5682902,10.060623,-0.08375549,0.624527,9.783609,-0.08660137,0.6662413,0.011962891,-0.003967285,-0.0030975342,-15.838623,-37.1994,-18.539429,0,0.0,0.0,0.0,0.0
0.282226563,-0.06511746,-0.42699555,0.9019061,0.020984013,-0.9042103,-0.42657146,0.9976569,-0.008851645,0.067839965,-0.119833246,-0.97758454,0.17311408,0.53750867,-0.21048859,-0.81656533,0.8347002,-0.004801362,0.5506837,10.098907,-0.13639832,0.62571716,9.783672,-0.08680498,0.66528285,0.0093688965,-0.0035095215,-0.008605957,-15.779114,-37.25891,-18.778992,0,0.0,0.0,0.0,0.0
0.290527344,-0.06503675,-0.42702556,0.9018976,0.020899704,-0.9041957,-0.42660657,0.997664,-0.008895713,0.067730665,-0.13524722,-0.9692922,0.20537947,0.5161344,-0.24586158,-0.82046175,0.8457621,-0.0049617547,0.53353715,10.04866,-0.19621277,0.653244,9.783741,-0.087237135,0.6642109,0.007385254,0.0058135986,-0.016693115,-15.779114,-37.25891,-18.778992,0,0.0,0.0,0.0,0.0
0.298828125,-0.06493101,-0.4317657,0.8996456,0.02120426,-0.90194154,-0.43133718,0.99766445,-0.008930842,0.06771926,-0.14220323,-0.96480864,0.2211842,0.50554276,-0.26290455,-0.821771,0.8510022,-0.005040435,0.5251379,10.04866,-0.19621277,0.653244,9.783746,-0.08758164,0.66409904,0.0020446777,0.013595581,-0.016693115,-15.7196045,-37.139893,-18.959045,0,0.0,0.0,0.0,0.0
0.307128906,-0.06494833,-0.43175936,0.8996475,0.021237448,-0.9019449,-0.43132874,0.99766266,-0.008907863,0.06774928,-0.1546149,-0.9553168,0.25192082,0.4846549,-0.2955383,-0.82326585,0.86093193,-0.0051944964,0.5086936,10.016357,-0.18544006,0.66041565,9.783729,-0.0873563,0.6643934,0.0015869141,-0.00289917,-0.020812988,-15.7196045,-37.139893,-18.959045,0,0.0,0.0,0.0,0.0
0.315429688,-0.06499787,-0.42606133,0.9023563,0.020834457,-0.9046508,-0.42564398,0.9976679,-0.008865844,0.06767713,-0.16530171,-0.94516164,0.2816822,0.46419984,-0.32655933,-0.82333314,0.87016886,-0.005341546,0.49272466,10.000809,-0.18304443,0.62213135,9.78378,-0.08694424,0.663686,-0.0023956299,7.7819824E-4,-0.02432251,-15.7196045,-37.5,-18.838501,0,0.0,0.0,0.0,0.0
0.323730469,-0.064902626,-0.42609644,0.9023467,0.02084437,-0.90463483,-0.42567766,0.9976739,-0.008818751,0.067594886,-0.17010151,-0.9398294,0.29628736,0.4541357,-0.34160128,-0.82284224,0.8745434,-0.005412033,0.48491693,10.000809,-0.18304443,0.62213135,9.783838,-0.0864824,0.66287935,-0.0022277832,0.0058135986,-0.020202637,-15.7196045,-37.5,-18.838501,0,0.0,0.0,0.0,0.0
0.33203125,-0.06478918,-0.4305787,0.9002245,0.021247782,-0.90251064,-0.43014294,0.99767274,-0.0087408405,0.06762178,-0.17857727,-0.92880166,0.3247115,0.434414,-0.3705356,-0.8209676,0.8828333,-0.0055469405,0.46965373,9.996017,-0.15911865,0.65922546,9.783828,-0.08571836,0.66314316,-0.003768921,0.008102417,-0.018218994,-15.838623,-37.379456,-19.018555,0,0.0,0.0,0.0,0.0
0.340332031,-0.064765036,-0.4305877,0.90022206,0.021327693,-0.9025072,-0.43014634,0.99767256,-0.008658779,0.067634344,-0.18559003,-0.91745037,0.35191062,0.4153172,-0.3978097,-0.8180825,0.89054364,-0.0056734206,0.45486245,9.957733,-0.12562561,0.61735535,9.783826,-0.08491362,0.66326636,-0.011703491,-4.4250488E-4,-0.0040130615,-15.838623,-37.379456,-19.018555,0,0.0,0.0,0.0,0.0
0.348632813,-0.064670295,-0.4319173,0.89959174,0.021412928,-0.90187186,-0.43147272,0.9976769,-0.008640573,0.06757293,-0.18862294,-0.9116554,0.36511052,0.40600234,-0.41091534,-0.8162785,0.8941943,-0.005733128,0.44764233,9.957733,-0.12562561,0.61735535,9.783868,-0.08473507,0.662664,-0.01109314,-0.0073242188,-0.007385254,-15.359497,-37.438965,-19.07959,0,0.0,0.0,0.0,0.0
0.356933594,-0.06463537,-0.43192983,0.89958817,0.021290421,-0.9018648,-0.43149325,0.9976818,-0.008737117,0.06748834,-0.19379717,-0.89990354,0.39066136,0.3878658,-0.43604982,-0.81204724,0.90111196,-0.0058482634,0.43354702,9.938583,-0.1878357,0.62931824,9.783916,-0.08568185,0.6618346,-0.01689148,0.0018463135,-0.0093688965,-15.359497,-37.438965,-19.07959,0,0.0,0.0,0.0,0.0
0.365234375,-0.06468641,-0.43048188,0.9002784,0.021042282,-0.90255564,-0.43005887,0.99768376,-0.008875052,0.0674414,-0.1979155,-0.8879649,0.41514784,0.37038657,-0.45987254,-0.8070508,0.90754795,-0.0059626633,0.4199062,9.956528,-0.23330688,0.6281128,9.783936,-0.08703453,0.66137415,-0.033081055,0.024597168,-0.015472412,-15.539551,-37.438965,-19.018555,0,0.0,0.0,0.0,0.0
0.373535156,-0.06479439,-0.43044257,0.9002893,0.020977126,-0.9025732,-0.43002483,0.9976781,-0.008977717,0.06751114,-0.1996256,-0.8819313,0.42702088,0.3618908,-0.47133952,-0.8042849,0.9105958,-0.0060209115,0.41325426,9.956528,-0.23330688,0.6281128,9.78388,-0.08804133,0.6620581,-0.039642334,0.030548096,-0.019592285,-15.539551,-37.438965,-19.018555,0,0.0,0.0,0.0,0.0
0.381835938,-0.06493359,-0.4274656,0.90169656,0.020800266,-0.90398693,-0.4270535,0.99767274,-0.008974592,0.06759053,-0.2023869,-0.8698014,0.44998342,0.34540784,-0.49336383,-0.7983017,0.91636944,-0.0061380025,0.40028659,9.991226,-0.17706299,0.5790558,9.783828,-0.08801069,0.6628367,-0.028808594,0.017410278,-0.018218994,-15.058899,-37.1994,-18.719482,0,0.0,0.0,0.0,0.0
0.390136719,-0.06500532,-0.4274401,0.90170354,0.020880647,-0.9039995,-0.4270232,0.9976664,-0.008930626,0.06769001,-0.20438665,-0.85756683,0.47202256,0.32957926,-0.5143346,-0.7917307,0.92173946,-0.006250333,0.38775936,10.0295105,-0.15672302,0.6233368,9.783766,-0.087579526,0.6638122,-0.030181885,0.005203247,-0.028457642,-15.058899,-37.1994,-18.719482,0,0.0,0.0,0.0,0.0
0.3984375,-0.0650798,-0.42308533,0.9037496,0.020645298,-0.9060465,-0.42267394,0.9976664,-0.008849357,0.06770006,-0.20511052,-0.85144967,0.48266256,0.3219206,-0.52439845,-0.7882724,0.9242818,-0.006303939,0.38165885,10.0295105,-0.15672302,0.6233368,9.783766,-0.08678255,0.6639108,-0.021636963,0.0036773682,-0.027999878,-15.179443,-37.139893,-18.47992,0,0.0,0.0,0.0,0.0
0.406738281,-0.06493221,-0.4231386,0.90373534,0.020786123,-0.90602356,-0.4227165,0.99767315,-0.008662762,0.06762552,-0.2061139,-0.83914006,0.5033498,0.30706868,-0.54387766,-0.78096473,0.9290995,-0.006404739,0.3697744,10.054642,-0.11126709,0.59939575,9.783832,-0.08495268,0.6631798,-0.015213013,0.007797241,-0.036239624,-15.179443,-37.139893,-18.47992,0,0.0,0.0,0.0,0.0
0.415039063,-0.06495945,-0.41604048,0.90702295,0.020454582,-0.9093069,-0.41562316,0.9976782,-0.00844588,0.06757801,-0.20649871,-0.82689977,0.5230632,0.2928818,-0.5623118,-0.7733213,0.93358374,-0.006494157,0.35830054,10.045074,-0.117248535,0.61735535,9.783881,-0.082825795,0.6627139,-0.014297485,0.009628296,-0.037612915,-14.99939,-36.898804,-17.999268,0,0.0,0.0,0.0,0.0
0.423339844,-0.06483558,-0.41608524,0.90701133,0.020679746,-0.90928876,-0.41565174,0.9976816,-0.008192252,0.06755878,-0.2065259,-0.82072705,0.53268576,0.28600225,-0.57128304,-0.7693103,0.93570817,-0.0065331915,0.35271457,10.045074,-0.117248535,0.61735535,9.783915,-0.08033855,0.66252536,-0.014144897,0.017105103,-0.041275024,-14.99939,-36.898804,-17.999268,0,0.0,0.0,0.0,0.0
0.431640625,-0.064795144,-0.41819745,0.9060423,0.021021616,-0.90832084,-0.4177458,0.99767715,-0.0080214245,0.06764595,-0.20619318,-0.80847377,0.5512301,0.27273044,-0.58849525,-0.76111203,0.93973535,-0.0065988908,0.34183908,10.043869,-0.18424988,0.6652069,9.783871,-0.078663304,0.6633802,-0.013839722,0.024597168,-0.042495728,-14.6987915,-36.71875,-17.999268,0,0.0,0.0,0.0,0.0
0.439941406,-0.06478177,-0.41820213,0.90604097,0.021330211,-0.9083211,-0.41772944,0.9976715,-0.007735209,0.06776299,-0.20538162,-0.7964215,0.56879795,0.2601123,-0.6047052,-0.752777,0.9434829,-0.006655223,0.33135435,10.016357,-0.114852905,0.63768005,9.783814,-0.075856484,0.6645279,-0.006362915,0.03100586,-0.035629272,-14.6987915,-36.71875,-17.999268,0,0.0,0.0,0.0,0.0
0.448242188,-0.0647908,-0.4193184,0.9055242,0.021725226,-0.9078085,-0.41882175,0.99766237,-0.0074630766,0.067927435,-0.2048231,-0.7904582,0.57725495,0.25403753,-0.61247957,-0.7485544,0.94525784,-0.006676823,0.326256,10.016357,-0.114852905,0.63768005,9.783726,-0.07318778,0.6661406,-0.01322937,0.017410278,-0.03501892,-14.639282,-36.479187,-17.939758,0,0.0,0.0,0.0,0.0
0.456542969,-0.06486056,-0.4192936,0.90553075,0.022009479,-0.90782183,-0.418778,0.9976516,-0.0072319177,0.06811027,-0.20342442,-0.77870166,0.59349996,0.24235524,-0.6273585,-0.7400576,0.94862133,-0.0067079584,0.31634247,10.039093,-0.11843872,0.6915283,9.783621,-0.07092089,0.66793364,-0.009567261,0.014663696,-0.031051636,-14.639282,-36.479187,-17.939758,0,0.0,0.0,0.0,0.0
0.46484375,-0.065099485,-0.4150927,0.90744704,0.02198102,-0.9097519,-0.41457012,0.9976367,-0.007041692,0.06834854,-0.2017121,-0.76714647,0.6089323,0.23126005,-0.64143664,-0.73149014,0.95175153,-0.006728707,0.30679587,10.036697,-0.12322998,0.77168274,9.783474,-0.06905541,0.67027026,0.0014343262,0.017410278,-0.026779175,-14.639282,-36.65924,-17.819214,0,0.0,0.0,0.0,0.0
0.473144531,-0.065265216,-0.4150338,0.90746206,0.022219937,-0.9097799,-0.4144958,0.9976205,-0.0068884073,0.06859901,-0.2007744,-0.7613898,0.61642134,0.22590892,-0.6482594,-0.72713476,0.95323384,-0.0067349668,0.30215862,10.036697,-0.12322998,0.77168274,9.783316,-0.0675522,0.6727265,0.0052490234,0.023376465,-0.02508545,-14.639282,-36.65924,-17.819214,0,0.0,0.0,0.0,0.0
0.481445313,-0.06551802,-0.4107585,0.9093871,0.022164248,-0.91171956,-0.41021517,0.99760526,-0.006720604,0.06883821,-0.19871801,-0.7500453,0.63082737,0.2156231,-0.6613521,-0.71841496,0.9560428,-0.0067410427,0.29314968,10.043869,-0.09690857,0.74417114,9.783166,-0.065906614,0.67507225,0.0052490234,0.021392822,-0.02508545,-14.99939,-36.65924,-17.63916,0,0.0,0.0,0.0,0.0
0.489746094,-0.06568722,-0.4106968,0.9094027,0.022393636,-0.91174823,-0.41013855,0.99758893,-0.006576024,0.0690872,-0.19648865,-0.7388128,0.64463,0.20583391,-0.673877,-0.709593,0.95865774,-0.0067402334,0.2844819,10.043869,-0.10887146,0.74417114,9.783006,-0.06448877,0.677514,0.009979248,0.02230835,-0.028762817,-14.99939,-36.65924,-17.63916,0,0.0,0.0,0.0,0.0
0.498046875,-0.065859705,-0.4101702,0.9096279,0.022600338,-0.9119864,-0.40959737,0.9975729,-0.0064180656,0.06933314,-0.1953049,-0.73328805,0.6512639,0.20113406,-0.67988473,-0.7051963,0.9598964,-0.0067369496,0.280274,10.043869,-0.10887146,0.74417114,9.782848,-0.062939726,0.67992586,0.0040283203,0.023529053,-0.022644043,-14.6987915,-36.358643,-17.459106,0,0.0,0.0,0.0,0.0
0.506347656,-0.06597614,-0.4101282,0.9096384,0.022841213,-0.9120065,-0.40953925,0.9975597,-0.0062425756,0.0695385,-0.19408287,-0.7278184,0.6577325,0.19655998,-0.6857368,-0.7008061,0.96109104,-0.0067305714,0.27614975,10.065414,-0.086135864,0.7118683,9.78272,-0.061218753,0.6819397,0.0067749023,0.023834229,-0.021881104,-14.6987915,-36.358643,-17.459106,0,0.0,0.0,0.0,0.0
0.514648438,-0.066075414,-0.4100924,0.9096474,0.02304606,-0.9120237,-0.4094897,0.99754846,-0.0060934075,0.06971334,-0.19152997,-0.7170712,0.67016804,0.18777817,-0.69696766,-0.6920805,0.96335644,-0.0067112464,0.2681405,10.054642,-0.08734131,0.6891327,9.782609,-0.059755918,0.68365437,0.006011963,0.022155762,-0.021728516,-14.6987915,-36.358643,-17.459106,0,0.0,0.0,0.0,0.0
0.522949219,-0.06629152,-0.40531415,0.91177076,0.022939246,-0.91415834,-0.40470773,0.9975366,-0.005913355,0.069898546,-0.18885472,-0.70658535,0.6819612,0.17946127,-0.70759624,-0.683448,0.9654675,-0.0066867797,0.2604376,10.046265,-0.07537842,0.7190399,9.782493,-0.057990205,0.6854706,-0.0025482178,0.01512146,-0.025558472,-14.6987915,-36.59973,-17.338562,0,0.0,0.0,0.0,0.0
0.53125,-0.06631795,-0.40622255,0.91136444,0.023228213,-0.9137562,-0.40559837,0.99752814,-0.005729085,0.070034266,-0.1874973,-0.7013678,0.6876975,0.17545247,-0.7127683,-0.6791007,0.9664684,-0.0066713113,0.25669885,10.0785675,-0.07896423,0.7298126,9.78241,-0.056183133,0.68680155,-0.009262085,0.0029144287,-0.025390625,-14.4592285,-36.538696,-17.338562,0,0.0,0.0,0.0,0.0
0.539550781,-0.0663286,-0.4062188,0.9113654,0.023390561,-0.9137588,-0.40558326,0.99752367,-0.0055844216,0.07011002,-0.18470933,-0.6911641,0.69869494,0.16776778,-0.7226674,-0.67052644,0.96836793,-0.0066339993,0.24943848,10.0785675,-0.08494568,0.76330566,9.782366,-0.05476447,0.68754447,-0.012161255,-0.0076293945,-0.020050049,-14.4592285,-36.538696,-17.338562,0,0.0,0.0,0.0,0.0
0.547851563,-0.06611724,-0.41345182,0.90812236,0.024039697,-0.91050965,-0.41278848,0.99752223,-0.0054614455,0.07013963,-0.18185115,-0.68123263,0.7091207,0.16049369,-0.73203725,-0.66209,0.97014016,-0.0065924358,0.24245536,10.030716,-0.08494568,0.76330566,9.7823515,-0.053558487,0.68783486,-0.003616333,0.001083374,-0.01928711,-14.15863,-36.479187,-17.63916,0,0.0,0.0,0.0,0.0
0.556152344,-0.06608811,-0.4134619,0.90811986,0.024238326,-0.9105062,-0.41278443,0.9975193,-0.005268837,0.07019525,-0.18037628,-0.6764865,0.7140241,0.15703271,-0.7364257,-0.65804094,0.9709815,-0.0065698163,0.23906425,10.065414,-0.034698486,0.7692871,9.782323,-0.051669642,0.6883803,0.004638672,-0.00869751,-0.0206604,-14.15863,-36.479187,-17.63916,0,0.0,0.0,0.0,0.0
0.564453125,-0.06591093,-0.41352332,0.90810466,0.024415236,-0.9104795,-0.41283268,0.99752676,-0.0050385986,0.070106834,-0.1773991,-0.667197,0.7234486,0.15039292,-0.74485284,-0.65005875,0.9725799,-0.006518298,0.23247792,10.043869,-0.010772705,0.7082825,9.782396,-0.049411774,0.6875132,0.0037231445,-0.021530151,-0.022033691,-14.15863,-36.479187,-17.63916,0,0.0,0.0,0.0,0.0
0.572753906,-0.065659195,-0.41378024,0.9080059,0.024524845,-0.91036385,-0.41308135,0.9975407,-0.0048538847,0.06992166,-0.17439377,-0.65817827,0.7323853,0.14410867,-0.75283444,-0.6422406,0.97407365,-0.0064597027,0.22613882,10.0247345,-0.037094116,0.69392395,9.782533,-0.04760035,0.68569726,0.011505127,-0.020462036,-0.015930176,-14.639282,-36.779785,-17.819214,0,0.0,0.0,0.0,0.0
0.581054688,-0.06523262,-0.42119056,0.9046232,0.025038498,-0.9069595,-0.4204728,0.99755585,-0.004778134,0.06970932,-0.1728823,-0.65377367,0.7366761,0.14109375,-0.7566628,-0.6383995,0.9747842,-0.006427586,0.22305699,10.013962,-0.1040802,0.67118835,9.782681,-0.04685749,0.68361497,0.010437012,-0.015563965,-0.020965576,-14.579773,-36.65924,-18.119812,0,0.0,0.0,0.0,0.0
0.589355469,-0.06501372,-0.42126772,0.9046032,0.025081512,-0.9069245,-0.4205461,0.9975691,-0.0046524545,0.06952856,-0.16980954,-0.64541006,0.74472183,0.13535614,-0.76380974,-0.63108903,0.976137,-0.0063622687,0.2170624,9.992432,-0.08255005,0.6544342,9.782811,-0.045624994,0.6818422,0.020523071,-0.010223389,-0.022949219,-14.579773,-36.65924,-18.119812,0,0.0,0.0,0.0,0.0
0.59765625,-0.06490531,-0.41969815,0.9053401,0.025044769,-0.9076524,-0.4189746,0.9975771,-0.004519645,0.069422714,-0.16674474,-0.6373068,0.7523538,0.12992117,-0.77058446,-0.6239552,0.97740304,-0.0062945606,0.21129054,9.992432,-0.08255005,0.6544342,9.782889,-0.04432258,0.68080425,0.015777588,0.0047454834,-0.019439697,-14.399719,-36.59973,-17.999268,0,0.0,0.0,0.0,0.0
0.605957031,-0.06482538,-0.4197261,0.9053329,0.02513559,-0.90764016,-0.41899595,0.99758,-0.004405493,0.06938817,-0.1652227,-0.63332385,0.7560439,0.1273071,-0.7738615,-0.62042826,0.9780053,-0.0062590623,0.20848612,9.949356,-0.11843872,0.64845276,9.782918,-0.04320313,0.6804655,0.013031006,0.007949829,-0.017456055,-14.399719,-36.59973,-17.999268,0,0.0,0.0,0.0,0.0
0.614257813,-0.06481866,-0.41972843,0.90533227,0.02519472,-0.90763927,-0.41899416,0.997579,-0.0043490455,0.069406904,-0.16219741,-0.6255482,0.76313925,0.12228963,-0.780161,-0.6135096,0.9791513,-0.0061856615,0.20303814,9.950546,-0.14356995,0.6903229,9.7829075,-0.042649563,0.6806492,0.011657715,0.014511108,-0.018829346,-14.399719,-36.59973,-17.999268,0,0.0,0.0,0.0,0.0
0.622558594,-0.06471177,-0.42378926,0.9034462,0.025594585,-0.9057508,-0.42303702,0.9975757,-0.004252148,0.06945945,-0.15920758,-0.6180219,0.76987135,0.11753895,-0.78613716,-0.6067726,0.98022324,-0.0061129313,0.19780065,10.001999,-0.06939697,0.64367676,9.782876,-0.041699328,0.68116456,0.012420654,0.007797241,-0.008132935,-13.919067,-36.11908,-17.939758,0,0.0,0.0,0.0,0.0
0.630859375,-0.064716734,-0.42348334,0.9035893,0.025626037,-0.9058941,-0.42272812,0.9975745,-0.0042021708,0.069478706,-0.15771763,-0.61442125,0.77305347,0.11527455,-0.78895473,-0.6035414,0.98073286,-0.006075716,0.1952592,10.074982,-0.0657959,0.61016846,9.782865,-0.04120922,0.6813534,0.005859375,-0.0010681152,-0.006164551,-13.739014,-36.17859,-17.939758,0,0.0,0.0,0.0,0.0
0.639160156,-0.06457439,-0.42353126,0.90357697,0.025619997,-0.9058719,-0.42277604,0.997584,-0.004150865,0.069347,-0.15477492,-0.60738736,0.7791825,0.11092457,-0.79438317,-0.5972028,0.98170286,-0.006001524,0.19032477,10.054642,-0.11366272,0.69511414,9.782957,-0.040706083,0.6800618,0.001739502,-0.01373291,-0.015319824,-13.739014,-36.17859,-17.939758,0,0.0,0.0,0.0,0.0
0.647460938,-0.06449339,-0.42282212,0.90391487,0.025557324,-0.9062033,-0.4220691,0.9975908,-0.0041190204,0.06925032,-0.15187882,-0.60058826,0.785001,0.10680123,-0.79953647,-0.5910456,0.98261195,-0.0059282384,0.18557622,10.054642,-0.11366272,0.69511414,9.783024,-0.040393792,0.6791137,-0.006515503,-0.016479492,-0.016540527,-13.739014,-35.998535,-17.819214,0,0.0,0.0,0.0,0.0
0.655761719,-0.06439977,-0.4228538,0.9039067,0.025528321,-0.90618855,-0.42210248,0.9975976,-0.004108086,0.06915309,-0.15045124,-0.59726214,0.7878086,0.1048181,-0.8020245,-0.58802205,0.9830451,-0.0058920546,0.18326946,10.009171,-0.13998413,0.7082825,9.783091,-0.040286567,0.6781602,-0.0016174316,-0.0050354004,-0.015319824,-13.739014,-35.998535,-17.819214,0,0.0,0.0,0.0,0.0
0.6640625,-0.064341635,-0.42287353,0.9039017,0.02550122,-0.9061795,-0.4221239,0.99760205,-0.004109545,0.06908885,-0.147636,-0.59078014,0.7932102,0.10100611,-0.80681163,-0.58211064,0.9838706,-0.005821409,0.17878684,9.962524,-0.12921143,0.64845276,9.783134,-0.040300872,0.67753017,-0.0034637451,0.024139404,-0.01638794,-13.739014,-35.998535,-17.819214,0,0.0,0.0,0.0,0.0
0.672363281,-0.06445283,-0.42250642,0.9040653,0.025534587,-0.90635055,-0.421754,0.997594,-0.0040983045,0.06920539,-0.14624971,-0.5876226,0.7958082,0.099174514,-0.80911446,-0.5792221,0.9842639,-0.0057871724,0.17660993,9.9673,-0.10887146,0.65922546,9.783055,-0.040190637,0.678673,-0.006668091,0.029785156,-0.011047363,-13.619995,-36.17859,-17.878723,0,0.0,0.0,0.0,0.0
0.680664063,-0.06479925,-0.41286722,0.90848315,0.024854828,-0.91078186,-0.41213906,0.99758875,-0.0041261106,0.06927973,-0.14352828,-0.5814568,0.8008169,0.09565514,-0.8135572,-0.5735632,0.9850126,-0.005720293,0.17238781,10.012772,-0.11126709,0.5766754,9.783004,-0.040463325,0.67940205,-0.0060577393,0.028717041,-0.0024871826,-14.039612,-36.479187,-17.57965,0,0.0,0.0,0.0,0.0
0.688964844,-0.06481011,-0.4128635,0.90848416,0.02476778,-0.91078323,-0.4121414,0.9975902,-0.004209797,0.069253676,-0.14091168,-0.57516,0.8058132,0.09225971,-0.8180214,-0.56774044,0.985714,-0.0056571634,0.16833287,10.043869,-0.117248535,0.501297,9.783018,-0.041284006,0.6791466,-0.0068206787,0.030090332,-5.0354004E-4,-14.039612,-36.479187,-17.57965,0,0.0,0.0,0.0,0.0
0.697265625,-0.06476352,-0.41287953,0.90848017,0.024724288,-0.91077584,-0.4121603,0.9975943,-0.0042314283,0.0691932,-0.13962649,-0.5720931,0.8082166,0.09062721,-0.8201694,-0.5648973,0.9860483,-0.0056282165,0.16636457,10.041473,-0.06700134,0.47018433,9.783058,-0.04149614,0.6785535,-0.0068206787,0.03314209,-0.0043182373,-14.039612,-36.479187,-17.57965,0,0.0,0.0,0.0,0.0
0.705566406,-0.06481343,-0.41326073,0.90830326,0.024745882,-0.91060275,-0.41254118,0.9975905,-0.004261443,0.069245785,-0.1371001,-0.56612,0.8128417,0.08748764,-0.824304,-0.5593468,0.98668605,-0.0055729044,0.16254064,10.041473,-0.08375549,0.5623169,9.783022,-0.041790485,0.6790693,-0.033691406,0.017868042,-0.007080078,-13.679504,-36.358643,-17.518616,0,0.0,0.0,0.0,0.0
0.713867188,-0.06480109,-0.41326487,0.90830225,0.024705129,-0.9106007,-0.4125481,0.99759233,-0.004293843,0.06921768,-0.13463691,-0.56036925,0.8172265,0.08451286,-0.8282245,-0.55398715,0.98728436,-0.005520971,0.158868,10.041473,-0.08375549,0.5623169,9.783039,-0.04210822,0.6787936,-0.047592163,0.010238647,-0.003250122,-13.679504,-36.358643,-17.518616,0,0.0,0.0,0.0,0.0
0.722167969,-0.06492499,-0.41026452,0.9096526,0.024410982,-0.91195613,-0.40956113,0.99759156,-0.0043852394,0.069223695,-0.13342893,-0.55757004,0.81933653,0.08308263,-0.83011174,-0.55137265,0.98756975,-0.005496429,0.15708531,10.055832,-0.122039795,0.6544342,9.783031,-0.04300451,0.67885256,-0.047592163,-6.1035156E-4,-0.0076904297,-13.798523,-36.65924,-17.518616,0,0.0,0.0,0.0,0.0
0.73046875,-0.06493899,-0.40840358,0.91048867,0.024261814,-0.9127911,-0.4077059,0.9975943,-0.0043859035,0.06918433,-0.13107328,-0.55201167,0.82347006,0.080312856,-0.83381855,-0.5461652,0.98811424,-0.0054524257,0.15362497,10.030716,-0.06939697,0.66760254,9.783058,-0.04301102,0.67846656,-0.041641235,-0.003967285,-0.012268066,-13.679504,-36.479187,-17.338562,0,0.0,0.0,0.0,0.0
0.738769531,-0.06499869,-0.40838346,0.9104933,0.024348352,-0.9128002,-0.40767998,0.9975883,-0.0043296493,0.06927428,-0.12878518,-0.5465825,0.827443,0.077673785,-0.83738774,-0.54106236,0.9886259,-0.0054101916,0.15029827,10.00798,-0.0382843,0.78364563,9.782999,-0.042459358,0.6793486,-0.04194641,-0.0062561035,-0.0076904297,-13.679504,-36.479187,-17.338562,0,0.0,0.0,0.0,0.0
0.747070313,-0.06516216,-0.40832826,0.91050637,0.024460118,-0.91282505,-0.40761757,0.99757487,-0.004290147,0.069469415,-0.12766543,-0.54394025,0.8293554,0.07640718,-0.83910656,-0.53857404,0.9888698,-0.0053885807,0.14868586,10.02713,-0.050247192,0.87457275,9.782868,-0.042071976,0.6812623,-0.036590576,-0.008850098,-0.009521484,-13.679504,-36.479187,-17.338562,0,0.0,0.0,0.0,0.0
0.755371094,-0.06535729,-0.40631688,0.91139174,0.024381883,-0.9137221,-0.40560734,0.997564,-0.004287948,0.06962518,-0.12547837,-0.5387962,0.833039,0.073976465,-0.8424192,-0.5337203,0.98933446,-0.005345083,0.14556362,10.02713,-0.050247192,0.87457275,9.782762,-0.042050406,0.68278974,-0.016433716,-0.0016784668,-0.011199951,-13.978577,-36.779785,-17.399597,0,0.0,0.0,0.0,0.0
0.763671875,-0.06551575,-0.40626273,0.91140455,0.02447367,-0.91374636,-0.40554732,0.9975514,-0.004264323,0.06980752,-0.12336464,-0.53376293,0.8365873,0.07166182,-0.84561753,-0.52895707,0.98977053,-0.005303221,0.14256972,10.074982,-0.059814453,0.8279114,9.782638,-0.041818727,0.68457794,-0.0034637451,0.009170532,-0.009216309,-13.978577,-36.779785,-17.399597,0,0.0,0.0,0.0,0.0
0.771972656,-0.065723225,-0.40550473,0.9117271,0.024564564,-0.9140832,-0.40478188,0.99753547,-0.0042073927,0.07003755,-0.12233354,-0.5313136,0.8382962,0.07055108,-0.8471588,-0.52663517,0.9899783,-0.005282443,0.14112069,10.074982,-0.059814453,0.8279114,9.782482,-0.041260432,0.6868338,0.004333496,0.022155762,-0.007522583,-14.15863,-36.95984,-17.459106,0,0.0,0.0,0.0,0.0
0.780273438,-0.065800816,-0.40776634,0.91071224,0.02483776,-0.9130768,-0.40703046,0.9975236,-0.0041628815,0.0702092,-0.12032539,-0.5265206,0.8416044,0.068416886,-0.85014623,-0.52208287,0.99037415,-0.005239872,0.13831708,10.073776,-0.06700134,0.73579407,9.782365,-0.04082392,0.68851703,0.021133423,0.00932312,-0.015472412,-13.978577,-37.139893,-17.63916,0,0.0,0.0,0.0,0.0
0.788574219,-0.06585587,-0.40774772,0.91071665,0.024908235,-0.91308534,-0.40700707,0.99751824,-0.0041194577,0.0702883,-0.11837523,-0.5219852,0.84470046,0.06640686,-0.8529387,-0.5177698,0.99074584,-0.0051972233,0.1356302,10.059433,-0.0993042,0.6879425,9.782312,-0.04039808,0.6892928,0.020523071,0.0076446533,-0.02355957,-13.978577,-37.139893,-17.63916,0,0.0,0.0,0.0,0.0
0.796875,-0.065839574,-0.4077532,0.9107153,0.024991391,-0.9130832,-0.40700665,0.9975172,-0.004037102,0.07030734,-0.117423475,-0.5197797,0.8461919,0.065441474,-0.85428464,-0.5156696,0.99092335,-0.005175668,0.13432822,10.003189,-0.107681274,0.67237854,9.782302,-0.03959045,0.6894794,0.015319824,0.0042877197,-0.020507813,-13.978577,-37.139893,-17.63916,0,0.0,0.0,0.0,0.0
0.805175781,-0.065953225,-0.40670866,0.9111742,0.024996947,-0.91354924,-0.40595946,0.9975096,-0.0039977604,0.070417985,-0.115563035,-0.5154902,0.84906715,0.063586324,-0.8568801,-0.51157916,0.9912628,-0.0051305816,0.13180178,9.933807,-0.14237976,0.7286072,9.7822275,-0.03920464,0.6905646,0.007232666,0.019561768,-0.01928711,-14.219666,-37.078857,-17.57965,0,0.0,0.0,0.0,0.0
0.813476563,-0.06610338,-0.40665683,0.9111864,0.025093272,-0.91357243,-0.40590128,0.9974972,-0.003966798,0.07059457,-0.11465762,-0.5133853,0.8504641,0.06269282,-0.85814303,-0.5095686,0.99142486,-0.005107925,0.1305782,9.933807,-0.14237976,0.7286072,9.782106,-0.038901,0.69229627,0.0037231445,0.024902344,-0.022491455,-14.219666,-37.078857,-17.57965,0,0.0,0.0,0.0,0.0
0.821777344,-0.06589654,-0.42027217,0.9050022,0.02621867,-0.90738964,-0.4194718,0.99748194,-0.0039137905,0.07081282,-0.11289533,-0.5092901,0.8531578,0.060976997,-0.86058,-0.5056519,0.9917341,-0.005062737,0.12821046,9.94577,-0.12322998,0.7082825,9.781957,-0.038381174,0.69443655,0.004180908,0.03527832,-0.015472412,-14.279175,-36.779785,-18.119812,0,0.0,0.0,0.0,0.0
0.830078125,-0.06632904,-0.41558194,0.90713406,0.026080742,-0.90954757,-0.41478065,0.99745685,-0.0038532706,0.071168095,-0.11116051,-0.5058574,0.8554248,0.059418034,-0.86260253,-0.5023807,0.99202466,-0.005017238,0.12594439,9.952942,-0.100494385,0.77049255,9.781711,-0.037787676,0.6979206,0.009521484,0.036499023,-0.012878418,-14.219666,-37.01935,-17.999268,0,0.0,0.0,0.0,0.0
0.838378906,-0.06666633,-0.4154661,0.90716225,0.026262395,-0.90960056,-0.4146528,0.9974296,-0.0038191283,0.071550876,-0.11032657,-0.5041003,0.8565693,0.0586603,-0.86363065,-0.5007005,0.9921628,-0.004993959,0.12485208,9.952942,-0.100494385,0.77049255,9.781444,-0.037452854,0.7016744,0.009521484,0.037872314,-0.012878418,-14.219666,-37.01935,-17.999268,0,0.0,0.0,0.0,0.0
0.846679688,-0.06686537,-0.41539776,0.907179,0.026460113,-0.90963227,-0.4145708,0.9974111,-0.0037163757,0.07181437,-0.108713225,-0.50068027,0.8587786,0.057208374,-0.86561817,-0.4974258,0.9924257,-0.0049474365,0.12274726,10.074982,-0.025131226,0.7238312,9.781261,-0.036445197,0.70425844,0.0107421875,0.019256592,-0.0056915283,-14.219666,-37.01935,-17.999268,0,0.0,0.0,0.0,0.0
0.854980469,-0.06731569,-0.40580717,0.9114763,0.02583302,-0.91395116,-0.40500113,0.99739724,-0.0037167454,0.07200648,-0.10716124,-0.4973861,0.8608853,0.05583499,-0.8675155,-0.4942665,0.9926726,-0.0048986864,0.120735586,10.10968,-0.08015442,0.7573242,9.781126,-0.03644882,0.70614237,0.014862061,0.0016937256,-0.007080078,-14.039612,-37.01935,-17.518616,0,0.0,0.0,0.0,0.0
0.86328125,-0.06738145,-0.40578473,0.91148156,0.025868408,-0.91396123,-0.40497634,0.9973919,-0.003709315,0.07208103,-0.10642009,-0.49560264,0.86200505,0.055152804,-0.8685357,-0.49254838,0.99279046,-0.0048750476,0.11976353,10.10968,-0.08015442,0.7573242,9.781074,-0.036375955,0.7068734,0.022201538,-0.0045776367,-0.008300781,-14.039612,-37.01935,-17.518616,0,0.0,0.0,0.0,0.0
0.871582031,-0.067214765,-0.41233775,0.9085482,0.026364509,-0.9110235,-0.41151074,0.99739015,-0.003706167,0.07210531,-0.10497731,-0.49213544,0.8641658,0.053839874,-0.8705052,-0.48920536,0.99301606,-0.0048288847,0.1178798,10.08934,-0.105285645,0.7884369,9.781056,-0.036345083,0.7071116,0.020217896,-0.012664795,-0.020050049,-13.978577,-36.71875,-17.69867,0,0.0,0.0,0.0,0.0
0.879882813,-0.06698814,-0.41438112,0.9076347,0.02655103,-0.9100962,-0.41354534,0.99740046,-0.003603999,0.071967915,-0.103568815,-0.48904628,0.86608726,0.052620456,-0.8722447,-0.48623064,0.9932293,-0.0047844253,0.116071194,10.107285,-0.08375549,0.6903229,9.7811575,-0.03534316,0.7057642,0.022201538,-0.012817383,-0.025253296,-13.859558,-36.65924,-17.759705,0,0.0,0.0,0.0,0.0
0.888183594,-0.06679275,-0.4144474,0.9076189,0.026616793,-0.9100666,-0.41360635,0.9974118,-0.0034679987,0.07181711,-0.10287717,-0.48758498,0.8669932,0.052037843,-0.87306255,-0.4848235,0.9933319,-0.0047608167,0.11519108,10.107285,-0.08375549,0.6903229,9.781269,-0.034009453,0.7042853,0.016235352,-0.015106201,-0.02432251,-13.859558,-36.65924,-17.759705,0,0.0,0.0,0.0,0.0
0.896484375,-0.06658157,-0.41451886,0.9076017,0.026705272,-0.91003466,-0.41367093,0.9974235,-0.0033051101,0.07166138,-0.101522334,-0.48474786,0.868742,0.0509164,-0.87464124,-0.4820894,0.99352944,-0.004709622,0.11347724,10.082153,-0.025131226,0.6424713,9.7813835,-0.03241206,0.70275813,0.011962891,-0.012664795,-0.030899048,-13.859558,-36.65924,-17.759705,0,0.0,0.0,0.0,0.0
0.904785156,-0.066341415,-0.41491067,0.90744036,0.026784975,-0.9098567,-0.41405728,0.9974374,-0.0031633808,0.07147455,-0.100206375,-0.48202118,0.8704104,0.04985102,-0.8761472,-0.47945902,0.993717,-0.004654004,0.11182478,10.017548,-0.107681274,0.67237854,9.78152,-0.031022169,0.70092595,0.0026550293,-0.024887085,-0.031967163,-13.499451,-36.419678,-17.63916,0,0.0,0.0,0.0,0.0
0.913085938,-0.06606823,-0.41500145,0.9074187,0.026823392,-0.9098157,-0.41414472,0.9974545,-0.0030217601,0.07124166,-0.09956082,-0.48070452,0.87121224,0.049338855,-0.87687045,-0.4781881,0.9938075,-0.0046241917,0.11101936,10.017548,-0.107681274,0.67237854,9.781688,-0.029633345,0.6986421,-0.0071258545,-0.022445679,-0.028915405,-13.499451,-36.419678,-17.63916,0,0.0,0.0,0.0,0.0
0.921386719,-0.06577272,-0.41596037,0.90700114,0.026929075,-0.90937823,-0.4150977,0.99747115,-0.0028774026,0.0710137,-0.09829339,-0.47814977,0.8727607,0.04835169,-0.8782665,-0.4757206,0.9939822,-0.0045607355,0.109447144,9.937393,-0.032302856,0.6006012,9.781851,-0.02821768,0.6964065,-0.012771606,0.001083374,-0.013793945,-13.679504,-36.299133,-17.63916,0,0.0,0.0,0.0,0.0
0.9296875,-0.06563393,-0.4133323,0.90821177,0.026768902,-0.91057605,-0.41247377,0.99748456,-0.0027604424,0.07082913,-0.097670384,-0.47692773,0.873499,0.04787806,-0.87893087,-0.47454002,0.9940665,-0.004527069,0.10867988,9.937393,-0.032302856,0.6006012,9.781982,-0.027070694,0.6945965,-0.02255249,0.009780884,-0.0038604736,-13.978577,-36.538696,-17.63916,0,0.0,0.0,0.0,0.0
0.937988281,-0.065603666,-0.41334262,0.90820915,0.02674077,-0.9105713,-0.41248608,0.9974874,-0.002774386,0.070789926,-0.09645486,-0.47445306,0.87498045,0.046953697,-0.8802695,-0.47214502,0.99422926,-0.0044571105,0.10718359,9.98764,-0.055038452,0.62094116,9.78201,-0.027207432,0.694212,-0.037963867,0.013900757,-0.001876831,-13.978577,-36.538696,-17.63916,0,0.0,0.0,0.0,0.0
0.946289063,-0.06571283,-0.4133053,0.90821826,0.026714338,-0.91058797,-0.41245082,0.99748087,-0.0028408596,0.0708785,-0.095281966,-0.4720732,0.87639505,0.046071485,-0.8815484,-0.46984017,0.9943836,-0.0043904753,0.10574478,10.025925,-0.07777405,0.71066284,9.781946,-0.027859315,0.69508064,-0.04055786,0.0048980713,-0.011962891,-13.978577,-36.538696,-17.63916,0,0.0,0.0,0.0,0.0
0.954589844,-0.06613166,-0.40168312,0.91338784,0.025887296,-0.9157743,-0.4008583,0.997475,-0.0028642837,0.07096016,-0.09415598,-0.4697829,0.8777464,0.04522965,-0.8827714,-0.46762055,0.99452955,-0.0043291105,0.104366325,9.997208,-0.07298279,0.7908325,9.781889,-0.028089028,0.6958814,-0.038879395,0.027801514,-0.008132935,-14.15863,-36.95984,-17.279053,0,0.0,0.0,0.0,0.0
0.962890625,-0.06638754,-0.4015946,0.91340816,0.025999686,-0.9158131,-0.4007623,0.9974551,-0.0028572972,0.07123991,-0.09362152,-0.46844596,0.87851775,0.04480006,-0.8834817,-0.4663186,0.9945994,-0.0042998143,0.10369931,9.997208,-0.07298279,0.7908325,9.781693,-0.028020514,0.6986249,-0.04576111,0.03604126,-0.011352539,-14.15863,-36.95984,-17.279053,0,0.0,0.0,0.0,0.0
0.971191406,-0.066779435,-0.40250647,0.91297805,0.026346842,-0.9154129,-0.4016528,0.99741983,-0.0027680588,0.07173554,-0.09259101,-0.46584538,0.8800085,0.04397637,-0.8848559,-0.46378443,0.9947326,-0.0042426907,0.1024159,10.060623,0.008377075,0.9068756,9.781347,-0.027145384,0.7034853,-0.03765869,0.016647339,-0.0012664795,-14.099121,-36.71875,-17.219543,0,0.0,0.0,0.0,0.0
0.979492188,-0.067108124,-0.40239254,0.9130042,0.0265502,-0.9154632,-0.40152478,0.9973924,-0.0027051272,0.07211862,-0.09209669,-0.4646003,0.88071835,0.043587144,-0.8855105,-0.46257037,0.9947956,-0.0042131976,0.10180318,10.060623,0.008377075,0.9068756,9.781078,-0.026528237,0.7072421,-0.029876709,-0.0065612793,-0.0043182373,-14.099121,-36.71875,-17.219543,0,0.0,0.0,0.0,0.0
0.987792969,-0.06682997,-0.41338307,0.9081014,0.027481133,-0.9105534,-0.41247687,0.99738586,-0.0026101624,0.0722125,-0.091147125,-0.4621771,0.88209105,0.042844724,-0.8867779,-0.46020567,0.99491537,-0.004153478,0.100629106,10.077377,0.035888672,0.86260986,9.781014,-0.02559695,0.7081627,-0.009109497,-0.036026,-0.0043182373,-14.039612,-36.479187,-17.63916,0,0.0,0.0,0.0,0.0
0.99609375,-0.06673056,-0.41341734,0.90809315,0.027465673,-0.910538,-0.4125121,0.99739295,-0.0025857782,0.0721155,-0.09021343,-0.46026975,0.8831836,0.04218492,-0.88776976,-0.45835075,0.9950287,-0.004092363,0.09950519,10.047455,-0.020339966,0.83151245,9.781084,-0.025357824,0.7072115,-0.0025482178,-0.027328491,0.0016326904,-14.039612,-36.479187,-17.63916,0,0.0,0.0,0.0,0.0
1.004394531,-0.066657595,-0.41298166,0.90829664,0.027413521,-0.91073567,-0.41207883,0.9973993,-0.0025685763,0.07202874,-0.08975771,-0.4593446,0.8837115,0.041866038,-0.88824886,-0.45745072,0.99508333,-0.0040622316,0.09895813,10.047455,-0.020339966,0.83151245,9.781146,-0.02518913,0.7063607,0.004638672,-0.019851685,-8.087158E-4,-13.978577,-36.538696,-17.63916,0,0.0,0.0,0.0,0.0
1.012695313,-0.06650382,-0.4130344,0.90828407,0.027344057,-0.9107119,-0.41213632,0.99741143,-0.0025724703,0.07185985,-0.088869065,-0.45753115,0.8847415,0.041247386,-0.8891846,-0.45568568,0.99518895,-0.0040030833,0.09789297,9.98645,-0.049057007,0.7405853,9.781264,-0.025227316,0.70470434,-0.003616333,-0.02961731,-0.011352539,-13.978577,-36.538696,-17.63916,0,0.0,0.0,0.0,0.0
1.020996094,-0.06637501,-0.4090138,0.910111,0.0269849,-0.91252476,-0.40813056,0.99742985,-0.0025304153,0.07160604,-0.0880075,-0.45578966,0.8857259,0.040653776,-0.8900787,-0.45399013,0.99528986,-0.0039464314,0.09686317,10.001999,-0.025131226,0.55274963,9.7814455,-0.024814898,0.7022154,0.0069274902,-0.028549194,-0.019439697,-13.859558,-36.59973,-17.459106,0,0.0,0.0,0.0,0.0
1.029296875,-0.06589531,-0.4091771,0.9100725,0.026932906,-0.91245186,-0.40829676,0.997463,-0.002393947,0.07114663,-0.08758752,-0.45486572,0.8862424,0.040357813,-0.8905514,-0.45308876,0.995339,-0.0039181113,0.096358575,10.001999,-0.025131226,0.55274963,9.781771,-0.0234766,0.6977101,-0.0043792725,-0.026107788,-0.020507813,-13.859558,-36.59973,-17.459106,0,0.0,0.0,0.0,0.0
1.037597656,-0.06543412,-0.41176125,0.9089395,0.027044786,-0.9112888,-0.4108786,0.99749035,-0.0023034068,0.07076538,-0.08675216,-0.4530782,0.8872397,0.039783355,-0.89146245,-0.4513447,0.9954353,-0.0038577546,0.09536126,9.980469,-0.08734131,0.5694885,9.782039,-0.022588706,0.6939714,-0.0059051514,-0.010528564,-0.023254395,-14.639282,-37.139893,-17.878723,0,0.0,0.0,0.0,0.0
1.045898438,-0.065116294,-0.41187316,0.9089117,0.027050225,-0.9112386,-0.41098964,0.9975109,-0.002175858,0.07047774,-0.08592854,-0.4514595,0.8881445,0.03924092,-0.89228356,-0.44976684,0.9955282,-0.0037962026,0.094388306,9.954147,-0.029907227,0.5670929,9.782241,-0.021337878,0.69115055,-0.010940552,0.0045928955,-0.018676758,-14.639282,-37.139893,-17.878723,0,0.0,0.0,0.0,0.0
1.054199219,-0.06488233,-0.41201234,0.90886533,0.027113037,-0.91117597,-0.41112426,0.99752444,-0.0020326027,0.070290126,-0.08552196,-0.45067608,0.88858145,0.03897878,-0.89267963,-0.44900304,0.9955735,-0.0037637958,0.093910515,9.954147,-0.029907227,0.5670929,9.782373,-0.019933023,0.68931067,-0.00819397,0.0129852295,-0.013946533,-14.6987915,-37.25891,-17.939758,0,0.0,0.0,0.0,0.0
1.0625,-0.06491313,-0.41200152,0.90886796,0.02717793,-0.911181,-0.41110894,0.99752074,-0.0019852181,0.07034496,-0.0847226,-0.4491606,0.889425,0.038474567,-0.89344335,-0.447525,0.99566144,-0.0036952407,0.09297611,10.013962,-0.071777344,0.69392395,9.782337,-0.01946834,0.6898484,-0.0031585693,0.006881714,-0.01638794,-14.6987915,-37.25891,-17.939758,0,0.0,0.0,0.0,0.0
1.070800781,-0.0647717,-0.41734013,0.906439,0.027631713,-0.9087482,-0.41642886,0.99751747,-0.0019263384,0.070392996,-0.08395448,-0.44770333,0.89023226,0.037995487,-0.8941749,-0.44610286,0.99574494,-0.0036275242,0.09208069,10.100098,-0.06341553,0.707077,9.782305,-0.018890927,0.6903195,0.018692017,-0.005493164,-0.019592285,-14.579773,-36.95984,-18.058777,0,0.0,0.0,0.0,0.0
1.079101563,-0.06471261,-0.41736084,0.90643376,0.027705569,-0.90873903,-0.41644433,0.9975193,-0.0018359296,0.070370086,-0.083577305,-0.447101,0.89057034,0.037775338,-0.89447623,-0.44551685,0.99578506,-0.0035935007,0.09164731,10.100098,-0.06341553,0.707077,9.782323,-0.018004319,0.6900948,0.03227234,-0.012054443,-0.018829346,-14.579773,-36.95984,-18.058777,0,0.0,0.0,0.0,0.0
1.087402344,-0.064395666,-0.42274103,0.9039598,0.02814945,-0.906249,-0.42180628,0.99752736,-0.0017165265,0.07025843,-0.08284222,-0.4459325,0.8912246,0.037352506,-0.89505965,-0.44437936,0.9958624,-0.003523901,0.090805426,10.066605,-0.062210083,0.69750977,9.782402,-0.016833374,0.6889999,0.039001465,-0.012054443,-0.019439697,-14.6987915,-37.01935,-18.359375,0,0.0,0.0,0.0,0.0
1.095703125,-0.064257264,-0.42278957,0.9039469,0.028201144,-0.9062264,-0.42185104,0.99753475,-0.0016146622,0.070154786,-0.08212061,-0.4450197,0.8917476,0.03696981,-0.89551413,-0.44349486,0.99593645,-0.0034523292,0.089992456,10.018753,-0.088531494,0.68196106,9.7824745,-0.015834428,0.68798345,0.04373169,-0.010070801,-0.013031006,-14.6987915,-37.01935,-18.359375,0,0.0,0.0,0.0,0.0
1.104003906,-0.064057335,-0.4254111,0.90273035,0.028377824,-0.90499884,-0.42446643,0.9975426,-0.0015726659,0.07004405,-0.08176754,-0.44457752,0.89200044,0.03678569,-0.89573383,-0.44306618,0.9959723,-0.0034155757,0.08959604,10.018753,-0.088531494,0.68196106,9.782552,-0.0154225845,0.6868975,0.046936035,-0.0010681152,-0.009216309,-14.579773,-37.01935,-18.47992,0,0.0,0.0,0.0,0.0
1.112304688,-0.063901566,-0.42546526,0.90271586,0.028370166,-0.9049735,-0.42452103,0.9975529,-0.0015173617,0.069899745,-0.08107296,-0.44382232,0.89243984,0.03643824,-0.89610857,-0.4423366,0.99604183,-0.0033425968,0.08882227,10.018753,-0.055038452,0.6197357,9.782652,-0.014880236,0.6854823,0.046325684,0.006576538,-0.0027923584,-14.579773,-37.01935,-18.47992,0,0.0,0.0,0.0,0.0
1.120605469,-0.063951015,-0.41846612,0.90597814,0.027785974,-0.90823114,-0.41754544,0.99756616,-0.001528967,0.069709785,-0.080399275,-0.44309884,0.89286023,0.036105335,-0.89646673,-0.44163752,0.9961086,-0.0032703178,0.088073514,10.041473,-0.071777344,0.54437256,9.782783,-0.014994045,0.6836195,0.04449463,0.011154175,0.009567261,-14.579773,-37.25891,-18.23883,0,0.0,0.0,0.0,0.0
1.12890625,-0.063851394,-0.4185007,0.90596914,0.027653642,-0.908215,-0.41758913,0.9975762,-0.0016103021,0.069563866,-0.08007453,-0.44260937,0.89313215,0.035929985,-0.89670867,-0.44116047,0.9961411,-0.003235491,0.08770647,10.041473,-0.071777344,0.54437256,9.782881,-0.01579167,0.6821885,0.025863647,0.008560181,0.0072784424,-14.579773,-37.25891,-18.23883,0,0.0,0.0,0.0,0.0
1.137207031,-0.06395881,-0.41299495,0.90848476,0.027034206,-0.9107316,-0.41211313,0.9975863,-0.0017981002,0.069414295,-0.07944021,-0.44166064,0.8936583,0.03558554,-0.8971766,-0.4402361,0.99620426,-0.0031711336,0.086988635,10.02832,-0.12802124,0.5276184,9.78298,-0.01763334,0.6807217,0.0105896,0.018325806,-0.0026397705,-14.759827,-37.438965,-18.058777,0,0.0,0.0,0.0,0.0
1.145507813,-0.06395341,-0.41299677,0.9084842,0.026923511,-0.9107304,-0.4121226,0.9975896,-0.0018970615,0.069363646,-0.07883682,-0.44053376,0.89426774,0.035227887,-0.89773065,-0.43913403,0.99626493,-0.0031167616,0.0862933,10.077377,-0.050247192,0.59820557,9.783012,-0.018603818,0.680225,0.0035705566,0.021392822,-5.0354004E-4,-14.759827,-37.438965,-18.058777,0,0.0,0.0,0.0,0.0
1.153808594,-0.06413956,-0.40771103,0.91085553,0.026535017,-0.91310894,-0.40685117,0.9975881,-0.0019256894,0.06938503,-0.07854376,-0.43998685,0.8945627,0.035052728,-0.8979989,-0.43859923,0.9962942,-0.0030923677,0.08595495,10.077377,-0.050247192,0.59820557,9.782998,-0.018884564,0.68043476,-0.011245728,0.021392822,-5.0354004E-4,-14.878845,-37.1994,-17.69867,0,0.0,0.0,0.0,0.0
1.162109375,-0.06419399,-0.40769163,0.9108604,0.0265207,-0.9131176,-0.4068328,0.99758494,-0.0019595653,0.06942892,-0.07798388,-0.438719,0.89523417,0.03469541,-0.8986192,-0.43735555,0.9963507,-0.003046167,0.08529934,10.084549,-0.053833008,0.6197357,9.782967,-0.019216772,0.68086517,-0.020095825,0.0042877197,-0.0069122314,-14.878845,-37.1994,-17.69867,0,0.0,0.0,0.0,0.0
1.170410156,-0.064363666,-0.40483153,0.9121232,0.026291057,-0.91438913,-0.40398198,0.9975802,-0.0020210783,0.069496885,-0.07744738,-0.43749976,0.8958771,0.034353215,-0.8992135,-0.43615928,0.99640435,-0.0030031377,0.08467126,10.069,-0.086135864,0.6999054,9.78292,-0.019820007,0.6815316,-0.04133606,-0.005340576,-0.008453369,-14.759827,-36.71875,-17.338562,0,0.0,0.0,0.0,0.0
1.178710938,-0.06436226,-0.40483207,0.912123,0.026236579,-0.91438866,-0.40398628,0.99758166,-0.0020704793,0.06947353,-0.0771907,-0.436852,0.8962153,0.03418243,-0.89952844,-0.43552285,0.99643016,-0.0029834963,0.084367886,10.069,-0.086135864,0.6999054,9.782934,-0.020304468,0.6813026,-0.035827637,-0.004425049,-0.008453369,-14.759827,-36.71875,-17.338562,0,0.0,0.0,0.0,0.0
1.187011719,-0.06428307,-0.4110148,0.90935934,0.02664744,-0.9116261,-0.41015562,0.9975759,-0.0021339625,0.06955462,-0.07669221,-0.43559423,0.8968701,0.03385004,-0.90013826,-0.434287,0.99648005,-0.002947341,0.08377848,10.059433,-0.088531494,0.78604126,9.782878,-0.020927023,0.68209785,-0.051101685,-0.0064086914,0.0042266846,-14.579773,-36.479187,-17.518616,0,0.0,0.0,0.0,0.0
1.1953125,-0.06430501,-0.41100696,0.90936136,0.02663048,-0.9116297,-0.410149,0.9975749,-0.0021579044,0.069567665,-0.076207526,-0.434627,0.89738053,0.03355168,-0.90060586,-0.43333983,0.9965273,-0.0029151312,0.083215415,10.036697,-0.025131226,0.74775696,9.782868,-0.021161815,0.68222576,-0.05567932,-0.00289917,0.0042266846,-14.579773,-36.479187,-17.518616,0,0.0,0.0,0.0,0.0
1.203613281,-0.064425245,-0.4082598,0.9105895,0.026385907,-0.9128631,-0.40741232,0.9975737,-0.0022209126,0.069583744,-0.07597267,-0.43415734,0.8976278,0.033407006,-0.90083236,-0.4328799,0.9965501,-0.002899987,0.08294254,10.036697,-0.025131226,0.74775696,9.782856,-0.021779712,0.6823834,-0.052017212,0.0018463135,0.004837036,-14.759827,-36.479187,-17.399597,0,0.0,0.0,0.0,0.0
1.211914063,-0.06447004,-0.40824363,0.9105936,0.026302293,-0.9128701,-0.407402,0.99757296,-0.0023145254,0.06959052,-0.075522244,-0.43313822,0.89815795,0.033116058,-0.90132296,-0.43187997,0.9965941,-0.0028730957,0.08241377,10.018753,-0.03111267,0.7034912,9.782849,-0.022697741,0.6824498,-0.05583191,0.0074920654,0.0098724365,-14.759827,-36.479187,-17.399597,0,0.0,0.0,0.0,0.0
1.220214844,-0.06464753,-0.40611428,0.91153276,0.026065785,-0.9138191,-0.4052843,0.99756765,-0.0024408086,0.069661826,-0.07509091,-0.43215853,0.8986659,0.03283435,-0.9017932,-0.4309188,0.996636,-0.002850976,0.08190611,9.970886,-0.033493042,0.7154541,9.782797,-0.023936156,0.68314916,-0.06576538,0.0035247803,0.01109314,-14.279175,-36.239624,-17.158508,0,0.0,0.0,0.0,0.0
1.228515625,-0.064769894,-0.4060711,0.9115433,0.025967099,-0.9138379,-0.40524817,0.9975623,-0.002577746,0.069733664,-0.074885465,-0.43164092,0.89893174,0.03269293,-0.902041,-0.43041044,0.99665606,-0.002842773,0.08166137,9.970886,-0.033493042,0.7154541,9.782744,-0.025279054,0.6838536,-0.05796814,0.0012207031,0.0084991455,-14.279175,-36.239624,-17.158508,0,0.0,0.0,0.0,0.0
1.236816406,-0.06490682,-0.40323654,0.91279095,0.025582641,-0.9150916,-0.40243372,0.99756336,-0.00276909,0.06971154,-0.07449129,-0.4306344,0.89944714,0.032415386,-0.9025221,-0.42942202,0.9966947,-0.0028322781,0.08118921,10.004395,-0.08255005,0.68673706,9.782755,-0.027155496,0.6836367,-0.04988098,-0.012207031,0.009262085,-14.399719,-36.11908,-16.97998,0,0.0,0.0,0.0,0.0
1.245117188,-0.06489903,-0.40323934,0.91279036,0.025384419,-0.91508985,-0.40245035,0.9975689,-0.0029479829,0.06962443,-0.07411872,-0.4295565,0.8999931,0.032133453,-0.9030355,-0.42836228,0.9967316,-0.002829776,0.080734976,10.061813,-0.09451294,0.653244,9.782809,-0.028909838,0.6827824,-0.052017212,-0.026260376,0.009262085,-14.399719,-36.11908,-16.97998,0,0.0,0.0,0.0,0.0
1.253417969,-0.064671375,-0.40695816,0.9111545,0.025387203,-0.9134413,-0.4061776,0.99758357,-0.0031363957,0.069405034,-0.073937744,-0.4290337,0.9002574,0.031993087,-0.9032841,-0.4278485,0.9967495,-0.00283214,0.080512896,10.061813,-0.09451294,0.653244,9.782953,-0.030757535,0.6806309,-0.0572052,-0.0309906,7.171631E-4,-14.4592285,-36.11908,-17.158508,0,0.0,0.0,0.0,0.0
1.26171875,-0.06452494,-0.40701059,0.9111416,0.025110573,-0.9134174,-0.40624893,0.99760014,-0.0033338997,0.069158465,-0.07357636,-0.42816427,0.9007008,0.03172274,-0.9036965,-0.42699698,0.9967849,-0.0028441888,0.08007324,10.005585,-0.1268158,0.68315125,9.783115,-0.03269439,0.6782129,-0.0572052,-0.032058716,-0.0011138916,-14.4592285,-36.11908,-17.158508,0,0.0,0.0,0.0,0.0
1.270019531,-0.06434208,-0.40707606,0.9111252,0.024855219,-0.9133875,-0.4063316,0.9976183,-0.0034980066,0.06888723,-0.07339813,-0.42774343,0.9009152,0.031586286,-0.90389574,-0.42658514,0.9968024,-0.0028539828,0.07985508,9.978073,-0.13639832,0.67237854,9.783294,-0.03430373,0.6755529,-0.052474976,-0.031143188,0.0010223389,-14.4592285,-36.11908,-17.158508,0,0.0,0.0,0.0,0.0
1.278320313,-0.06409816,-0.4073101,0.91103786,0.024594994,-0.9132827,-0.40658328,0.9976405,-0.0036542674,0.06855752,-0.0730449,-0.426929,0.9013302,0.031311754,-0.90428054,-0.42578897,0.99683696,-0.0028794864,0.079420984,9.961319,-0.13279724,0.63648987,9.783511,-0.035836123,0.67231965,-0.04408264,-0.03312683,-0.0029449463,-14.279175,-35.998535,-17.098999,0,0.0,0.0,0.0,0.0
1.286621094,-0.06366088,-0.41503367,0.9075761,0.024889544,-0.9097982,-0.414304,0.9976612,-0.0037858072,0.06824856,-0.07286855,-0.42653853,0.90152925,0.03117354,-0.9044648,-0.4254077,0.99685425,-0.0028949822,0.079203755,9.938583,-0.1040802,0.6460571,9.783714,-0.037126087,0.66928977,-0.040863037,-0.022598267,-0.005996704,-14.579773,-36.59973,-17.759705,0,0.0,0.0,0.0,0.0
1.294921875,-0.063479796,-0.41509774,0.90755945,0.024739198,-0.90976864,-0.41437778,0.99767643,-0.0038523257,0.06802112,-0.07250692,-0.42608407,0.90177333,0.030920256,-0.9046788,-0.42497078,0.9968885,-0.0029302589,0.07877011,9.938583,-0.1040802,0.63409424,9.783864,-0.03777841,0.6670593,-0.031097412,-0.012664795,-0.009521484,-14.579773,-36.59973,-17.759705,0,0.0,0.0,0.0,0.0
1.303222656,-0.06318654,-0.42166486,0.9045475,0.0250893,-0.9067433,-0.42093587,0.99768627,-0.0039030195,0.067873254,-0.07215218,-0.4256502,0.9020066,0.030671317,-0.9048829,-0.42455408,0.9969219,-0.0029667728,0.07834453,9.98764,-0.11366272,0.63409424,9.78396,-0.038275547,0.66560924,-0.023162842,0.001083374,-0.010131836,-14.579773,-37.1994,-18.359375,0,0.0,0.0,0.0,0.0
1.311523438,-0.063140735,-0.42168078,0.9045433,0.025046442,-0.90673584,-0.42095456,0.99769026,-0.0039237887,0.06781357,-0.07197335,-0.42557058,0.9020585,0.03055892,-0.9049203,-0.4244825,0.9969383,-0.0029854977,0.078135125,10.033112,-0.09451294,0.6017914,9.783999,-0.038479224,0.6650239,-0.018875122,0.008255005,-0.016235352,-14.579773,-37.1994,-18.359375,0,0.0,0.0,0.0,0.0
1.319824219,-0.063118815,-0.42168838,0.9045413,0.025064006,-0.90673244,-0.4209609,0.9976912,-0.0038991242,0.06780107,-0.071624465,-0.42541668,0.90215886,0.030339198,-0.9049925,-0.42434424,0.9969701,-0.003022654,0.0777264,10.003189,-0.12802124,0.58265686,9.784009,-0.03823735,0.66490144,-0.004989624,0.023834229,-0.0121154785,-14.579773,-37.1994,-18.359375,0,0.0,0.0,0.0,0.0
1.328125,-0.06351335,-0.4117152,0.9090966,0.024411406,-0.9113042,-0.41100952,0.9976824,-0.003912261,0.06793053,-0.07128853,-0.4252693,0.902255,0.030129034,-0.9050617,-0.42421168,0.99700063,-0.0030573625,0.07733348,9.960129,-0.124420166,0.62094116,9.783922,-0.038366176,0.66617095,0.0020446777,0.04032898,-0.0105896,-14.93988,-37.438965,-17.999268,0,0.0,0.0,0.0,0.0
1.336425781,-0.063699014,-0.4126908,0.9086411,0.0245543,-0.9108626,-0.41197842,0.997667,-0.0039315764,0.068154395,-0.0711346,-0.4249991,0.9023944,0.03001237,-0.90518856,-0.4239492,0.9970151,-0.0030744602,0.07714545,9.990036,-0.105285645,0.6305084,9.7837715,-0.038555592,0.6683663,0.010894775,0.046585083,-0.011657715,-14.579773,-37.379456,-17.999268,0,0.0,0.0,0.0,0.0
1.344726563,-0.06395953,-0.41260016,0.9086639,0.024678133,-0.9109037,-0.41188014,0.9976473,-0.003919535,0.068443194,-0.07084289,-0.42451316,0.902646,0.029792406,-0.9054164,-0.4234779,0.9970425,-0.003108402,0.07678959,10.016357,-0.10647583,0.71066284,9.783579,-0.038437508,0.6711985,0.022354126,0.044906616,-0.012878418,-14.579773,-37.379456,-17.999268,0,0.0,0.0,0.0,0.0
1.353027344,-0.06442987,-0.40747067,0.9109426,0.024468195,-0.91320986,-0.40675423,0.9976222,-0.0039180014,0.068808064,-0.07057273,-0.4240429,0.90288824,0.029586421,-0.90563667,-0.42302117,0.99706775,-0.0031405229,0.076459154,10.016357,-0.10647583,0.71066284,9.783332,-0.03842247,0.6747766,0.01852417,0.025512695,0.0040740967,-14.6987915,-37.379456,-17.759705,0,0.0,0.0,0.0,0.0
1.361328125,-0.064546175,-0.4074297,0.91095275,0.024450487,-0.9132279,-0.40671483,0.9976151,-0.0039786515,0.06890722,-0.07045153,-0.42371273,0.9030526,0.029481802,-0.9057911,-0.4226976,0.9970794,-0.0031560722,0.07630618,10.043869,-0.09451294,0.61735535,9.783263,-0.039017245,0.67574906,0.015319824,-0.0051879883,0.010955811,-14.6987915,-37.379456,-17.759705,0,0.0,0.0,0.0,0.0
1.369628906,-0.064173564,-0.40756083,0.9109203,0.024166059,-0.9131688,-0.40686435,0.9976461,-0.0040965825,0.06845044,-0.0702207,-0.4230703,0.9033718,0.029278386,-0.9060913,-0.42206803,0.9971017,-0.0031886464,0.07601318,10.069,-0.08375549,0.3672943,9.783566,-0.040173754,0.67126954,0.015014648,-0.03404236,0.0071258545,-14.6987915,-37.379456,-17.759705,0,0.0,0.0,0.0,0.0
1.377929688,-0.063736305,-0.4062306,0.9115451,0.023745371,-0.913761,-0.40555778,0.99768424,-0.0042037796,0.06788584,-0.06998424,-0.42245814,0.90367657,0.029071894,-0.9063767,-0.42146897,0.9971244,-0.0032246003,0.075713746,10.092926,-0.07417297,0.46540833,9.78394,-0.041224997,0.6657327,-0.0028533936,-0.047027588,0.0054473877,-14.6987915,-37.678528,-17.819214,0,0.0,0.0,0.0,0.0
1.386230469,-0.063277766,-0.4143138,0.90793175,0.024121445,-0.9101241,-0.4136331,0.99770445,-0.004273151,0.06758446,-0.069861054,-0.42213485,0.9038372,0.028963158,-0.9065273,-0.42115253,0.9971362,-0.0032441842,0.075557314,10.001999,-0.055038452,0.72262573,9.784139,-0.0419053,0.6627772,-0.020263672,-0.02961731,0.0054473877,-14.759827,-37.319946,-18.058777,0,0.0,0.0,0.0,0.0
1.39453125,-0.06317451,-0.41435006,0.90792245,0.024016723,-0.9101074,-0.41367608,0.9977135,-0.004328462,0.06744691,-0.06960195,-0.42182565,0.9040015,0.0287693,-0.9066709,-0.4208563,0.9971599,-0.0032849314,0.0752417,10.023529,-0.09690857,0.9499512,9.784227,-0.042447712,0.6614283,-0.036743164,0.0071868896,-0.0015716553,-14.759827,-37.319946,-18.058777,0,0.0,0.0,0.0,0.0
1.402832031,-0.06341859,-0.41944632,0.9055622,0.02446224,-0.90776944,-0.41875553,0.99768716,-0.004404804,0.06783005,-0.069348894,-0.4215301,0.9041588,0.028579092,-0.9068083,-0.4205733,0.99718297,-0.0033262554,0.0749331,10.023529,-0.09690857,0.9499512,9.783969,-0.043196373,0.6651856,-0.023925781,0.0116119385,-0.0107421875,-15.119934,-37.739563,-18.539429,0,0.0,0.0,0.0,0.0
1.411132813,-0.06389354,-0.41927797,0.9056068,0.024639092,-0.90784717,-0.41857684,0.99765253,-0.004431027,0.068336196,-0.06923046,-0.42148855,0.9041872,0.028496506,-0.90682757,-0.42053744,0.9971936,-0.0033478264,0.074791044,10.086945,-0.09690857,0.99302673,9.783629,-0.043453533,0.67014915,-0.0031585693,0.008712769,-0.008911133,-15.119934,-37.739563,-18.539429,0,0.0,0.0,0.0,0.0
1.419433594,-0.06410927,-0.41920143,0.90562695,0.024830606,-0.9078828,-0.4184879,0.9976339,-0.004341688,0.06861273,-0.069019474,-0.42140114,0.90424407,0.028343285,-0.90686804,-0.42046052,0.9972126,-0.0033907213,0.07453545,10.074982,-0.029907227,0.87338257,9.783447,-0.04257742,0.6728611,0.0054016113,-0.010681152,-0.0069122314,-15.119934,-37.739563,-18.539429,0,0.0,0.0,0.0,0.0
1.427734375,-0.063961335,-0.4236566,0.90356183,0.025155755,-0.90581256,-0.42293122,0.9976353,-0.0043214653,0.06859439,-0.06892148,-0.4213572,0.904272,0.028272822,-0.9068883,-0.42042148,0.99722135,-0.0034097407,0.07441704,10.037888,-0.086135864,0.7286072,9.783461,-0.042379096,0.67268115,0.0049438477,-0.013885498,-0.012573242,-15.058899,-37.139893,-18.47992,0,0.0,0.0,0.0,0.0
1.436035156,-0.06412525,-0.41388938,0.90806574,0.024480373,-0.9103171,-0.4131868,0.99764156,-0.004265917,0.06850649,-0.0687249,-0.4214484,0.9042445,0.028149959,-0.9068458,-0.42052138,0.9972384,-0.003445845,0.074186645,9.919449,-0.071777344,0.6807556,9.783522,-0.041834358,0.67181915,-0.009567261,-0.0051879883,-0.010894775,-14.878845,-36.65924,-17.759705,0,0.0,0.0,0.0,0.0
1.444335938,-0.06407145,-0.41390878,0.9080608,0.024500161,-0.91030854,-0.41320467,0.99764454,-0.0042269873,0.06846563,-0.06854394,-0.42114955,0.9043975,0.028003208,-0.90698457,-0.42023188,0.997255,-0.0034783198,0.07396183,9.919449,-0.10887146,0.72143555,9.783551,-0.041452587,0.6714184,-0.022857666,-1.373291E-4,-0.007217407,-14.878845,-36.65924,-17.759705,0,0.0,0.0,0.0,0.0
1.452636719,-0.064223684,-0.41385394,0.9080751,0.024448987,-0.9103331,-0.41315386,0.997636,-0.0043327454,0.06858324,-0.068455055,-0.42100507,0.90447146,0.027932473,-0.90705156,-0.42009193,0.9972631,-0.003493293,0.07385198,9.919449,-0.10887146,0.72143555,9.783467,-0.04248972,0.6725719,-0.022857666,-3.0517578E-4,-0.016235352,-14.878845,-36.65924,-17.759705,0,0.0,0.0,0.0,0.0
1.4609375,-0.06424547,-0.4182845,0.9060411,0.024813369,-0.9083056,-0.41757047,0.9976256,-0.004345079,0.06873357,-0.068288565,-0.42072213,0.9046157,0.02779327,-0.90718275,-0.41981792,0.9972784,-0.0035265356,0.07364345,9.920639,-0.15074158,0.78723145,9.783365,-0.042610668,0.6740461,-0.01399231,0.0062713623,-0.023406982,-14.579773,-36.358643,-17.819214,0,0.0,0.0,0.0,0.0
1.469238281,-0.0644238,-0.41822112,0.90605766,0.024939232,-0.908335,-0.41749904,0.997611,-0.004300497,0.06894852,-0.068128794,-0.42062563,0.9046726,0.027674874,-0.90722734,-0.41972932,0.99729264,-0.0035589498,0.07344907,9.920639,-0.15074158,0.78723145,9.783222,-0.04217347,0.676154,0.0011291504,0.02017212,-0.026916504,-14.579773,-36.358643,-17.819214,0,0.0,0.0,0.0,0.0
1.477539063,-0.06458736,-0.41922712,0.90558106,0.025223864,-0.9078717,-0.41848856,0.9975932,-0.0041868193,0.06921157,-0.06805483,-0.4205776,0.9047006,0.027619975,-0.90724957,-0.4196849,0.9972992,-0.0035737806,0.07335906,9.94696,-0.11366272,0.7657013,9.783048,-0.04105867,0.67873365,0.0011291504,0.023376465,-0.026168823,-14.93988,-36.839294,-18.119812,0,0.0,0.0,0.0,0.0
1.485839844,-0.06454533,-0.42469054,0.9030348,0.025848169,-0.9053296,-0.42392224,0.9975799,-0.004020406,0.06941227,-0.06791781,-0.4205241,0.9047357,0.027524967,-0.9072742,-0.41963777,0.9973111,-0.0035980572,0.07319499,10.0247345,-0.0657959,0.6699829,9.782917,-0.039426714,0.68070185,0.025253296,0.03956604,-0.018829346,-15.058899,-37.25891,-18.598938,0,0.0,0.0,0.0,0.0
1.494140625,-0.06460117,-0.42467064,0.9030402,0.026068391,-0.9053398,-0.42388722,0.99757063,-0.003842805,0.06955649,-0.06778393,-0.4206893,0.90466887,0.02745915,-0.90719754,-0.4198078,0.997322,-0.0036147821,0.07304519,10.069,-0.039474487,0.60658264,9.782826,-0.037685044,0.68211615,0.044799805,0.016799927,-0.017456055,-15.058899,-37.25891,-18.598938,0,0.0,0.0,0.0,0.0
1.502441406,-0.06454754,-0.4246898,0.90303504,0.026205689,-0.9053314,-0.4238966,0.99757046,-0.0036968286,0.0695662,-0.06772013,-0.42076913,0.90463656,0.027431605,-0.9071605,-0.4198896,0.99732715,-0.0036193426,0.0729754,10.054642,-0.061019897,0.58384705,9.7828245,-0.036253504,0.68221134,0.051361084,0.005355835,-0.020355225,-15.058899,-37.25891,-18.598938,0,0.0,0.0,0.0,0.0
1.510742188,-0.0642522,-0.42887148,0.90107757,0.026601106,-0.9033586,-0.4280603,0.9975791,-0.003534156,0.069451235,-0.06759421,-0.42092463,0.9045737,0.027383553,-0.90708834,-0.4200486,0.99733704,-0.003622411,0.07284033,10.073776,-0.093322754,0.64486694,9.782909,-0.03465823,0.681084,0.05609131,6.1035156E-4,-0.020202637,-15.058899,-37.1994,-18.778992,0,0.0,0.0,0.0,0.0
1.519042969,-0.06415618,-0.42890567,0.90106833,0.026701318,-0.90334296,-0.42808726,0.9975826,-0.0034047337,0.06940737,-0.0674616,-0.4212399,0.90443677,0.027353683,-0.906942,-0.42036644,0.9973468,-0.003618916,0.07270622,10.065414,-0.107681274,0.7010956,9.782944,-0.033389032,0.6806538,0.04876709,0.0056610107,-0.023254395,-15.058899,-37.1994,-18.778992,0,0.0,0.0,0.0,0.0
1.52734375,-0.06443727,-0.41992718,0.90526736,0.026183967,-0.9075517,-0.41912305,0.99757814,-0.003303659,0.069475524,-0.06739532,-0.42139366,0.90437007,0.02734117,-0.90687054,-0.42052132,0.99735165,-0.0036146324,0.07264023,10.065414,-0.107681274,0.7010956,9.782901,-0.03239783,0.6813222,0.051818848,0.011764526,-0.017608643,-15.299988,-37.61902,-18.539429,0,0.0,0.0,0.0,0.0
1.535644531,-0.06442178,-0.42456567,0.9031023,0.026633969,-0.9053913,-0.42374188,0.99756724,-0.0032450096,0.069634795,-0.067278266,-0.42133576,0.9044058,0.027295176,-0.90689754,-0.42046615,0.9973608,-0.0036023178,0.07251493,10.064209,-0.11605835,0.74417114,9.782793,-0.031822674,0.6828841,0.056869507,0.014511108,-0.014404297,-15.179443,-37.25891,-18.598938,1,0.0,0.0,0.0,0.0
1.543945313,-0.06451299,-0.42453298,0.90311116,0.026770758,-0.9054069,-0.42369983,0.9975577,-0.003157173,0.06977558,-0.06716518,-0.4214638,0.9043545,0.027269436,-0.9068381,-0.42059597,0.9973691,-0.0035881682,0.072401024,10.10968,-0.07537842,0.7190399,9.7827,-0.030961292,0.6842647,0.07273865,0.014205933,-0.0121154785,-15.179443,-37.25891,-18.598938,1,0.0,0.0,0.0,0.0
1.552246094,-0.064537734,-0.42452407,0.90311354,0.026835725,-0.9054112,-0.42368641,0.9975543,-0.003108057,0.06982561,-0.067112066,-0.4215252,0.90432984,0.027259616,-0.9068096,-0.42065805,0.997373,-0.003579548,0.07234848,10.047455,-0.098098755,0.65802,9.782666,-0.030479629,0.6847553,0.07273865,0.010848999,-0.011962891,-15.179443,-37.25891,-18.598938,1,0.0,0.0,0.0,0.0
1.560546875,-0.06470678,-0.41709545,0.9065563,0.026219469,-0.90885705,-0.41628253,0.9975597,-0.0031668795,0.06974524,-0.0670101,-0.4216439,0.9042821,0.027243149,-0.90675455,-0.42077795,0.9973803,-0.0035608772,0.072248615,10.039093,-0.17826843,0.5623169,9.78272,-0.03105648,0.6839672,0.049224854,0.019866943,-0.01852417,-15.179443,-37.678528,-18.418884,1,0.0,0.0,0.0,0.0
1.568847656,-0.064687006,-0.41710255,0.9065545,0.026159717,-0.90885377,-0.4162938,0.99756265,-0.0032135886,0.069702305,-0.06696413,-0.4215529,0.904328,0.027222434,-0.9067969,-0.420688,0.99738395,-0.0035529973,0.072198555,10.039093,-0.17826843,0.5623169,9.782748,-0.03151454,0.6835461,0.03440857,0.022766113,-0.016082764,-15.179443,-37.678528,-18.418884,1,0.0,0.0,0.0,0.0
1.577148438,-0.06457661,-0.41889223,0.9057368,0.026228337,-0.90803015,-0.4180829,0.997568,-0.0032424051,0.06962436,-0.06687416,-0.42137694,0.9044166,0.02717994,-0.9068787,-0.42051435,0.99739116,-0.0035395566,0.07209975,10.018753,-0.16390991,0.50608826,9.782801,-0.031797133,0.6827817,0.024032593,0.026733398,-0.015777588,-15.359497,-37.979126,-18.659973,1,0.0,0.0,0.0,0.0
1.585449219,-0.0644901,-0.42184255,0.90437263,0.026411992,-0.90666324,-0.42102757,0.9975688,-0.003265831,0.06961251,-0.066783324,-0.42127857,0.90446913,0.027142031,-0.9069245,-0.4204181,0.99739826,-0.0035277898,0.072001785,10.000809,-0.1483612,0.5395813,9.782808,-0.03202686,0.6826655,0.0023498535,0.021087646,-0.01272583,-15.59906,-38.519287,-19.07959,1,0.0,0.0,0.0,0.0
1.59375,-0.06447654,-0.4218474,0.9043714,0.026352787,-0.90666085,-0.4210365,0.99757123,-0.0033142732,0.069575205,-0.06673744,-0.4212898,0.9044672,0.02712745,-0.90691924,-0.42043027,0.9974017,-0.0035225507,0.07195399,10.000809,-0.1483612,0.5395813,9.782832,-0.032501917,0.68229973,-0.013839722,0.015731812,-0.011047363,-15.59906,-38.519287,-19.07959,1,0.0,0.0,0.0,0.0
1.602050781,-0.064592466,-0.42180598,0.9043824,0.026401551,-0.90668005,-0.420992,0.9975624,-0.0033158094,0.06970103,-0.06664793,-0.42131165,0.90446365,0.027096823,-0.9069091,-0.42045408,0.9974085,-0.003514303,0.07185982,10.017548,-0.10647583,0.66760254,9.782746,-0.032516986,0.68353367,-0.035369873,0.029327393,-0.016693115,-15.59906,-38.519287,-19.07959,1,0.0,0.0,0.0,0.0
1.610351563,-0.0648488,-0.41726032,0.9064703,0.026208065,-0.9087812,-0.41644913,0.9975509,-0.0032493982,0.06986897,-0.06656653,-0.42133135,0.9044605,0.02706934,-0.90690005,-0.4204755,0.9974147,-0.0035064423,0.07177434,10.083359,-0.056228638,0.6879425,9.782633,-0.031865712,0.6851805,-0.03933716,0.018478394,-0.004776001,-15.359497,-38.279724,-18.719482,1,0.0,0.0,0.0,0.0
1.618652344,-0.06496298,-0.41721967,0.90648085,0.026271302,-0.9087999,-0.4164043,0.9975418,-0.0032364323,0.069999255,-0.06653217,-0.42125005,0.90450084,0.027051937,-0.9069378,-0.42039514,0.99741745,-0.0035013014,0.07173617,10.083359,-0.056228638,0.6879425,9.782543,-0.03173856,0.68645823,-0.036132813,0.010238647,-6.5612793E-4,-15.359497,-38.279724,-18.719482,1,0.0,0.0,0.0,0.0
1.626953125,-0.06542314,-0.41105133,0.90926164,0.02577159,-0.9116059,-0.4102568,0.99752474,-0.0034071659,0.07023355,-0.0664702,-0.42109072,0.90457964,0.027020779,-0.9070118,-0.42023736,0.99742246,-0.0034908128,0.071667455,10.059433,-0.13160706,0.8291168,9.782376,-0.033412885,0.68875587,-0.03353882,-0.001373291,0.006515503,-15.478516,-38.279724,-18.418884,1,0.0,0.0,0.0,0.0
1.635253906,-0.06587783,-0.4021688,0.91319233,0.025069013,-0.9155585,-0.4014024,0.9975127,-0.0035506892,0.070397,-0.066428944,-0.42069408,0.9047672,0.026970735,-0.90719587,-0.41984314,0.99742657,-0.0034875006,0.071610495,10.037888,-0.100494385,0.83987427,9.782258,-0.034820367,0.6903587,-0.021942139,-0.0030517578,0.003616333,-15.838623,-38.819885,-18.23883,1,0.0,0.0,0.0,0.0
1.643554688,-0.06605017,-0.40210566,0.9132077,0.025011059,-0.9155858,-0.4013438,0.99750274,-0.0036685385,0.0705317,-0.066418424,-0.42032525,0.90493935,0.026932383,-0.90736675,-0.41947603,0.9974283,-0.0034887644,0.071586244,10.037888,-0.100494385,0.83987427,9.782161,-0.035976075,0.6916797,-0.0103302,-0.0074768066,-0.0015716553,-15.838623,-38.819885,-18.23883,1,0.0,0.0,0.0,0.0
1.651855469,-0.06614345,-0.40207154,0.913216,0.025001705,-0.9156007,-0.40131062,0.99749684,-0.0037121112,0.070613466,-0.06640493,-0.4196069,0.9052737,0.026855884,-0.9076992,-0.4187612,0.9974312,-0.003495883,0.07154462,10.025925,-0.08973694,0.7908325,9.782103,-0.036403377,0.6924816,-0.0033111572,-1.373291E-4,-0.015472412,-15.838623,-38.819885,-18.23883,1,0.0,0.0,0.0,0.0
1.66015625,-0.06608998,-0.40361762,0.9125375,0.025125422,-0.91492015,-0.40285176,0.9974972,-0.0036965767,0.07060813,-0.066395365,-0.41891554,0.9055945,0.026782054,-0.9080184,-0.41807324,0.9974339,-0.0035044455,0.07150764,10.022339,-0.10169983,0.71066284,9.782106,-0.036251035,0.69242924,-0.0017852783,0.0032196045,-0.010437012,-15.779114,-39.05945,-18.418884,1,0.0,0.0,0.0,0.0
1.668457031,-0.06609943,-0.40361422,0.91253847,0.02514369,-0.9149218,-0.40284708,0.9974961,-0.0036833775,0.07062416,-0.066389546,-0.41861093,0.9057358,0.02674873,-0.9081589,-0.41777018,0.99743515,-0.0035082882,0.071489565,10.022339,-0.10169983,0.71066284,9.782096,-0.036121596,0.6925864,-0.0031585693,0.0018463135,-0.007827759,-15.779114,-39.05945,-18.418884,1,0.0,0.0,0.0,0.0
1.676757813,-0.066418774,-0.39198214,0.9175721,0.024323398,-0.9199655,-0.3912439,0.9974953,-0.0036674654,0.07063731,-0.06637864,-0.41801906,0.9060099,0.026684811,-0.9084315,-0.41718128,0.9974376,-0.0035152216,0.0714552,9.964905,-0.06819153,0.7082825,9.782087,-0.03596555,0.6927154,-0.003921509,-0.005645752,4.119873E-4,-16.139221,-39.959717,-18.23883,1,0.0,0.0,0.0,0.0
1.685058594,-0.06660135,-0.3884468,0.91906106,0.024016755,-0.9214635,-0.38772178,0.9974906,-0.0037499333,0.07069995,-0.06638169,-0.4169943,0.9064818,0.026590927,-0.9089022,-0.41616052,0.9974399,-0.0035212503,0.07142274,9.962524,-0.11126709,0.75971985,9.782042,-0.036774285,0.6933297,-0.0059051514,-7.6293945E-4,-8.087158E-4,-16.139221,-39.959717,-18.058777,1,0.0,0.0,0.0,0.0
1.693359375,-0.066705726,-0.38840857,0.9190697,0.023948343,-0.9214792,-0.3876887,0.9974853,-0.003850856,0.070769675,-0.06638709,-0.41642734,0.906742,0.026539376,-0.90916216,-0.41559577,0.99744093,-0.003525824,0.071408354,9.962524,-0.11126709,0.75971985,9.781989,-0.037763998,0.6940135,-0.0059051514,0.0058135986,-8.087158E-4,-16.139221,-39.959717,-18.058777,1,0.0,0.0,0.0,0.0
1.701660156,-0.06684189,-0.38835862,0.91908085,0.023923608,-0.9214999,-0.38764086,0.9974767,-0.003922921,0.07088574,-0.066401616,-0.41532502,0.90724635,0.026436737,-0.9096662,-0.41449785,0.99744266,-0.0035386954,0.07138314,9.996017,-0.093322754,0.7429657,9.781905,-0.038470715,0.6951517,-0.017044067,0.021392822,-1.9836426E-4,-16.139221,-39.959717,-18.058777,1,0.0,0.0,0.0,0.0
1.709960938,-0.06706711,-0.3879035,0.91925675,0.023938239,-0.92169154,-0.38718444,0.99746126,-0.0039619487,0.0711009,-0.06642071,-0.41426393,0.9077299,0.02633729,-0.9101499,-0.41344118,0.99744403,-0.0035539109,0.07136339,9.999603,-0.053833008,0.7525482,9.781754,-0.038853444,0.69726163,-0.02545166,0.016952515,0.0071258545,-16.19873,-40.13977,-18.119812,1,0.0,0.0,0.0,0.0
1.718261719,-0.06729645,-0.3878194,0.91927546,0.023946298,-0.9217266,-0.38710046,0.99744564,-0.004037243,0.071315765,-0.066434465,-0.41374004,0.90796787,0.026289482,-0.9103881,-0.4129193,0.9974444,-0.0035620716,0.07135816,9.999603,-0.053833008,0.7525482,9.7816,-0.039591826,0.6993687,-0.020874023,0.013137817,0.006362915,-16.19873,-40.13977,-18.119812,1,0.0,0.0,0.0,0.0
1.7265625,-0.06750361,-0.38435522,0.92071396,0.023710787,-0.9231762,-0.38364473,0.99743724,-0.0040665506,0.0714311,-0.06647001,-0.41271958,0.90842956,0.026197188,-0.9108511,-0.41190287,0.9974444,-0.0035808883,0.07135637,10.094116,-0.033493042,0.7346039,9.781518,-0.03987924,0.70049983,-0.019958496,0.0032196045,-0.008132935,-16.139221,-40.13977,-17.939758,1,0.0,0.0,0.0,0.0
1.734863281,-0.06753003,-0.38434553,0.9207161,0.02374933,-0.9231804,-0.38363233,0.9974345,-0.0040403153,0.07147036,-0.066491604,-0.41215596,0.9086839,0.026147868,-0.9111063,-0.41134137,0.99744433,-0.0035906017,0.07135791,10.094116,-0.033493042,0.7346039,9.781492,-0.03962196,0.7008848,-0.019180298,-0.0061035156,-0.0050811768,-16.139221,-40.13977,-17.939758,1,0.0,0.0,0.0,0.0
1.743164063,-0.06727269,-0.39084485,0.91799486,0.024214607,-0.92044777,-0.3901147,0.99744076,-0.004015184,0.07138517,-0.06653426,-0.4110619,0.9091762,0.026053648,-0.91160035,-0.4102513,0.9974439,-0.0036084102,0.07136232,10.100098,-0.04067993,0.727417,9.781553,-0.039375506,0.7000494,-0.011550903,-0.030075073,-0.004928589,-16.378784,-40.019226,-18.23883,1,0.0,0.0,0.0,0.0
1.751464844,-0.06713682,-0.39089522,0.9179835,0.024123374,-0.9204263,-0.39017117,0.9974521,-0.0040499913,0.0712242,-0.066564456,-0.41026518,0.9095338,0.025981236,-0.9119591,-0.4094577,0.9974438,-0.0036245186,0.071363255,10.063019,-0.090927124,0.7680969,9.781664,-0.039716847,0.69847083,-0.01902771,-0.03312683,-0.011962891,-16.378784,-40.019226,-18.23883,1,0.0,0.0,0.0,0.0
1.759765625,-0.06689323,-0.39264092,0.91725594,0.024181819,-0.919683,-0.39191633,0.99746704,-0.00403563,0.07101533,-0.06657642,-0.40987962,0.90970665,0.025944235,-0.9121324,-0.40907383,0.9974439,-0.0036330281,0.07136052,10.063019,-0.090927124,0.7680969,9.78181,-0.03957601,0.69642246,-0.014602661,-0.031295776,-0.01638794,-16.499329,-40.078735,-18.359375,1,0.0,0.0,0.0,0.0
1.768066406,-0.06677415,-0.39268526,0.9172456,0.02415996,-0.9196642,-0.39196187,0.99747556,-0.0040123058,0.07089706,-0.06658977,-0.40919966,0.9100118,0.025874497,-0.91243756,-0.4083971,0.99744487,-0.0036489712,0.07134684,10.016357,-0.119644165,0.776474,9.781894,-0.03934728,0.6952626,-0.0068206787,-0.009155273,-0.024017334,-16.499329,-40.078735,-18.359375,1,0.0,0.0,0.0,0.0
1.776367188,-0.066543624,-0.39890882,0.914573,0.024673015,-0.9169822,-0.39816445,0.99747837,-0.003930034,0.0708616,-0.06659781,-0.40854824,0.91030383,0.025806569,-0.9127294,-0.40774882,0.99744606,-0.0036633592,0.071329005,10.042679,-0.0993042,0.7657013,9.781922,-0.03854047,0.694915,-0.0045318604,-0.004119873,-0.0093688965,-16.558838,-40.019226,-18.659973,1,0.0,0.0,0.0,0.0
1.784667969,-0.06655378,-0.39890504,0.91457385,0.02471698,-0.91698396,-0.3981576,0.99747664,-0.0038933866,0.070888475,-0.06659684,-0.40835583,0.9103902,0.025783835,-0.91281545,-0.40755752,0.9974467,-0.0036686927,0.07131961,10.042679,-0.0993042,0.7657013,9.781904,-0.03818108,0.6951785,-0.007583618,-0.001373291,-0.008605957,-16.558838,-40.019226,-18.659973,1,0.0,0.0,0.0,0.0
1.79296875,-0.06648929,-0.40184745,0.91328955,0.024930041,-0.9156983,-0.40109235,0.9974756,-0.0038999976,0.0709022,-0.06659548,-0.40798256,0.9105577,0.025741559,-0.91298234,-0.40718627,0.99744797,-0.0036775903,0.07130261,10.04866,-0.102890015,0.7417755,9.781895,-0.038245913,0.6953131,-0.006515503,-0.0033569336,-0.0121154785,-16.619873,-39.65912,-18.659973,1,0.0,0.0,0.0,0.0
1.801269531,-0.06641239,-0.4018763,0.91328245,0.024927452,-0.9156858,-0.40112114,0.9974808,-0.0038736092,0.07083063,-0.06659147,-0.40773982,0.91066664,0.025709383,-0.9130907,-0.4069452,0.99744904,-0.0036863978,0.07128679,9.973282,-0.07896423,0.68434143,9.781945,-0.03798713,0.6946112,-0.006362915,-0.009155273,-0.0035552979,-16.619873,-39.65912,-18.659973,1,0.0,0.0,0.0,0.0
1.809570313,-0.06636682,-0.40072218,0.9137927,0.024803126,-0.91619134,-0.39997262,0.9974869,-0.0038799972,0.07074387,-0.066587925,-0.4076227,0.9107194,0.025693696,-0.91314304,-0.40682885,0.9974497,-0.003690142,0.07127763,9.973282,-0.07896423,0.68434143,9.782005,-0.038049776,0.6937604,-0.01322937,-0.0038146973,-0.004776001,-16.319275,-39.29901,-18.418884,1,0.0,0.0,0.0,0.0
1.817871094,-0.06628706,-0.40075186,0.91378546,0.024690375,-0.91617805,-0.4000101,0.9974951,-0.003953786,0.07062547,-0.06657933,-0.40734985,0.91084206,0.025658326,-0.9132647,-0.40655777,0.9974511,-0.0036976605,0.07125646,9.985245,-0.0993042,0.6616211,9.782085,-0.0387734,0.6925993,-0.0071258545,-0.009460449,0.003616333,-16.319275,-39.29901,-18.418884,1,0.0,0.0,0.0,0.0
1.826171875,-0.066135876,-0.404464,0.91215956,0.024804216,-0.91454494,-0.40372327,0.99750227,-0.0040751896,0.07051663,-0.066567965,-0.407089,0.9109595,0.025619898,-0.913381,-0.40629894,0.9974529,-0.003707803,0.07123149,10.001999,-0.119644165,0.673584,9.782156,-0.03996396,0.69153196,-0.023925781,-0.0074768066,-0.0021820068,-16.378784,-39.538574,-18.719482,1,0.0,0.0,0.0,0.0
1.834472656,-0.06607268,-0.40448734,0.91215366,0.0246655,-0.914534,-0.4037562,0.9975099,-0.0041785324,0.07040261,-0.06655938,-0.4070365,0.9109836,0.025603566,-0.91340435,-0.4062474,0.99745387,-0.0037151508,0.07121722,10.001999,-0.119644165,0.673584,9.78223,-0.040977407,0.6904137,-0.016738892,-0.008392334,-0.008453369,-16.378784,-39.538574,-18.719482,1,0.0,0.0,0.0,0.0
1.842773438,-0.06604291,-0.40590152,0.9115274,0.024716,-0.91390705,-0.4051704,0.9975107,-0.004229321,0.070389345,-0.066540234,-0.40693542,0.9110302,0.025566362,-0.9134493,-0.40614867,0.99745613,-0.0037335008,0.071184985,10.017548,-0.12083435,0.71784973,9.782238,-0.04147547,0.69028366,-0.0068206787,0.011917114,-0.013946533,-16.378784,-39.239502,-18.659973,1,0.0,0.0,0.0,0.0
1.851074219,-0.06610358,-0.40587896,0.9115332,0.024757318,-0.9139172,-0.40514514,0.9975056,-0.0042144256,0.07046166,-0.06652068,-0.40689445,0.9110499,0.02553271,-0.91346747,-0.40610987,0.9974583,-0.0037531352,0.071153596,9.964905,-0.086135864,0.7010956,9.782188,-0.0413294,0.69099283,0.005859375,0.020935059,-0.016693115,-16.378784,-39.239502,-18.659973,1,0.0,0.0,0.0,0.0
1.859375,-0.06623747,-0.4048605,0.9119762,0.024794156,-0.914369,-0.40412194,0.9974958,-0.004156334,0.07060366,-0.06651239,-0.40687415,0.91105956,0.025517212,-0.9134764,-0.40609065,0.99745923,-0.0037623611,0.0711398,9.964905,-0.086135864,0.7010956,9.782092,-0.040759712,0.69238544,0.008758545,0.019256592,-0.009979248,-16.319275,-38.819885,-18.418884,1,0.0,0.0,0.0,0.0
1.867675781,-0.06625387,-0.40485427,0.9119777,0.02488904,-0.9143721,-0.40410906,0.9974924,-0.0040755416,0.070657134,-0.0665016,-0.40679464,0.9110958,0.025488593,-0.91351175,-0.40601292,0.99746066,-0.0037779622,0.07111863,10.012772,-0.035888672,0.6628113,9.782059,-0.03996741,0.69290984,0.019302368,-0.0019836426,0.0059051514,-16.319275,-38.819885,-18.418884,1,0.0,0.0,0.0,0.0
1.875976563,-0.06620974,-0.40286344,0.91286206,0.024650069,-0.9152507,-0.40212974,0.9975012,-0.004122796,0.07052914,-0.06649191,-0.406718,0.9111308,0.02546487,-0.9135459,-0.4059377,0.997462,-0.0037897464,0.071100436,10.035492,-0.06819153,0.59820557,9.7821455,-0.040430818,0.6916546,0.011047363,-9.1552734E-4,0.010635376,-16.19873,-38.938904,-18.359375,1,0.0,0.0,0.0,0.0
1.884277344,-0.06609791,-0.4029052,0.9128518,0.024488341,-0.9152319,-0.40218255,0.9975126,-0.0042291987,0.0703614,-0.06648634,-0.40664086,0.91116565,0.025448542,-0.9135802,-0.4058615,0.99746275,-0.0037964075,0.071089014,10.035492,-0.06819153,0.59820557,9.782257,-0.04147427,0.69000965,0.012878418,-0.0035095215,0.01675415,-16.19873,-38.938904,-18.359375,1,0.0,0.0,0.0,0.0
1.892578125,-0.06612858,-0.39758515,0.9151792,0.023872286,-0.9175547,-0.39689222,0.9975255,-0.004398498,0.07016786,-0.066471115,-0.40649292,0.9112327,0.025410455,-0.913646,-0.40571585,0.9974647,-0.003813546,0.07106024,9.960129,-0.08734131,0.5922241,9.782384,-0.043134533,0.68811166,0.0015869141,-0.0047302246,0.011566162,-16.19873,-38.459778,-17.878723,1,0.0,0.0,0.0,0.0
1.900878906,-0.06611295,-0.39759108,0.91517776,0.02364826,-0.9175511,-0.3969138,0.99753183,-0.00459878,0.07006435,-0.06645802,-0.40614086,0.91139066,0.025349379,-0.9138025,-0.40536717,0.99746716,-0.00383671,0.07102492,9.930206,-0.11126709,0.66041565,9.782446,-0.04509863,0.6870966,0.004333496,0.0015258789,0.013244629,-16.19873,-38.459778,-17.878723,1,0.0,0.0,0.0,0.0
1.909179688,-0.065942585,-0.4049214,0.9119705,0.023990005,-0.91433895,-0.40423834,0.99753493,-0.0047783456,0.07000794,-0.066451415,-0.40597022,0.91146713,0.025315298,-0.9138782,-0.40519845,0.9974685,-0.0038519513,0.07100577,9.930206,-0.11126709,0.66041565,9.782476,-0.046859562,0.6865434,0.005706787,0.0073394775,0.004837036,-16.079712,-37.919617,-17.999268,1,0.0,0.0,0.0,0.0
1.917480469,-0.066010796,-0.4048956,0.91197705,0.023975657,-0.9143502,-0.40421382,0.99753076,-0.0048172264,0.07006462,-0.06643124,-0.40592876,0.9114871,0.025262764,-0.91389644,-0.40516055,0.9974711,-0.0038886366,0.07096616,10.023529,-0.04547119,0.7010956,9.782435,-0.047240857,0.6870992,0.007232666,0.011764526,-0.0026397705,-16.079712,-37.919617,-17.999268,1,0.0,0.0,0.0,0.0
1.92578125,-0.06621203,-0.39867815,0.91469765,0.023613367,-0.9170786,-0.39800662,0.9975261,-0.0047537354,0.070135765,-0.06641456,-0.40588775,0.9115066,0.02521173,-0.9139145,-0.405123,0.99747354,-0.0039254082,0.07093036,10.067795,-0.017944336,0.6807556,9.78239,-0.04661822,0.6877969,0.010437012,0.01939392,-0.012268066,-16.139221,-38.339233,-17.878723,1,0.0,0.0,0.0,0.0
1.934082031,-0.06625331,-0.39866257,0.9147014,0.023763007,-0.917086,-0.39798066,0.99751985,-0.0046314807,0.070233405,-0.06641067,-0.40574372,0.91157097,0.02517969,-0.9139784,-0.4049808,0.9974746,-0.0039419746,0.07091442,10.067795,-0.017944336,0.6807556,9.782328,-0.04541931,0.6887544,0.018829346,0.017868042,-0.020050049,-16.139221,-38.339233,-17.878723,1,0.0,0.0,0.0,0.0
1.942382813,-0.0661917,-0.40615264,0.9114048,0.024528127,-0.9137942,-0.40543607,0.99750537,-0.0044814525,0.070447765,-0.06640465,-0.4054636,0.911696,0.025123445,-0.91410255,-0.40470394,0.9974764,-0.003969279,0.070887305,10.072586,-0.035888672,0.7537384,9.7821865,-0.043948036,0.6908566,0.015167236,0.017410278,-0.017608643,-15.899658,-37.799072,-17.999268,1,0.0,0.0,0.0,0.0
1.950683594,-0.066352025,-0.4060924,0.91142,0.0247562,-0.91382176,-0.40536028,0.99748915,-0.004333179,0.07068723,-0.06639613,-0.40549082,0.9116845,0.025099842,-0.9140904,-0.4047329,0.99747753,-0.003989561,0.07086982,10.126419,-0.050247192,0.8003998,9.782027,-0.04249397,0.69320494,0.022201538,-0.008392334,-0.017913818,-15.899658,-37.799072,-17.999268,1,0.0,0.0,0.0,0.0
1.958984375,-0.06646655,-0.4035589,0.91253626,0.02475975,-0.9149441,-0.4028203,0.99748135,-0.0041799056,0.07080519,-0.06639531,-0.405503,0.9116792,0.025093013,-0.914085,-0.40474564,0.9974778,-0.003996433,0.07086625,10.126419,-0.050247192,0.8003998,9.781951,-0.040990874,0.69436175,0.023117065,-0.024124146,-0.020965576,-15.59906,-37.85858,-17.878723,1,0.0,0.0,0.0,0.0
1.967285156,-0.066395745,-0.40358505,0.9125299,0.024883032,-0.91493326,-0.40283749,0.997483,-0.0040401854,0.07079009,-0.06639819,-0.40542608,0.9117132,0.025079837,-0.9141191,-0.40466943,0.99747795,-0.004003699,0.07086387,10.084549,-0.071777344,0.80996704,9.781967,-0.039620683,0.6942136,0.024795532,-0.029464722,-0.020050049,-15.59906,-37.85858,-17.878723,1,0.0,0.0,0.0,0.0
1.975585938,-0.0663991,-0.40084597,0.91373616,0.024758382,-0.91613704,-0.40010005,0.99748594,-0.0039436533,0.07075496,-0.06639815,-0.4053535,0.9117455,0.025072085,-0.91415125,-0.4045972,0.9974781,-0.004005144,0.070861004,10.023529,-0.105285645,0.8458557,9.781996,-0.03867403,0.6938692,0.02281189,-0.013580322,-0.015930176,-15.478516,-37.919617,-17.759705,1,0.0,0.0,0.0,0.0
1.983886719,-0.06637665,-0.40085423,0.91373414,0.02482411,-0.9161337,-0.4001036,0.9974858,-0.003874897,0.07076073,-0.066398166,-0.40526348,0.91178554,0.025065802,-0.9141912,-0.40450737,0.9974783,-0.004003914,0.07085887,10.023529,-0.105285645,0.8458557,9.781994,-0.037999757,0.6939257,0.021591187,-0.011444092,-0.01272583,-15.478516,-37.919617,-17.759705,1,0.0,0.0,0.0,0.0
1.9921875,-0.06626552,-0.40072015,0.91380095,0.024782665,-0.91619235,-0.39997166,0.9974942,-0.0038579095,0.07064288,-0.06639731,-0.40508887,0.91186315,0.02505619,-0.91426855,-0.404333,0.9974786,-0.0039988053,0.070854954,9.958923,-0.098098755,0.6999054,9.782077,-0.03783317,0.69277,0.009063721,-0.002746582,0.0045318604,-15.59906,-37.919617,-17.759705,1,0.0,0.0,0.0,0.0
2.000488281,-0.06623296,-0.4007322,0.9137981,0.024693131,-0.91618687,-0.39998996,0.9974986,-0.0039279843,0.0705771,-0.06639206,-0.40491623,0.9119402,0.02504532,-0.914345,-0.40416068,0.9974792,-0.0039932253,0.070846505,10.017548,-0.107681274,0.65682983,9.78212,-0.038520366,0.6921249,0.0064697266,0.0032196045,0.012008667,-15.59906,-37.919617,-17.759705,1,0.0,0.0,0.0,0.0
2.008789063,-0.066402614,-0.3940301,0.9166957,0.024040096,-0.9190885,-0.39331722,0.9975033,-0.004079838,0.07050239,-0.066388935,-0.40483254,0.9119776,0.025038265,-0.9143821,-0.40407723,0.99747956,-0.0039919205,0.070841156,10.017548,-0.107681274,0.65682983,9.782166,-0.040009543,0.6913923,0.008911133,0.0032196045,0.012008667,-15.658569,-37.979126,-17.459106,1,0.0,0.0,0.0,0.0
2.017089844,-0.06636447,-0.39404428,0.9166924,0.023837896,-0.9190816,-0.39334556,0.9975107,-0.004252151,0.07038755,-0.06638983,-0.4044061,0.91216666,0.024998737,-0.91457075,-0.40365246,0.9974805,-0.0039954023,0.07082784,10.080963,-0.1040802,0.61735535,9.782238,-0.041699357,0.6902661,-0.004837036,7.7819824E-4,0.0098724365,-15.658569,-37.979126,-17.459106,1,0.0,0.0,0.0,0.0
2.025390625,-0.066216685,-0.4024877,0.91302735,0.024338001,-0.91541487,-0.40177506,0.9975084,-0.0043829544,0.07041149,-0.06638912,-0.40399674,0.91234815,0.024952682,-0.91475165,-0.4032453,0.9974817,-0.0040055695,0.07081036,10.074982,-0.08135986,0.72143555,9.782216,-0.0429821,0.69050086,-0.026062012,0.0023040771,0.008346558,-15.779114,-38.09967,-17.939758,1,0.0,0.0,0.0,0.0
2.033691406,-0.06628663,-0.40246177,0.91303366,0.024232738,-0.91542554,-0.40175682,0.99750626,-0.0045057964,0.07043323,-0.066385694,-0.40396664,0.91236174,0.024940386,-0.91476494,-0.403216,0.9974823,-0.0040131174,0.07080239,10.074982,-0.08135986,0.72143555,9.782195,-0.044186767,0.69071406,-0.03048706,-0.0016784668,0.0059051514,-15.779114,-38.09967,-17.939758,1,0.0,0.0,0.0,0.0
2.041992188,-0.06665466,-0.39123785,0.9178726,0.023314651,-0.92027795,-0.39057,0.99750364,-0.004633436,0.07046239,-0.06638374,-0.4039365,0.91237515,0.024926232,-0.9147782,-0.40318677,0.9974827,-0.0040229713,0.070795015,10.079758,-0.06819153,0.73698425,9.782169,-0.045438487,0.691,-0.035217285,0.00642395,0.009109497,-15.838623,-37.979126,-17.338562,1,0.0,0.0,0.0,0.0
2.050292969,-0.0667214,-0.39121267,0.91787845,0.023215827,-0.92028797,-0.39055207,0.9975015,-0.004748878,0.07048524,-0.066395044,-0.403435,0.9125963,0.024862448,-0.9149994,-0.4026885,0.9974836,-0.004047145,0.070781805,10.079758,-0.06819153,0.73698425,9.782148,-0.046570584,0.6912241,-0.04133606,-0.011291504,0.0084991455,-15.838623,-37.979126,-17.338562,1,0.0,0.0,0.0,0.0
2.05859375,-0.066562176,-0.3965164,0.9156114,0.023505608,-0.91801494,-0.3958485,0.99750537,-0.004826538,0.070425436,-0.06640854,-0.40295258,0.9128083,0.024797332,-0.9152118,-0.4022095,0.9974843,-0.0040749335,0.070770025,10.118057,-0.049057007,0.7728882,9.7821865,-0.047332168,0.6906376,-0.036743164,-0.04901123,-0.001876831,-15.59906,-37.55951,-17.399597,1,0.0,0.0,0.0,0.0
2.066894531,-0.066335164,-0.3966013,0.9155911,0.023387661,-0.91797817,-0.39594084,0.9975233,-0.004851267,0.070169814,-0.066411756,-0.402824,0.91286486,0.024771502,-0.91526836,-0.40208244,0.99748474,-0.004089966,0.07076313,10.13002,-0.100494385,0.7657013,9.782362,-0.04757468,0.6881308,-0.031402588,-0.05757141,-0.006164551,-15.59906,-37.55951,-17.399597,1,0.0,0.0,0.0,0.0
2.075195313,-0.0660095,-0.39672303,0.9155619,0.023174794,-0.9179252,-0.3960762,0.99754983,-0.004926832,0.06978575,-0.066409186,-0.40257782,0.91297364,0.024716722,-0.91537654,-0.40183944,0.9974863,-0.0041201133,0.07073981,10.054642,-0.12802124,0.7298126,9.782622,-0.04831572,0.68436444,-0.030944824,-0.03970337,-0.011657715,-15.59906,-37.55951,-17.399597,1,0.0,0.0,0.0,0.0
2.083496094,-0.06579814,-0.39337543,0.91702044,0.022735847,-0.9193644,-0.39274958,0.99757385,-0.0049929516,0.06943618,-0.066393636,-0.40234637,0.91307676,0.024655541,-0.91547805,-0.40161172,0.9974888,-0.0041520586,0.07070199,9.963715,-0.13400269,0.6795654,9.782858,-0.04896413,0.68093634,-0.023773193,-0.029769897,-0.0027923584,-16.018677,-37.739563,-17.338562,1,0.0,0.0,0.0,0.0
2.091796875,-0.06567253,-0.38992816,0.9185004,0.022307305,-0.9208312,-0.38932267,0.99759185,-0.005078538,0.06917157,-0.06638202,-0.40216738,0.9131565,0.024617009,-0.9155566,-0.4014349,0.9974905,-0.0041688764,0.070676655,9.90509,-0.14955139,0.65922546,9.783034,-0.049803443,0.6783414,-0.031097412,-0.026565552,-0.004470825,-16.259766,-37.25891,-16.97998,1,0.0,0.0,0.0,0.0
2.100097656,-0.065510124,-0.389992,0.918485,0.022120435,-0.92080367,-0.38939878,0.99760675,-0.005192275,0.06894875,-0.06635488,-0.4016842,0.91337115,0.02452513,-0.91576856,-0.40095684,0.99749464,-0.0042048986,0.07061707,9.889542,-0.12802124,0.6412811,9.78318,-0.05091883,0.67615634,-0.032928467,-0.0146484375,-0.0066070557,-16.259766,-37.25891,-16.97998,1,0.0,0.0,0.0,0.0
2.108398438,-0.06528333,-0.3952746,0.9162403,0.022369524,-0.9185479,-0.3946763,0.997616,-0.005269922,0.06880796,-0.06632234,-0.40122232,0.9135765,0.024429396,-0.9159709,-0.4005004,0.9974991,-0.004243999,0.07055095,9.889542,-0.12802124,0.6412811,9.783271,-0.05168028,0.6747756,-0.032318115,0.0042877197,-0.004623413,-16.079712,-37.25891,-17.219543,1,0.0,0.0,0.0,0.0
2.116699219,-0.0652664,-0.39528114,0.9162385,0.022273043,-0.91854453,-0.3946894,0.9976193,-0.00535254,0.06875422,-0.06630181,-0.40110344,0.9136302,0.02438806,-0.91602284,-0.40038407,0.9975015,-0.0042645168,0.0705161,9.907486,-0.13998413,0.7118683,9.783303,-0.052490488,0.6742486,-0.025756836,0.0042877197,-0.004623413,-16.079712,-37.25891,-17.219543,1,0.0,0.0,0.0,0.0
2.125,-0.06536975,-0.3952411,0.9162485,0.022191782,-0.91856116,-0.39465547,0.9976143,-0.0054653436,0.06881722,-0.06626133,-0.40087318,0.91373414,0.024304071,-0.9161234,-0.4001589,0.9975062,-0.0043076025,0.0704464,9.950546,-0.14476013,0.7417755,9.783255,-0.053596713,0.6748664,-0.02255249,-0.0018310547,-4.5776367E-5,-16.079712,-37.25891,-17.219543,1,0.0,0.0,0.0,0.0
2.133300781,-0.06556788,-0.39055064,0.91824347,0.02178579,-0.9205646,-0.38998225,0.9976102,-0.00556565,0.06886792,-0.0662264,-0.40065032,0.9138344,0.024220165,-0.91622066,-0.39994127,0.9975106,-0.004353449,0.07038181,10.001999,-0.11843872,0.7417755,9.783215,-0.054580383,0.6753636,-0.01826477,-0.013122559,0.0011749268,-15.7196045,-37.139893,-16.918945,1,0.0,0.0,0.0,0.0
2.141601563,-0.06550936,-0.39562762,0.9160717,0.022053814,-0.9183935,-0.39505324,0.9976082,-0.005676806,0.068888456,-0.06621374,-0.40044862,0.9139238,0.024171328,-0.9163087,-0.39974242,0.99751264,-0.0043776934,0.07035161,10.047455,-0.1268158,0.76690674,9.7831955,-0.055670455,0.67556506,-0.014297485,-0.0132751465,-0.0023345947,-15.899658,-36.95984,-17.098999,1,0.0,0.0,0.0,0.0
2.149902344,-0.065443955,-0.3956529,0.9160655,0.021942493,-0.91838217,-0.39508587,0.9976149,-0.005755222,0.06878416,-0.06618624,-0.40025824,0.91400915,0.024087355,-0.9163917,-0.39955738,0.99751645,-0.0044291383,0.07029368,10.031906,-0.124420166,0.69869995,9.783261,-0.056439452,0.6745423,8.239746E-4,-0.012512207,-0.0052337646,-15.899658,-36.95984,-17.098999,1,0.0,0.0,0.0,0.0
2.158203125,-0.06540382,-0.394609,0.91651845,0.021789957,-0.9188308,-0.39404964,0.99762094,-0.005801453,0.068693556,-0.06615728,-0.40007618,0.91409093,0.024002302,-0.91647094,-0.39938068,0.9975205,-0.0044816514,0.07023398,10.031906,-0.124420166,0.69869995,9.783319,-0.05689282,0.67365366,0.009674072,-0.004272461,-0.010894775,-15.899658,-37.078857,-17.098999,1,0.0,0.0,0.0,0.0
2.166503906,-0.06536943,-0.3946222,0.9165152,0.021752654,-0.918825,-0.39406526,0.99762404,-0.0058231824,0.068647146,-0.06614255,-0.39996707,0.91413975,0.023958016,-0.91651845,-0.39927432,0.99752253,-0.0045080474,0.07020329,10.02713,-0.13877869,0.6197357,9.78335,-0.057105914,0.6731986,0.011199951,-0.0025939941,-0.008605957,-15.899658,-37.078857,-17.098999,1,0.0,0.0,0.0,0.0
2.174804688,-0.06527005,-0.39466056,0.9165058,0.021683771,-0.9188084,-0.39410785,0.997632,-0.005850135,0.06852839,-0.06611248,-0.3997559,0.91423434,0.023870567,-0.91661036,-0.3990686,0.9975266,-0.004560127,0.070141785,10.009171,-0.12921143,0.53479004,9.783428,-0.057370227,0.67203397,0.02128601,-0.0015258789,-0.011962891,-15.899658,-37.078857,-17.098999,1,0.0,0.0,0.0,0.0
2.183105469,-0.06510846,-0.39269206,0.9173625,0.021471871,-0.91965157,-0.39214802,0.99764717,-0.00583466,0.06830892,-0.06609589,-0.399654,0.91428006,0.02382674,-0.91665465,-0.39896944,0.99752873,-0.0045859274,0.07010955,10.02713,-0.112457275,0.4630127,9.783577,-0.05721847,0.6698817,0.014251709,-6.1035156E-4,-0.01852417,-15.7196045,-37.1994,-17.03949,1,0.0,0.0,0.0,0.0
2.19140625,-0.06499581,-0.38525978,0.92051643,0.02086348,-0.92279,-0.38473818,0.99766743,-0.005801189,0.06801533,-0.06605734,-0.39937872,0.91440314,0.023733161,-0.91677433,-0.39869985,0.9975335,-0.0046353773,0.07003819,9.988831,-0.13998413,0.47976685,9.783775,-0.056890234,0.66700256,-0.008956909,-0.0019836426,-0.021270752,-15.59906,-37.078857,-16.619873,1,0.0,0.0,0.0,0.0
2.199707031,-0.06480435,-0.3853327,0.9204994,0.020880256,-0.92275995,-0.38480902,0.9976795,-0.0057170377,0.06784471,-0.06601652,-0.3988214,0.9146493,0.023618741,-0.9170166,-0.39814898,0.9975389,-0.0046815434,0.069957905,9.980469,-0.114852905,0.57069397,9.783895,-0.056064993,0.6653294,-0.01902771,-0.0025939941,-0.023254395,-15.59906,-37.078857,-16.619873,1,0.0,0.0,0.0,0.0
2.208007813,-0.06461199,-0.3854059,0.92048216,0.020933617,-0.9227301,-0.38487768,0.99769086,-0.005598687,0.06768736,-0.06599296,-0.3985527,0.91476816,0.02356361,-0.9171334,-0.39788327,0.99754184,-0.0047022537,0.06991569,10.001999,-0.09690857,0.5862427,9.784005,-0.054904364,0.6637863,-0.01902771,-0.0051879883,-0.02142334,-15.59906,-37.078857,-16.619873,1,0.0,0.0,0.0,0.0
2.216308594,-0.064365424,-0.3885042,0.9191961,0.02117913,-0.9214305,-0.38796556,0.99770164,-0.0055037946,0.06753646,-0.06593944,-0.3980334,0.914998,0.023458619,-0.9173587,-0.39736977,0.9975478,-0.0047377525,0.06982744,9.978073,-0.010772705,0.61735535,9.784111,-0.05397379,0.6623064,-0.01612854,0.005203247,-0.0121154785,-15.478516,-36.898804,-16.679382,1,0.0,0.0,0.0,0.0
2.224609375,-0.064236596,-0.38855305,0.91918457,0.02131816,-0.92141104,-0.38800442,0.997707,-0.0053287596,0.06747154,-0.065877974,-0.39765692,0.91516614,0.023367735,-0.9175218,-0.39699838,0.997554,-0.0047680875,0.06973681,9.978073,-0.010772705,0.61735535,9.784163,-0.05225728,0.6616698,-0.008651733,0.005203247,-0.012420654,-15.478516,-36.898804,-16.679382,1,0.0,0.0,0.0,0.0
2.232910156,-0.06400678,-0.3975332,0.9153526,0.022010773,-0.9175727,-0.39695826,0.9977067,-0.0052604047,0.0674809,-0.06584547,-0.3974751,0.9152475,0.023326391,-0.9176005,-0.39681885,0.9975571,-0.004779301,0.069691494,10.0247345,-0.071777344,0.6544342,9.784161,-0.05158695,0.6617616,-0.0074310303,0.005050659,-0.011505127,-15.359497,-36.898804,-17.098999,1,0.0,0.0,0.0,0.0
2.241210938,-0.064121984,-0.39215264,0.9176625,0.021697242,-0.91988534,-0.39158642,0.9977061,-0.0051985523,0.06749351,-0.065772764,-0.39747772,0.9152516,0.023274373,-0.9175993,-0.3968247,0.9975631,-0.0047983523,0.06960409,10.025925,-0.13279724,0.7046814,9.784155,-0.05098038,0.66188526,-0.0052948,0.009475708,-0.01272583,-15.7196045,-36.59973,-16.738892,1,0.0,0.0,0.0,0.0
2.249511719,-0.06423844,-0.39210773,0.91767365,0.021717472,-0.9199045,-0.39154068,0.99769825,-0.0052224053,0.0676088,-0.06570779,-0.39726678,0.9153478,0.023211554,-0.9176906,-0.3966173,0.9975689,-0.0048142006,0.0695206,10.005585,-0.07537842,0.6891327,9.784078,-0.051214304,0.6630159,0.0035705566,0.018951416,-0.0017242432,-15.7196045,-36.59973,-16.738892,1,0.0,0.0,0.0,0.0
2.2578125,-0.06435898,-0.3920612,0.9176851,0.021787971,-0.9199244,-0.39148986,0.9976889,-0.0052013937,0.067747615,-0.0656785,-0.3971637,0.9153946,0.023181483,-0.9177351,-0.3965159,0.9975715,-0.0048223645,0.06948231,10.065414,-0.061019897,0.66400146,9.783986,-0.05100825,0.66437715,0.009216309,0.015274048,-9.613037E-4,-15.7196045,-36.59973,-16.738892,1,0.0,0.0,0.0,0.0
2.266113281,-0.06420834,-0.40107143,0.91379374,0.022484718,-0.9160322,-0.400474,0.99768317,-0.005167375,0.067834884,-0.06562646,-0.3969617,0.915486,0.023125978,-0.9178224,-0.396317,0.99757624,-0.0048373737,0.069413565,10.059433,-0.102890015,0.70588684,9.78393,-0.050674636,0.66523296,0.010437012,0.010543823,-0.014251709,-15.9591675,-36.538696,-17.158508,1,0.0,0.0,0.0,0.0
2.274414063,-0.06431233,-0.4010309,0.91380423,0.022565538,-0.91605026,-0.40042844,0.9976747,-0.0051320004,0.067962795,-0.06557014,-0.3971245,0.91541946,0.023100793,-0.91775197,-0.3964817,0.9975805,-0.004850442,0.06935101,10.053452,-0.0993042,0.7082825,9.783847,-0.050327733,0.6664874,0.014556885,0.019561768,-0.014251709,-15.9591675,-36.538696,-17.158508,1,0.0,0.0,0.0,0.0
2.282714844,-0.06446647,-0.39922568,0.9145835,0.022564642,-0.91683877,-0.3986196,0.9976647,-0.0050603477,0.06811374,-0.06554496,-0.3972028,0.9153873,0.02309022,-0.917718,-0.39656082,0.9975824,-0.004856073,0.069323294,10.053452,-0.0993042,0.7082825,9.783749,-0.04962506,0.6679676,0.01838684,0.0129852295,-0.017913818,-15.658569,-36.779785,-17.158508,1,0.0,0.0,0.0,0.0
2.291015625,-0.064684466,-0.39599085,0.91597337,0.022480506,-0.91824096,-0.39538366,0.99765253,-0.0049836286,0.06829799,-0.06550229,-0.39728287,0.91535556,0.023069527,-0.9176833,-0.3966423,0.9975857,-0.0048641623,0.06927549,10.012772,-0.112457275,0.7417755,9.783629,-0.0488727,0.66977453,0.018829346,0.0047454834,-0.024627686,-15.419006,-36.479187,-16.859436,1,0.0,0.0,0.0,0.0
2.299316406,-0.06476914,-0.39595872,0.91598135,0.02265044,-0.91825557,-0.3953402,0.9976432,-0.004858464,0.06844325,-0.06546999,-0.39723188,0.91538,0.023046192,-0.91770536,-0.39659268,0.99758834,-0.0048688934,0.06923684,10.025925,-0.1040802,0.66400146,9.783538,-0.047645256,0.671199,0.015777588,0.008712769,-0.03074646,-15.419006,-36.479187,-16.859436,1,0.0,0.0,0.0,0.0
2.307617188,-0.06472666,-0.39597484,0.9159773,0.022825615,-0.9182494,-0.39534414,0.9976419,-0.004681555,0.06847358,-0.06545592,-0.3972065,0.915392,0.023038235,-0.9177163,-0.39656767,0.9975894,-0.004868685,0.0692209,9.98645,-0.13040161,0.6149597,9.783525,-0.045910373,0.67149645,0.015777588,0.0074920654,-0.032424927,-15.419006,-36.479187,-16.859436,1,0.0,0.0,0.0,0.0
2.315917969,-0.06454391,-0.39922735,0.91457725,0.023173453,-0.9168407,-0.39857998,0.99764574,-0.0045319987,0.068427965,-0.06542693,-0.39715752,0.91541535,0.02302971,-0.9177376,-0.39651904,0.99759156,-0.0048612747,0.06919117,9.990036,-0.14955139,0.5850525,9.783563,-0.044443727,0.6710491,0.002960205,-1.373291E-4,-0.033798218,-15.539551,-36.65924,-17.098999,1,0.0,0.0,0.0,0.0
2.32421875,-0.06444186,-0.3992661,0.91456753,0.023246009,-0.91682434,-0.3986134,0.9976507,-0.0044273455,0.06836322,-0.06539199,-0.39723977,0.9153821,0.023035504,-0.917702,-0.39660093,0.9975937,-0.004848235,0.069160976,9.958923,-0.16151428,0.61016846,9.783611,-0.043417428,0.67041415,-0.0010070801,0.0073394775,-0.031661987,-15.539551,-36.65924,-17.098999,1,0.0,0.0,0.0,0.0
2.332519531,-0.06435812,-0.39838076,0.91495943,0.023236606,-0.9172098,-0.39772612,0.9976562,-0.0043363576,0.068286926,-0.065373,-0.39728028,0.9153659,0.023039758,-0.91768456,-0.39664117,0.9975949,-0.0048398166,0.069145046,9.958923,-0.16151428,0.61016846,9.783666,-0.042525142,0.669666,-0.0010070801,-0.0062561035,-0.026473999,-15.899658,-36.839294,-17.158508,1,0.0,0.0,0.0,0.0
2.340820313,-0.06411258,-0.40391576,0.9125469,0.023607723,-0.91478616,-0.4032483,0.99766344,-0.0043101353,0.06818482,-0.06533292,-0.39732364,0.9153499,0.023047619,-0.9176659,-0.3966839,0.9975973,-0.0048198802,0.06911115,9.96611,-0.17826843,0.63648987,9.783736,-0.04226799,0.6686647,-0.009109497,-0.01083374,-0.020050049,-15.359497,-36.59973,-17.279053,1,0.0,0.0,0.0,0.0
2.349121094,-0.06398401,-0.40396386,0.91253453,0.02353352,-0.91476476,-0.40330106,0.99767345,-0.004329669,0.068037,-0.06530853,-0.3974558,0.91529435,0.02305898,-0.91760874,-0.39681548,0.99759865,-0.004809685,0.06909261,9.96611,-0.17826843,0.63648987,9.783834,-0.042459548,0.6672151,-0.002090454,-0.009613037,-0.017303467,-15.359497,-36.59973,-17.279053,1,0.0,0.0,0.0,0.0
2.357421875,-0.06398479,-0.40396363,0.9125346,0.023451407,-0.91476446,-0.4033064,0.9976753,-0.004405255,0.068004526,-0.065256104,-0.39771372,0.915186,0.023078071,-0.91749704,-0.3970725,0.99760157,-0.0047906763,0.069050744,10.030716,-0.21176147,0.6460571,9.783853,-0.043200795,0.6668966,-0.0042266846,-0.0073242188,-0.019592285,-15.359497,-36.59973,-17.279053,1,0.0,0.0,0.0,0.0
2.365722656,-0.06418165,-0.39439833,0.91669554,0.022629816,-0.91892844,-0.3937746,0.9976816,-0.0045284526,0.067903504,-0.06520585,-0.3979614,0.9150819,0.023093171,-0.91738975,-0.3973195,0.99760455,-0.004775414,0.06900937,10.02713,-0.2416687,0.65682983,9.783915,-0.04440895,0.6659059,-0.009719849,-0.018615723,-0.0134887695,-15.419006,-36.538696,-16.799927,1,0.0,0.0,0.0,0.0
2.374023438,-0.06409625,-0.3944307,0.91668755,0.022425175,-0.91891366,-0.39382055,0.9976917,-0.0046855435,0.067744106,-0.0651854,-0.3978901,0.91511434,0.023083815,-0.9174207,-0.39724857,0.9976061,-0.0047704745,0.06898726,10.02713,-0.2416687,0.65682983,9.784014,-0.045949485,0.66434276,-0.0028533936,-0.01739502,-0.013793945,-15.419006,-36.538696,-16.799927,1,0.0,0.0,0.0,0.0
2.382324219,-0.06391892,-0.4014485,0.9136485,0.022663552,-0.91586846,-0.4008384,0.9976978,-0.004914639,0.067639574,-0.06514233,-0.39775318,0.9151769,0.023057565,-0.91748005,-0.3971129,0.9976095,-0.004767111,0.06893802,9.974487,-0.2679901,0.653244,9.784073,-0.048196148,0.6633176,0.0054016113,-0.013885498,-0.00340271,-15.299988,-36.479187,-17.098999,1,0.0,0.0,0.0,0.0
2.390625,-0.06403576,-0.3928982,0.9173496,0.021726828,-0.9195672,-0.39233136,0.99771106,-0.005192141,0.06742163,-0.06509374,-0.39789972,0.9151167,0.023042118,-0.9174165,-0.39726067,0.9976131,-0.0047729537,0.068886526,9.981659,-0.28115845,0.58743286,9.784204,-0.05091751,0.6611804,0.013793945,-0.0038146973,-0.0066070557,-15.119934,-36.479187,-16.679382,1,0.0,0.0,0.0,0.0
2.398925781,-0.06399625,-0.392913,0.91734606,0.021416336,-0.91955936,-0.39236698,0.9977203,-0.0054638195,0.067263104,-0.06507274,-0.39779973,0.91516167,0.023015704,-0.9174598,-0.39716217,0.99761504,-0.004781338,0.06885726,9.981659,-0.28115845,0.58743286,9.784294,-0.053581767,0.65962577,0.008911133,0.0058135986,-0.0015716553,-15.119934,-36.479187,-16.679382,1,0.0,0.0,0.0,0.0
2.407226563,-0.064041026,-0.3928963,0.9173502,0.021119114,-0.9195648,-0.39237046,0.99772376,-0.005754186,0.067187496,-0.06503036,-0.39760655,0.91524863,0.022952138,-0.9175434,-0.39697266,0.9976193,-0.004808364,0.0687941,10.000809,-0.31825256,0.61854553,9.7843275,-0.05642928,0.6588842,0.012573242,0.01878357,0.004837036,-15.119934,-36.479187,-16.679382,1,0.0,0.0,0.0,0.0
2.415527344,-0.06421961,-0.39282036,0.91737014,0.020793267,-0.9195949,-0.39231738,0.99771917,-0.006119345,0.06722404,-0.06499151,-0.39742005,0.9153324,0.022879334,-0.917624,-0.3967905,0.99762344,-0.004845819,0.06873047,10.02713,-0.37208557,0.4737854,9.784283,-0.060010277,0.6592427,0.019607544,0.013442993,-0.0035552979,-15.238953,-36.59973,-16.738892,1,0.0,0.0,0.0,0.0
2.423828125,-0.064230725,-0.39281622,0.91737115,0.020337678,-0.9195937,-0.39234394,0.9977278,-0.0065433336,0.067055136,-0.06497617,-0.39732835,0.91537327,0.022837508,-0.9176636,-0.39670137,0.9976254,-0.0048712897,0.068700254,10.02713,-0.37208557,0.4737854,9.784368,-0.064168185,0.6575863,0.0066223145,0.002609253,2.593994E-4,-15.238953,-36.59973,-16.738892,1,0.0,0.0,0.0,0.0
2.432128906,-0.0638274,-0.40053794,0.9140544,0.02028003,-0.91625345,-0.40008542,0.9977549,-0.0069993604,0.066604994,-0.06494704,-0.39714968,0.9154529,0.022738341,-0.9177405,-0.396529,0.9976296,-0.004937503,0.068635054,10.011566,-0.46780396,0.279953,9.784634,-0.068640284,0.65317196,-0.01109314,-0.016937256,0.008956909,-15.299988,-36.71875,-17.158508,1,0.0,0.0,0.0,0.0
2.440429688,-0.06369934,-0.39996615,0.9143136,0.01929535,-0.9164965,-0.39957678,0.9977825,-0.007810779,0.06609772,-0.064902194,-0.39728385,0.9153979,0.022641081,-0.91768205,-0.3966699,0.9976347,-0.0050191525,0.06855451,10.04985,-0.6149597,0.36489868,9.7849045,-0.07659758,0.64819723,-0.03842163,-0.029006958,0.0060577393,-15.299988,-36.239624,-16.918945,1,0.0,0.0,0.0,0.0
2.448730469,-0.063449994,-0.4000603,0.9142898,0.01830452,-0.9164482,-0.39973444,0.99781716,-0.008627514,0.06547155,-0.064877935,-0.39733756,0.91537625,0.02257424,-0.9176585,-0.39672822,0.99763787,-0.005074985,0.068505384,10.04985,-0.6149597,0.36489868,9.785244,-0.08460701,0.6420566,-0.059036255,-0.043060303,0.0016326904,-15.299988,-36.239624,-16.918945,1,0.0,0.0,0.0,0.0
2.45703125,-0.06328135,-0.40012395,0.91427356,0.017205149,-0.916411,-0.39986852,0.99784744,-0.009574003,0.064875916,-0.06482084,-0.3974456,0.91533345,0.022405328,-0.91761094,-0.3968478,0.9976454,-0.0052156663,0.06838521,10.168304,-0.7393799,0.4857483,9.785541,-0.09388889,0.63621545,-0.08531189,-0.052825928,-0.008758545,-15.299988,-36.239624,-16.918945,1,0.0,0.0,0.0,0.0
2.465332031,-0.0629567,-0.4061245,0.9116464,0.016520346,-0.9137574,-0.40592402,0.9978795,-0.010494925,0.06423648,-0.064759254,-0.39755175,0.91529167,0.022199584,-0.9175639,-0.396968,0.99765396,-0.0053882585,0.06824624,10.122833,-0.77407837,0.49890137,9.785855,-0.102920055,0.6299447,-0.08836365,-0.046722412,-0.017913818,-14.819336,-35.81848,-16.97998,1,0.0,0.0,0.0,0.0
2.473632813,-0.06274101,-0.406204,0.9116259,0.015506162,-0.913712,-0.40606633,0.99790937,-0.011341194,0.06362589,-0.06472209,-0.3977237,0.9152196,0.022086337,-0.9174888,-0.39714792,0.9976589,-0.0054903934,0.06816605,10.122833,-0.77407837,0.49890137,9.786148,-0.11121912,0.6239568,-0.08180237,-0.040161133,-0.015930176,-14.819336,-35.81848,-16.97998,1,0.0,0.0,0.0,0.0
2.481933594,-0.062966935,-0.39694417,0.91568035,0.013766697,-0.9177592,-0.39689866,0.99792063,-0.0123855965,0.06325309,-0.06464115,-0.39806047,0.91507894,0.021826478,-0.91734135,-0.39750284,0.9976699,-0.0057220897,0.06798625,10.025925,-0.94636536,0.6029968,9.786259,-0.12146121,0.62030095,-0.070495605,-0.023208618,-0.025253296,-15.478516,-36.299133,-16.799927,1,0.0,0.0,0.0,0.0
2.490234375,-0.06315883,-0.39687088,0.9156989,0.012758349,-0.9177768,-0.39689147,0.9979219,-0.013384397,0.06302913,-0.06460776,-0.3980383,0.9150909,0.021665238,-0.9173501,-0.3974914,0.99767554,-0.005855363,0.06789153,10.025925,-0.94636536,0.6029968,9.786271,-0.1312561,0.61810464,-0.06713867,4.7302246E-4,-0.02218628,-15.478516,-36.299133,-16.799927,1,0.0,0.0,0.0,0.0
2.498535156,-0.06366311,-0.40146908,0.9136572,0.012362328,-0.91576135,-0.4015323,0.9978949,-0.014267863,0.06326331,-0.064550824,-0.39799252,0.9151148,0.021312555,-0.917368,-0.3974691,0.9976868,-0.0061535216,0.0676991,9.90509,-0.8877411,0.7130585,9.786006,-0.13991994,0.6204012,-0.056900024,0.057434082,-0.021575928,-15.539551,-36.17859,-16.97998,1,0.0,0.0,0.0,0.0
2.506835938,-0.064377666,-0.40119517,0.9137275,0.011597536,-0.91586584,-0.40131694,0.9978582,-0.015238858,0.063614175,-0.06451434,-0.3981308,0.91505724,0.02095833,-0.91730577,-0.3976315,0.99769664,-0.00647486,0.06752353,9.948166,-0.9499512,0.5934143,9.785646,-0.14944215,0.62384194,-0.037353516,0.065979004,-0.013031006,-15.539551,-36.17859,-16.97998,1,0.0,0.0,0.0,0.0
2.515136719,-0.06532434,-0.3907819,0.91816235,0.010128259,-0.92033994,-0.3909881,0.9978127,-0.016241655,0.06407854,-0.06451089,-0.39819247,0.91503066,0.020771125,-0.9172778,-0.39770594,0.9977008,-0.006650147,0.067445315,9.948166,-0.9499512,0.5934143,9.7852,-0.15927623,0.62839586,-0.037506104,0.07009888,-0.00982666,-15.478516,-36.17859,-16.499329,1,0.0,0.0,0.0,0.0
2.5234375,-0.066328496,-0.3903946,0.91825515,0.009346772,-0.9204844,-0.39066723,0.99775404,-0.017329652,0.064703286,-0.06454631,-0.3979003,0.91515523,0.020350002,-0.9174017,-0.39744177,0.9977072,-0.0070299883,0.067312166,9.98764,-0.9954071,0.6915283,9.784625,-0.16994584,0.6345225,-0.018417358,0.06796265,-0.010437012,-15.478516,-36.17859,-16.499329,1,0.0,0.0,0.0,0.0
2.531738281,-0.06739302,-0.3881675,0.9191214,0.0084017385,-0.92140394,-0.38851544,0.99769115,-0.018461011,0.06535748,-0.06465591,-0.3974606,0.9153386,0.019703755,-0.91758746,-0.39704537,0.9977131,-0.007635721,0.067158915,9.984055,-1.031311,0.73579407,9.784008,-0.18104069,0.6409379,-0.026824951,0.020004272,0.015991211,-15.478516,-36.239624,-16.43982,1,0.0,0.0,0.0,0.0
2.540039063,-0.06830544,-0.38781485,0.9192029,0.007481694,-0.921528,-0.38823983,0.9976364,-0.019641697,0.06584688,-0.06465591,-0.3974606,0.9153386,0.019703755,-0.91758746,-0.39704537,0.9977131,-0.007635721,0.067158915,9.984055,-1.031311,0.73579407,9.783471,-0.19261925,0.64573735,-0.026824951,0.020004272,0.015991211,-15.478516,-36.239624,-16.43982,1,0.0,0.0,0.0,0.0
2.548339844,-0.068972304,-0.39227083,0.9172603,0.006535094,-0.9196078,-0.3927834,0.9975972,-0.021096792,0.065991,-0.06480515,-0.39708063,0.91549295,0.019221216,-0.91774786,-0.39669806,0.9977128,-0.008111188,0.06710716,10.076172,-1.1329956,0.6795654,9.783087,-0.20688887,0.64715064,-0.048355103,-0.00289917,0.030792236,-15.478516,-35.998535,-16.558838,1,0.0,0.0,0.0,0.0
2.556640625,-0.06947599,-0.3920752,0.9173059,0.0050664227,-0.9196546,-0.39269537,0.99757075,-0.022635443,0.065880336,-0.064972565,-0.39689186,0.9155629,0.018719653,-0.91782486,-0.39654395,0.9977114,-0.008625458,0.06706311,10.242477,-1.1270142,0.63768005,9.782827,-0.22197787,0.6460654,-0.06011963,-0.02809143,0.03125,-15.478516,-35.998535,-16.558838,1,0.0,0.0,0.0,0.0
2.564941406,-0.06988687,-0.3833522,0.9209544,0.0029094927,-0.923286,-0.38410196,0.9975506,-0.024164176,0.065640934,-0.06506394,-0.39679632,0.91559786,0.018447006,-0.91786355,-0.39646733,0.9977106,-0.008905685,0.06703951,10.242477,-1.1270142,0.63768005,9.78263,-0.23696962,0.64371765,-0.07736206,-0.026412964,0.026367188,-15.419006,-35.81848,-16.079712,1,0.0,0.0,0.0,0.0
2.573242188,-0.070320025,-0.38318267,0.92099196,0.0013990887,-0.9233145,-0.38404214,0.9975235,-0.025717303,0.0654636,-0.065263115,-0.3962671,0.9158128,0.017834313,-0.918086,-0.3959798,0.9977087,-0.0095099835,0.0669843,10.281952,-1.1808624,0.77049255,9.782364,-0.2522006,0.6419786,-0.1060791,-0.05986023,0.025909424,-15.419006,-35.81848,-16.079712,1,0.0,0.0,0.0,0.0
2.581542969,-0.070648246,-0.38197052,0.9214702,-4.3836609E-4,-0.9237665,-0.382956,0.9975012,-0.02745911,0.06509504,-0.06547204,-0.3957523,0.9160205,0.01718622,-0.91830117,-0.3955093,0.99770635,-0.010151869,0.066924535,10.317856,-1.3148499,0.7645111,9.782145,-0.26928186,0.6383642,-0.1219635,-0.07757568,0.032943726,-15.419006,-35.939026,-16.079712,1,0.0,0.0,0.0,0.0
2.58984375,-0.07085987,-0.38188785,0.9214883,-0.0022450052,-0.92374706,-0.38299656,0.99748373,-0.029207831,0.06459925,-0.06558054,-0.39547876,0.91613084,0.016835244,-0.91841507,-0.39525974,0.9977052,-0.01049806,0.06688814,10.317856,-1.3148499,0.7645111,9.781975,-0.286431,0.6335023,-0.13127136,-0.069625854,0.029266357,-15.419006,-35.939026,-16.079712,1,0.0,0.0,0.0,0.0
2.598144531,-0.071296714,-0.38270423,0.92111576,-0.0037908107,-0.9233552,-0.3839281,0.9974479,-0.030864589,0.064381436,-0.065799914,-0.39494476,0.9163455,0.016082611,-0.9186361,-0.39477718,0.9977032,-0.011239079,0.06679793,10.1527405,-1.2646027,0.90448,9.781623,-0.30267823,0.6313662,-0.13600159,-0.028549194,0.02835083,-15.7196045,-36.05957,-16.19873,1,0.0,0.0,0.0,0.0
2.606445313,-0.07203872,-0.38240975,0.92118037,-0.0049586967,-0.9234312,-0.38373193,0.9973895,-0.032211404,0.06462653,-0.066027254,-0.39446414,0.91653615,0.015298356,-0.9188328,-0.39435047,0.9977006,-0.012016381,0.06670266,10.13002,-1.0755768,1.0456696,9.78105,-0.315886,0.6337698,-0.13111877,0.0158844,0.023925781,-15.7196045,-36.05957,-16.19873,1,0.0,0.0,0.0,0.0
2.614746094,-0.073013805,-0.37855214,0.9226957,-0.0062464084,-0.92497337,-0.37998086,0.9973114,-0.03350738,0.06517123,-0.06615251,-0.39422533,0.9166298,0.014894746,-0.9189299,-0.3941396,0.99769837,-0.012420357,0.06666141,10.13002,-1.0755768,1.0456696,9.780284,-0.32859516,0.6391114,-0.12608337,0.032073975,0.022705078,-15.838623,-35.699463,-15.899658,1,0.0,0.0,0.0,0.0
2.623046875,-0.07415829,-0.37808838,0.92279446,-0.0071077067,-0.92511845,-0.3796118,0.9972211,-0.034710318,0.06591787,-0.066437334,-0.39360976,0.91687375,0.014061863,-0.91918206,-0.39358175,0.9976915,-0.01325557,0.06660289,10.169495,-1.022934,1.0648041,9.779399,-0.34039193,0.64643353,-0.10974121,0.03756714,0.03201294,-15.838623,-35.699463,-15.899658,1,0.0,0.0,0.0,0.0
2.631347656,-0.075197205,-0.38079622,0.9215962,-0.0076749064,-0.92396456,-0.38240105,0.99713916,-0.035828654,0.06655698,-0.066755995,-0.39300025,0.917112,0.013228265,-0.91943014,-0.39303073,0.9976817,-0.014105358,0.06657619,10.198212,-0.9499512,0.95474243,9.778595,-0.35135907,0.652701,-0.10531616,0.010696411,0.040725708,-15.539551,-35.699463,-16.018677,1,0.0,0.0,0.0,0.0
2.639648438,-0.07611686,-0.38042995,0.92167205,-0.008575786,-0.9240697,-0.38212785,0.997062,-0.03699043,0.06707479,-0.066930085,-0.3927584,0.9172029,0.012812277,-0.91952676,-0.39281857,0.99767536,-0.014539923,0.06657613,10.198212,-0.9499512,0.95474243,9.777839,-0.36275223,0.65777904,-0.10501099,0.0,0.04270935,-15.539551,-35.699463,-16.018677,1,0.0,0.0,0.0,0.0
2.647949219,-0.07677869,-0.38786206,0.918514,-0.008852165,-0.9209318,-0.38962302,0.99700886,-0.03804558,0.06727452,-0.06730452,-0.39227477,0.9173825,0.011969729,-0.9197187,-0.39239556,0.99766064,-0.015429176,0.06659665,10.248459,-0.8518524,0.8757782,9.777317,-0.3730997,0.6597377,-0.1269989,-0.018920898,0.043167114,-15.59906,-35.699463,-16.378784,1,0.0,0.0,0.0,0.0
2.65625,-0.07704373,-0.3877565,0.91853637,-0.009717882,-0.92093885,-0.38958582,0.99698037,-0.038941372,0.067184396,-0.06768344,-0.39210406,0.91742754,0.011146625,-0.91977596,-0.3922854,0.99764454,-0.016325012,0.06662425,10.256836,-0.73339844,0.78604126,9.777038,-0.38188443,0.6588539,-0.14013672,-0.053131104,0.049575806,-15.59906,-35.699463,-16.378784,1,0.0,0.0,0.0,0.0
2.664550781,-0.07724423,-0.39658862,0.9147409,-0.009923549,-0.9171309,-0.3984628,0.99696285,-0.03985642,0.06690749,-0.06787249,-0.39201912,0.9174499,0.010730014,-0.9198041,-0.3922312,0.9976363,-0.016777458,0.06663576,10.256836,-0.73339844,0.78604126,9.776866,-0.39085796,0.65613836,-0.15525818,-0.07635498,0.052947998,-15.838623,-35.939026,-16.918945,1,0.0,0.0,0.0,0.0
2.672851563,-0.077111416,-0.39664164,0.91472906,-0.010971809,-0.91706765,-0.3985806,0.9969621,-0.040771347,0.066364504,-0.06823954,-0.39220437,0.9173435,0.009910017,-0.9197079,-0.3924781,0.99761975,-0.017691635,0.0666472,10.260422,-0.7142639,0.78245544,9.776858,-0.39983034,0.65081346,-0.18792725,-0.11911011,0.046524048,-15.838623,-35.939026,-16.918945,1,0.0,0.0,0.0,0.0
