Time,Rot1,Rot2,Rot3,Rot4,Rot5,Rot6,Rot7,Rot8,Rot9,FRot1,FRot2,FRot3,FRot4,FRot5,FRot6,FRot7,FRot8,FRot9,AccX,AccY,AccZ,GravX,GravY,GravZ,GyroX,GyroY,GyroZ,MagX,MagY,MagZ,Imid
0.0,0.0,0.0,0.0,0.0,0.0,0.0,0.0,0.0,0.0,1.0,0.0,0.0,0.0,1.0,0.0,0.0,0.0,1.0,9.997208,-0.51086426,0.8877411,9.762835,-0.4593742,0.80399996,0.0,0.0,0.0,0.0,0.0,0.0,0,0.0,0.0,0.0,0.0
0.008300781,-0.09116612,-0.7017483,0.70656776,0.024488289,-0.7108877,-0.70287913,0.9955346,-0.046776123,0.08199348,1.0,0.0,0.0,0.0,1.0,0.0,0.0,0.0,1.0,9.979263,-0.5778656,0.9499512,9.762859,-0.45871708,0.8040814,0.041870117,-0.0046081543,-0.022201538,-30.479431,-22.439575,-26.219177,0,0.0,0.0,0.0,0.0
0.016601562,-0.091182984,-0.7017365,0.7065773,0.024677534,-0.71090746,-0.70285237,0.99552834,-0.0466516,0.0821398,0.9938867,-0.093424805,-0.058830325,0.093371384,0.9956246,-0.0036624502,0.058915082,-0.0018530078,0.9982613,10.001999,-0.5240326,0.95474243,9.762798,-0.45749593,0.80551624,0.041870117,0.008377075,-0.01335144,-30.479431,-22.439575,-26.219177,0,0.0,0.0,0.0,0.0
0.024902343,-0.09132394,-0.69610435,0.7121087,0.02416351,-0.7164354,-0.6972349,0.99552804,-0.046467204,0.082248025,0.9865372,-0.13849671,-0.08696478,0.13820495,0.9903591,-0.009396145,0.08742769,-0.0027493152,0.99616706,9.98645,-0.44506836,0.850647,9.762795,-0.4556876,0.8065776,0.03652954,0.013412476,-0.010131836,-30.659485,-22.799683,-26.219177,0,0.0,0.0,0.0,0.0
0.033203125,-0.091113895,-0.7006237,0.7076897,0.0248936,-0.71202594,-0.70171165,0.99552923,-0.046318736,0.0823165,0.9641844,-0.22536194,-0.1398585,0.22368574,0.9742648,-0.027798794,0.14252402,-0.004481193,0.98978126,9.911072,-0.40678406,0.7657013,9.762807,-0.45423165,0.8072491,0.029800415,0.018005371,0.008346558,-31.13861,-22.979736,-26.759338,0,0.0,0.0,0.0,0.0
0.041503906,-0.09108913,-0.70064104,0.70767576,0.02490386,-0.7120104,-0.7017271,0.99553126,-0.046295855,0.082305074,0.933097,-0.30689976,-0.18746346,0.30215168,0.951722,-0.054124933,0.19502404,-0.0061385906,0.98077923,9.914658,-0.41635132,0.707077,9.762828,-0.4540073,0.80713713,0.028274536,0.005783081,0.018722534,-31.13861,-22.979736,-26.759338,0,0.0,0.0,0.0,0.0
0.049804687,-0.091077425,-0.7006492,0.70766914,0.024810325,-0.7119985,-0.70174253,0.9955347,-0.0463554,0.08223033,0.914762,-0.3456929,-0.20906204,0.33864284,0.93832207,-0.06980538,0.22029874,-0.006942048,0.9754078,9.914658,-0.41635132,0.707077,9.76286,-0.45459116,0.80640405,0.036071777,0.0033416748,0.020858765,-31.13861,-22.979736,-26.759338,0,0.0,0.0,0.0,0.0
0.058105468,-0.091127,-0.70009017,0.7082157,0.024595369,-0.71254003,-0.70120007,0.99553543,-0.046479445,0.08215062,0.8734639,-0.41924575,-0.24757569,0.4058926,0.9078329,-0.10531141,0.26890874,-0.008503425,0.9631281,9.871582,-0.43429565,0.7190399,9.762868,-0.45580766,0.8056224,0.043548584,0.00944519,0.031402588,-31.439209,-23.15979,-26.939392,0,0.0,0.0,0.0,0.0
0.06640625,-0.09116139,-0.7000661,0.70823514,0.0244954,-0.7125577,-0.7011858,0.99553484,-0.046572577,0.08210616,0.8271771,-0.48741356,-0.27965343,0.46537963,0.87311393,-0.1452375,0.31496003,-0.0100078685,0.9490522,9.88475,-0.38285828,0.7298126,9.762862,-0.45672098,0.8051864,0.037597656,0.014175415,0.024215698,-31.439209,-23.15979,-26.939392,0,0.0,0.0,0.0,0.0
0.074707031,-0.09126935,-0.70061505,0.7076782,0.024444796,-0.7120064,-0.70174736,0.9955262,-0.046748977,0.08211075,0.80258644,-0.5194744,-0.29325986,0.4921976,0.8544185,-0.16646475,0.33704078,-0.010739455,0.9414288,9.915863,-0.447464,0.72024536,9.762777,-0.45845085,0.8052314,0.031936646,0.028381348,0.023452759,-31.559753,-23.15979,-26.998901,0,0.0,0.0,0.0,0.0
0.083007812,-0.09136297,-0.7036242,0.70467424,0.02480299,-0.70902216,-0.7047498,0.99550873,-0.046910014,0.08223036,0.751292,-0.57957774,-0.31567386,0.5400505,0.81482613,-0.2107221,0.37934914,-0.012166006,0.9251736,9.98764,-0.45463562,0.7262268,9.762606,-0.4600301,0.80640435,0.032714844,0.04335022,0.022994995,-31.739807,-23.458862,-27.539063,0,0.0,0.0,0.0,0.0
0.091308593,-0.091600254,-0.70345974,0.7048076,0.024906613,-0.70918024,-0.70458704,0.9954843,-0.04698598,0.08248189,0.6981727,-0.6343452,-0.33190522,0.5803362,0.7729313,-0.25648984,0.41924298,-0.013542423,0.907773,9.988831,-0.39959717,0.75852966,9.762366,-0.46077508,0.8088711,0.020950317,0.043655396,0.02116394,-31.739807,-23.458862,-27.539063,0,0.0,0.0,0.0,0.0
0.099609375,-0.091857575,-0.70328134,0.7049522,0.025089722,-0.7093551,-0.7044046,0.995456,-0.047017835,0.08280477,0.67120194,-0.65984154,-0.33778265,0.59780866,0.75127035,-0.27967417,0.43830675,-0.014211567,0.8987131,9.988831,-0.38883972,0.82192993,9.762089,-0.46108747,0.8120374,0.020950317,0.025634766,0.014907837,-31.739807,-23.458862,-27.539063,0,0.0,0.0,0.0,0.0
0.107910156,-0.09192291,-0.7063363,0.70188266,0.025614802,-0.7063111,-0.7074382,0.99543667,-0.04705118,0.083018824,0.6169743,-0.7071874,-0.345295,0.6276808,0.70685595,-0.32614625,0.47472042,-0.015511219,0.88,10.042679,-0.39482117,0.8422699,9.761899,-0.46141446,0.81413656,0.014694214,0.016174316,0.023605347,-31.858826,-23.2193,-27.539063,0,0.0,0.0,0.0,0.0
0.116210937,-0.092075035,-0.70623034,0.70196927,0.025678728,-0.70641357,-0.70733345,0.99542093,-0.04710207,0.08317815,0.5630966,-0.7497386,-0.3475837,0.65108246,0.6615219,-0.37212968,0.50893414,-0.016760701,0.86064225,10.042679,-0.39482117,0.8422699,9.761745,-0.46191356,0.81569904,0.013931274,0.0037994385,0.012771606,-31.858826,-23.2193,-27.539063,0,0.0,0.0,0.0,0.0
0.124511718,-0.09223112,-0.70544344,0.7027396,0.025653403,-0.70719695,-0.706551,0.9954071,-0.047138333,0.08332259,0.5364458,-0.76934433,-0.34689352,0.6605624,0.6385981,-0.3947781,0.52524585,-0.01736777,0.8507732,10.04985,-0.4139557,0.90089417,9.761609,-0.46226916,0.8171155,0.012237549,-0.014221191,0.009262085,-32.218933,-23.699951,-28.019714,0,0.0,0.0,0.0,0.0
0.1328125,-0.09236817,-0.70141315,0.7067445,0.025064208,-0.71119183,-0.7025511,0.9954094,-0.047179375,0.083271846,0.48402652,-0.8053987,-0.34212756,0.6754283,0.59244317,-0.43909883,0.55634075,-0.018547151,0.83074725,10.016357,-0.45942688,0.86979675,9.761632,-0.46267164,0.81661785,0.0073547363,-0.024459839,0.0029907227,-32.159424,-24.179077,-28.199768,0,0.0,0.0,0.0,0.0
0.141113281,-0.0922742,-0.7014777,0.70669264,0.02496709,-0.7111274,-0.7026197,0.9954206,-0.047189612,0.083132565,0.45830604,-0.8219626,-0.3381318,0.68098545,0.5692205,-0.46070263,0.57115185,-0.01912002,0.8206217,10.016357,-0.45942688,0.86979675,9.761741,-0.46277198,0.81525195,0.0033874512,-0.026443481,0.0032958984,-32.159424,-24.179077,-28.199768,0,0.0,0.0,0.0,0.0
0.149414062,-0.09219952,-0.70152897,0.70665145,0.024892367,-0.7110763,-0.702674,0.99542934,-0.04719598,0.08302362,0.40823513,-0.8521793,-0.32731417,0.688553,0.5228586,-0.5025073,0.59936535,-0.020232009,0.80021983,9.912262,-0.47018433,0.8685913,9.761827,-0.46283445,0.81418365,0.010253906,-0.015289307,2.4414063E-4,-32.159424,-24.179077,-28.199768,0,0.0,0.0,0.0,0.0
0.157714843,-0.09212253,-0.70315725,0.70504135,0.025018148,-0.7094632,-0.7042983,0.99543333,-0.047242917,0.08294924,0.36023694,-0.8787391,-0.3131246,0.69183064,0.476827,-0.54222363,0.62577933,-0.021300191,0.7797093,9.894318,-0.48335266,0.83509827,9.761867,-0.46329477,0.8134542,0.003692627,0.0024261475,0.021621704,-32.63855,-24.479675,-28.678894,0,0.0,0.0,0.0,0.0
0.166015625,-0.09223338,-0.70308125,0.7051026,0.024927553,-0.70952946,-0.7042347,0.99542534,-0.04737747,0.08296841,0.33711848,-0.8907104,-0.3049362,0.6920052,0.45404723,-0.5612217,0.6383415,-0.021819243,0.769444,9.894318,-0.48335266,0.83509827,9.761788,-0.46461427,0.81364214,-0.0039367676,0.012802124,0.019180298,-32.63855,-24.479675,-28.678894,0,0.0,0.0,0.0,0.0
0.174316406,-0.09233619,-0.7042363,0.70393556,0.02498309,-0.70837176,-0.70539737,0.99541444,-0.047547217,0.083002344,0.29267892,-0.91224945,-0.2866009,0.689773,0.40899846,-0.59743905,0.66223276,-0.02283173,0.74895024,9.90509,-0.4905243,0.7680969,9.761681,-0.46627888,0.8139749,-0.0022583008,0.023345947,0.014297485,-32.398987,-24.41864,-28.678894,0,0.0,0.0,0.0,0.0
0.182617187,-0.092476696,-0.7053732,0.7027778,0.025093704,-0.70722914,-0.706539,0.99539864,-0.047703087,0.083102636,0.25077742,-0.93076825,-0.26604715,0.6844645,0.36483344,-0.63119316,0.6845575,-0.023810826,0.72856987,9.908676,-0.45463562,0.7645111,9.761526,-0.4678075,0.8149585,0.005218506,0.020141602,0.018875122,-32.159424,-24.238586,-28.559875,0,0.0,0.0,0.0,0.0
0.190917968,-0.09262303,-0.7052739,0.70285827,0.025063012,-0.70732045,-0.7064487,0.99538577,-0.04781767,0.08319045,0.23080492,-0.9389723,-0.25506887,0.68079495,0.34313422,-0.6471299,0.69515985,-0.02428885,0.7184447,9.908676,-0.45463562,0.7645111,9.761399,-0.46893114,0.81581956,0.01499939,0.01600647,0.01689148,-32.159424,-24.238586,-28.559875,0,0.0,0.0,0.0,0.0
0.19921875,-0.09272807,-0.7052026,0.702916,0.025091555,-0.7073885,-0.70637953,0.9953753,-0.047863957,0.08328939,0.19278564,-0.9534456,-0.23189476,0.67169863,0.30050853,-0.6771378,0.7153004,-0.025220932,0.6983618,9.970886,-0.42352295,0.8027954,9.761297,-0.4693851,0.8167899,0.017288208,0.012191772,0.008651733,-32.159424,-24.238586,-28.559875,0,0.0,0.0,0.0,0.0
0.207519531,-0.09241065,-0.71473795,0.69326025,0.026410501,-0.6977539,-0.71585035,0.9953706,-0.047842853,0.08335649,0.15733449,-0.9655257,-0.20737882,0.66056895,0.25899416,-0.7046777,0.7340943,-0.026117917,0.67854506,9.964905,-0.5312042,0.8494568,9.761252,-0.46917814,0.817448,0.037597656,0.009140015,5.493164E-4,-31.799316,-23.939514,-28.919983,0,0.0,0.0,0.0,0.0
0.215820312,-0.092537776,-0.7146536,0.6933303,0.026435636,-0.697836,-0.7157695,0.99535817,-0.047907095,0.08346852,0.1407418,-0.97067064,-0.19491076,0.6543121,0.23894231,-0.71748334,0.7430125,-0.02655257,0.6687507,9.964905,-0.5312042,0.8494568,9.761129,-0.46980813,0.8185466,0.046295166,0.009140015,5.493164E-4,-31.799316,-23.939514,-28.919983,0,0.0,0.0,0.0,0.0
0.224121093,-0.09257956,-0.71496093,0.6930078,0.026556097,-0.6975223,-0.7160708,0.9953511,-0.047889933,0.08356288,0.10940659,-0.97946465,-0.16934952,0.6407198,0.1997458,-0.74133646,0.7599397,-0.027398504,0.64941585,9.96611,-0.47976685,0.8410797,9.76106,-0.46963984,0.81947196,0.06629944,0.007156372,0.0016174316,-31.619263,-23.878479,-28.858948,0,0.0,0.0,0.0,0.0
0.232421875,-0.09269495,-0.7131101,0.6948969,0.026388679,-0.6994159,-0.7142275,0.99534476,-0.04786788,0.083650365,0.08049415,-0.98641765,-0.14318122,0.6259222,0.1618158,-0.7629134,0.7757203,-0.028210241,0.630446,9.902695,-0.39720154,0.93678284,9.760999,-0.4694236,0.8203299,0.061264038,0.003189087,0.0013122559,-31.318665,-23.699951,-28.49884,0,0.0,0.0,0.0,0.0
0.240722656,-0.09272678,-0.7130889,0.69491434,0.026619747,-0.6994472,-0.71418834,0.9953357,-0.04772594,0.08383974,0.066882305,-0.9892694,-0.12989557,0.6181577,0.14327574,-0.7728862,0.78320354,-0.028603526,0.62110704,9.902695,-0.39720154,0.93678284,9.760909,-0.4680316,0.822187,0.047058105,-0.0099487305,5.493164E-4,-31.318665,-23.699951,-28.49884,0,0.0,0.0,0.0,0.0
0.249023437,-0.0927908,-0.71304643,0.6949493,0.02670272,-0.6994916,-0.7141416,0.9953274,-0.04770873,0.08394667,0.04135914,-0.993808,-0.1031273,0.6020352,0.10716225,-0.79124576,0.7973977,-0.029361019,0.6027395,10.114456,-0.52163696,0.9654999,9.760828,-0.46786284,0.82323563,0.014846802,-0.0099487305,-0.013504028,-31.318665,-23.699951,-28.49884,0,0.0,0.0,0.0,0.0
0.257324218,-0.09299945,-0.7081392,0.6999215,0.026131611,-0.7044618,-0.7092607,0.9953232,-0.047670778,0.08401938,0.01800759,-0.99692583,-0.07625322,0.5852936,0.07234328,-0.8075877,0.81062144,-0.030087817,0.5847971,10.051056,-0.5096741,0.8458557,9.760786,-0.46749064,0.8239486,-0.0016479492,5.950928E-4,0.008041382,-31.318665,-23.75946,-28.199768,0,0.0,0.0,0.0,0.0
0.265625,-0.0930177,-0.7081269,0.69993144,0.026091281,-0.70447135,-0.7092526,0.99532247,-0.047710937,0.084004246,0.00703148,-0.99800676,-0.06271436,0.576751,0.055280782,-0.8150474,0.81688976,-0.030439585,0.57599014,10.051056,-0.5096741,0.8458557,9.760779,-0.46788445,0.82380027,9.460449E-4,0.012039185,0.01399231,-31.318665,-23.75946,-28.199768,0,0.0,0.0,0.0,0.0
0.273925781,-0.09321007,-0.70628816,0.70176125,0.025798365,-0.70630634,-0.70743597,0.99531215,-0.04783586,0.084055945,-0.013423734,-0.9992705,-0.035753302,0.5594149,0.022131618,-0.8285923,0.82877904,-0.031123735,0.55870974,9.978073,-0.48214722,0.8183441,9.760678,-0.46910957,0.82430726,0.0029296875,0.024108887,0.026824951,-31.799316,-24.119568,-28.49884,0,0.0,0.0,0.0,0.0
0.282226562,-0.09345478,-0.70612323,0.7018947,0.025732953,-0.70645756,-0.7072874,0.9952909,-0.048037555,0.08419247,-0.022962404,-0.9994871,-0.022320807,0.5506598,0.0059899627,-0.83470833,0.8344139,-0.03145808,0.5502398,9.978073,-0.48214722,0.8183441,9.760469,-0.4710875,0.8256461,0.0012512207,0.025482178,0.029876709,-31.799316,-24.119568,-28.49884,0,0.0,0.0,0.0,0.0
0.290527343,-0.09358649,-0.70971614,0.698244,0.026169863,-0.70283324,-0.7108732,0.99526715,-0.04825518,0.084348865,-0.04068185,-0.9991629,0.004295284,0.5330631,-0.025339708,-0.8456959,0.8450969,-0.03211482,0.5336477,9.876373,-0.4510498,0.7908325,9.760237,-0.47322166,0.8271798,-0.01600647,0.027313232,0.03643799,-31.559753,-23.75946,-28.379822,0,0.0,0.0,0.0,0.0
0.298828125,-0.09388524,-0.7095152,0.698408,0.026068356,-0.70301795,-0.71069413,0.99524164,-0.048517343,0.084498905,-0.056577593,-0.9979378,0.030316824,0.5154621,-0.05520235,-0.8551324,0.8550425,-0.03275416,0.5175224,9.869202,-0.46061707,0.7956085,9.759987,-0.47579262,0.8286512,-0.014175415,0.0076141357,0.032165527,-31.559753,-23.75946,-28.379822,0,0.0,0.0,0.0,0.0
0.307128906,-0.094063856,-0.7104379,0.6974454,0.026048008,-0.70206785,-0.71163344,0.9952253,-0.048771918,0.084544696,-0.06392636,-0.9970214,0.04314831,0.50669134,-0.06967613,-0.85930735,0.85975426,-0.033069517,0.5096362,9.869202,-0.46061707,0.7956085,9.759827,-0.47828916,0.82910025,0.006439209,-3.2043457E-4,0.03262329,-31.858826,-23.75946,-28.49884,0,0.0,0.0,0.0,0.0
0.315441895,-0.09412105,-0.7103992,0.69747704,0.02589383,-0.70209694,-0.71161044,0.99522394,-0.04891716,0.084477045,-0.07746519,-0.99464905,0.068354756,0.48926574,-0.09766325,-0.86664927,0.8686876,-0.033691514,0.49421322,9.957733,-0.4091797,0.78364563,9.759813,-0.47971347,0.82843685,0.02217102,-0.0033874512,0.027282715,-31.858826,-23.75946,-28.49884,0,0.0,0.0,0.0,0.0
0.323742676,-0.09441531,-0.7052032,0.70269066,0.025160212,-0.7073086,-0.706457,0.99521494,-0.04902051,0.08452382,-0.08958288,-0.9916305,0.09297271,0.4720515,-0.12447046,-0.8727397,0.8770076,-0.034294628,0.47925106,10.047455,-0.41036987,0.88653564,9.759725,-0.480727,0.82889557,0.01789856,0.0037994385,0.01979065,-32.398987,-24.35913,-28.799438,0,0.0,0.0,0.0,0.0
0.332043458,-0.09449437,-0.70514935,0.70273405,0.025158394,-0.70735866,-0.7064069,0.9952074,-0.04907182,0.084581845,-0.09521059,-0.9898855,0.105174385,0.4635323,-0.13758741,-0.8753328,0.8809499,-0.034589227,0.4719437,10.047455,-0.41036987,0.88653564,9.759651,-0.48123017,0.82946455,0.02217102,0.0018157959,0.017807007,-32.398987,-24.35913,-28.799438,0,0.0,0.0,0.0,0.0
0.340344239,-0.09488006,-0.69505644,0.7126669,0.023868527,-0.7172791,-0.6963769,0.9952025,-0.04906198,0.08464547,-0.10552032,-0.9860041,0.12907876,0.44673008,-0.16297066,-0.87970036,0.8884243,-0.035162896,0.45767444,10.046265,-0.39840698,0.8949127,9.7596035,-0.4811337,0.8300886,0.026290894,-0.0029144287,0.013687134,-32.51953,-24.659729,-28.379822,0,0.0,0.0,0.0,0.0
0.34864502,-0.094881706,-0.69505537,0.7126679,0.023910437,-0.7172823,-0.6963724,0.9952014,-0.049032804,0.08467605,-0.11488998,-0.9815583,0.1527861,0.4302189,-0.18779737,-0.88297445,0.8953837,-0.035713445,0.44386098,10.009171,-0.35772705,0.8841553,9.759592,-0.48084754,0.83038837,0.037902832,-0.0072021484,0.017501831,-32.51953,-24.659729,-28.379822,0,0.0,0.0,0.0,0.0
0.356945801,-0.09482361,-0.69483846,0.71288705,0.02394287,-0.7174985,-0.69614846,0.9952061,-0.04894275,0.08467223,-0.1191514,-0.9791764,0.16436683,0.4221066,-0.19979729,-0.88425505,0.89868176,-0.0359799,0.43712297,10.009171,-0.35772705,0.8841553,9.759639,-0.47996444,0.830351,0.033477783,-0.013763428,0.0103302,-32.63855,-24.539185,-28.259277,0,0.0,0.0,0.0,0.0
0.365246583,-0.0946116,-0.6949866,0.7127709,0.023875535,-0.7173607,-0.6962927,0.9952279,-0.048859578,0.08446381,-0.12688866,-0.9741338,0.18698303,0.40618822,-0.22300589,-0.88615996,0.90493673,-0.036493357,0.4239786,10.003189,-0.39601135,0.7680969,9.759851,-0.47914878,0.8283071,0.044006348,-0.018035889,-0.0026550293,-32.63855,-24.539185,-28.259277,0,0.0,0.0,0.0,0.0
0.373547364,-0.09426968,-0.6969385,0.71090776,0.023989625,-0.7154707,-0.6982307,0.9952576,-0.048767574,0.0841665,-0.1336427,-0.9687749,0.2088418,0.39069757,-0.24516833,-0.8872699,0.91076624,-0.036983177,0.41126293,9.94696,-0.47616577,0.76091003,9.760143,-0.47824654,0.8253914,0.037750244,-0.017120361,-0.008300781,-32.57904,-24.479675,-28.318787,0,0.0,0.0,0.0,0.0
0.381848145,-0.09402199,-0.69711083,0.7107717,0.023935437,-0.7153107,-0.69839644,0.9952823,-0.048651986,0.08394059,-0.1366569,-0.96600765,0.21944039,0.3831244,-0.25582016,-0.8875651,0.91353196,-0.03721892,0.4050607,9.94696,-0.47616577,0.76091003,9.7603855,-0.477113,0.82317597,0.035308838,-0.0070495605,-0.013046265,-32.57904,-24.479675,-28.318787,0,0.0,0.0,0.0,0.0
0.390148926,-0.093728065,-0.70034134,0.7076278,0.024435204,-0.7121607,-0.7015911,0.99529797,-0.048467748,0.08386243,-0.1420514,-0.960307,0.24006645,0.3683233,-0.27638984,-0.88766354,0.9187814,-0.03767177,0.39296502,9.94577,-0.43669128,0.8123627,9.760539,-0.47530624,0.8224095,0.04248047,0.0018157959,-0.0079956055,-32.218933,-24.119568,-28.138733,0,0.0,0.0,0.0,0.0
0.398449708,-0.09359916,-0.70043045,0.70755655,0.024639651,-0.71208835,-0.70165724,0.995305,-0.048240587,0.08390925,-0.14660594,-0.9544728,0.2597853,0.35402477,-0.29585493,-0.88720703,0.92367375,-0.038099382,0.38128108,9.962524,-0.39959717,0.8566284,9.760609,-0.4730786,0.8228687,0.04248047,0.004562378,-0.007385254,-32.218933,-24.119568,-28.138733,0,0.0,0.0,0.0,0.0
0.406750489,-0.09322149,-0.7082317,0.69979817,0.025867157,-0.7043444,-0.7093869,0.99530935,-0.04802832,0.08397999,-0.14861538,-0.9515014,0.26936668,0.34705967,-0.30525053,-0.886776,0.925993,-0.038302246,0.3755927,9.962524,-0.39959717,0.8566284,9.760651,-0.47099695,0.8235624,0.043701172,0.0068511963,-0.011047363,-31.678772,-23.2193,-27.719116,0,0.0,0.0,0.0,0.0
0.41505127,-0.09314948,-0.70828146,0.6997575,0.026015699,-0.7043047,-0.70942086,0.99531215,-0.047877513,0.08403206,-0.15199775,-0.9456134,0.28759697,0.33356637,-0.32298395,-0.88567203,0.9303925,-0.038687475,0.36451763,9.98764,-0.44625854,0.82432556,9.760678,-0.469518,0.824073,0.054855347,0.011428833,-0.007843018,-31.678772,-23.2193,-27.719116,0,0.0,0.0,0.0,0.0
0.423352051,-0.09333755,-0.70296365,0.7050745,0.025444929,-0.70961887,-0.70412606,0.99530935,-0.047780838,0.08412096,-0.15479738,-0.9396483,0.305121,0.3205645,-0.33990592,-0.88413936,0.9344924,-0.039051473,0.35383445,9.92543,-0.47257996,0.83151245,9.760651,-0.46856996,0.82494485,0.047058105,-1.6784668E-4,0.012619019,-31.799316,-23.339844,-27.479553,0,0.0,0.0,0.0,0.0
0.431652833,-0.093365416,-0.7029443,0.7050903,0.025487844,-0.7096391,-0.7041043,0.99530566,-0.04776775,0.08417228,-0.15604481,-0.93659335,0.3137561,0.31422415,-0.34821573,-0.88318115,0.9364364,-0.039226092,0.34863752,9.92543,-0.47257996,0.83151245,9.760614,-0.46844164,0.8254481,0.038208008,-1.6784668E-4,0.012619019,-31.799316,-23.339844,-27.479553,0,0.0,0.0,0.0,0.0
0.439953614,-0.09319202,-0.70768106,0.70035905,0.026007831,-0.7049104,-0.7088193,0.9953084,-0.047841486,0.08409727,-0.15816824,-0.9304557,0.3305073,0.3019063,-0.3642622,-0.88100266,0.9401252,-0.039564405,0.33852512,9.900299,-0.4630127,0.76690674,9.760642,-0.46916476,0.8247126,0.03729248,-1.6784668E-4,0.018417358,-31.559753,-23.039246,-27.479553,0,0.0,0.0,0.0,0.0
0.448254395,-0.09322769,-0.70765626,0.7003793,0.025944877,-0.7049307,-0.70880145,0.99530673,-0.047908667,0.084079124,-0.15976192,-0.9244028,0.34634623,0.29010248,-0.37932596,-0.8786083,0.94356596,-0.039892234,0.32877335,9.8524475,-0.43070984,0.79322815,9.760625,-0.46982354,0.8245346,0.021560669,0.009597778,0.017959595,-31.559753,-23.039246,-27.479553,0,0.0,0.0,0.0,0.0
0.456555176,-0.09341964,-0.70412236,0.7039066,0.025430888,-0.70845526,-0.70529735,0.99530196,-0.047987655,0.08409009,-0.16040781,-0.9213785,0.35402122,0.28437513,-0.38659734,-0.87731034,0.94519854,-0.04005259,0.32403037,9.8524475,-0.43070984,0.79322815,9.760578,-0.47059816,0.8246421,0.023544312,0.007003784,0.022842407,-31.13861,-23.2193,-27.359009,0,0.0,0.0,0.0,0.0
0.464855958,-0.093531005,-0.7040459,0.70396835,0.025343586,-0.70852226,-0.70523316,0.9952937,-0.048120078,0.08411184,-0.16147876,-0.91526777,0.3690658,0.27323213,-0.4008185,-0.87446487,0.9482978,-0.04036687,0.31480423,9.914658,-0.4558258,0.81715393,9.760497,-0.47189677,0.8248554,0.009185791,-0.0044403076,0.024673462,-31.13861,-23.2193,-27.359009,0,0.0,0.0,0.0,0.0
0.473156739,-0.093583845,-0.70245457,0.7055492,0.02508954,-0.7100981,-0.7036556,0.9952952,-0.048148897,0.08407797,-0.16221212,-0.90919036,0.38348404,0.26253843,-0.4143892,-0.8714099,0.95118916,-0.04067394,0.30591637,10.04866,-0.38763428,0.8374939,9.760512,-0.47217938,0.8245232,0.002319336,-0.008117676,0.013076782,-31.079102,-23.519897,-27.539063,0,0.0,0.0,0.0,0.0
0.48145752,-0.093522504,-0.7024964,0.7055157,0.025038354,-0.71005684,-0.7036991,0.99530226,-0.04814675,0.08399565,-0.16247343,-0.9061511,0.39050284,0.25734904,-0.42097926,-0.8697976,0.9525617,-0.040823463,0.3015951,10.04866,-0.38763428,0.8374939,9.760581,-0.47215834,0.8237159,0.0053710938,-0.013153076,0.020401001,-31.079102,-23.519897,-27.539063,0,0.0,0.0,0.0,0.0
0.489758301,-0.09354405,-0.7013606,0.706642,0.02481392,-0.711176,-0.70257586,0.99530584,-0.04818724,0.08392979,-0.16277964,-0.9001186,0.40409082,0.24729171,-0.43370068,-0.8664586,0.9551699,-0.04111351,0.2931895,10.067795,-0.43070984,0.8805542,9.760616,-0.47255543,0.8230701,0.008422852,-0.018188477,0.008804321,-30.778503,-23.519897,-27.418518,0,0.0,0.0,0.0,0.0
0.498059083,-0.093562305,-0.7013482,0.7066518,0.024724524,-0.711183,-0.70257187,0.9953063,-0.04826262,0.08388043,-0.16284227,-0.8941283,0.4171533,0.23764211,-0.44589353,-0.862963,0.95760566,-0.041393667,0.28509286,9.972092,-0.4510498,0.90448,9.760621,-0.47329462,0.82258606,0.02079773,-0.0070495605,0.0013122559,-30.778503,-23.519897,-27.418518,0,0.0,0.0,0.0,0.0
0.506359864,-0.093578145,-0.70057327,0.707418,0.024645958,-0.71194816,-0.7017994,0.9953068,-0.048238087,0.08388909,-0.16278619,-0.8911631,0.42347252,0.2329697,-0.45177814,-0.8611746,0.95876265,-0.041531067,0.28115723,9.972092,-0.4510498,0.90448,9.760626,-0.47305405,0.822671,0.028427124,9.0026855E-4,-6.1035156E-5,-31.199646,-23.458862,-27.359009,0,0.0,0.0,0.0,0.0
0.514660645,-0.09362668,-0.70053977,0.7074447,0.024740476,-0.7119836,-0.7017601,0.99529994,-0.048200946,0.08399235,-0.16252403,-0.88527894,0.4357375,0.2239182,-0.46317843,-0.85751176,0.9609613,-0.041796707,0.27350768,9.968506,-0.46180725,0.9176483,9.760558,-0.4726898,0.82368356,0.031326294,0.004714966,0.003753662,-31.199646,-23.458862,-27.359009,0,0.0,0.0,0.0,0.0
0.522961426,-0.093481645,-0.7069274,0.70108116,0.02571068,-0.7056439,-0.7081,0.99528897,-0.048169084,0.084140345,-0.16207127,-0.8794896,0.44747174,0.21525884,-0.47405678,-0.8537762,0.96301425,-0.042050347,0.2661489,9.954147,-0.49172974,0.8638153,9.76045,-0.47237733,0.8251349,0.038970947,0.0066986084,0.004058838,-31.3797,-23.399353,-27.778625,0,0.0,0.0,0.0,0.0
0.531262208,-0.09356319,-0.7068718,0.7011264,0.025761269,-0.7056986,-0.7080437,0.99527997,-0.04818492,0.08423732,-0.16174346,-0.8767195,0.45299226,0.21110228,-0.47914967,-0.8519692,0.9639891,-0.04217274,0.26257682,9.954147,-0.49172974,0.8638153,9.760363,-0.47253266,0.826086,0.046447754,0.013412476,2.4414063E-4,-31.3797,-23.399353,-27.778625,0,0.0,0.0,0.0,0.0
0.539562989,-0.09378122,-0.70251614,0.7054616,0.025270306,-0.71003586,-0.703712,0.9952721,-0.048167728,0.084340826,-0.16098252,-0.871259,0.4636728,0.20306286,-0.4889879,-0.84832555,0.96584165,-0.042410854,0.25563884,9.934998,-0.4737854,0.8279114,9.760285,-0.47236407,0.827101,0.038970947,0.020599365,0.0031433105,-31.439209,-23.75946,-27.83966,0,0.0,0.0,0.0,0.0
0.54786377,-0.09391622,-0.702424,0.7055355,0.025385126,-0.7101268,-0.703616,0.99525636,-0.048170842,0.08452354,-0.1601427,-0.8657894,0.4740918,0.1953387,-0.49858865,-0.8445425,0.96757275,-0.042638853,0.24896751,9.981659,-0.46540833,0.86979675,9.760131,-0.4723946,0.8288928,0.046905518,0.017089844,0.013381958,-31.439209,-23.75946,-27.83966,0,0.0,0.0,0.0,0.0
0.556164551,-0.09387323,-0.7077809,0.70016706,0.02622363,-0.7047864,-0.7089346,0.9952387,-0.04818907,0.08472118,-0.15968081,-0.86309695,0.47913018,0.19160706,-0.5032258,-0.84264493,0.96839494,-0.042749505,0.24573097,9.981659,-0.46540833,0.86979675,9.759958,-0.47257337,0.83083093,0.042633057,0.014175415,0.012466431,-31.199646,-23.519897,-27.95868,0,0.0,0.0,0.0,0.0
0.564465333,-0.09398736,-0.70770395,0.70022964,0.026315875,-0.7048633,-0.70885485,0.9952255,-0.04819624,0.08487209,-0.15862808,-0.8579549,0.488621,0.18444408,-0.51192516,-0.8389953,0.96995753,-0.04296494,0.23945042,10.009171,-0.4402771,0.87338257,9.759829,-0.47264367,0.8323109,0.0345459,0.0051727295,0.011703491,-31.199646,-23.519897,-27.95868,0,0.0,0.0,0.0,0.0
0.572766114,-0.09406727,-0.7076499,0.7002734,0.026381996,-0.7049172,-0.7087987,0.9952162,-0.048200157,0.08497886,-0.15807097,-0.85542804,0.4932103,0.18098369,-0.5161277,-0.83717203,0.97069997,-0.04306958,0.23640335,10.025925,-0.4402771,0.8805542,9.759737,-0.47268206,0.833358,0.03163147,0.0053253174,0.0098724365,-31.199646,-23.519897,-27.95868,0,0.0,0.0,0.0,0.0
0.581066895,-0.094301425,-0.70238537,0.7055225,0.025733858,-0.71016353,-0.70356613,0.995211,-0.048191484,0.08504453,-0.15690282,-0.8504648,0.50208664,0.17429568,-0.524249,-0.833537,0.9721124,-0.043272775,0.2304885,10.025925,-0.4402771,0.8805542,9.759686,-0.47259703,0.83400196,0.024307251,-0.0059814453,0.005279541,-31.318665,-23.81897,-27.89917,0,0.0,0.0,0.0,0.0
0.589367676,-0.094041795,-0.7086783,0.69923604,0.026593473,-0.70388615,-0.7098146,0.995213,-0.048157137,0.08504095,-0.15631962,-0.8479509,0.50650126,0.17104106,-0.52829754,-0.831653,0.9727842,-0.04337116,0.22761768,10.051056,-0.42712402,0.84825134,9.759706,-0.4722602,0.83396685,0.028884888,-0.015594482,0.0026855469,-31.13861,-23.098755,-27.598572,0,0.0,0.0,0.0,0.0
0.597668458,-0.09386925,-0.7087961,0.69913995,0.026540227,-0.7037726,-0.70992935,0.9952307,-0.048085198,0.08487421,-0.15504685,-0.84320694,0.5147452,0.16480431,-0.53582144,-0.82809114,0.97406363,-0.043560702,0.22204155,10.047455,-0.39361572,0.8805542,9.759879,-0.47155473,0.8323317,0.036834717,-0.033462524,0.00390625,-31.13861,-23.098755,-27.598572,0,0.0,0.0,0.0,0.0
0.605969239,-0.093396395,-0.71498805,0.69287026,0.027272847,-0.6974882,-0.7160771,0.9952554,-0.04798247,0.084642634,-0.15372053,-0.8385916,0.5226224,0.15884075,-0.54300183,-0.8245718,0.97526383,-0.04373989,0.21667303,9.988831,-0.4127655,0.86260986,9.760122,-0.47054732,0.8300608,0.038208008,-0.031784058,-6.1035156E-5,-31.13861,-22.619629,-27.539063,0,0.0,0.0,0.0,0.0
0.61427002,-0.09314793,-0.7151576,0.6927287,0.02722133,-0.6973228,-0.71624017,0.9952801,-0.047859285,0.08442171,-0.15301135,-0.8364275,0.5262857,0.1559831,-0.54632264,-0.82292217,0.97583646,-0.04382475,0.21406211,9.9218445,-0.43429565,0.8530426,9.760364,-0.46933928,0.8278942,0.039886475,-0.023391724,-0.0023498535,-31.13861,-22.619629,-27.539063,0,0.0,0.0,0.0,0.0
0.622570801,-0.09313676,-0.71110797,0.6968866,0.026646934,-0.7014585,-0.7122119,0.99529666,-0.04776322,0.084280424,-0.1515646,-0.83219606,0.5333648,0.15045506,-0.55273426,-0.81966347,0.9769296,-0.04398454,0.20898305,9.92543,-0.43070984,0.8123627,9.760526,-0.46839717,0.8265086,0.045074463,-0.01361084,-8.239746E-4,-31.498718,-23.039246,-27.719116,0,0.0,0.0,0.0,0.0
0.630871583,-0.093006566,-0.7111973,0.69681287,0.026693255,-0.70137584,-0.71229166,0.9953076,-0.04764759,0.08421673,-0.15012737,-0.8279576,0.5403222,0.1451348,-0.55905133,-0.8163318,0.9779559,-0.04413419,0.20409435,9.92543,-0.43070984,0.8123627,9.760633,-0.46726328,0.825884,0.05393982,0.014953613,-0.0034179688,-31.498718,-23.039246,-27.719116,0,0.0,0.0,0.0,0.0
0.639172364,-0.09286746,-0.7137005,0.6942674,0.027167782,-0.6988374,-0.71476436,0.99530774,-0.047516648,0.08428892,-0.14939998,-0.8258861,0.5436836,0.14256449,-0.56210154,-0.81468844,0.9784452,-0.044204462,0.20171998,9.939789,-0.4355011,0.7525482,9.760635,-0.4659792,0.82659197,0.061569214,0.020751953,-0.004333496,-31.498718,-23.098755,-27.95868,0,0.0,0.0,0.0,0.0
0.647473145,-0.092808425,-0.71374065,0.694234,0.027308904,-0.69880575,-0.71479005,0.9953095,-0.047379766,0.08434653,-0.14791612,-0.82191485,0.5500699,0.13762198,-0.5678824,-0.81152314,0.97937787,-0.044335637,0.1971125,9.954147,-0.4127655,0.72262573,9.760652,-0.46463677,0.82715696,0.06278992,0.021514893,-0.0069274902,-31.498718,-23.098755,-27.95868,0,0.0,0.0,0.0,0.0
0.655773926,-0.0928855,-0.70797706,0.70010054,0.026697282,-0.70465845,-0.7090442,0.9953188,-0.047169145,0.08435362,-0.1464264,-0.8180639,0.55617505,0.13290367,-0.5734065,-0.80841917,0.980253,-0.04445619,0.19268554,9.927826,-0.39720154,0.6963043,9.760743,-0.46257132,0.82722646,0.06767273,0.020446777,-0.006164551,-31.498718,-23.2193,-27.659607,0,0.0,0.0,0.0,0.0
0.664074708,-0.092729114,-0.70808446,0.7000126,0.026859548,-0.70456475,-0.7091311,0.99532896,-0.046955068,0.08435249,-0.14570044,-0.8160881,0.5592599,0.13060202,-0.5762109,-0.80679864,0.9806704,-0.04451045,0.19053693,9.913467,-0.38046265,0.7405853,9.760843,-0.46047193,0.82721543,0.065078735,0.016479492,-0.009979248,-31.498718,-23.2193,-27.659607,0,0.0,0.0,0.0,0.0
0.672375489,-0.09265746,-0.7084029,0.69969994,0.027067993,-0.7042554,-0.7094305,0.99533004,-0.046794556,0.084429555,-0.1442424,-0.8122303,0.56522214,0.1261586,-0.58162886,-0.80361176,0.9814673,-0.044607267,0.18636537,9.913467,-0.38046265,0.7405853,9.760854,-0.45889783,0.8279711,0.06477356,0.005630493,-0.0037231445,-31.799316,-23.2193,-27.719116,0,0.0,0.0,0.0,0.0
0.68067627,-0.092589475,-0.7084499,0.69966125,0.027196102,-0.7042169,-0.70946383,0.9953329,-0.046660822,0.08447015,-0.14278473,-0.8085021,0.5709088,0.12192142,-0.5867937,-0.80050504,0.9822157,-0.044693887,0.1823589,9.956528,-0.43190002,0.8267212,9.760881,-0.45758635,0.82836926,0.05256653,-0.012237549,9.1552734E-5,-31.799316,-23.2193,-27.719116,0,0.0,0.0,0.0,0.0
0.688977051,-0.09229812,-0.7129891,0.6950739,0.027818758,-0.6996275,-0.7139661,0.99534273,-0.04656163,0.08440877,-0.14205778,-0.80668265,0.5736573,0.119876415,-0.58928937,-0.79897916,0.98257273,-0.04473323,0.18041538,9.956528,-0.43190002,0.8267212,9.760978,-0.4566136,0.82776725,0.04385376,-0.010406494,-2.1362305E-4,-31.678772,-23.039246,-27.83966,0,0.0,0.0,0.0,0.0
0.697277833,-0.092230886,-0.71303517,0.6950355,0.027781714,-0.6995816,-0.7140124,0.99535,-0.046544716,0.08433237,-0.14057918,-0.8032825,0.57877004,0.11595925,-0.5939105,-0.7961305,0.98325527,-0.044805635,0.17663948,9.96611,-0.4510498,0.83509827,9.761049,-0.45644775,0.8270181,0.03439331,-0.010253906,0.014907837,-31.678772,-23.039246,-27.83966,0,0.0,0.0,0.0,0.0
0.705578614,-0.09227701,-0.7119292,0.6961621,0.027635533,-0.7007069,-0.71291375,0.9953498,-0.046546746,0.08433369,-0.13911684,-0.79999346,0.5836583,0.11221373,-0.59832823,-0.7933545,0.9838976,-0.0448745,0.17300779,9.944565,-0.4091797,0.8949127,9.761047,-0.45646766,0.82703096,0.022323608,-0.017578125,0.020858765,-31.3797,-22.979736,-27.659607,0,0.0,0.0,0.0,0.0
0.713879395,-0.09234856,-0.7118803,0.69620264,0.027512457,-0.7007478,-0.7128784,0.9953466,-0.046679046,0.084298626,-0.13839701,-0.79837054,0.5860467,0.11039907,-0.6004896,-0.79197496,0.9842044,-0.044907946,0.17124532,9.893127,-0.45703125,0.8925171,9.761016,-0.45776507,0.82668716,0.010726929,-0.016052246,0.024215698,-31.3797,-22.979736,-27.659607,0,0.0,0.0,0.0,0.0
0.722180176,-0.09245117,-0.7118101,0.69626075,0.027341463,-0.7008067,-0.7128271,0.9953418,-0.04686491,0.08425233,-0.13697773,-0.79520273,0.59066886,0.10688597,-0.60467315,-0.78926915,0.98479056,-0.044978082,0.16782278,9.933807,-0.50727844,0.8757782,9.760969,-0.4595878,0.82623315,-0.0027160645,-0.013458252,0.029266357,-31.3797,-22.979736,-27.659607,0,0.0,0.0,0.0,0.0
0.730480958,-0.09257024,-0.71167505,0.6963831,0.02712043,-0.70092887,-0.71271545,0.9953368,-0.047090027,0.08418608,-0.13627937,-0.7936571,0.59290504,0.105184734,-0.6066976,-0.787943,0.98507065,-0.04501582,0.16616099,9.949356,-0.4665985,0.88175964,9.76092,-0.46179542,0.8255834,-0.0027160645,-0.01651001,0.027282715,-31.3797,-23.15979,-27.83966,0,0.0,0.0,0.0,0.0
0.738781739,-0.09268674,-0.7121654,0.69586605,0.027019497,-0.700416,-0.7132231,0.9953286,-0.04730438,0.08416164,-0.13490716,-0.7906383,0.5972361,0.10188647,-0.61062026,-0.7853419,0.985606,-0.045097966,0.16293241,9.937393,-0.45224,0.9176483,9.760839,-0.46389753,0.8253438,-0.017074585,-0.01651001,0.029418945,-31.498718,-23.2193,-27.95868,0,0.0,0.0,0.0,0.0
0.74708252,-0.09283616,-0.7120638,0.69595,0.026850425,-0.7005047,-0.7131423,0.99531925,-0.047518842,0.084151395,-0.1335637,-0.7877381,0.6013564,0.098731,-0.6143509,-0.7828315,0.98611003,-0.045185342,0.15982914,9.94696,-0.46420288,0.8889313,9.760748,-0.46600068,0.8252433,-0.04058838,-0.008880615,0.025436401,-31.498718,-23.2193,-27.95868,0,0.0,0.0,0.0,0.0
0.755383301,-0.09298429,-0.7119632,0.69603336,0.02668285,-0.70059276,-0.7130623,0.99530995,-0.04773143,0.084141314,-0.1329054,-0.7863232,0.60335064,0.097202376,-0.61615735,-0.7816021,0.9863508,-0.045232017,0.15832312,9.94696,-0.46420288,0.8889313,9.760656,-0.46808544,0.8251444,-0.04058838,-0.0019989014,0.022537231,-31.498718,-23.2193,-27.95868,0,0.0,0.0,0.0,0.0
0.763684083,-0.09301635,-0.71629524,0.6915699,0.027149875,-0.6961477,-0.71738505,0.9952944,-0.047952503,0.08420045,-0.13161612,-0.78356194,0.6072132,0.09423952,-0.61965775,-0.7791939,0.98681104,-0.045330998,0.15539944,9.98645,-0.4665985,0.93440247,9.760504,-0.47025344,0.82572436,-0.03982544,0.012802124,0.03048706,-31.3797,-22.918701,-27.95868,0,0.0,0.0,0.0,0.0
0.771984864,-0.09332728,-0.7160846,0.69174623,0.027094446,-0.69634795,-0.7171927,0.99526674,-0.048191164,0.08439017,-0.13034016,-0.7810488,0.61071616,0.09143447,-0.62281495,-0.7770079,0.9872442,-0.045434818,0.15259258,10.0247345,-0.44386292,0.91166687,9.760233,-0.47259387,0.82758486,-0.01600647,0.012802124,0.03491211,-31.3797,-22.918701,-27.95868,0,0.0,0.0,0.0,0.0
0.780285645,-0.09355555,-0.71535224,0.69247264,0.026970305,-0.69708884,-0.71647716,0.9952487,-0.048354227,0.08450981,-0.12972009,-0.77982116,0.61241466,0.09007707,-0.6243474,-0.7759359,0.98745066,-0.04548995,0.1512344,10.012772,-0.41635132,0.8757782,9.7600565,-0.47419304,0.82875824,-0.008834839,0.0068511963,0.027420044,-31.259155,-22.918701,-27.89917,0,0.0,0.0,0.0,0.0
0.788586426,-0.0936758,-0.71631557,0.69145983,0.027091604,-0.6960906,-0.7174425,0.9952341,-0.048474252,0.08461299,-0.12851384,-0.7774046,0.6157323,0.08744494,-0.6273455,-0.7738159,0.9878449,-0.045603383,0.14860268,10.035492,-0.4665985,0.89849854,9.7599125,-0.47537005,0.82976997,0.0010986328,0.0066986084,0.015975952,-31.619263,-22.738647,-27.83966,0,0.0,0.0,0.0,0.0
0.796887208,-0.09380418,-0.71622753,0.69153374,0.027065873,-0.6961743,-0.71736234,0.9952227,-0.048574623,0.08468938,-0.12733898,-0.77510726,0.6188647,0.08493377,-0.6301735,-0.77179503,0.9882161,-0.045717075,0.14607842,10.033112,-0.4665985,0.8889313,9.759801,-0.47635433,0.8305191,0.019119263,-0.01361084,0.003753662,-31.619263,-22.738647,-27.83966,0,0.0,0.0,0.0,0.0
0.805187989,-0.09379968,-0.71623063,0.6915312,0.027044687,-0.6961703,-0.7173671,0.99522364,-0.048586555,0.084670775,-0.12676555,-0.7739877,0.6203817,0.08371869,-0.6315439,-0.7708071,0.9883935,-0.04577423,0.14485525,10.033112,-0.4665985,0.8889313,9.75981,-0.47647136,0.8303367,0.031021118,-0.0128479,0.0019226074,-31.619263,-22.738647,-27.83966,0,0.0,0.0,0.0,0.0
0.81348877,-0.09375277,-0.7156607,0.6921272,0.026954673,-0.69675887,-0.71679866,0.99523056,-0.048545804,0.08461349,-0.1256411,-0.77180856,0.62331843,0.081366226,-0.6341972,-0.76887804,0.98873353,-0.045885608,0.14248037,10.053452,-0.45703125,0.89730835,9.759878,-0.47607172,0.82977486,0.034240723,-0.024307251,9.1552734E-5,-31.439209,-22.979736,-28.019714,0,0.0,0.0,0.0,0.0
0.821789551,-0.093618646,-0.7157517,0.6920514,0.026847493,-0.6966663,-0.7168928,0.99524605,-0.04853468,0.08443709,-0.124546595,-0.7696865,0.6261555,0.079109855,-0.6367633,-0.7669903,0.989055,-0.04599096,0.14019649,10.045074,-0.49172974,0.8386841,9.76003,-0.47596264,0.82804495,0.036987305,-0.023086548,-0.0049438477,-31.439209,-22.979736,-28.019714,0,0.0,0.0,0.0,0.0
0.830090333,-0.09394341,-0.70310515,0.7048529,0.025073022,-0.70943016,-0.7043293,0.99526167,-0.048494324,0.08427528,-0.12400799,-0.76865584,0.6275271,0.078015946,-0.63800347,-0.76607126,0.98920953,-0.046041835,0.13908494,10.005585,-0.4905243,0.84347534,9.760183,-0.47556686,0.8264582,0.036987305,-0.013305664,-0.0018920898,-31.498718,-23.579407,-27.719116,0,0.0,0.0,0.0,0.0
0.838391114,-0.09372419,-0.705944,0.70203906,0.025408078,-0.7066093,-0.70714766,0.99527395,-0.048439372,0.08416306,-0.12300207,-0.76619375,0.6307279,0.07580701,-0.64095116,-0.7638291,0.9895069,-0.04613896,0.13692117,9.963715,-0.49650574,0.80158997,9.7603035,-0.47502798,0.82535774,0.036834717,-0.010101318,-0.009521484,-31.3797,-23.458862,-27.778625,0,0.0,0.0,0.0,0.0
0.846691895,-0.09356289,-0.7060541,0.7019499,0.025370318,-0.7065045,-0.7072537,0.9952901,-0.048364013,0.08401542,-0.122005045,-0.7639207,0.6336718,0.07371093,-0.643652,-0.76176035,0.9897886,-0.04623006,0.1348381,9.948166,-0.47138977,0.79800415,9.760462,-0.47428897,0.8239099,0.042633057,-0.0154418945,0.001159668,-31.3797,-23.458862,-27.778625,0,0.0,0.0,0.0,0.0
0.854992676,-0.093421,-0.70615095,0.70187134,0.025313906,-0.70641106,-0.707349,0.9953048,-0.04831414,0.083869055,-0.12151322,-0.7628169,0.63509446,0.07269608,-0.64495677,-0.7607536,0.98992413,-0.04627274,0.13382457,9.948166,-0.47138977,0.79800415,9.760607,-0.4737999,0.82247454,0.042633057,-0.009033203,0.0019226074,-31.3797,-23.458862,-27.778625,0,0.0,0.0,0.0,0.0
0.863293458,-0.09332024,-0.7058883,0.7021488,0.025183156,-0.70667416,-0.7070908,0.99531764,-0.048303563,0.08372351,-0.12054412,-0.7606718,0.63784605,0.07072948,-0.64747953,-0.75879353,0.9901851,-0.046353582,0.13185178,9.932602,-0.48335266,0.78245544,9.760732,-0.47369614,0.8210472,0.035614014,-0.0078125,0.0028381348,-31.559753,-23.519897,-27.83966,0,0.0,0.0,0.0,0.0
0.871594239,-0.09323843,-0.7059443,0.7021034,0.025121324,-0.70661885,-0.7071484,0.9953269,-0.048295632,0.08361828,-0.119599015,-0.75859445,0.6404924,0.068841524,-0.64990664,-0.7568899,0.99043274,-0.046430808,0.129951,9.902695,-0.47616577,0.78245544,9.760822,-0.4736184,0.82001525,0.031799316,4.4250488E-4,0.010177612,-31.559753,-23.519897,-27.83966,0,0.0,0.0,0.0,0.0
0.87989502,-0.093367025,-0.70152014,0.7065069,0.024471413,-0.71100914,-0.70275664,0.9953309,-0.048325084,0.08355201,-0.11913494,-0.7575849,0.6417725,0.067926735,-0.6510805,-0.75596315,0.9905518,-0.04646811,0.1290267,9.9039,-0.43310547,0.7920227,9.760862,-0.4739072,0.8193653,0.023086548,0.0013580322,0.010787964,-31.678772,-23.699951,-27.719116,0,0.0,0.0,0.0,0.0
0.888195801,-0.09314176,-0.70557725,0.70248514,0.024900176,-0.7069823,-0.7067927,0.9953414,-0.048339915,0.08341857,-0.11824238,-0.7554594,0.64443755,0.06612411,-0.65354025,-0.75399786,0.99078065,-0.046541646,0.12723024,9.9039,-0.43310547,0.7920227,9.760965,-0.47405264,0.81805676,0.020950317,-0.0021514893,0.018112183,-31.799316,-23.519897,-27.83966,0,0.0,0.0,0.0,0.0
0.896496583,-0.09307417,-0.7056238,0.70244735,0.024775751,-0.7069328,-0.7068467,0.9953509,-0.048385516,0.08327954,-0.1177966,-0.75450045,0.64564157,0.06526329,-0.6546446,-0.7531143,0.9908908,-0.046577614,0.1263561,9.948166,-0.43310547,0.7298126,9.761058,-0.47449982,0.81669337,0.022476196,5.950928E-4,0.017044067,-31.799316,-23.519897,-27.83966,0,0.0,0.0,0.0,0.0
0.904797364,-0.09303019,-0.70565414,0.7024227,0.024699911,-0.7069007,-0.70688146,0.9953569,-0.048411537,0.0831927,-0.11692248,-0.75263697,0.6479713,0.06359199,-0.65678114,-0.7513951,0.991103,-0.04664921,0.12465416,9.96611,-0.41156006,0.75852966,9.761117,-0.47475502,0.81584173,0.0041503906,0.004257202,0.015213013,-31.799316,-23.519897,-27.83966,0,0.0,0.0,0.0,0.0
0.913098145,-0.09306143,-0.7050168,0.7030583,0.02452293,-0.7075314,-0.7062564,0.99535835,-0.04848417,0.08313295,-0.11607306,-0.7508426,0.6502019,0.06198872,-0.6588268,-0.74973637,0.99130434,-0.046719,0.123015806,9.954147,-0.44386292,0.7800598,9.76113,-0.47546723,0.81525576,3.0517578E-5,-0.00491333,0.015060425,-31.678772,-23.519897,-27.778625,0,0.0,0.0,0.0,0.0
0.921398926,-0.09304233,-0.70502985,0.7030477,0.02439744,-0.70751303,-0.70627904,0.9953632,-0.048561286,0.08302959,-0.115659475,-0.74995834,0.6512952,0.061208904,-0.6598307,-0.7489172,0.99140126,-0.046754304,0.12221979,9.954147,-0.44386292,0.7800598,9.761178,-0.4762235,0.8142421,0.0030822754,-0.009796143,0.018569946,-31.678772,-23.519897,-27.778625,0,0.0,0.0,0.0,0.0
0.929699708,-0.09295095,-0.7069204,0.7011587,0.02453006,-0.7056196,-0.708166,0.9953685,-0.048625242,0.08292882,-0.114851035,-0.7482392,0.6534121,0.0596942,-0.6617745,-0.7473227,0.9915876,-0.046825863,0.12067103,9.957733,-0.44386292,0.80158997,9.76123,-0.47685075,0.81325394,-0.0027160645,-0.011779785,0.013076782,-31.13861,-23.339844,-27.659607,0,0.0,0.0,0.0,0.0
0.938000489,-0.0928362,-0.70934325,0.69872284,0.024741456,-0.70318025,-0.71058106,0.99537396,-0.048680224,0.08283076,-0.114060745,-0.74665374,0.6553612,0.05825112,-0.66355765,-0.7458538,0.99176455,-0.046897124,0.11917931,9.943375,-0.4355011,0.78364563,9.761285,-0.47738996,0.81229234,-0.007293701,0.0010528564,0.017654419,-31.259155,-22.799683,-27.2995,0,0.0,0.0,0.0,0.0
0.94630127,-0.09282955,-0.7093479,0.698719,0.024640203,-0.70317084,-0.71059376,0.995377,-0.04874752,0.0827535,-0.113287084,-0.7452175,0.6571278,0.056880105,-0.66516536,-0.7445265,0.9919328,-0.046967737,0.117742695,9.939789,-0.46420288,0.78364563,9.761314,-0.47804987,0.81153464,-0.012649536,0.005783081,0.019332886,-31.259155,-22.799683,-27.2995,0,0.0,0.0,0.0,0.0
0.954602051,-0.09300159,-0.70922905,0.6988168,0.024543092,-0.70327836,-0.7104908,0.9953634,-0.048925642,0.08281267,-0.112909734,-0.74451977,0.657983,0.056214333,-0.6659437,-0.743881,0.9920138,-0.047003333,0.11704422,9.915863,-0.49771118,0.83270264,9.761181,-0.47979665,0.8121149,-0.012649536,0.017852783,0.019943237,-31.259155,-22.799683,-27.2995,0,0.0,0.0,0.0,0.0
0.962902833,-0.092876874,-0.71855533,0.6892404,0.025725685,-0.6937332,-0.71977264,0.99534523,-0.049119044,0.08291709,-0.112180844,-0.74315923,0.65964377,0.054921113,-0.6674564,-0.7426209,0.9921689,-0.04707946,0.11569095,9.939789,-0.46540833,0.86260986,9.761003,-0.4816933,0.8131389,-7.324219E-4,0.012802124,0.028335571,-31.259155,-22.259521,-27.418518,0,0.0,0.0,0.0,0.0
0.971203614,-0.09311156,-0.7183939,0.6893769,0.025690671,-0.69388777,-0.7196247,0.99532413,-0.049294822,0.08306499,-0.11181523,-0.7426763,0.66024935,0.05432378,-0.6679906,-0.74218416,0.99224305,-0.047120254,0.11503651,9.939789,-0.46540833,0.86260986,9.760796,-0.48341706,0.81458926,-7.324219E-4,0.00730896,0.028335571,-31.259155,-22.259521,-27.418518,0,0.0,0.0,0.0,0.0
0.979504395,-0.09336757,-0.7159845,0.69184434,0.025350291,-0.69636405,-0.71724075,0.9953089,-0.049428575,0.08316824,-0.111112766,-0.7417324,0.661428,0.053164918,-0.6690325,-0.7413292,0.99238473,-0.047206376,0.113772206,10.013962,-0.44625854,0.8841553,9.760646,-0.48472875,0.8156018,0.013931274,-0.0053710938,0.021469116,-31.559753,-22.37854,-27.418518,0,0.0,0.0,0.0,0.0
0.987805176,-0.09347072,-0.715747,0.69207615,0.025211796,-0.69659805,-0.7170184,0.99530274,-0.049571756,0.083156794,-0.11044899,-0.7407327,0.6626584,0.052038353,-0.67013305,-0.7404146,0.99251854,-0.047294382,0.112562016,10.051056,-0.48812866,0.8685913,9.760586,-0.4861329,0.8154896,0.02659607,-0.020629883,0.017196655,-31.619263,-22.499084,-27.539063,0,0.0,0.0,0.0,0.0
0.996105958,-0.09350456,-0.71572363,0.6920958,0.025068834,-0.6966135,-0.71700865,0.9953032,-0.04969354,0.08307889,-0.11012809,-0.74024266,0.663259,0.05148978,-0.6706711,-0.73996556,0.9925828,-0.047339935,0.111974664,10.051056,-0.48812866,0.8685913,9.760591,-0.48732716,0.81472564,0.035461426,-0.018341064,0.022384644,-31.619263,-22.499084,-27.539063,0,0.0,0.0,0.0,0.0
1.004406739,-0.09360421,-0.7156545,0.6921538,0.024979476,-0.69667536,-0.71695143,0.995296,-0.04982003,0.08308842,-0.10950491,-0.7392895,0.66442436,0.05042113,-0.6717151,-0.73909175,0.99270666,-0.047433145,0.11083192,10.013962,-0.49531555,0.93440247,9.76052,-0.4885676,0.8148191,0.042175293,-0.012390137,0.015670776,-31.619263,-22.499084,-27.539063,0,0.0,0.0,0.0,0.0
1.01270752,-0.0934409,-0.72178453,0.68578124,0.02576926,-0.69031733,-0.7230476,0.99529123,-0.049890142,0.083103724,-0.10890782,-0.73836976,0.66554433,0.049393002,-0.6727193,-0.73824733,0.99282396,-0.04752767,0.10973469,10.00679,-0.47616577,0.9068756,9.760473,-0.48925516,0.8149691,0.04827881,-0.0023040771,0.012008667,-31.079102,-22.198486,-27.598572,0,0.0,0.0,0.0,0.0
1.021008301,-0.09350908,-0.72173816,0.6858208,0.025801081,-0.69036436,-0.7230018,0.9952841,-0.0499123,0.08317695,-0.10860976,-0.7380423,0.66595614,0.048913367,-0.67307526,-0.73795474,0.9928804,-0.047574926,0.10920267,10.00679,-0.47616577,0.9068756,9.760403,-0.48947248,0.81568724,0.04660034,0.0024261475,0.0019226074,-31.079102,-22.198486,-27.598572,0,0.0,0.0,0.0,0.0
1.029309083,-0.093436554,-0.72326434,0.68422097,0.026068367,-0.688769,-0.724512,0.99528384,-0.04985938,0.08321052,-0.108032905,-0.73740447,0.666756,0.047984917,-0.6737674,-0.73738384,0.9929886,-0.047667492,0.10817334,9.976868,-0.46420288,0.83151245,9.760401,-0.4889535,0.8160165,0.04966736,0.007461548,-0.004486084,-30.778503,-22.019958,-27.479553,0,0.0,0.0,0.0,0.0
1.037609864,-0.09338988,-0.72329587,0.68419397,0.02619566,-0.6887444,-0.72453076,0.9952849,-0.049740933,0.08326898,-0.10775001,-0.7371246,0.66711116,0.047540866,-0.6740705,-0.7371356,0.9930407,-0.04771133,0.107674636,9.976868,-0.46420288,0.83151245,9.760411,-0.48779193,0.8165897,0.05744934,0.0028839111,-0.009216309,-30.778503,-22.019958,-27.479553,0,0.0,0.0,0.0,0.0
1.045910645,-0.09328043,-0.7227448,0.684791,0.026249629,-0.68933606,-0.72396606,0.9952938,-0.04955635,0.08327334,-0.10719801,-0.7365825,0.6677984,0.046684857,-0.674657,-0.7366535,0.99314106,-0.047791712,0.106709145,9.976868,-0.45224,0.78364563,9.760498,-0.4859818,0.81663245,0.063705444,0.00440979,-0.011047363,-30.659485,-22.079468,-27.479553,0,0.0,0.0,0.0,0.0
1.054211426,-0.09313569,-0.7228422,0.6847078,0.026422665,-0.6892491,-0.72404236,0.99530274,-0.049342383,0.08329312,-0.106662825,-0.73604035,0.6684816,0.045865286,-0.67524356,-0.73616743,0.99323684,-0.047861595,0.105782084,9.955338,-0.44506836,0.80158997,9.760586,-0.4838835,0.81682646,0.06906128,-0.009185791,-0.01411438,-30.659485,-22.079468,-27.479553,0,0.0,0.0,0.0,0.0
1.062512208,-0.09304223,-0.7202529,0.68744373,0.026189987,-0.6919702,-0.72145075,0.99531764,-0.049121257,0.08324588,-0.10639979,-0.7357789,0.66881126,0.04547149,-0.6755263,-0.73593247,0.99328315,-0.04789121,0.10533282,9.955338,-0.44506836,0.80158997,9.760733,-0.48171502,0.8163633,0.08294678,-0.009643555,-0.013961792,-30.718994,-22.259521,-27.479553,0,0.0,0.0,0.0,0.0
1.070812989,-0.09276766,-0.720438,0.68728685,0.026339166,-0.69179755,-0.7216111,0.9953394,-0.048839614,0.08315218,-0.10588739,-0.7351713,0.66956025,0.04469662,-0.67618406,-0.73537564,0.9933731,-0.047939926,0.10445904,9.951752,-0.40797424,0.80996704,9.760944,-0.47895297,0.8154443,0.06629944,-0.013916016,-0.018997192,-30.718994,-22.259521,-27.479553,0,0.0,0.0,0.0,0.0
1.07911377,-0.09250528,-0.7203641,0.6873998,0.026398785,-0.6918916,-0.72151875,0.9953622,-0.048597775,0.08302036,-0.105382904,-0.7345942,0.6702728,0.04395912,-0.6768084,-0.7348455,0.9934596,-0.047975555,0.10361615,9.940979,-0.49531555,0.8279114,9.761169,-0.4765814,0.81415164,0.05393982,-0.01651001,-0.018539429,-30.479431,-22.079468,-27.23999,0,0.0,0.0,0.0,0.0
1.087414551,-0.09229844,-0.7205035,0.6872814,0.026445307,-0.69175804,-0.721645,0.99538016,-0.048431333,0.08290211,-0.10513246,-0.73431265,0.67062074,0.043602653,-0.67711306,-0.7345861,0.99350184,-0.047988,0.10320454,9.940979,-0.49531555,0.8279114,9.761345,-0.47494915,0.81299204,0.05088806,-0.022781372,-0.013656616,-30.479431,-22.079468,-27.23999,0,0.0,0.0,0.0,0.0
1.095715333,-0.09200144,-0.71980315,0.6880547,0.026277386,-0.6924996,-0.7209396,0.99541205,-0.048247192,0.08262549,-0.10463737,-0.7337713,0.6712903,0.042913396,-0.6776984,-0.73408675,0.99358416,-0.048005555,0.1024012,9.942184,-0.45703125,0.72262573,9.761658,-0.47314334,0.8102793,0.056533813,-0.011474609,-0.009216309,-30.53894,-22.019958,-27.119446,0,0.0,0.0,0.0,0.0
1.104016114,-0.09173756,-0.71998197,0.6879027,0.026245464,-0.69232386,-0.7211093,0.9954372,-0.048098482,0.08240837,-0.104149885,-0.733224,0.6719639,0.042244915,-0.67828983,-0.73357904,0.99366397,-0.048015118,0.10161879,9.936203,-0.44506836,0.7310028,9.761905,-0.471685,0.80815005,0.0446167,-0.003829956,-0.0025024414,-30.53894,-22.019958,-27.119446,0,0.0,0.0,0.0,0.0
1.112316895,-0.091614,-0.7185098,0.68945676,0.026003957,-0.69385856,-0.7196417,0.995455,-0.04800065,0.08225125,-0.10390776,-0.73296183,0.67228717,0.04192031,-0.67857295,-0.7333358,0.9937031,-0.048016787,0.10123499,9.936203,-0.44506836,0.7310028,9.762079,-0.47072557,0.8066093,0.03515625,-0.0027618408,0.0028381348,-30.479431,-22.079468,-27.059937,0,0.0,0.0,0.0,0.0
1.120617676,-0.09163311,-0.71849686,0.6894677,0.025956806,-0.6938688,-0.71963346,0.99545443,-0.048045866,0.08223123,-0.10343347,-0.7323955,0.6729772,0.04128004,-0.6791842,-0.7328061,0.99377936,-0.048016146,0.10048369,9.887146,-0.4905243,0.79800415,9.7620735,-0.471169,0.80641294,0.020950317,0.009597778,0.019332886,-30.479431,-22.079468,-27.059937,0,0.0,0.0,0.0,0.0
1.128918458,-0.09154536,-0.722467,0.68531805,0.026469849,-0.68973017,-0.7235824,0.995449,-0.048100345,0.08226519,-0.10297787,-0.7318509,0.6736393,0.04066418,-0.67977107,-0.7322963,0.99385214,-0.04801732,0.099761486,9.940979,-0.4390869,0.7956085,9.762021,-0.4717033,0.806746,0.0068969727,0.018463135,0.020401001,-30.239868,-21.77887,-26.998901,0,0.0,0.0,0.0,0.0
1.137219239,-0.09168579,-0.72237235,0.685399,0.026453841,-0.6898221,-0.72349536,0.99543655,-0.04820281,0.082356416,-0.10275316,-0.73166454,0.6738759,0.040377293,-0.67997146,-0.732126,0.993887,-0.048018977,0.099411845,9.940979,-0.4390869,0.7956085,9.761898,-0.4727081,0.80764055,0.0032348633,0.014480591,0.025909424,-30.239868,-21.77887,-26.998901,0,0.0,0.0,0.0,0.0
1.14552002,-0.09209483,-0.7155547,0.69245946,0.025566068,-0.6968847,-0.7167273,0.99542195,-0.048303418,0.0824734,-0.102322266,-0.731299,0.67433816,0.03982027,-0.6803641,-0.7317917,0.99395394,-0.048026256,0.09873692,9.939789,-0.4019928,0.8195343,9.761755,-0.47369474,0.80878776,-0.007598877,0.0063934326,0.030792236,-31.019592,-22.019958,-26.879883,0,0.0,0.0,0.0,0.0
1.153820801,-0.092262074,-0.7154385,0.6925573,0.02552811,-0.6969947,-0.7166217,0.99540746,-0.04843733,0.08256997,-0.101929225,-0.7306827,0.6750654,0.039246827,-0.68102515,-0.73120755,0.9940172,-0.048037235,0.09809334,9.951752,-0.39959717,0.84825134,9.761613,-0.47500795,0.8097348,-0.0079193115,-0.0126953125,0.031555176,-31.019592,-22.019958,-26.879883,0,0.0,0.0,0.0,0.0
1.162121583,-0.09236493,-0.7151974,0.6927924,0.025399156,-0.69723254,-0.7163949,0.99540126,-0.048573423,0.082565255,-0.10174159,-0.7303813,0.6754197,0.038968228,-0.6813478,-0.7309218,0.99404734,-0.048045233,0.097783074,9.951752,-0.39959717,0.84825134,9.761552,-0.47634256,0.80968857,-0.007293701,-0.012084961,0.027282715,-31.079102,-22.198486,-27.059937,0,0.0,0.0,0.0,0.0
1.170422364,-0.09235862,-0.7152018,0.6927888,0.025316726,-0.6972243,-0.7164058,0.9954039,-0.04862711,0.08250125,-0.10138121,-0.7297866,0.67611647,0.038422972,-0.68198335,-0.73035777,0.9941054,-0.04806615,0.09718086,9.982849,-0.36131287,0.84706116,9.761578,-0.47686905,0.8090609,0.008575439,-0.010253906,0.0155181885,-31.079102,-22.198486,-27.059937,0,0.0,0.0,0.0,0.0
1.178723145,-0.09237275,-0.7151438,0.6928468,0.025239673,-0.6972798,-0.7163545,0.99540454,-0.048684407,0.08245965,-0.10103407,-0.72921515,0.67678463,0.03789667,-0.68259275,-0.7298158,0.99416095,-0.048088368,0.096599944,9.9756775,-0.4127655,0.8542328,9.761584,-0.47743097,0.80865294,0.010116577,-0.0068969727,0.010787964,-31.079102,-22.259521,-27.119446,0,0.0,0.0,0.0,0.0
1.187023926,-0.09235419,-0.7151566,0.692836,0.025228444,-0.697267,-0.7163674,0.99540657,-0.048680365,0.08243782,-0.10086572,-0.7289367,0.67710966,0.037640076,-0.6828893,-0.7295516,0.9941878,-0.04810029,0.09631735,9.9756775,-0.4127655,0.8542328,9.761604,-0.4773913,0.8084389,0.015609741,-0.003829956,0.011856079,-31.079102,-22.259521,-27.119446,0,0.0,0.0,0.0,0.0
1.195324708,-0.0923356,-0.7160974,0.6918661,0.025399387,-0.69630224,-0.71729916,0.9954039,-0.04865927,0.08248191,-0.10053761,-0.72839653,0.6777393,0.03714198,-0.68346363,-0.72903895,0.99423975,-0.048123263,0.0957679,9.972092,-0.41516113,0.87457275,9.761578,-0.47718444,0.80887127,0.034240723,-0.005050659,0.008651733,-31.019592,-22.259521,-27.178955,0,0.0,0.0,0.0,0.0
1.203625489,-0.092246704,-0.7161585,0.69181466,0.025358312,-0.6962413,-0.71735966,0.9954132,-0.048630815,0.08238654,-0.10022056,-0.727914,0.67830455,0.036671463,-0.6839762,-0.7285821,0.9942892,-0.048144486,0.09524214,9.952942,-0.43070984,0.75613403,9.761669,-0.4769054,0.80793595,0.054244995,0.00730896,0.0031433105,-31.019592,-22.259521,-27.178955,0,0.0,0.0,0.0,0.0
1.21192627,-0.092310116,-0.71209645,0.6959867,0.024837594,-0.70040035,-0.713318,0.9954205,-0.048559833,0.0823408,-0.1000648,-0.72768086,0.6785776,0.03644257,-0.6842234,-0.7283613,0.9943133,-0.048154213,0.09498524,9.952942,-0.43070984,0.75613403,9.761741,-0.4762093,0.8074874,0.055160522,0.015396118,0.0020751953,-30.899048,-22.558594,-27.178955,0,0.0,0.0,0.0,0.0
1.220227051,-0.09225324,-0.7121355,0.6959543,0.02492727,-0.7003675,-0.7133471,0.9954235,-0.04846033,0.08236276,-0.09976707,-0.7270707,0.67927516,0.035976287,-0.68487066,-0.727776,0.9943602,-0.048170276,0.094484836,9.931412,-0.43788147,0.74775696,9.76177,-0.47523353,0.8077028,0.059127808,0.016937256,-0.0018920898,-30.899048,-22.558594,-27.178955,0,0.0,0.0,0.0,0.0
1.228527833,-0.09240415,-0.7083522,0.69978464,0.02455113,-0.7041986,-0.70957834,0.99541885,-0.048387483,0.08246173,-0.09947803,-0.7264855,0.6799433,0.035532434,-0.6854906,-0.7272139,0.99440515,-0.048181765,0.094005056,9.961319,-0.4091797,0.77168274,9.761724,-0.4745191,0.8086733,0.059432983,0.0021209717,-0.001739502,-30.599976,-22.799683,-27.119446,0,0.0,0.0,0.0,0.0
1.236828614,-0.09229851,-0.7084241,0.6997258,0.02467582,-0.70413697,-0.7096352,0.9954256,-0.04823196,0.08247174,-0.099341616,-0.7261276,0.6803454,0.035309028,-0.68586934,-0.7268676,0.9944267,-0.048185878,0.09377423,9.961319,-0.4091797,0.77168274,9.761791,-0.472994,0.8087716,0.06340027,0.005783081,-3.6621094E-4,-30.599976,-22.799683,-27.119446,0,0.0,0.0,0.0,0.0
1.245129395,-0.092057206,-0.712816,0.69528335,0.02529196,-0.6996969,-0.71399206,0.99543244,-0.048143033,0.082440645,-0.09907216,-0.72543555,0.6811226,0.034880947,-0.6866013,-0.726197,0.9944687,-0.048187707,0.09332695,9.982849,-0.45224,0.7417755,9.761858,-0.4721219,0.80846655,0.06828308,0.018157959,0.004058838,-30.599976,-22.558594,-27.178955,0,0.0,0.0,0.0,0.0
1.253430176,-0.09208915,-0.7127943,0.6953013,0.025366858,-0.6997211,-0.7139656,0.9954276,-0.048110873,0.08251807,-0.09880063,-0.7249402,0.6816892,0.03449622,-0.6871243,-0.72572047,0.9945091,-0.048185937,0.092896014,9.887146,-0.46780396,0.7692871,9.76181,-0.4718065,0.80922586,0.06111145,0.019378662,0.0059051514,-30.599976,-22.558594,-27.178955,0,0.0,0.0,0.0,0.0
1.261730958,-0.09233172,-0.70798934,0.70016146,0.024819024,-0.7045831,-0.70918745,0.99541897,-0.04810317,0.08262696,-0.09866936,-0.72469956,0.681964,0.03431129,-0.6873782,-0.7254888,0.9945286,-0.04818444,0.092688546,9.887146,-0.46780396,0.7692871,9.761725,-0.47173095,0.81029373,0.05973816,0.021362305,0.005279541,-30.839539,-22.619629,-26.939392,0,0.0,0.0,0.0,0.0
1.270031739,-0.09243362,-0.707919,0.70021904,0.024892643,-0.7046528,-0.70911545,0.9954076,-0.04811581,0.08275558,-0.098426335,-0.7240458,0.6826932,0.033929516,-0.688067,-0.72485346,0.9945657,-0.04818122,0.09229044,9.895523,-0.4749756,0.7788696,9.761614,-0.4718549,0.811555,0.05088806,0.018463135,0.009109497,-30.839539,-22.619629,-26.939392,0,0.0,0.0,0.0,0.0
1.27833252,-0.092409484,-0.71081895,0.6972782,0.025372077,-0.70172817,-0.7119928,0.99539775,-0.048103496,0.082881294,-0.09819616,-0.7234144,0.6833952,0.033566106,-0.68873096,-0.7242395,0.99460083,-0.048178628,0.09191294,9.913467,-0.44506836,0.7848511,9.7615185,-0.4717342,0.8127879,0.04537964,0.017242432,0.013687134,-30.659485,-22.558594,-27.059937,0,0.0,0.0,0.0,0.0
1.286633301,-0.0924927,-0.71076214,0.6973251,0.025437128,-0.70178527,-0.71193427,0.9953884,-0.048110776,0.08298976,-0.09808311,-0.72316486,0.6836756,0.033400107,-0.6889931,-0.72399783,0.9946175,-0.048177123,0.09173237,9.913467,-0.44506836,0.7848511,9.761426,-0.47180554,0.81385154,0.038360596,0.017242432,0.0071258545,-30.659485,-22.558594,-27.059937,0,0.0,0.0,0.0,0.0
1.294934083,-0.092593774,-0.7089111,0.6991935,0.025263723,-0.7036568,-0.7100909,0.99538344,-0.048085757,0.08306397,-0.097866714,-0.72267795,0.6842213,0.03308083,-0.68950415,-0.7235259,0.9946496,-0.048174493,0.09138629,9.98645,-0.4295044,0.7896271,9.761377,-0.47156018,0.81457925,0.035003662,0.00730896,0.006210327,-30.718994,-22.499084,-26.879883,0,0.0,0.0,0.0,0.0
1.303234864,-0.092696145,-0.70884055,0.6992514,0.025317818,-0.703726,-0.71002024,0.9953725,-0.048112616,0.083178975,-0.09766309,-0.7221381,0.68482,0.03276704,-0.6900696,-0.7230008,0.9946799,-0.04817098,0.09105666,9.957733,-0.48214722,0.84706116,9.76127,-0.4718236,0.8157071,0.029647827,0.004714966,0.006652832,-30.718994,-22.499084,-26.879883,0,0.0,0.0,0.0,0.0
1.311535645,-0.09274414,-0.7096224,0.69845164,0.025467955,-0.7029362,-0.71079683,0.9953642,-0.048134107,0.08326583,-0.0975663,-0.72187465,0.6851115,0.03261614,-0.6903453,-0.72274446,0.9946944,-0.04816981,0.0908992,9.957733,-0.48214722,0.84706116,9.7611885,-0.47203434,0.8165589,0.031326294,0.0034942627,0.0016174316,-31.199646,-22.31903,-26.818848,0,0.0,0.0,0.0,0.0
1.319836426,-0.09275273,-0.70961636,0.69845665,0.025472153,-0.7029421,-0.7107909,0.9953633,-0.048136596,0.08327525,-0.09737964,-0.72139364,0.68564457,0.03232966,-0.69084805,-0.7222768,0.994722,-0.0481684,0.09059695,9.970886,-0.48335266,0.8111725,9.76118,-0.47205877,0.8166513,0.027816772,0.0039520264,-3.6621094E-4,-31.199646,-22.31903,-26.818848,0,0.0,0.0,0.0,0.0
1.328137208,-0.09269733,-0.7095438,0.6985375,0.02552164,-0.7030209,-0.71071106,0.9953672,-0.048053198,0.08327689,-0.097200364,-0.72093135,0.68615603,0.032054994,-0.6913306,-0.7218272,0.99474853,-0.048167136,0.09030703,9.936203,-0.43310547,0.8039856,9.761218,-0.4712409,0.8166673,0.029953003,0.0054779053,0.0049743652,-31.259155,-22.31903,-26.818848,0,0.0,0.0,0.0,0.0
1.336437989,-0.09266437,-0.709567,0.69851834,0.025587142,-0.70300204,-0.7107273,0.99536854,-0.047986005,0.08329903,-0.097112134,-0.7207055,0.68640566,0.031922784,-0.69156605,-0.7216074,0.99476135,-0.04816486,0.09016639,9.936203,-0.43310547,0.8039856,9.761231,-0.47058198,0.8168845,0.024154663,0.0146484375,5.493164E-4,-31.259155,-22.31903,-26.818848,0,0.0,0.0,0.0,0.0
1.34473877,-0.09252989,-0.7143082,0.69368726,0.026301857,-0.6981864,-0.7154327,0.99536246,-0.047953647,0.08339074,-0.097024985,-0.72048455,0.68665,0.03179462,-0.6917966,-0.7213921,0.9947739,-0.048161283,0.09002908,9.914658,-0.45463562,0.8159485,9.761171,-0.47026464,0.81778383,0.020492554,0.019989014,7.019043E-4,-31.498718,-22.198486,-27.059937,0,0.0,0.0,0.0,0.0
1.353039551,-0.09259656,-0.71426135,0.6937265,0.026411626,-0.6982365,-0.71537954,0.9953533,-0.047919247,0.083519116,-0.096848726,-0.7202411,0.6869301,0.03157554,-0.6920506,-0.7211581,0.9947981,-0.04815306,0.08976622,9.931412,-0.4857483,0.879364,9.761082,-0.4699273,0.81904274,0.013153076,0.0135650635,0.004058838,-31.498718,-22.198486,-27.059937,0,0.0,0.0,0.0,0.0
1.361340333,-0.09258952,-0.71713746,0.69075394,0.026964445,-0.6952854,-0.7182276,0.9953391,-0.047874555,0.08371335,-0.09668204,-0.72000545,0.6872006,0.03136971,-0.6922964,-0.7209311,0.99482083,-0.048143804,0.08951899,10.037888,-0.46180725,0.9152527,9.760942,-0.469489,0.8209476,0.016830444,-0.010253906,-0.0069274902,-31.678772,-22.37854,-27.479553,0,0.0,0.0,0.0,0.0
1.369641114,-0.092558034,-0.7171593,0.69073546,0.027065407,-0.69526917,-0.71823967,0.9953394,-0.04778382,0.083762966,-0.09660057,-0.7199483,0.6872721,0.03128128,-0.6923563,-0.7208774,0.99483156,-0.04813842,0.089402914,10.061813,-0.45344543,0.8925171,9.760945,-0.46859923,0.82143414,0.019882202,-0.008880615,-0.0054016113,-31.678772,-22.37854,-27.479553,0,0.0,0.0,0.0,0.0
1.377941895,-0.09250016,-0.7171995,0.6907015,0.027156323,-0.69523454,-0.7182696,0.9953422,-0.047683146,0.08378581,-0.096441194,-0.71983796,0.68740994,0.031113729,-0.6924719,-0.72077364,0.9948523,-0.048124377,0.08917966,10.012772,-0.47616577,0.8566284,9.760973,-0.46761194,0.82165813,0.021255493,-0.0012359619,-0.0052490234,-31.678772,-22.37854,-27.479553,0,0.0,0.0,0.0,0.0
1.386242676,-0.092672065,-0.71334064,0.6946632,0.026716933,-0.69919574,-0.7144308,0.99533814,-0.047648516,0.08385419,-0.09628576,-0.7197337,0.6875409,0.030956466,-0.6925815,-0.7206751,0.9948722,-0.04810691,0.088966146,10.012772,-0.47616577,0.8566284,9.760933,-0.4672723,0.8223287,0.011169434,0.021820068,0.005279541,-31.858826,-22.679138,-27.539063,0,0.0,0.0,0.0,0.0
1.394543458,-0.09274925,-0.71478724,0.69316435,0.02700843,-0.69771516,-0.7158661,0.9953232,-0.047674764,0.084017836,-0.09621414,-0.7196064,0.6876842,0.030870922,-0.69271445,-0.720551,0.9948818,-0.048097745,0.088863835,9.96611,-0.5001068,0.9152527,9.760786,-0.46752974,0.82393354,0.012237549,0.021820068,0.013381958,-31.559753,-22.37854,-27.2995,0,0.0,0.0,0.0,0.0
1.402844239,-0.09304075,-0.71458405,0.69333476,0.027093027,-0.6979145,-0.71566844,0.9952936,-0.04780179,0.08429473,-0.096077934,-0.71941614,0.6879022,0.030717056,-0.6929131,-0.7203665,0.99489975,-0.048080996,0.088672005,9.914658,-0.5240326,0.87457275,9.760496,-0.46877542,0.82664895,0.01637268,0.016784668,0.022537231,-31.559753,-22.37854,-27.2995,0,0.0,0.0,0.0,0.0
1.41114502,-0.09326984,-0.71412444,0.69377726,0.027048856,-0.698375,-0.71522063,0.99527335,-0.04794264,0.08445358,-0.095958635,-0.71922535,0.6881183,0.03057276,-0.69311196,-0.72018135,0.99491566,-0.048069943,0.08849878,9.974487,-0.47257996,0.8422699,9.760298,-0.4701567,0.8282068,0.010421753,0.018157959,0.02192688,-31.318665,-22.198486,-27.059937,0,0.0,0.0,0.0,0.0
1.419445801,-0.09344784,-0.71400017,0.69388133,0.02708076,-0.698496,-0.71510154,0.9952559,-0.04803386,0.08460861,-0.095905334,-0.71912384,0.6882318,0.030501902,-0.69321746,-0.72008276,0.994923,-0.0480674,0.0884179,10.031906,-0.42591858,0.85902405,9.760126,-0.47105125,0.829727,0.014083862,0.011734009,0.021469116,-31.318665,-22.198486,-27.059937,0,0.0,0.0,0.0,0.0
1.427746583,-0.09355317,-0.7139265,0.6939428,0.027086291,-0.6985667,-0.7150319,0.99524575,-0.04809718,0.084690765,-0.09580897,-0.7189217,0.6884564,0.030365784,-0.69342715,-0.71988654,0.99493647,-0.048066072,0.08826716,10.00679,-0.42352295,0.8829498,9.760027,-0.4716722,0.8305327,0.0110321045,-0.005218506,0.012161255,-31.318665,-22.198486,-27.059937,0,0.0,0.0,0.0,0.0
1.436047364,-0.093636826,-0.7128835,0.69500315,0.026972976,-0.6996304,-0.7139957,0.995241,-0.048109986,0.08473975,-0.095720455,-0.7187246,0.68867457,0.030235264,-0.6936314,-0.7196953,0.994949,-0.0480673,0.088125534,10.00679,-0.42352295,0.92123413,9.75998,-0.4717978,0.8310131,0.027664185,-0.022476196,0.002532959,-31.3797,-22.259521,-27.059937,0,0.0,0.0,0.0,0.0
1.444348145,-0.09338102,-0.7167188,0.6910818,0.027460761,-0.6957048,-0.71780264,0.99525166,-0.04805152,0.084647276,-0.09567925,-0.71860814,0.6888017,0.030169632,-0.693752,-0.7195818,0.99495494,-0.048068155,0.088057816,9.94696,-0.41516113,0.8769684,9.760085,-0.47122446,0.8301062,0.039123535,-0.018798828,-5.187988E-4,-31.13861,-22.439575,-27.479553,0,0.0,0.0,0.0,0.0
1.452648926,-0.093228765,-0.7168229,0.6909944,0.02749737,-0.695606,-0.71789694,0.9952649,-0.04792812,0.084561236,-0.09558849,-0.71853334,0.6888923,0.03006208,-0.6938294,-0.71951157,0.99496686,-0.0480675,0.08792272,9.94696,-0.41516113,0.8769684,9.760215,-0.4700143,0.82926244,0.044158936,-0.007965088,-0.007232666,-31.13861,-22.439575,-27.479553,0,0.0,0.0,0.0,0.0
1.460949708,-0.093279,-0.7127644,0.69517326,0.027019843,-0.69977254,-0.7138545,0.9952733,-0.047804154,0.084532864,-0.09549533,-0.71846575,0.68897575,0.029960323,-0.6938998,-0.7194479,0.99497885,-0.04806198,0.087789655,9.890732,-0.42712402,0.8530426,9.760297,-0.46879864,0.82898426,0.0446167,0.008987427,0.0075683594,-31.498718,-22.679138,-27.479553,0,0.0,0.0,0.0,0.0
1.469250489,-0.09327556,-0.7127668,0.6951713,0.0271198,-0.69977504,-0.7138483,0.9952709,-0.04773169,0.084602006,-0.095451444,-0.71835226,0.6891002,0.029901173,-0.69401777,-0.71933675,0.9949849,-0.048056822,0.08772457,9.899109,-0.44865417,0.8721771,9.760274,-0.468088,0.82966226,0.04095459,0.011886597,0.012619019,-31.498718,-22.679138,-27.479553,0,0.0,0.0,0.0,0.0
1.47755127,-0.09340605,-0.71267647,0.69524634,0.027204879,-0.69986546,-0.71375644,0.99525636,-0.047755085,0.08475996,-0.09536593,-0.7181321,0.6893414,0.029790249,-0.6942464,-0.71912056,0.9949964,-0.04804395,0.08760079,9.940979,-0.45703125,0.8231354,9.760131,-0.46831742,0.83121127,0.036071777,0.015701294,0.013076782,-31.498718,-22.679138,-27.479553,0,0.0,0.0,0.0,0.0
1.485852051,-0.0934317,-0.7132062,0.6946995,0.027273927,-0.6993233,-0.71428496,0.9952521,-0.047789674,0.08479089,-0.09528898,-0.7179167,0.6895763,0.02968721,-0.6944698,-0.7189091,0.99500686,-0.04803251,0.08748827,9.897903,-0.44506836,0.74417114,9.760089,-0.46865663,0.83151466,0.019729614,0.023956299,0.019180298,-31.619263,-22.799683,-27.659607,0,0.0,0.0,0.0,0.0
1.494152833,-0.093629956,-0.71041995,0.697522,0.026899267,-0.702149,-0.71152174,0.9952436,-0.047856923,0.08485196,-0.09525211,-0.7178229,0.6896791,0.029638689,-0.6945672,-0.71881706,0.9950118,-0.04802765,0.08743432,9.955338,-0.45942688,0.8063812,9.760006,-0.4693161,0.83211344,0.015609741,0.021514893,0.021621704,-31.739807,-22.679138,-27.359009,0,0.0,0.0,0.0,0.0
1.502453614,-0.09381313,-0.7102916,0.6976281,0.026862439,-0.70226914,-0.7114046,0.99522734,-0.0479991,0.08496223,-0.0951889,-0.71753114,0.6899914,0.029529579,-0.6948691,-0.7185297,0.99502116,-0.048020896,0.08733223,9.955338,-0.47257996,0.87338257,9.759847,-0.47071037,0.83319485,0.01499939,0.0146484375,0.026046753,-31.739807,-22.679138,-27.359009,0,0.0,0.0,0.0,0.0
1.510754395,-0.094032966,-0.7101375,0.6977553,0.026816815,-0.70241314,-0.7112641,0.99520785,-0.048170697,0.085093625,-0.09513521,-0.717246,0.69029516,0.029423311,-0.6951635,-0.71824926,0.9950294,-0.04802003,0.087238275,10.015152,-0.47257996,0.87338257,9.759655,-0.47239318,0.8344834,0.019424438,0.0013580322,0.01826477,-31.739807,-22.679138,-27.359009,0,0.0,0.0,0.0,0.0
1.519055176,-0.094178595,-0.71001786,0.6978575,0.026756871,-0.70252514,-0.71115583,0.9951957,-0.04830317,0.08516067,-0.095113635,-0.7171045,0.6904452,0.029370964,-0.6953092,-0.71811026,0.995033,-0.04802304,0.08719545,9.976868,-0.45463562,0.91645813,9.759536,-0.47369227,0.83514094,0.017288208,0.0053253174,0.014144897,-31.799316,-22.37854,-27.059937,0,0.0,0.0,0.0,0.0
1.527355958,-0.09433713,-0.7099052,0.69795054,0.026779741,-0.70263296,-0.7110482,0.99518,-0.048387315,0.08529547,-0.09507744,-0.71682507,0.6907403,0.029267013,-0.6955966,-0.71783626,0.9950396,-0.048034128,0.08711486,9.950546,-0.48812866,0.81715393,9.759382,-0.47451746,0.8364628,0.013153076,0.0048675537,0.019943237,-31.799316,-22.37854,-27.059937,0,0.0,0.0,0.0,0.0
1.535656739,-0.094284505,-0.7094742,0.6983958,0.02657152,-0.7030643,-0.7106296,0.9951906,-0.048443925,0.085139886,-0.095063075,-0.71668726,0.6908852,0.029217135,-0.695738,-0.71770114,0.9950424,-0.048041195,0.087078534,9.958923,-0.43310547,0.7393799,9.759486,-0.47507262,0.8349371,0.014846802,-0.017120361,0.0155181885,-31.97937,-22.859192,-27.539063,0,0.0,0.0,0.0,0.0
1.54395752,-0.094187036,-0.7065583,0.7013588,0.02605519,-0.70599866,-0.7077336,0.99521345,-0.048385292,0.08490544,-0.09503314,-0.7164032,0.69118387,0.029112075,-0.6960294,-0.71742284,0.99504834,-0.048057143,0.08700184,10.017548,-0.3672943,0.80877686,9.75971,-0.47449765,0.8326379,0.014541626,-0.043548584,0.008804321,-31.799316,-22.918701,-27.359009,0,0.0,0.0,0.0,0.0
1.552258301,-0.09398731,-0.70669866,0.7012442,0.025897857,-0.70585924,-0.70787853,0.9952365,-0.04837088,0.08464379,-0.09500094,-0.7160162,0.69158924,0.028990522,-0.6964267,-0.71704215,0.99505496,-0.04807014,0.08691887,10.001999,-0.43429565,0.8841553,9.759936,-0.4743563,0.83007205,0.016677856,-0.035446167,-0.0035705566,-31.799316,-22.918701,-27.359009,0,0.0,0.0,0.0,0.0
1.560559083,-0.093749486,-0.7068656,0.7011077,0.025807843,-0.70569783,-0.70804256,0.9952612,-0.048284553,0.084401496,-0.09498134,-0.715831,0.69178367,0.028928388,-0.69661665,-0.7168602,0.99505866,-0.048076153,0.08687342,10.001999,-0.43429565,0.8841553,9.760179,-0.47350973,0.82769597,0.010116577,-0.026290894,-0.008148193,-31.799316,-22.918701,-27.359009,0,0.0,0.0,0.0,0.0
1.568859864,-0.09375248,-0.7069528,0.70101935,0.025799055,-0.70560926,-0.70813125,0.9952612,-0.04830343,0.08439133,-0.09493378,-0.7154783,0.6921549,0.028804146,-0.6969782,-0.7165135,0.99506676,-0.048084404,0.08677552,9.943375,-0.5288086,0.9786682,9.760179,-0.47369483,0.8275963,0.0027770996,-0.006439209,0.002380371,-31.739807,-23.098755,-27.539063,0,0.0,0.0,0.0,0.0
1.577160645,-0.093879975,-0.70686406,0.7010919,0.025873031,-0.7056963,-0.7080418,0.9952472,-0.04833157,0.08453946,-0.0948881,-0.71514255,0.69250804,0.028684475,-0.69732213,-0.71618366,0.99507457,-0.048093077,0.08668106,9.96611,-0.501297,1.0014038,9.760041,-0.4739708,0.82904893,0.006439209,0.006088257,0.006958008,-31.739807,-23.098755,-27.539063,0,0.0,0.0,0.0,0.0
1.585461426,-0.094314545,-0.7018246,0.7060785,0.025328241,-0.710702,-0.70303696,0.9952202,-0.04842289,0.084805526,-0.09486845,-0.714978,0.6926806,0.028627966,-0.6974906,-0.71602184,0.9950781,-0.04809785,0.08663821,9.950546,-0.5132599,0.9714813,9.759776,-0.47486636,0.8316581,0.006439209,0.03250122,0.009109497,-32.03888,-23.2193,-27.359009,0,0.0,0.0,0.0,0.0
1.593762208,-0.09468375,-0.70074415,0.7071015,0.025374409,-0.7117606,-0.7019636,0.99518394,-0.048522267,0.08517314,-0.094848186,-0.7144618,0.69321585,0.028496679,-0.6980184,-0.71551263,0.9950838,-0.04811072,0.08656556,9.960129,-0.42712402,0.850647,9.75942,-0.47584087,0.83526313,0.041412354,0.018463135,0.005432129,-32.03888,-23.519897,-27.598572,0,0.0,0.0,0.0,0.0
1.602062989,-0.09477056,-0.7006832,0.70715034,0.025527302,-0.7118244,-0.7018934,0.9951718,-0.04846718,0.08534654,-0.09484324,-0.7139237,0.69377065,0.028372664,-0.6985676,-0.7149812,0.9950878,-0.048127018,0.08651034,10.013962,-0.45703125,0.8195343,9.759302,-0.47530073,0.8369638,0.041870117,0.009902954,8.544922E-4,-32.03888,-23.519897,-27.598572,0,0.0,0.0,0.0,0.0
1.61036377,-0.09477532,-0.70067984,0.707153,0.025624264,-0.71183217,-0.7018819,0.9951688,-0.04840081,0.08541853,-0.09484249,-0.7136614,0.69404054,0.028315656,-0.6988351,-0.7147221,0.9950895,-0.048133817,0.086487055,10.013962,-0.45703125,0.8195343,9.759273,-0.47464982,0.8376696,0.041870117,0.017852783,-0.004180908,-32.03888,-23.519897,-27.598572,0,0.0,0.0,0.0,0.0
1.618664551,-0.094727576,-0.70238304,0.7054677,0.026002325,-0.7101583,-0.7035616,0.99516356,-0.048302896,0.085535176,-0.09484114,-0.7131519,0.6945643,0.028208878,-0.69935435,-0.71421826,0.9950927,-0.04814439,0.08644478,9.929016,-0.43788147,0.8566284,9.759221,-0.47368962,0.83881354,0.048736572,0.023651123,-0.007843018,-32.03888,-23.519897,-27.719116,0,0.0,0.0,0.0,0.0
1.626965333,-0.09484626,-0.70229995,0.70553446,0.026169088,-0.7102435,-0.70346946,0.99514794,-0.048258264,0.0857425,-0.09483754,-0.7127287,0.69499904,0.028121375,-0.69978523,-0.71379954,0.9950955,-0.048150666,0.08640882,9.885941,-0.48693848,0.850647,9.759068,-0.4732519,0.8408467,0.051330566,0.017089844,0.0057373047,-32.03888,-23.519897,-27.719116,0,0.0,0.0,0.0,0.0
1.635266114,-0.09503033,-0.7008236,0.7069764,0.02609212,-0.7117,-0.70199883,0.9951323,-0.04826466,0.085919045,-0.0948381,-0.7125217,0.69521123,0.028082296,-0.6999959,-0.7135946,0.99509656,-0.04815282,0.08639552,9.931412,-0.47616577,0.76330566,9.758915,-0.47331464,0.84257805,0.05180359,0.016784668,0.010940552,-32.339478,-23.81897,-27.95868,0,0.0,0.0,0.0,0.0
1.643566895,-0.095040604,-0.70118004,0.70662147,0.026111804,-0.7113463,-0.7023565,0.9951309,-0.048301224,0.085915856,-0.09484655,-0.7120621,0.6956808,0.028003544,-0.7004631,-0.71313906,0.995098,-0.048157245,0.086376764,9.961319,-0.44625854,0.7501526,9.758901,-0.4736732,0.84254676,0.043548584,0.00440979,0.013839722,-32.159424,-24.119568,-28.259277,0,0.0,0.0,0.0,0.0
1.651867676,-0.09498933,-0.7012153,0.7065932,0.026044518,-0.7113103,-0.7023953,0.9951375,-0.04831719,0.08582972,-0.094850734,-0.7118462,0.6959011,0.027965683,-0.7006822,-0.71292514,0.9950986,-0.048160125,0.08636749,9.961319,-0.44625854,0.7501526,9.7589655,-0.47382978,0.84170204,0.041107178,5.950928E-4,0.012313843,-32.159424,-24.119568,-28.259277,0,0.0,0.0,0.0,0.0
1.660168458,-0.09496792,-0.70123017,0.7065815,0.02602733,-0.71129584,-0.7024107,0.99514,-0.048316054,0.08580144,-0.09485693,-0.71142834,0.6963274,0.02788961,-0.701106,-0.71251136,0.99510014,-0.048166346,0.08634623,9.927826,-0.44506836,0.8123627,9.75899,-0.47381863,0.8414247,0.022628784,0.0039520264,0.0019226074,-32.159424,-24.119568,-28.259277,1,0.0,0.0,0.0,0.0
1.668469239,-0.09476293,-0.70665616,0.7011826,0.02688006,-0.7059118,-0.70778954,0.9951369,-0.048224386,0.085889235,-0.09486195,-0.71102756,0.696736,0.027815819,-0.7015121,-0.71211445,0.99510175,-0.04817228,0.08632462,9.88356,-0.40797424,0.8674011,9.75896,-0.47291967,0.8422857,0.02079773,0.019683838,0.0071258545,-31.91986,-23.81897,-28.318787,1,0.0,0.0,0.0,0.0
1.67677002,-0.09480541,-0.70662713,0.70120615,0.02702725,-0.7059462,-0.70774966,0.99512887,-0.048146825,0.08602571,-0.09486008,-0.71094036,0.6968252,0.02779711,-0.70160043,-0.7120282,0.99510247,-0.04817332,0.08631595,9.88356,-0.40797424,0.8674011,9.758881,-0.4721591,0.843624,0.018051147,0.01020813,0.00819397,-31.91986,-23.81897,-28.318787,1,0.0,0.0,0.0,0.0
1.685070801,-0.09476387,-0.7090648,0.6987466,0.027462441,-0.7035002,-0.7101641,0.9951209,-0.04810862,0.08613906,-0.09485801,-0.7107701,0.6969992,0.027766585,-0.701773,-0.7118593,0.9951035,-0.048172273,0.08630445,9.88356,-0.40797424,0.8674011,9.758802,-0.4717844,0.8447356,0.01637268,0.010055542,0.006210327,-32.339478,-23.939514,-28.678894,1,0.0,0.0,0.0,0.0
1.693371583,-0.09484936,-0.7072951,0.7005264,0.027362414,-0.7052854,-0.7083953,0.9951155,-0.048022743,0.086249165,-0.094854325,-0.7107027,0.6970684,0.027754575,-0.70184135,-0.7117924,0.9951042,-0.04816975,0.08629794,9.974487,-0.3912201,0.88653564,9.75875,-0.47094226,0.84581536,0.017745972,0.010055542,0.005126953,-32.398987,-24.179077,-28.799438,1,0.0,0.0,0.0,0.0
1.701672364,-0.09476049,-0.7073557,0.70047724,0.027404677,-0.7052305,-0.7084483,0.99512285,-0.04793656,0.08621284,-0.09485418,-0.71063477,0.69713765,0.027746666,-0.70191044,-0.7117246,0.99510443,-0.04816681,0.086296886,10.013962,-0.39959717,0.78604126,9.7588215,-0.47009706,0.8454592,0.019577026,0.0013580322,0.0103302,-32.398987,-24.179077,-28.799438,1,0.0,0.0,0.0,0.0
1.709973145,-0.094576746,-0.70748085,0.7003757,0.027314488,-0.70510846,-0.70857316,0.99514276,-0.04788414,0.08601134,-0.09485054,-0.710505,0.6972704,0.027733102,-0.70204234,-0.711595,0.99510515,-0.048157696,0.0862936,9.958923,-0.4283142,0.76690674,9.759017,-0.469583,0.84348315,0.024307251,-0.009796143,0.015670776,-32.398987,-24.179077,-28.799438,1,0.0,0.0,0.0,0.0
1.718273926,-0.09460588,-0.7041198,0.70375067,0.026742108,-0.70846367,-0.7052403,0.9951555,-0.047900107,0.08585448,-0.0948397,-0.7103854,0.6973938,0.027716413,-0.7021642,-0.71147543,0.99510664,-0.048146863,0.08628237,9.979263,-0.42712402,0.8267212,9.759142,-0.4697396,0.8419448,0.018814087,-0.0055236816,0.012008667,-32.03888,-24.299622,-28.619385,1,0.0,0.0,0.0,0.0
1.726574708,-0.09455186,-0.70415646,0.70372134,0.026695356,-0.7084274,-0.70527864,0.9951619,-0.04789931,0.08578083,-0.09483515,-0.7102606,0.6975214,0.0276969,-0.70229065,-0.71135134,0.99510765,-0.04814193,0.08627386,9.979263,-0.42712402,0.8267212,9.759205,-0.46973178,0.8412226,0.018814087,0.0037994385,0.0029907227,-32.03888,-24.299622,-28.619385,1,0.0,0.0,0.0,0.0
1.734875489,-0.09436805,-0.7098612,0.6979912,0.027523253,-0.70271236,-0.71094155,0.9951569,-0.047879178,0.08585128,-0.09482403,-0.71002,0.69776785,0.02765702,-0.7025346,-0.71111196,0.99510986,-0.048132323,0.08625421,9.92543,-0.44506836,0.87457275,9.759155,-0.46953437,0.84191346,0.015457153,0.01234436,2.4414063E-4,-31.678772,-23.339844,-28.019714,1,0.0,0.0,0.0,0.0
1.74317627,-0.09444211,-0.7096846,0.69816077,0.027631897,-0.70289373,-0.7107579,0.99514675,-0.04783397,0.0859927,-0.094805956,-0.71001375,0.6977766,0.027651716,-0.7025416,-0.7111052,0.9951117,-0.048122294,0.086238235,9.976868,-0.43070984,0.91645813,9.759057,-0.46909106,0.8433004,0.019882202,0.01663208,0.006515503,-31.318665,-23.15979,-27.778625,1,0.0,0.0,0.0,0.0
1.751477051,-0.0945487,-0.7096119,0.6982204,0.02781095,-0.7029713,-0.71067435,0.9951317,-0.047775168,0.0862,-0.094791494,-0.71000093,0.6977917,0.0276509,-0.70255536,-0.7110917,0.9951131,-0.048110876,0.08622843,9.994827,-0.41874695,0.8410797,9.758908,-0.46851435,0.8453332,0.040039063,0.016174316,-5.187988E-4,-31.318665,-23.15979,-27.778625,1,0.0,0.0,0.0,0.0
1.759777833,-0.09455281,-0.70960903,0.69822264,0.027947757,-0.7029805,-0.71065986,0.9951275,-0.047681127,0.08630076,-0.09478663,-0.7099933,0.69780016,0.027654123,-0.7025635,-0.7110835,0.99511343,-0.04810416,0.086227864,9.984055,-0.42352295,0.80996704,9.758867,-0.46759212,0.8463214,0.04095459,0.014953613,-0.0011291504,-31.318665,-23.15979,-27.778625,1,0.0,0.0,0.0,0.0
1.768078614,-0.094306745,-0.7165425,0.6911389,0.029011887,-0.6959162,-0.71753657,0.9951203,-0.047617305,0.08641785,-0.09477739,-0.7099781,0.69781685,0.027665768,-0.70258003,-0.7110668,0.99511397,-0.048087407,0.086230785,9.92543,-0.44386292,0.850647,9.758797,-0.46696624,0.8474696,0.04034424,0.0027313232,0.0022277832,-30.778503,-22.859192,-27.89917,1,0.0,0.0,0.0,0.0
1.776379395,-0.09431925,-0.71653414,0.6911459,0.02909429,-0.69592816,-0.7175217,0.9951168,-0.04756771,0.08648648,-0.094759084,-0.7102392,0.6975536,0.0277192,-0.70231736,-0.71132404,0.9951142,-0.04806879,0.08623821,9.92543,-0.45703125,0.82432556,9.758762,-0.4664799,0.8481427,0.034851074,0.0013580322,0.0072631836,-30.778503,-22.859192,-27.89917,1,0.0,0.0,0.0,0.0
1.784680176,-0.09434535,-0.71555537,0.6921556,0.028957475,-0.696935,-0.7165493,0.99511826,-0.047560025,0.08647327,-0.09475041,-0.7103656,0.697426,0.027746707,-0.7021902,-0.71144855,0.99511427,-0.048058767,0.086243115,9.92543,-0.45703125,0.82432556,9.758777,-0.46640453,0.8480131,0.031936646,0.003036499,0.01109314,-30.899048,-22.738647,-27.719116,1,0.0,0.0,0.0,0.0
1.792980958,-0.09435772,-0.715547,0.69216263,0.028927796,-0.69694173,-0.7165441,0.99511796,-0.047588725,0.08646103,-0.094742484,-0.7104697,0.697321,0.027771007,-0.7020855,-0.71155083,0.9951143,-0.04804879,0.08624779,9.92543,-0.45703125,0.82432556,9.758774,-0.46668598,0.84789306,0.035003662,0.0054779053,0.010940552,-30.899048,-22.738647,-27.719116,1,0.0,0.0,0.0,0.0
1.801281739,-0.09455653,-0.7120981,0.69568336,0.028450403,-0.7004619,-0.7131225,0.99511284,-0.047637913,0.086492725,-0.09472751,-0.7106715,0.6971174,0.027816936,-0.70188254,-0.7117494,0.9951145,-0.04803057,0.08625629,9.972092,-0.45942688,0.84825134,9.758723,-0.46716836,0.8482039,0.025680542,0.01234436,0.012924194,-31.318665,-23.039246,-27.83966,1,0.0,0.0,0.0,0.0
1.80958252,-0.09468298,-0.712012,0.69575435,0.028529666,-0.7005478,-0.7130349,0.99509853,-0.04766263,0.08664341,-0.09472075,-0.71072793,0.6970608,0.027841985,-0.7018264,-0.7118037,0.99511445,-0.04801502,0.0862656,9.984055,-0.4355011,0.9140625,9.758584,-0.46741077,0.8496817,0.03010559,0.011123657,0.014144897,-31.318665,-23.039246,-27.83966,1,0.0,0.0,0.0,0.0
1.817883301,-0.09488303,-0.71012855,0.6976494,0.02836601,-0.7024553,-0.7111625,0.9950842,-0.04768772,0.0867946,-0.09472006,-0.7107536,0.6970347,0.027855776,-0.7018009,-0.7118283,0.99511415,-0.048007976,0.08627322,9.984055,-0.4355011,0.9140625,9.758443,-0.4676568,0.8511643,0.012542725,0.004257202,0.0098724365,-31.3797,-23.039246,-27.719116,1,0.0,0.0,0.0,0.0
1.826184083,-0.09505164,-0.71001285,0.6977442,0.028423756,-0.7025677,-0.7110491,0.99506646,-0.047753867,0.08696144,-0.09472653,-0.71072894,0.697059,0.027876038,-0.70182675,-0.71180207,0.99511296,-0.04799529,0.08629392,10.010376,-0.45942688,0.97268677,9.758269,-0.4683055,0.8528005,0.018051147,-0.0027618408,0.015213013,-31.3797,-23.039246,-27.719116,1,0.0,0.0,0.0,0.0
1.834484864,-0.09504662,-0.71140724,0.69632316,0.028612286,-0.7011532,-0.71243644,0.9950616,-0.04779127,0.08699722,-0.09473933,-0.71070045,0.6970863,0.027897686,-0.70185626,-0.7117721,0.9951111,-0.047985725,0.086320296,10.060623,-0.44148254,0.9272156,9.758221,-0.46867225,0.8531513,0.012237549,-0.0068969727,0.008804321,-31.559753,-22.738647,-27.539063,1,0.0,0.0,0.0,0.0
1.842785645,-0.095016435,-0.7114282,0.6963058,0.028580341,-0.70113164,-0.71245885,0.99506533,-0.04779464,0.08695189,-0.0947455,-0.7107147,0.69707096,0.027911983,-0.7018421,-0.7117855,0.9951101,-0.04798184,0.08633383,10.043869,-0.4390869,0.89372253,9.758258,-0.46870533,0.85270673,0.0137786865,-0.014984131,0.004211426,-31.559753,-22.738647,-27.539063,1,0.0,0.0,0.0,0.0
1.851086426,-0.094581805,-0.7200965,0.68739736,0.02967048,-0.69222504,-0.7210714,0.9950748,-0.047804832,0.086837515,-0.094756246,-0.71074307,0.6970406,0.027938444,-0.70181394,-0.71181226,0.99510837,-0.047974426,0.086358294,10.00798,-0.46180725,0.8889313,9.75835,-0.46880525,0.85158515,0.010726929,-0.02796936,-6.713867E-4,-31.858826,-22.619629,-28.079224,1,0.0,0.0,0.0,0.0
1.859387208,-0.09441542,-0.72021085,0.68730056,0.029509347,-0.6921058,-0.7211925,0.9950954,-0.047809895,0.08659841,-0.09474984,-0.71111584,0.6966611,0.028006949,-0.70143664,-0.7121813,0.99510705,-0.047967713,0.086377196,10.00679,-0.49172974,0.86260986,9.758553,-0.46885493,0.84924036,0.017440796,-0.040023804,-0.008148193,-31.858826,-22.619629,-28.079224,1,0.0,0.0,0.0,0.0
1.867687989,-0.09423955,-0.71886295,0.6887343,0.02915705,-0.6935093,-0.7198573,0.99512243,-0.04775757,0.08631593,-0.09474337,-0.7112989,0.69647515,0.028037012,-0.70125127,-0.7123627,0.9951068,-0.047964558,0.08638159,10.00679,-0.49172974,0.86260986,9.758818,-0.4683418,0.8464701,0.02720642,-0.029037476,-0.009521484,-32.099915,-23.039246,-28.439331,1,0.0,0.0,0.0,0.0
1.87598877,-0.0940077,-0.71902126,0.68860084,0.029063832,-0.6933511,-0.7200136,0.9951471,-0.04767344,0.086077854,-0.0947236,-0.7116,0.6961701,0.028081436,-0.7009462,-0.7126611,0.9951075,-0.047956366,0.0863789,9.9673,-0.4857483,0.8374939,9.75906,-0.46751675,0.8441354,0.030410767,-0.009338379,-0.007080078,-32.099915,-23.039246,-28.439331,1,0.0,0.0,0.0,0.0
1.884289551,-0.09369317,-0.7229374,0.6845314,0.029567134,-0.68927306,-0.72389823,0.995162,-0.047584675,0.08595535,-0.094695434,-0.71189547,0.69587183,0.028120559,-0.70064694,-0.7129538,0.995109,-0.047945164,0.08636697,9.954147,-0.4749756,0.81355286,9.759206,-0.46664628,0.8429341,0.04324341,0.012496948,9.1552734E-5,-32.218933,-22.979736,-28.678894,1,0.0,0.0,0.0,0.0
1.892590333,-0.093664564,-0.72295666,0.6845148,0.029617231,-0.68925637,-0.7239119,0.9951632,-0.04753146,0.08597088,-0.09467565,-0.71211815,0.69564664,0.028149802,-0.70042104,-0.7131745,0.99511003,-0.047937956,0.0863588,9.954147,-0.4749756,0.81355286,9.759217,-0.46612442,0.8430863,0.04598999,0.023040771,-8.239746E-4,-32.218933,-22.979736,-28.678894,1,0.0,0.0,0.0,0.0
1.900891114,-0.09395011,-0.71734726,0.6903523,0.028936211,-0.6950939,-0.71833634,0.9951563,-0.0475116,0.08606146,-0.09463605,-0.71255076,0.6952089,0.02820839,-0.69998205,-0.7136031,0.9951122,-0.047921862,0.08634345,9.970886,-0.4749756,0.80996704,9.75915,-0.46592963,0.84397465,0.046295166,0.0076141357,0.0048217773,-32.51953,-23.399353,-28.73993,1,0.0,0.0,0.0,0.0
1.909191895,-0.09397468,-0.7173305,0.69036645,0.029011492,-0.69511384,-0.7183142,0.9951518,-0.047474783,0.08613392,-0.09460898,-0.7127414,0.69501716,0.028237343,-0.6997891,-0.7137912,0.99511397,-0.047905616,0.086332254,9.969696,-0.4510498,0.82073975,9.759106,-0.4655686,0.8446852,0.047058105,0.012649536,-0.0020446777,-32.51953,-23.399353,-28.73993,1,0.0,0.0,0.0,0.0
1.917492676,-0.093840145,-0.72046775,0.68711007,0.0295064,-0.691865,-0.7214238,0.99514997,-0.047424357,0.086183116,-0.09458403,-0.71292394,0.6948333,0.028268237,-0.6996042,-0.71397114,0.99511546,-0.04788856,0.08632449,10.02713,-0.4665985,0.8614197,9.759088,-0.4650741,0.8451677,0.04324341,0.0054779053,0.003753662,-32.51953,-23.458862,-29.039001,1,0.0,0.0,0.0,0.0
1.925793458,-0.09387611,-0.72044337,0.6871307,0.029587619,-0.6918926,-0.7213939,0.9951441,-0.047391087,0.08626839,-0.09456932,-0.71307576,0.69467956,0.028293148,-0.6994502,-0.7141211,0.9951162,-0.04787927,0.08632168,10.02713,-0.4665985,0.8614197,9.75903,-0.46474782,0.8460039,0.051635742,-0.006439209,0.0020751953,-32.51953,-23.458862,-29.039001,1,0.0,0.0,0.0,0.0
1.934094239,-0.093842044,-0.72094023,0.686614,0.029711306,-0.6913781,-0.72188187,0.99514365,-0.047342677,0.086300425,-0.09454221,-0.71336913,0.69438183,0.028344683,-0.69915223,-0.7144107,0.99511725,-0.04785994,0.086319625,9.961319,-0.44984436,0.8769684,9.759026,-0.46427307,0.84631807,0.05241394,-0.009033203,-0.0018920898,-32.63855,-23.579407,-29.219055,1,0.0,0.0,0.0,0.0
1.94239502,-0.09376997,-0.7209889,0.6865728,0.029749546,-0.6913324,-0.721924,0.99514925,-0.047269564,0.08627531,-0.09452845,-0.7135214,0.69422734,0.028372176,-0.6989976,-0.7145609,0.9951178,-0.0478496,0.08631931,9.961319,-0.44984436,0.8769684,9.759081,-0.46355608,0.8460718,0.05102539,-0.008728027,-0.0037231445,-32.63855,-23.579407,-29.219055,1,0.0,0.0,0.0,0.0
1.950695801,-0.09377701,-0.71912897,0.6885197,0.029564828,-0.6932737,-0.7200676,0.99515414,-0.047169823,0.086274065,-0.09449874,-0.71381843,0.693926,0.028426886,-0.69869584,-0.7148538,0.99511904,-0.047826633,0.08631751,9.911072,-0.4355011,0.88653564,9.759129,-0.46257797,0.84605956,0.041107178,-0.0012359619,0.0014648438,-32.699585,-23.999023,-29.519653,1,0.0,0.0,0.0,0.0
1.958996583,-0.09375405,-0.7191444,0.6885068,0.029622257,-0.69326156,-0.7200771,0.9951546,-0.047115024,0.08629876,-0.09447033,-0.71402967,0.6937125,0.028472092,-0.69848174,-0.71506125,0.99512047,-0.047800627,0.08631572,9.936203,-0.44148254,0.88653564,9.759133,-0.46204057,0.84630173,0.03652954,-0.006134033,0.00819397,-32.699585,-23.999023,-29.519653,1,0.0,0.0,0.0,0.0
1.967297364,-0.093628176,-0.7222548,0.68526036,0.030063596,-0.690021,-0.7231648,0.99515325,-0.047107212,0.086318985,-0.09445616,-0.71413225,0.6936088,0.028495204,-0.69837785,-0.71516186,0.9951211,-0.047786914,0.08631543,9.936203,-0.44148254,0.88653564,9.75912,-0.46196395,0.8465001,0.028884888,-0.0068969727,0.009567261,-32.699585,-23.939514,-29.699707,1,0.0,0.0,0.0,0.0
1.975598145,-0.09356494,-0.72229683,0.6852246,0.030053928,-0.6899792,-0.7232049,0.9951595,-0.047072943,0.086265735,-0.094423786,-0.7144559,0.6932798,0.028557602,-0.6980486,-0.7154807,0.99512243,-0.047759995,0.08631554,9.978073,-0.40438843,0.8518524,9.759181,-0.4616279,0.8459779,0.016677856,-0.008880615,0.014450073,-32.699585,-23.939514,-29.699707,1,0.0,0.0,0.0,0.0
1.983898926,-0.09360873,-0.72066593,0.6869338,0.02976365,-0.6916806,-0.7215899,0.99516404,-0.04710146,0.08619699,-0.09439016,-0.7147681,0.6929625,0.028617118,-0.69773066,-0.7157884,0.9951239,-0.047732785,0.086313516,9.932602,-0.43070984,0.85783386,9.759226,-0.46190754,0.8453037,0.010421753,-0.01574707,0.0098724365,-32.759094,-23.939514,-29.579163,1,0.0,0.0,0.0,0.0
1.992199708,-0.093586855,-0.7197267,0.6879207,0.029542293,-0.69265646,-0.72066236,0.99517274,-0.047121767,0.086085916,-0.09435943,-0.71500283,0.6927245,0.028662741,-0.6974918,-0.7160193,0.9951255,-0.04770778,0.08630887,9.939789,-0.48095703,0.84825134,9.759311,-0.4621067,0.8442145,0.011932373,-0.008117676,0.0045166016,-32.759094,-24.299622,-29.87976,1,0.0,0.0,0.0,0.0
2.000500489,-0.0935505,-0.71975076,0.68790054,0.029426657,-0.6926276,-0.7206949,0.9951796,-0.047178756,0.08597553,-0.09434404,-0.71509767,0.6926287,0.028680421,-0.69739544,-0.71611243,0.9951264,-0.047696065,0.08630441,9.939789,-0.48095703,0.84825134,9.7593775,-0.46266553,0.84313184,0.010559082,0.0077667236,0.009262085,-32.759094,-24.299622,-29.87976,1,0.0,0.0,0.0,0.0
2.00880127,-0.09357092,-0.71973723,0.6879118,0.02937188,-0.69263804,-0.7206869,0.99517924,-0.04723008,0.08595083,-0.09431286,-0.7152824,0.6924422,0.028710257,-0.6972074,-0.71629435,0.9951285,-0.04767558,0.08629157,9.923035,-0.44386292,0.9032898,9.759375,-0.46316886,0.8428897,0.006591797,0.023345947,0.007873535,-32.759094,-24.299622,-29.87976,1,0.0,0.0,0.0,0.0
2.017102051,-0.09389118,-0.71581537,0.69194853,0.0289677,-0.6966887,-0.7167884,0.99516094,-0.047255952,0.086148456,-0.09429805,-0.71537185,0.6923518,0.02872355,-0.6971162,-0.71638256,0.9951295,-0.047666673,0.08628472,9.923035,-0.44386292,0.9032898,9.759195,-0.4634226,0.8448278,0.008117676,0.030059814,0.0068206787,-33.059692,-24.778748,-30.119324,1,0.0,0.0,0.0,0.0
2.025402833,-0.09408002,-0.71568996,0.69205266,0.02910889,-0.6968161,-0.7166589,0.99513894,-0.0472784,0.08638941,-0.09428194,-0.7153895,0.6923358,0.028733242,-0.6970992,-0.71639866,0.9951308,-0.04765041,0.08627933,9.927826,-0.44625854,0.8721771,9.75898,-0.46364275,0.84719074,0.02293396,0.02746582,0.0072631836,-33.059692,-24.778748,-30.119324,1,0.0,0.0,0.0,0.0
2.033703614,-0.094059035,-0.71682435,0.6908805,0.02941585,-0.6956551,-0.71777356,0.99513197,-0.04719024,0.08651864,-0.09427385,-0.7154015,0.69232446,0.028748032,-0.6970879,-0.7164091,0.99513113,-0.047635674,0.08628354,10.021133,-0.37687683,0.78723145,9.758911,-0.4627782,0.84845805,0.019119263,0.023956299,-2.1362305E-4,-32.87964,-24.598694,-29.99878,1,0.0,0.0,0.0,0.0
2.042004395,-0.094045386,-0.7168334,0.69087285,0.029573306,-0.69565374,-0.71776825,0.9951286,-0.047071405,0.08662216,-0.09426956,-0.71542984,0.6922957,0.028761357,-0.6970594,-0.7164363,0.99513113,-0.047626767,0.08628821,10.021133,-0.37687683,0.78723145,9.758878,-0.4616128,0.84947324,0.023849487,0.023956299,-2.1362305E-4,-32.87964,-24.598694,-29.99878,1,0.0,0.0,0.0,0.0
2.050305176,-0.09378445,-0.719731,0.68788934,0.030092586,-0.6926682,-0.7206283,0.99513763,-0.046883367,0.08662008,-0.09426075,-0.71548545,0.69223946,0.02879354,-0.69700384,-0.7164891,0.9951311,-0.047604773,0.08630147,10.018753,-0.33380127,0.7346039,9.758967,-0.4597688,0.84945285,0.030258179,-0.0019989014,0.002532959,-32.63855,-24.41864,-29.99878,1,0.0,0.0,0.0,0.0
2.058605958,-0.09379178,-0.71972615,0.68789333,0.03014635,-0.6926754,-0.7206192,0.99513537,-0.046850696,0.08666439,-0.094242096,-0.71565396,0.69206786,0.02884502,-0.69683284,-0.71665335,0.9951314,-0.047576204,0.086314045,9.958923,-0.44386292,0.86979675,9.758944,-0.45944837,0.8498873,0.021102905,-0.036361694,-0.004638672,-32.63855,-24.41864,-29.99878,1,0.0,0.0,0.0,0.0
2.066906739,-0.093499474,-0.72244287,0.6850797,0.030432511,-0.6898463,-0.72331595,0.99515414,-0.04678097,0.08648601,-0.094233245,-0.7157357,0.69198453,0.028871126,-0.69674987,-0.716733,0.99513143,-0.047561698,0.08632109,9.958923,-0.44386292,0.86979675,9.759129,-0.4587646,0.8481381,0.029190063,-0.042007446,-0.009216309,-32.51953,-24.238586,-29.99878,1,0.0,0.0,0.0,0.0
2.07520752,-0.0932658,-0.722596,0.68495,0.03036334,-0.6896929,-0.72346514,0.99517816,-0.046677187,0.08626519,-0.094204515,-0.71600246,0.6917123,0.028933082,-0.6964778,-0.71699476,0.9951323,-0.04753078,0.086327516,9.929016,-0.43788147,0.9152527,9.759364,-0.45774686,0.84597254,0.036224365,-0.027359009,0.0014648438,-32.51953,-24.238586,-29.99878,1,0.0,0.0,0.0,0.0
2.083508301,-0.09289244,-0.7280427,0.6792089,0.030974694,-0.6839413,-0.7288791,0.9951942,-0.04666907,0.08608388,-0.0941677,-0.71626455,0.69144595,0.028989974,-0.6962105,-0.717252,0.9951342,-0.04749698,0.08632504,9.900299,-0.48812866,0.88534546,9.7595215,-0.45766723,0.84419453,0.04248047,0.0048675537,0.006652832,-32.27997,-23.699951,-29.818726,1,0.0,0.0,0.0,0.0
2.091809083,-0.09292088,-0.72802424,0.6792249,0.030941814,-0.6839582,-0.7288646,0.9951925,-0.04671029,0.08608038,-0.094142616,-0.71650213,0.6912032,0.029030025,-0.69596714,-0.71748656,0.99513537,-0.04748042,0.086320244,9.900299,-0.48812866,0.88534546,9.759505,-0.45807147,0.8441602,0.035461426,0.0079193115,0.012771606,-32.27997,-23.699951,-29.818726,1,0.0,0.0,0.0,0.0
2.100109864,-0.09326139,-0.72369975,0.6837844,0.030415967,-0.688528,-0.72457176,0.995177,-0.0467766,0.08622509,-0.09411856,-0.7167344,0.6909656,0.029068556,-0.69572896,-0.7177159,0.9951365,-0.04746502,0.08631544,9.912262,-0.46780396,0.89849854,9.759353,-0.45872176,0.8455793,0.032409668,0.019989014,0.016433716,-32.03888,-23.81897,-29.579163,1,0.0,0.0,0.0,0.0
2.108410645,-0.09338801,-0.7236167,0.68385476,0.030455388,-0.6886112,-0.7244907,0.99516386,-0.0468317,0.08634608,-0.09408489,-0.7170115,0.6906827,0.029122088,-0.69544536,-0.71798867,0.99513817,-0.047437757,0.08631176,9.938583,-0.43429565,0.850647,9.759224,-0.4592621,0.8467658,0.021713257,0.014343262,0.014602661,-32.03888,-23.81897,-29.579163,1,0.0,0.0,0.0,0.0
2.116711426,-0.09351939,-0.72411436,0.6833099,0.030500129,-0.68807924,-0.7249942,0.99515015,-0.04695998,0.08643434,-0.094057634,-0.71727425,0.69041353,0.029175106,-0.69517595,-0.7182473,0.9951392,-0.04741376,0.08631316,9.991226,-0.4857483,0.84825134,9.759089,-0.46052012,0.8476314,0.01637268,-1.5258789E-5,0.012619019,-31.799316,-23.579407,-29.3396,1,0.0,0.0,0.0,0.0
2.125012208,-0.09369601,-0.7239986,0.6834084,0.030435916,-0.68819016,-0.7248916,0.9951355,-0.0471193,0.086516246,-0.09404704,-0.7174116,0.6902722,0.029201657,-0.69503474,-0.7183828,0.9951394,-0.047404684,0.08631557,10.013962,-0.5084686,0.899704,9.758946,-0.46208254,0.8484346,0.006439209,-0.0032196045,0.01612854,-31.799316,-23.579407,-29.3396,1,0.0,0.0,0.0,0.0
2.133312989,-0.093883224,-0.72387594,0.6835127,0.030370302,-0.6883078,-0.72478276,0.9951199,-0.047286447,0.086604886,-0.09403345,-0.7176737,0.6900015,0.029250655,-0.69476485,-0.7186419,0.99513924,-0.047393385,0.08632357,9.998413,-0.49890137,0.94755554,9.758793,-0.46372166,0.84930384,9.460449E-4,-0.003692627,0.019638062,-31.799316,-23.579407,-29.3396,1,0.0,0.0,0.0,0.0
2.14161377,-0.094209276,-0.72018933,0.68735147,0.029777013,-0.6921517,-0.72113764,0.995107,-0.047470573,0.08665219,-0.09402785,-0.71792054,0.68974555,0.02929511,-0.69451016,-0.7188862,0.9951385,-0.047389153,0.08633486,9.998413,-0.49890137,0.94755554,9.758666,-0.4655273,0.8497677,-0.0028686523,-0.014373779,0.019943237,-32.03888,-23.638916,-29.159546,1,0.0,0.0,0.0,0.0
2.149914551,-0.09446867,-0.7181317,0.68946534,0.02946876,-0.69427633,-0.719105,0.9950916,-0.047615208,0.086749814,-0.094031535,-0.71796584,0.6896979,0.02930475,-0.6944633,-0.71893114,0.9951379,-0.047390778,0.086341254,9.990036,-0.47138977,1.0157471,9.758515,-0.46694568,0.8507251,0.005218506,-0.014373779,0.018569946,-31.858826,-23.458862,-28.799438,1,0.0,0.0,0.0,0.0
2.158215333,-0.09464354,-0.7180146,0.68956333,0.029433109,-0.694388,-0.71899855,0.995076,-0.04775258,0.086852744,-0.09404879,-0.7179724,0.6896886,0.029311184,-0.69445574,-0.7189381,0.995136,-0.04739967,0.08635735,10.053452,-0.43070984,1.0779724,9.758362,-0.46829283,0.8517344,0.01576233,-0.007659912,0.016586304,-31.858826,-23.458862,-28.799438,1,0.0,0.0,0.0,0.0
2.166516114,-0.09477555,-0.7174368,0.6901463,0.029355053,-0.6949796,-0.7184299,0.99506575,-0.047830317,0.08692747,-0.09407236,-0.71797395,0.6896838,0.029316008,-0.69445324,-0.7189404,0.99513364,-0.047413643,0.08637699,10.082153,-0.4510498,0.98583984,9.758262,-0.46905518,0.85246736,0.024307251,-0.016052246,0.0063476563,-32.099915,-23.579407,-28.919983,1,0.0,0.0,0.0,0.0
2.174816895,-0.09469538,-0.7174907,0.6901013,0.02928232,-0.69492406,-0.71848667,0.9950756,-0.04782961,0.08681589,-0.094086505,-0.7179633,0.68969303,0.02931688,-0.6944638,-0.71893024,0.9951323,-0.04742198,0.08638811,10.074982,-0.43190002,0.86979675,9.758358,-0.46904826,0.85137314,0.025527954,-0.018493652,0.0063476563,-32.099915,-23.579407,-28.919983,1,0.0,0.0,0.0,0.0
2.183117676,-0.09453954,-0.7175955,0.6900138,0.029215135,-0.69481957,-0.71859056,0.9950923,-0.04777636,0.086652555,-0.09411068,-0.7179443,0.6897095,0.029315542,-0.69448227,-0.7189124,0.99513006,-0.047438122,0.08640512,10.021133,-0.447464,0.78364563,9.758522,-0.46852604,0.8497713,0.031326294,-0.027053833,0.0029907227,-32.099915,-23.579407,-28.919983,1,0.0,0.0,0.0,0.0
2.191418458,-0.094413035,-0.71429956,0.6934424,0.028539982,-0.6982096,-0.71532434,0.9951239,-0.047745112,0.08630618,-0.094127655,-0.7179305,0.6897216,0.02931156,-0.6944957,-0.7188996,0.9951285,-0.04745152,0.08641491,10.021133,-0.447464,0.78364563,9.758832,-0.4682196,0.8463745,0.014389038,-0.033309937,0.008346558,-32.218933,-23.699951,-28.799438,1,0.0,0.0,0.0,0.0
2.199719239,-0.0940805,-0.7158716,0.6918646,0.028483652,-0.696598,-0.716896,0.99515706,-0.047739103,0.085926935,-0.09413342,-0.717858,0.68979615,0.029296167,-0.69457006,-0.7188283,0.99512845,-0.04745739,0.08641275,9.944565,-0.4665985,0.7657013,9.759157,-0.4681607,0.8426554,0.013458252,-0.02720642,0.0071258545,-31.97937,-23.399353,-28.559875,1,0.0,0.0,0.0,0.0
2.20802002,-0.093904994,-0.7159904,0.6917654,0.028253525,-0.69647247,-0.717027,0.9951802,-0.04778761,0.08563151,-0.09413138,-0.7177797,0.689878,0.029263984,-0.69465035,-0.7187521,0.99512964,-0.04746855,0.08639349,9.835693,-0.4665985,0.7657013,9.759384,-0.4686364,0.8397583,-0.002105713,-0.0019989014,0.0057373047,-31.97937,-23.399353,-28.559875,1,0.0,0.0,0.0,0.0
2.216320801,-0.09409489,-0.7095201,0.6983748,0.027268477,-0.70306075,-0.7106068,0.9951897,-0.047820862,0.08550196,-0.09412251,-0.7177087,0.689953,0.029223908,-0.69472283,-0.71868366,0.9951317,-0.047481183,0.08636331,9.838089,-0.44506836,0.7920227,9.759478,-0.46896246,0.8384878,-0.009140015,0.0013580322,0.01612854,-31.91986,-23.75946,-28.439331,1,0.0,0.0,0.0,0.0
2.224621583,-0.094124965,-0.7094997,0.69839144,0.027224116,-0.7030778,-0.7105915,0.99518806,-0.047871318,0.085492685,-0.094122276,-0.7175459,0.6901223,0.029184766,-0.6948904,-0.7185232,0.9951328,-0.047487978,0.086346075,9.9218445,-0.43429565,0.8410797,9.759461,-0.46945727,0.83839685,0.0018615723,0.0012054443,0.016281128,-31.91986,-23.75946,-28.439331,1,0.0,0.0,0.0,0.0
2.232922364,-0.09398649,-0.7127223,0.6951212,0.027657885,-0.69981164,-0.71379185,0.99518925,-0.04786121,0.08548523,-0.09412311,-0.71722925,0.6904513,0.029107194,-0.6952163,-0.7182111,0.995135,-0.047503155,0.08631244,9.972092,-0.38883972,0.830307,9.759473,-0.46935815,0.8383237,0.017440796,0.0068511963,0.011398315,-31.97937,-23.519897,-28.439331,1,0.0,0.0,0.0,0.0
2.241223145,-0.09390387,-0.71277845,0.6950748,0.027761348,-0.699763,-0.7138355,0.99519414,-0.047735702,0.08549814,-0.094117865,-0.71705127,0.69063693,0.029049613,-0.6953989,-0.71803653,0.99513716,-0.047517337,0.08627953,10.033112,-0.3409729,0.830307,9.759521,-0.46812734,0.8384503,0.03744507,-3.2043457E-4,-0.0037231445,-31.97937,-23.519897,-28.439331,1,0.0,0.0,0.0,0.0
2.249523926,-0.093812816,-0.7130527,0.69480574,0.027934942,-0.699494,-0.7140923,0.9951979,-0.04758165,0.085540585,-0.09411375,-0.71696603,0.6907259,0.02902386,-0.6954864,-0.7179528,0.9951383,-0.047521703,0.08626396,10.021133,-0.3744812,0.8721771,9.759557,-0.46661657,0.83886653,0.0446167,-0.010864258,-0.005859375,-32.218933,-23.999023,-28.979492,1,0.0,0.0,0.0,0.0
2.257824708,-0.093619116,-0.713183,0.6946982,0.02810036,-0.69937754,-0.71419996,0.9952114,-0.047341492,0.0855158,-0.09410213,-0.71681136,0.690888,0.028980762,-0.6956457,-0.7178002,0.9951406,-0.047524072,0.08623548,10.021133,-0.3744812,0.8721771,9.759691,-0.4642615,0.8386236,0.05683899,-0.012084961,-0.013961792,-32.218933,-23.999023,-28.979492,1,0.0,0.0,0.0,0.0
2.266125489,-0.09341172,-0.7133223,0.69458306,0.02817038,-0.6992477,-0.7143243,0.995229,-0.047159594,0.085412495,-0.09409249,-0.716739,0.69096434,0.028963052,-0.69572043,-0.71772844,0.9951421,-0.04752042,0.086221024,10.035492,-0.45703125,0.8518524,9.759863,-0.46247762,0.8376105,0.06919861,-0.018493652,-0.016708374,-32.218933,-23.999023,-28.979492,1,0.0,0.0,0.0,0.0
2.27442627,-0.093171805,-0.71338093,0.6945551,0.02822283,-0.6992016,-0.7143674,0.9952499,-0.046956576,0.08527949,-0.094065666,-0.7166042,0.6911079,0.02893157,-0.6958604,-0.7175941,0.99514556,-0.047506135,0.086189054,10.005585,-0.45703125,0.8494568,9.760068,-0.4604867,0.8363061,0.085998535,-0.0140686035,-0.015335083,-31.858826,-23.878479,-28.799438,1,0.0,0.0,0.0,0.0
2.282727051,-0.09291224,-0.7135543,0.69441175,0.028251734,-0.6990371,-0.7145271,0.99527335,-0.046769977,0.08510824,-0.09403031,-0.71647674,0.6912447,0.028903268,-0.69599295,-0.7174666,0.99514973,-0.04748438,0.08615296,9.919449,-0.46780396,0.78604126,9.760298,-0.4586568,0.83462673,0.0826416,-0.0043029785,-0.013809204,-31.858826,-23.878479,-28.799438,1,0.0,0.0,0.0,0.0
2.291027833,-0.092590526,-0.71688044,0.6910206,0.02872717,-0.6956363,-0.71781963,0.9952898,-0.046612225,0.085003264,-0.09400797,-0.7164183,0.6913083,0.028890092,-0.6960541,-0.7174078,0.9951521,-0.047470093,0.08613202,9.857239,-0.43310547,0.7776642,9.760459,-0.45710978,0.8335973,0.07470703,-0.004135132,-0.0063171387,-31.439209,-23.699951,-28.799438,1,0.0,0.0,0.0,0.0
2.299328614,-0.09268115,-0.7105887,0.69747686,0.027930796,-0.70207167,-0.7115584,0.995304,-0.04646696,0.08491611,-0.093951836,-0.71643656,0.69129705,0.028883655,-0.6960376,-0.7174241,0.9951576,-0.047436126,0.086087316,9.859619,-0.44506836,0.7573242,9.760598,-0.45568523,0.8327426,0.061264038,-0.0043029785,-0.004333496,-30.958557,-23.699951,-28.259277,1,0.0,0.0,0.0,0.0
2.307629395,-0.092548266,-0.71067655,0.697405,0.027900822,-0.7019869,-0.7116431,0.9953172,-0.046403166,0.08479613,-0.09390172,-0.7162059,0.6915429,0.028845474,-0.6962777,-0.7171927,0.9951635,-0.047397744,0.086040966,9.847656,-0.44267273,0.73339844,9.760728,-0.45505962,0.831566,0.04827881,-1.6784668E-4,0.009109497,-30.958557,-23.699951,-28.259277,1,0.0,0.0,0.0,0.0
2.315930176,-0.0924474,-0.71074325,0.6973504,0.027810618,-0.70191944,-0.7117132,0.9953291,-0.04640229,0.084656835,-0.09390172,-0.7162059,0.6915429,0.028845474,-0.6962777,-0.7171927,0.9951635,-0.047397744,0.086040966,9.847656,-0.44267273,0.73339844,9.760844,-0.45505103,0.83019996,0.04827881,-1.6784668E-4,0.009109497,-30.958557,-23.699951,-28.259277,1,0.0,0.0,0.0,0.0
2.324230958,-0.092366375,-0.7126132,0.6954501,0.027985338,-0.70001787,-0.71357673,0.9953317,-0.046448093,0.08460083,-0.09381652,-0.7158856,0.691886,0.028783891,-0.696611,-0.7168714,0.99517334,-0.04733921,0.08595959,9.900299,-0.42352295,0.7046814,9.76087,-0.45550022,0.8296507,0.018356323,0.02243042,0.014907837,-30.899048,-23.339844,-28.019714,1,0.0,0.0,0.0,0.0
2.332531739,-0.09237577,-0.71260697,0.6954553,0.027931627,-0.7000214,-0.71357554,0.9953324,-0.046491895,0.08456928,-0.09375919,-0.71575624,0.6920276,0.028751958,-0.6967463,-0.71674126,0.9951797,-0.047303926,0.08590575,9.879959,-0.40438843,0.8027954,9.760877,-0.45592976,0.82934135,-0.0031738281,0.01876831,0.012466431,-30.899048,-23.339844,-28.019714,1,0.0,0.0,0.0,0.0
2.34083252,-0.09276718,-0.7062904,0.70181775,0.027180094,-0.70639086,-0.70729995,0.99531674,-0.046538755,0.08472693,-0.09373156,-0.71569353,0.6920963,0.028735422,-0.69681185,-0.7166782,0.99518275,-0.04728768,0.08587901,9.917053,-0.41036987,0.8410797,9.760723,-0.4563893,0.8308874,-0.0031738281,0.018920898,0.020248413,-31.079102,-23.878479,-28.138733,1,0.0,0.0,0.0,0.0
2.349133301,-0.09297027,-0.7067334,0.70134467,0.027255781,-0.7059379,-0.70774895,0.9952957,-0.046683915,0.084893815,-0.0936939,-0.7153234,0.69248384,0.028673261,-0.6971937,-0.71630913,0.99518806,-0.047258023,0.08583345,9.94696,-0.4558258,0.8674011,9.760517,-0.45781282,0.83252394,-0.0095825195,0.009140015,0.021011353,-31.199646,-23.939514,-28.259277,1,0.0,0.0,0.0,0.0
2.357434083,-0.09327403,-0.7065308,0.7015084,0.027240615,-0.70612717,-0.7075607,0.99526775,-0.046887524,0.08510967,-0.093665585,-0.7149855,0.6928365,0.028616685,-0.69754183,-0.7159724,0.99519235,-0.047235288,0.08579618,9.973282,-0.4893341,0.933197,9.760242,-0.45980954,0.8346408,-0.02607727,0.011428833,0.018722534,-31.199646,-23.939514,-28.259277,1,0.0,0.0,0.0,0.0
2.365734864,-0.093555324,-0.7063432,0.70166004,0.027205948,-0.70630157,-0.7073882,0.99524236,-0.04709061,0.08529501,-0.09365794,-0.7148174,0.69301105,0.028589029,-0.6977145,-0.7158052,0.9951939,-0.047228333,0.085782446,9.973282,-0.4893341,0.933197,9.759994,-0.46180114,0.83645827,-0.02607727,0.008071899,0.021621704,-31.199646,-23.939514,-28.259277,1,0.0,0.0,0.0,0.0
2.374035645,-0.093912505,-0.70346844,0.70449454,0.026769493,-0.7091503,-0.7045489,0.9952205,-0.047306996,0.08542958,-0.093654335,-0.7144838,0.69335544,0.028534207,-0.6980565,-0.7154739,0.9951958,-0.047222883,0.085763246,9.993622,-0.48214722,0.96310425,9.75978,-0.4639232,0.83777803,-0.007446289,-0.009490967,0.021469116,-31.318665,-24.179077,-28.318787,1,0.0,0.0,0.0,0.0
2.382336426,-0.09405992,-0.7033698,0.70457333,0.026685797,-0.7092379,-0.70446384,0.9952088,-0.047459714,0.08548085,-0.0936652,-0.7140508,0.6937999,0.028464366,-0.69849914,-0.71504456,0.99519676,-0.047226213,0.085750066,9.997208,-0.4402771,0.9260254,9.759665,-0.4654208,0.8382808,-0.0054626465,-0.013153076,0.026046753,-31.318665,-24.179077,-28.318787,1,0.0,0.0,0.0,0.0
2.390637208,-0.09432774,-0.7007514,0.707142,0.026200045,-0.71181047,-0.7018828,0.99519634,-0.04767986,0.08550318,-0.09367335,-0.7138389,0.6940169,0.02842879,-0.6987155,-0.7148346,0.99519706,-0.047230884,0.08574459,9.980469,-0.48335266,0.9296112,9.759542,-0.46757972,0.8384998,-0.006378174,-0.0068969727,0.027114868,-30.839539,-23.638916,-27.539063,1,0.0,0.0,0.0,0.0
2.398937989,-0.09442452,-0.70410246,0.7037925,0.026473973,-0.70847714,-0.70523727,0.99518,-0.0479595,0.08553799,-0.093700126,-0.71332544,0.6945409,0.028340764,-0.6992385,-0.71432656,0.99519706,-0.04724866,0.08573491,10.001999,-0.5096741,0.9272156,9.759381,-0.470322,0.83884114,-0.0037841797,-0.003692627,0.03048706,-30.778503,-23.399353,-27.539063,1,0.0,0.0,0.0,0.0
2.40723877,-0.09468162,-0.7039284,0.70393205,0.02630023,-0.70863056,-0.7050895,0.99516016,-0.04824543,0.08560776,-0.09371491,-0.71314204,0.6947272,0.028303526,-0.6994245,-0.71414584,0.99519664,-0.047262877,0.08573093,10.001999,-0.5096741,0.9272156,9.759187,-0.47312602,0.8395253,-0.008224487,1.373291E-4,0.027893066,-30.778503,-23.399353,-27.539063,1,0.0,0.0,0.0,0.0
2.415539551,-0.094870366,-0.70380056,0.7040343,0.026168961,-0.7087429,-0.70498127,0.99514556,-0.048457988,0.085656434,-0.09375386,-0.71277946,0.695094,0.028224573,-0.6997914,-0.7137895,0.9951952,-0.047301784,0.08572603,9.949356,-0.4665985,0.87098694,9.759045,-0.47521055,0.8400027,-0.009277344,0.010818481,0.031555176,-30.778503,-23.399353,-27.539063,1,0.0,0.0,0.0,0.0
2.423840333,-0.09509922,-0.70248395,0.70531726,0.02585426,-0.7100324,-0.70369416,0.99513197,-0.04868531,0.08568573,-0.09379882,-0.7124261,0.69545007,0.028143682,-0.700148,-0.71344286,0.9951933,-0.047347575,0.085723355,9.9673,-0.46899414,0.8183441,9.758911,-0.4774398,0.84029,-5.79834E-4,0.010055542,0.031097412,-30.958557,-23.399353,-27.479553,1,0.0,0.0,0.0,0.0
2.432141114,-0.09530071,-0.7023463,0.7054271,0.02570391,-0.71015245,-0.70357853,0.9951166,-0.0489193,0.08573109,-0.09382531,-0.7122287,0.69564867,0.028098237,-0.70034707,-0.71324927,0.9951921,-0.04737433,0.08572265,9.9673,-0.46899414,0.8183441,9.75876,-0.47973448,0.8407348,-0.010665894,0.015701294,0.028808594,-30.958557,-23.399353,-27.479553,1,0.0,0.0,0.0,0.0
2.440441895,-0.09524887,-0.7085758,0.6991766,0.026455894,-0.70392376,-0.7097826,0.99510187,-0.049108654,0.08579395,-0.09388474,-0.71184015,0.6960383,0.028004218,-0.70073783,-0.71286905,0.9951892,-0.047435515,0.08572312,9.927826,-0.4558258,0.8075714,9.758616,-0.48159143,0.84135133,-0.013259888,0.025787354,0.025131226,-31.199646,-23.098755,-27.659607,1,0.0,0.0,0.0,0.0
2.448742676,-0.09575206,-0.7005583,0.7071419,0.02533736,-0.71189123,-0.7018326,0.9950827,-0.049284805,0.08591535,-0.09393899,-0.7117113,0.69616276,0.027943145,-0.7008642,-0.7127472,0.99518573,-0.047501773,0.085725926,9.970886,-0.46180725,0.8183441,9.758428,-0.48331884,0.84254175,-0.0066833496,0.02243042,0.02116394,-31.318665,-23.638916,-27.659607,1,0.0,0.0,0.0,0.0
2.457043458,-0.09594894,-0.700423,0.70724916,0.025309429,-0.7120144,-0.7017086,0.9950645,-0.049428128,0.086044334,-0.09397581,-0.71149,0.69638395,0.027891517,-0.70108646,-0.71253055,0.9951837,-0.047537435,0.0857297,9.970886,-0.46180725,0.8183441,9.758249,-0.48472434,0.8438067,-0.008666992,0.02029419,0.015975952,-31.318665,-23.638916,-27.659607,1,0.0,0.0,0.0,0.0
2.465344239,-0.096052945,-0.70035154,0.70730585,0.025314491,-0.7120804,-0.70164144,0.99505424,-0.04948964,0.08612646,-0.09405506,-0.711055,0.69681734,0.027790338,-0.7015225,-0.7121052,0.99517906,-0.047612306,0.085742205,9.976868,-0.38165283,0.7680969,9.758149,-0.4853276,0.84461206,-0.0030212402,0.01600647,0.0084991455,-31.318665,-23.638916,-27.659607,1,0.0,0.0,0.0,0.0
2.47364502,-0.09598592,-0.70105505,0.7066177,0.025464393,-0.71139264,-0.70233333,0.99505687,-0.049420513,0.08613561,-0.09413519,-0.7106344,0.69723547,0.027693357,-0.7019436,-0.71169394,0.9951741,-0.04768665,0.085757434,9.999603,-0.38285828,0.8566284,9.758175,-0.4846497,0.8447018,-7.324219E-4,0.012954712,0.002532959,-30.958557,-23.458862,-27.479553,1,0.0,0.0,0.0,0.0
2.481945801,-0.09595708,-0.7010747,0.70660204,0.025616739,-0.711382,-0.70233846,0.99505574,-0.049293507,0.08622138,-0.09417263,-0.7104441,0.69742435,0.027649228,-0.70213383,-0.711508,0.9951719,-0.04772133,0.08576502,9.999603,-0.38285828,0.8566284,9.758163,-0.4834042,0.84554297,0.00491333,0.0015106201,-0.0047912598,-30.958557,-23.458862,-27.479553,1,0.0,0.0,0.0,0.0
2.490246583,-0.09566198,-0.70561755,0.70210576,0.026332028,-0.70688754,-0.70683557,0.99506557,-0.049129426,0.08620262,-0.09424412,-0.7100753,0.6977902,0.027569648,-0.7025026,-0.711147,0.9951673,-0.047783595,0.08578326,10.096512,-0.41993713,0.8829498,9.75826,-0.4817951,0.84535897,0.03805542,-0.022918701,-0.01335144,-30.419922,-23.098755,-27.359009,1,0.0,0.0,0.0,0.0
2.498547364,-0.095417835,-0.70495796,0.70280135,0.026321646,-0.70756257,-0.70616025,0.9950892,-0.04888139,0.08606974,-0.09430042,-0.70989937,0.6979615,0.027520895,-0.70267665,-0.7109769,0.9951633,-0.047836892,0.08579977,10.04866,-0.4749756,0.88175964,9.7584915,-0.4793627,0.84405583,0.056381226,-0.018951416,-0.02357483,-30.419922,-23.039246,-27.23999,1,0.0,0.0,0.0,0.0
2.506848145,-0.09516405,-0.7051298,0.70266336,0.026420511,-0.70740736,-0.7063122,0.995111,-0.048650805,0.08594964,-0.09432294,-0.709801,0.6980585,0.027497128,-0.7027746,-0.710881,0.99516183,-0.047857784,0.08580526,10.04866,-0.4749756,0.88175964,9.758705,-0.47710142,0.84287804,0.06462097,-0.013153076,-0.023269653,-30.419922,-23.039246,-27.23999,1,0.0,0.0,0.0,0.0
2.515148926,-0.09503718,-0.7052157,0.7025943,0.026490793,-0.7073306,-0.7063863,0.9951212,-0.04852069,0.08590443,-0.09435642,-0.7096166,0.6982415,0.027454648,-0.7029587,-0.71070063,0.99515986,-0.047889188,0.085810944,9.937393,-0.53479004,0.89611816,9.758805,-0.47582546,0.84243464,0.07072449,-0.011932373,-0.01121521,-30.419922,-23.039246,-27.23999,1,0.0,0.0,0.0,0.0
2.523449708,-0.09478273,-0.7101112,0.6976807,0.027203083,-0.7024217,-0.71124107,0.99512625,-0.04843429,0.08589465,-0.09438361,-0.709443,0.6984142,0.02741671,-0.7031323,-0.71053034,0.9951583,-0.047914203,0.08581475,9.948166,-0.49291992,0.8386841,9.758855,-0.47497815,0.8423388,0.078826904,-0.0046081543,-0.01121521,-30.53894,-23.039246,-27.598572,1,0.0,0.0,0.0,0.0
2.531750489,-0.094657764,-0.71019506,0.69761235,0.02727864,-0.7023461,-0.7113128,0.995136,-0.048301358,0.085855655,-0.09439161,-0.7094563,0.6983996,0.027412456,-0.703118,-0.71054465,0.99515766,-0.0479246,0.085816376,9.948166,-0.49291992,0.8386841,9.758951,-0.4736745,0.8419564,0.08157349,0.0051727295,-0.0093688965,-30.53894,-23.039246,-27.598572,1,0.0,0.0,0.0,0.0
2.54005127,-0.09481969,-0.70323294,0.7046082,0.026364606,-0.70932287,-0.70439047,0.99514526,-0.048213366,0.08579823,-0.09440218,-0.7094855,0.6983685,0.027407154,-0.70308757,-0.7105749,0.99515676,-0.047939524,0.08581797,9.881165,-0.49531555,0.75613403,9.759042,-0.4728116,0.84139323,0.061569214,0.017547607,0.006210327,-30.659485,-23.399353,-27.479553,1,0.0,0.0,0.0,0.0
2.548352051,-0.095052324,-0.69701576,0.7107278,0.025535107,-0.7154327,-0.6982148,0.9951447,-0.04821844,0.08580192,-0.09441884,-0.7092392,0.6986164,0.027365934,-0.7033353,-0.71033126,0.9951563,-0.04795037,0.08581709,9.86322,-0.4893341,0.82192993,9.759036,-0.47286138,0.8414294,0.056381226,0.009292603,0.021011353,-30.778503,-23.699951,-27.359009,1,0.0,0.0,0.0,0.0
2.556652833,-0.09518475,-0.69692546,0.7107986,0.025502086,-0.71551347,-0.6981333,0.9951329,-0.048324794,0.08587903,-0.094431885,-0.7089968,0.6988606,0.02732949,-0.70357925,-0.7100911,0.9951561,-0.047955733,0.08581684,9.86322,-0.4893341,0.82192993,9.758921,-0.47390434,0.8421856,0.045684814,0.006088257,0.025436401,-30.778503,-23.699951,-27.359009,1,0.0,0.0,0.0,0.0
2.564953614,-0.09527014,-0.69686735,0.7108442,0.025447555,-0.71556383,-0.69808364,0.9951261,-0.048417278,0.08590544,-0.094462335,-0.70852256,0.6993373,0.027257439,-0.7040558,-0.7096213,0.99515516,-0.047970347,0.08581927,9.931412,-0.4355011,0.8183441,9.758854,-0.47481132,0.8424446,0.040649414,0.007156372,0.023605347,-30.778503,-23.699951,-27.359009,1,0.0,0.0,0.0,0.0
2.573254395,-0.09516427,-0.7020487,0.7057417,0.026080105,-0.71047425,-0.7032398,0.9951199,-0.048517488,0.08592127,-0.094478846,-0.7082913,0.69956934,0.027221438,-0.7042879,-0.70939237,0.9951546,-0.047979288,0.08582101,9.931412,-0.4355011,0.8183441,9.758793,-0.47579405,0.84259987,0.030883789,0.0066986084,0.021316528,-30.718994,-23.519897,-27.539063,1,0.0,0.0,0.0,0.0
2.581555176,-0.09528483,-0.7019672,0.7058065,0.026033774,-0.7105473,-0.7031676,0.99510956,-0.0486264,0.08597924,-0.094506204,-0.7080452,0.6998147,0.027176425,-0.7045338,-0.70914984,0.9951533,-0.0480006,0.08582496,9.970886,-0.44865417,0.8542328,9.758691,-0.47686207,0.84316826,0.020339966,0.0068511963,0.022079468,-30.718994,-23.519897,-27.539063,1,0.0,0.0,0.0,0.0
2.589855958,-0.095199436,-0.7070951,0.70068085,0.026755363,-0.70544094,-0.7082636,0.9950986,-0.048679315,0.086076155,-0.09453724,-0.70780563,0.7000528,0.027131375,-0.7047729,-0.7089141,0.9951516,-0.048025385,0.085831024,9.973282,-0.40797424,0.8901367,9.758584,-0.47738102,0.8441187,0.02217102,1.373291E-4,0.017959595,-30.659485,-23.339844,-27.719116,1,0.0,0.0,0.0,0.0
2.598156739,-0.09527112,-0.707047,0.70071965,0.026773479,-0.7054869,-0.708217,0.9950912,-0.04871193,0.08614263,-0.094550505,-0.7077915,0.70006526,0.027123906,-0.7047861,-0.7089012,0.9951505,-0.048038464,0.08583595,9.973282,-0.40797424,0.8901367,9.758512,-0.47770086,0.8447706,0.01423645,-6.2561035E-4,0.015823364,-30.659485,-23.339844,-27.719116,1,0.0,0.0,0.0,0.0
2.60645752,-0.09517096,-0.7108681,0.6968566,0.027329743,-0.7016361,-0.7120112,0.99508566,-0.04871787,0.08620321,-0.094579026,-0.70776206,0.7000912,0.027110025,-0.70481384,-0.7088741,0.9951482,-0.04806513,0.085848056,10.035492,-0.4175415,0.92004395,9.758457,-0.47775912,0.84536475,0.024765015,-0.00491333,0.012161255,-30.839539,-23.278809,-27.95868,1,0.0,0.0,0.0,0.0
2.614758301,-0.09518164,-0.7108609,0.6968624,0.027357813,-0.7016442,-0.7120021,0.9950839,-0.048704892,0.08623125,-0.09460242,-0.70788556,0.6999632,0.027118605,-0.70468813,-0.70899874,0.9951457,-0.048090976,0.08586207,10.041473,-0.43190002,0.86260986,9.75844,-0.47763184,0.8456397,0.022018433,-0.010559082,0.010177612,-30.839539,-23.278809,-27.95868,1,0.0,0.0,0.0,0.0
2.623059083,-0.09536149,-0.7045626,0.70320535,0.026460797,-0.7079692,-0.70574737,0.9950909,-0.048693746,0.08615629,-0.09461403,-0.7079452,0.6999012,0.027123377,-0.7046273,-0.70905906,0.9951445,-0.048103254,0.08586949,10.041473,-0.43190002,0.86260986,9.758509,-0.47752255,0.8449046,0.019424438,-0.008880615,0.006515503,-31.079102,-23.638916,-27.89917,1,0.0,0.0,0.0,0.0
2.631359864,-0.095313385,-0.7045951,0.7031793,0.026457973,-0.7079389,-0.705778,0.9950957,-0.048665397,0.086118214,-0.09464375,-0.7078117,0.7000322,0.027097315,-0.7047598,-0.70892835,0.99514234,-0.04812664,0.085880905,10.019943,-0.4355011,0.8889313,9.758555,-0.47724453,0.8445312,0.03149414,-0.011169434,0.007736206,-31.079102,-23.638916,-27.89917,1,0.0,0.0,0.0,0.0
2.639660645,-0.09524408,-0.70662034,0.70115364,0.026733443,-0.70591724,-0.70778966,0.9950949,-0.048668526,0.08612483,-0.09467042,-0.70768464,0.7001571,0.027072188,-0.70488596,-0.70880383,0.9951405,-0.048147973,0.08589042,9.955338,-0.46540833,0.84347534,9.758548,-0.47727522,0.8445961,0.04675293,0.0024261475,7.019043E-4,-30.899048,-23.339844,-27.719116,1,0.0,0.0,0.0,0.0
2.647961426,-0.09521245,-0.7066417,0.7011363,0.02675987,-0.7058984,-0.70780724,0.99509716,-0.048629753,0.086119965,-0.0946819,-0.7076635,0.70017695,0.027065452,-0.7049065,-0.7087836,0.9951396,-0.048158385,0.08589513,9.955338,-0.46540833,0.84347534,9.75857,-0.47689497,0.84454834,0.042175293,0.007156372,-0.0034179688,-30.899048,-23.339844,-27.719116,1,0.0,0.0,0.0,0.0
2.656262208,-0.09529112,-0.704468,0.7033096,0.026528973,-0.70807093,-0.70564276,0.9950959,-0.048583418,0.086161695,-0.09470297,-0.70762277,0.70021516,0.027053367,-0.70494604,-0.70874476,0.9951379,-0.048177052,0.08590406,9.949356,-0.47737122,0.8279114,9.758557,-0.47644058,0.8449576,0.049041748,0.012649536,0.007873535,-30.718994,-23.458862,-27.659607,1,0.0,0.0,0.0,0.0
2.664562989,-0.095297016,-0.7044641,0.70331275,0.026575942,-0.7080769,-0.7056351,0.99509406,-0.048553713,0.08619941,-0.094726354,-0.707498,0.7003381,0.027032714,-0.7050702,-0.7086221,0.9951362,-0.04819315,0.085914314,9.938583,-0.45942688,0.79800415,9.758539,-0.47614926,0.8453275,0.049804688,0.014480591,0.017349243,-30.718994,-23.458862,-27.659607,1,0.0,0.0,0.0,0.0
2.67286377,-0.0951472,-0.7097159,0.6980332,0.02729449,-0.7028108,-0.71085304,0.995089,-0.04858322,0.08624183,-0.09473776,-0.70743763,0.7003976,0.02702361,-0.70513034,-0.7085626,0.9951354,-0.04820036,0.08591998,9.938583,-0.45942688,0.79800415,9.75849,-0.47643864,0.8457434,0.033172607,0.013717651,0.010482788,-31.019592,-23.339844,-27.95868,1,0.0,0.0,0.0,0.0
2.681164551,-0.09516805,-0.70970196,0.69804466,0.027335517,-0.70282614,-0.7108365,0.9950859,-0.048567504,0.08628665,-0.094753996,-0.7075279,0.7003042,0.027034268,-0.7050387,-0.70865333,0.9951335,-0.048215523,0.08593273,9.891922,-0.4127655,0.8267212,9.758459,-0.47628453,0.846183,0.015151978,0.0010528564,0.012924194,-31.019592,-23.339844,-27.95868,1,0.0,0.0,0.0,0.0
2.689465333,-0.09498064,-0.7143589,0.6933037,0.027980998,-0.6980929,-0.71546024,0.9950858,-0.048555538,0.08629378,-0.09477043,-0.70761424,0.7002147,0.0270462,-0.70495105,-0.7087401,0.9951317,-0.048229463,0.08594679,9.981659,-0.42114258,0.85543823,9.758458,-0.47616717,0.8462529,0.013320923,9.0026855E-4,0.014144897,-30.839539,-22.918701,-27.83966,1,0.0,0.0,0.0,0.0
2.697766114,-0.09497585,-0.7143622,0.693301,0.027974974,-0.69808954,-0.7154639,0.99508643,-0.048556715,0.08628591,-0.09477475,-0.70774984,0.7000771,0.027064852,-0.7048145,-0.70887524,0.9951308,-0.048235986,0.085953765,9.981659,-0.42114258,0.85543823,9.758465,-0.4761787,0.84617573,0.018203735,-0.0016937256,0.00819397,-30.839539,-22.918701,-27.83966,1,0.0,0.0,0.0,0.0
2.706066895,-0.095076576,-0.7113257,0.6964024,0.027563214,-0.70118433,-0.71244705,0.9950883,-0.048541933,0.08627262,-0.094782844,-0.708013,0.6998098,0.027100772,-0.7045492,-0.70913744,0.995129,-0.048248686,0.08596688,10.019943,-0.4295044,0.8650055,9.758483,-0.47603375,0.84604543,0.025985718,-0.0073547363,0.0045166016,-31.079102,-23.15979,-27.89917,1,0.0,0.0,0.0,0.0
2.714367676,-0.095025875,-0.7113599,0.69637424,0.027591426,-0.70115316,-0.7124766,0.9950924,-0.048489757,0.08625513,-0.09479456,-0.7081446,0.69967496,0.027119078,-0.7044161,-0.7092689,0.99512744,-0.048260298,0.08597905,10.040283,-0.4355011,0.8877411,9.758523,-0.4755221,0.84587395,0.033172607,-0.010406494,-0.0020446777,-31.079102,-23.15979,-27.89917,1,0.0,0.0,0.0,0.0
