Time,Rot1,Rot2,Rot3,Rot4,Rot5,Rot6,Rot7,Rot8,Rot9,FRot1,FRot2,FRot3,FRot4,FRot5,FRot6,FRot7,FRot8,FRot9,AccX,AccY,AccZ,GravX,GravY,GravZ,GyroX,GyroY,GyroZ,MagX,MagY,MagZ,Imid
0.0,0.0,0.0,0.0,0.0,0.0,0.0,0.0,0.0,0.0,0.0,0.0,0.0,0.0,0.0,0.0,0.0,0.0,0.0,0.0,0.0,0.0,9.802086,0.14870332,-0.2595824,0.0,0.0,0.0,0.0,0.0,0.0,0,0.0,0.0,0.0,0.0
0.008300782,0.0,0.0,0.0,0.0,0.0,0.0,0.0,0.0,0.0,1.0,0.0,0.0,0.0,1.0,0.0,0.0,0.0,1.0,10.034302,0.1375885,-0.23330688,9.802103,0.1486323,-0.25899613,-0.019363403,-0.00491333,-0.0034179688,0.0,0.0,0.0,0,0.0,0.0,0.0,0.0
0.016601563,-0.030455654,0.5176813,-0.85503125,6.715525E-4,0.8554385,0.5179039,0.99953586,0.015198906,-0.02640059,1.0,0.0,0.0,0.0,1.0,0.0,0.0,0.0,1.0,10.037888,0.16989136,-0.1986084,9.802098,0.14905035,-0.25890136,-0.029907227,-0.03529358,-0.0011291504,-25.138855,38.15918,23.999023,0,0.0,0.0,0.0,0.0
0.024902344,-0.030645875,0.5175875,-0.85508126,7.2833616E-4,0.85549444,0.5178115,0.99953,0.015246,-0.026594354,0.99943054,0.010883944,-0.031940013,-0.010888101,0.9999407,4.3801498E-5,0.031938594,3.0398954E-4,0.9994898,10.039093,0.17108154,-0.23808289,9.802041,0.14951219,-0.26080152,-0.032043457,-0.04170227,-0.0034179688,-25.138855,38.15918,23.999023,0,0.0,0.0,0.0,0.0
0.033203125,-0.030962672,0.51743114,-0.8551645,8.420171E-4,0.85558796,0.51765686,0.9995202,0.015307975,-0.026926972,0.9950789,0.031993985,-0.09377832,-0.03193692,0.99948764,0.0021096568,0.09379777,8.957159E-4,0.99559087,10.0295105,0.18066406,-0.26560974,9.801945,0.15011996,-0.2640634,-0.04486084,-0.04675293,-0.0020446777,-25.138855,38.15918,23.999023,0,0.0,0.0,0.0,0.0
0.041503907,-0.031314768,0.51646805,-0.8557337,9.6451025E-4,0.85616875,0.5166953,0.9995091,0.015354831,-0.027308866,0.98688257,0.05224752,-0.15275104,-0.051857255,0.9986331,0.006540581,0.15288398,0.001466464,0.98824304,10.0295105,0.18066406,-0.26560974,9.801836,0.15057945,-0.2678085,-0.054031372,-0.05895996,0.0046691895,-24.839783,38.15918,23.939514,0,0.0,0.0,0.0,0.0
0.049804688,-0.031702366,0.51864624,-0.85440105,0.0012812624,0.8548511,0.5188719,0.9994965,0.0153547535,-0.027765322,0.9815009,0.062041815,-0.18112622,-0.06132869,0.99807197,0.0095404815,0.18136892,0.0017442429,0.9834135,10.052246,0.16270447,-0.27397156,9.801713,0.1505787,-0.2722848,-0.05204773,-0.067214966,0.0020751953,-24.41864,38.339233,24.179077,0,0.0,0.0,0.0,0.0
0.058105469,-0.03216679,0.5184244,-0.85451823,0.0015337607,0.8549853,0.51865,0.9994814,0.0153726805,-0.028297273,0.9684561,0.08112924,-0.23560749,-0.07937127,0.99670094,0.016951956,0.23620552,0.0022832411,0.97170043,10.042679,0.17347717,-0.27038574,9.801564,0.1507545,-0.27750146,-0.05281067,-0.07423401,0.0019226074,-24.41864,38.339233,24.179077,0,0.0,0.0,0.0,0.0
0.06640625,-0.032667823,0.5182555,-0.8546017,0.0018168371,0.8550874,0.5184806,0.9994646,0.015384959,-0.02887543,0.95274705,0.09942264,-0.28703347,-0.0960081,0.9950413,0.025983742,0.28819355,0.0028016048,0.9575681,10.0247345,0.16390991,-0.25723267,9.801399,0.15087491,-0.28317124,-0.04714966,-0.087677,-5.187988E-4,-24.659729,38.21869,24.119568,0,0.0,0.0,0.0,0.0
0.074707032,-0.033303853,0.51794744,-0.85476387,0.0021517351,0.8552734,0.5181724,0.99944293,0.015417914,-0.02959839,0.9440226,0.10828022,-0.31160358,-0.10378575,0.9941157,0.031023333,0.31312922,0.0030532829,0.94970566,10.018753,0.1758728,-0.33140564,9.8011875,0.15119809,-0.29026106,-0.03753662,-0.08065796,8.544922E-4,-24.659729,38.21869,24.119568,0,0.0,0.0,0.0,0.0
0.083007813,-0.03390446,0.51765627,-0.8549166,0.002489809,0.85544944,0.5178802,0.99942195,0.015429869,-0.03029242,0.9250723,0.1254281,-0.35848165,-0.11824331,0.9920964,0.041991435,0.36091524,0.0035429432,0.9325919,10.041473,0.16151428,-0.33140564,9.8009815,0.15131533,-0.29706717,-0.00592041,-0.07255554,0.001159668,-24.659729,38.21869,24.119568,0,0.0,0.0,0.0,0.0
0.091308594,-0.03447042,0.5104992,-0.85918707,0.0025647143,0.8597403,0.510725,0.9994024,0.0154013345,-0.030944891,0.9044172,0.14184837,-0.40237853,-0.1312477,0.98988026,0.053954713,0.40595993,0.004013686,0.9138821,10.031906,0.15672302,-0.3672943,9.80079,0.1510355,-0.30346572,0.006286621,-0.060653687,0.0098724365,-24.719238,38.21869,23.699951,0,0.0,0.0,0.0,0.0
0.099609375,-0.034901094,0.5121967,-0.85815877,0.0029542157,0.858731,0.5124181,0.99938637,0.015348767,-0.03148379,0.8935738,0.14963424,-0.42324394,-0.1370668,0.98873234,0.060175486,0.42747927,0.004241449,0.9040152,10.022339,0.16151428,-0.3481598,9.800633,0.15052,-0.30875057,0.006286621,-0.042785645,0.004058838,-25.318909,37.379456,23.339844,0,0.0,0.0,0.0,0.0
0.107910157,-0.035247203,0.5120195,-0.8582504,0.0031859921,0.8588372,0.51223874,0.9993735,0.015320604,-0.031902898,0.87098926,0.16479215,-0.4628404,-0.14774726,0.9863172,0.07313763,0.46855998,0.004681317,0.8834193,10.022339,0.16151428,-0.3481598,9.800507,0.1502438,-0.31286055,0.016677856,-0.03224182,-0.0011291504,-25.318909,37.379456,23.339844,0,0.0,0.0,0.0,0.0
0.116210938,-0.03552009,0.5118797,-0.85832244,0.0033629779,0.85892075,0.51209736,0.9993633,0.015303227,-0.03223039,0.85932314,0.17212664,-0.4815975,-0.15258057,0.98506266,0.07981667,0.4881423,0.004894112,0.87275034,10.025925,0.1483612,-0.36489868,9.800406,0.1500734,-0.31607214,0.01499939,-0.025985718,0.0014648438,-25.318909,37.379456,23.339844,0,0.0,0.0,0.0,0.0
0.124511719,-0.035691164,0.5120686,-0.8582027,0.0034939041,0.8588085,0.5122848,0.99935675,0.015285563,-0.032440994,0.8354008,0.18632452,-0.5170963,-0.1612703,0.9824739,0.093471244,0.52544963,0.0053063305,0.85080814,10.0295105,0.16390991,-0.34695435,9.800342,0.14990015,-0.31813747,0.023849487,-7.7819824E-4,0.001159668,-25.19989,37.55951,23.458862,0,0.0,0.0,0.0,0.0
0.1328125,-0.035753295,0.51203704,-0.8582189,0.0035311002,0.8588273,0.5122529,0.99935436,0.015284273,-0.03251396,0.8108809,0.1999321,-0.54999936,-0.16872543,0.9797932,0.107410796,0.5603605,0.005701524,0.8282292,10.022339,0.17826843,-0.37687683,9.80032,0.14988753,-0.31885308,0.026748657,-9.3078613E-4,0.0013122559,-25.19989,37.55951,23.458862,0,0.0,0.0,0.0,0.0
0.141113282,-0.035762772,0.510369,-0.85921156,0.0034785634,0.8598199,0.5105856,0.99935424,0.015271134,-0.032524895,0.7984623,0.20651802,-0.56551594,-0.172008,0.978425,0.114445075,0.57694995,0.0058931867,0.8167583,10.018753,0.15074158,-0.33140564,9.800318,0.14975867,-0.31896028,0.035308838,0.0022735596,-0.0025024414,-25.2594,37.319946,23.2193,0,0.0,0.0,0.0,0.0
0.149414063,-0.03575353,0.512965,-0.8576646,0.003573181,0.8582734,0.51318026,0.99935424,0.015283412,-0.03251922,0.7734366,0.21919535,-0.5947683,-0.17766978,0.9756609,0.12852739,0.6084647,0.006264568,0.7935562,10.02713,0.16989136,-0.33738708,9.800318,0.14987908,-0.31890464,0.035308838,0.004562378,0.0036010742,-25.318909,37.25891,23.339844,0,0.0,0.0,0.0,0.0
0.157714844,-0.035716522,0.51298404,-0.8576548,0.003545166,0.85826194,0.51319957,0.9993556,0.015289173,-0.032472745,0.74825454,0.23145226,-0.62172747,-0.18236491,0.97282374,0.14267811,0.6378544,0.0066217277,0.77012855,10.02713,0.16989136,-0.33738708,9.800331,0.14993557,-0.31844884,0.027359009,0.007156372,2.4414063E-4,-25.318909,37.25891,23.339844,0,0.0,0.0,0.0,0.0
0.166015625,-0.035664506,0.5130107,-0.85764104,0.003504403,0.85824597,0.5132268,0.9993577,0.015298461,-0.032406714,0.73565865,0.23738483,-0.6343932,-0.18433666,0.9713919,0.14972548,0.65178704,0.0067950836,0.75837165,10.042679,0.16870117,-0.32901,9.800351,0.15002665,-0.3178013,0.028121948,0.011734009,0.0013122559,-25.318909,37.25891,23.339844,0,0.0,0.0,0.0,0.0
0.174316407,-0.03561258,0.50865316,-0.8602347,0.00329718,0.8608359,0.50887215,0.9993603,0.015285899,-0.032333706,0.710537,0.24887206,-0.6581792,-0.18757635,0.9685101,0.16371706,0.6781978,0.0071318303,0.73484474,10.033112,0.1531372,-0.35772705,9.800377,0.14990346,-0.31708536,0.020950317,0.023345947,-3.6621094E-4,-25.2594,37.5,23.2193,0,0.0,0.0,0.0,0.0
0.182617188,-0.03546544,0.50872844,-0.86019623,0.0032089911,0.86079127,0.5089481,0.99936575,0.015289705,-0.03216085,0.68563914,0.25967762,-0.68004894,-0.18980053,0.9656666,0.17738035,0.70276225,0.0074547436,0.7113857,10.0295105,0.15434265,-0.3146515,9.80043,0.14994079,-0.3153902,0.023849487,0.018157959,-0.0032653809,-25.2594,37.5,23.2193,0,0.0,0.0,0.0,0.0
0.190917969,-0.03532916,0.50630486,-0.8616306,0.0029909546,0.8622185,0.5065276,0.9993712,0.0153180985,-0.031975787,0.6732913,0.26490894,-0.6902913,-0.19061409,0.96424335,0.18412207,0.7143844,0.007611449,0.6997121,10.035492,0.15911865,-0.28474426,9.800484,0.15021923,-0.31357536,0.023849487,0.008987427,-0.0047912598,-25.079346,37.55951,23.098755,0,0.0,0.0,0.0,0.0
0.19921875,-0.035282183,0.512165,-0.85816205,0.003145595,0.85874933,0.5123862,0.9993725,0.0153786745,-0.03190962,0.64887255,0.2749303,-0.70949125,-0.1916146,0.96143156,0.19731492,0.7363751,0.007916643,0.67652714,10.030716,0.17945862,-0.33021545,9.800496,0.15081328,-0.31292647,0.020950317,0.00730896,3.9672852E-4,-24.778748,37.5,23.399353,0,0.0,0.0,0.0,0.0
0.207519532,-0.035267625,0.51217234,-0.85815835,0.0030968245,0.8587443,0.5123948,0.999373,0.015413383,-0.031871982,0.62479585,0.2847852,-0.7269989,-0.1921092,0.9585561,0.21039037,0.75678545,0.008212151,0.6536118,10.02832,0.17468262,-0.33380127,9.800502,0.15115365,-0.31255737,0.022628784,0.010360718,0.0014648438,-24.778748,37.5,23.399353,0,0.0,0.0,0.0,0.0
0.215820313,-0.03522541,0.51219344,-0.8581475,0.0030611819,0.8587316,0.5124165,0.9993747,0.015423132,-0.03181709,0.61292505,0.28955477,-0.7351741,-0.1921168,0.95712495,0.21680158,0.7664294,0.008356182,0.6422742,10.02832,0.17468262,-0.33380127,9.800518,0.15124926,-0.31201908,0.016983032,0.012039185,0.0036010742,-24.778748,37.5,23.399353,0,0.0,0.0,0.0,0.0
0.224121094,-0.035148237,0.5152954,-0.8562916,0.0031509,0.85687387,0.51551646,0.99937713,0.015421407,-0.031741254,0.58955145,0.29878986,-0.7504357,-0.19169252,0.95427984,0.22935551,0.7846548,0.0086360425,0.6198728,10.0247345,0.16630554,-0.36131287,9.800542,0.15123235,-0.31127536,0.013320923,0.012496948,0.0017700195,-24.35913,37.919617,23.81897,0,0.0,0.0,0.0,0.0
0.232421875,-0.035073318,0.51533175,-0.85627276,0.003122501,0.85685223,0.5155526,0.9993799,0.0154084265,-0.031661775,0.56667703,0.30776918,-0.7643004,-0.19081306,0.95141935,0.24164338,0.8015407,0.008904752,0.5978739,10.036697,0.17108154,-0.33499146,9.800569,0.15110505,-0.31049594,0.02003479,0.017089844,-6.1035156E-5,-24.35913,37.919617,23.81897,0,0.0,0.0,0.0,0.0
0.240722657,-0.03500805,0.5136732,-0.8572715,0.0030102367,0.8578477,0.5138955,0.99938256,0.015409888,-0.031577848,0.5554494,0.31211555,-0.7707528,-0.19018732,0.9500012,0.24764197,0.8095089,0.00903483,0.587038,10.046265,0.16630554,-0.30508423,9.800595,0.15111938,-0.30967292,0.022781372,0.010971069,-3.6621094E-4,-24.238586,38.09967,23.81897,0,0.0,0.0,0.0,0.0
0.249023438,-0.034896918,0.51985776,-0.85353976,0.003186727,0.8541134,0.5200769,0.9993858,0.015429082,-0.031462573,0.53344566,0.32045802,-0.7827787,-0.18855737,0.94721717,0.25927925,0.8245495,0.009287292,0.5657136,10.039093,0.13519287,-0.30747986,9.800628,0.15130763,-0.30854246,0.011627197,0.011276245,-0.005554199,-24.238586,37.678528,23.939514,0,0.0,0.0,0.0,0.0
0.257324219,-0.03480927,0.5199,-0.85351753,0.0031451518,0.8540878,0.5201192,0.999389,0.015420527,-0.031365342,0.52264094,0.32463235,-0.7883275,-0.18766467,0.94579345,0.26505977,0.831642,0.009410132,0.5552324,10.039093,0.13519287,-0.30747986,9.800658,0.15122372,-0.30758893,0.019729614,0.010818481,-0.0025024414,-24.238586,37.678528,23.939514,0,0.0,0.0,0.0,0.0
0.265625,-0.034782905,0.5199128,-0.8535109,0.0031141117,0.85407996,0.52013254,0.99939007,0.015433791,-0.03132645,0.5014933,0.3327158,-0.7986268,-0.18559042,0.9429778,0.27631342,0.8450211,0.009648151,0.53464586,10.042679,0.14596558,-0.32302856,9.800669,0.15135379,-0.30720752,0.021408081,-0.0033874512,-0.006011963,-24.238586,37.678528,23.939514,0,0.0,0.0,0.0,0.0
0.273925782,-0.03479932,0.5195499,-0.8537312,0.0030657258,0.8543001,0.5197711,0.9993896,0.0154703725,-0.031321853,0.48096904,0.34045672,-0.8079344,-0.18316984,0.9402083,0.28715354,0.85739005,0.00987727,0.5145725,10.030716,0.16630554,-0.30747986,9.800664,0.15171254,-0.30716246,0.017593384,-0.0013885498,-0.0020446777,-24.479675,37.5,23.81897,0,0.0,0.0,0.0,0.0
0.282226563,-0.034832116,0.5195338,-0.85373956,0.0030482672,0.85430914,0.5197561,0.9993885,0.015501778,-0.031341076,0.47094432,0.3441952,-0.81224453,-0.18183999,0.938845,0.2924112,0.8632182,0.009989136,0.5047322,10.030716,0.16630554,-0.30747986,9.800653,0.15202051,-0.30735096,0.01423645,-0.006591797,-0.0026550293,-24.479675,37.5,23.81897,0,0.0,0.0,0.0,0.0
0.290527344,-0.034869578,0.5187527,-0.85421294,0.003028378,0.8547837,0.5189757,0.9993873,0.015509585,-0.031376928,0.45136893,0.35143307,-0.82022005,-0.17897563,0.9361574,0.3026171,0.8742047,0.0102074435,0.48545027,10.0295105,0.15434265,-0.3134613,9.800642,0.15209708,-0.30770257,0.016677856,-0.001083374,0.0016174316,-24.41864,37.678528,23.878479,0,0.0,0.0,0.0,0.0
0.298828125,-0.03486211,0.52711046,-0.8490814,0.0034003593,0.8496555,0.52732724,0.99938637,0.01549656,-0.03141315,0.4324325,0.35833076,-0.82740635,-0.17585438,0.9335366,0.31238544,0.8843514,0.010417415,0.46670562,10.036697,0.16749573,-0.33021545,9.800632,0.15196934,-0.30805776,0.01576233,-0.0043029785,-9.765625E-4,-24.778748,37.01935,23.999023,0,0.0,0.0,0.0,0.0
0.307128907,-0.034919523,0.5270819,-0.8490967,0.0034275325,0.84967303,0.5272987,0.9993842,0.015502714,-0.03147677,0.42316657,0.3618523,-0.83065814,-0.17429812,0.9321761,0.31728205,0.8891289,0.010519001,0.45753595,10.036697,0.16749573,-0.33021545,9.8006115,0.1520297,-0.30868167,0.024459839,-0.0072021484,-0.001739502,-24.778748,37.01935,23.999023,0,0.0,0.0,0.0,0.0
0.315429688,-0.034947373,0.52706814,-0.8491041,0.0034139026,0.8496811,0.5272858,0.99938333,0.015528495,-0.031493485,0.4051079,0.36866948,-0.8366424,-0.17103367,0.9294988,0.32677135,0.8981287,0.010716361,0.4396022,10.022339,0.13279724,-0.3361969,9.800603,0.15228252,-0.3088456,0.024459839,-0.0059814453,0.0010070801,-24.778748,37.01935,23.999023,0,0.0,0.0,0.0,0.0
0.323730469,-0.034973286,0.53042835,-0.84700805,0.0036134692,0.8475881,0.5306424,0.9993817,0.0154976705,-0.031559628,0.38767636,0.37519747,-0.84198207,-0.16759607,0.9268807,0.33586255,0.90643173,0.010906927,0.42221138,10.018753,0.1651001,-0.34217834,9.800587,0.15198024,-0.30949423,0.033935547,0.0054779053,-0.0011291504,-24.839783,36.779785,24.058533,0,0.0,0.0,0.0,0.0
0.33203125,-0.034999724,0.53041524,-0.8470152,0.0036061443,0.847596,0.53062993,0.9993808,0.01551744,-0.031578377,0.37917936,0.3784305,-0.84440124,-0.16585082,0.92556435,0.34032944,0.9103387,0.0109987445,0.41371787,10.018753,0.1651001,-0.34217834,9.800578,0.1521741,-0.3096781,0.025375366,0.008377075,-0.0038757324,-24.839783,36.779785,24.058533,0,0.0,0.0,0.0,0.0
0.340332032,-0.034977667,0.5266241,-0.84937847,0.003385161,0.8499561,0.52684283,0.9993824,0.01555245,-0.031512186,0.3626453,0.38469,-0.84882385,-0.16226137,0.92297816,0.3489736,0.91769254,0.01117769,0.39713404,10.031906,0.16630554,-0.30389404,9.800593,0.15251744,-0.30902898,0.015914917,0.008071899,-0.0020446777,-25.019836,36.65924,23.75946,0,0.0,0.0,0.0,0.0
0.348632813,-0.034925967,0.5278068,-0.84864604,0.0033624573,0.84922135,0.5280262,0.9993842,0.015588292,-0.031434607,0.34674546,0.39052218,-0.8527954,-0.15850261,0.9205235,0.35709012,0.9244699,0.011350933,0.38108614,10.031906,0.16151428,-0.30029297,9.8006115,0.15286893,-0.3082682,0.01927185,0.011428833,-0.005554199,-25.138855,36.538696,23.75946,0,0.0,0.0,0.0,0.0
0.356933594,-0.034856427,0.5278422,-0.8486269,0.0032856772,0.8491989,0.528063,0.99938697,0.0156180775,-0.03133436,0.3390139,0.39337108,-0.85459274,-0.15660316,0.91930866,0.36103603,0.92765564,0.011435683,0.37326157,10.031906,0.16151428,-0.30029297,9.800638,0.15316102,-0.3072851,0.014541626,0.008834839,-0.003112793,-25.138855,36.538696,23.75946,0,0.0,0.0,0.0,0.0
0.365234375,-0.034822635,0.5278594,-0.84861755,0.003195161,0.84918696,0.5280825,0.9993884,0.015677758,-0.03125753,0.32398885,0.39888978,-0.8578567,-0.15275763,0.9169255,0.36866346,0.9336468,0.01160131,0.3580071,10.033112,0.16989136,-0.30867004,9.8006525,0.15374629,-0.30653164,0.0073547363,7.4768066E-4,0.0017700195,-25.138855,36.538696,23.75946,0,0.0,0.0,0.0,0.0
0.373535157,-0.03481238,0.52925324,-0.8477495,0.0032333154,0.8483188,0.5294759,0.9993886,0.015691273,-0.031243235,0.30953348,0.40417707,-0.86071473,-0.14886586,0.9146051,0.3759474,0.93916345,0.011762741,0.34326908,10.033112,0.14955139,-0.2907257,9.800654,0.15387882,-0.30639148,-8.8500977E-4,-0.0128479,-8.239746E-4,-25.2594,36.779785,23.999023,0,0.0,0.0,0.0,0.0
0.381835938,-0.034848794,0.5292347,-0.8477595,0.003275359,0.8483307,0.5294566,0.99938726,0.015674211,-0.031296737,0.30250928,0.40676686,-0.86199117,-0.14691728,0.9134553,0.37949282,0.9417555,0.011841313,0.33608976,10.033112,0.14955139,-0.2907257,9.800641,0.1537115,-0.30691615,-2.746582E-4,-0.017730713,-0.0034179688,-25.2594,36.779785,23.999023,0,0.0,0.0,0.0,0.0
0.390136719,-0.034991104,0.5276607,-0.84873426,0.0032575,0.84931,0.52788436,0.99938226,0.015706504,-0.031437147,0.28886676,0.41178182,-0.8642869,-0.14300108,0.9112035,0.38634026,0.9466291,0.0119931,0.32210162,10.025925,0.16870117,-0.31944275,9.800592,0.15402819,-0.3082931,0.0012512207,-0.01864624,-6.1035156E-5,-25.138855,36.839294,23.939514,0,0.0,0.0,0.0,0.0
0.3984375,-0.035155762,0.5284201,-0.84825486,0.0033662468,0.8488373,0.5286434,0.9993762,0.015729425,-0.031620312,0.27575877,0.4165198,-0.8662958,-0.13905317,0.9090456,0.39281082,0.95111585,0.012140154,0.3085957,10.023529,0.16151428,-0.34336853,9.800532,0.15425298,-0.31008935,0.008728027,-0.012237549,-0.004333496,-24.958801,36.95984,24.058533,0,0.0,0.0,0.0,0.0
0.406738282,-0.03529831,0.52834886,-0.84829324,0.0034268098,0.8488811,0.52857244,0.9993709,0.015750777,-0.031774625,0.26939213,0.4188301,-0.86718464,-0.13708441,0.9079825,0.39594904,0.9532238,0.01221194,0.3020184,10.023529,0.16151428,-0.34336853,9.800481,0.15446235,-0.31160262,3.0517578E-5,-0.008880615,0.0013122559,-24.958801,36.95984,24.058533,0,0.0,0.0,0.0,0.0
0.415039063,-0.035369914,0.5283131,-0.84831256,0.0034577753,0.8489033,0.5285368,0.99936825,0.015761027,-0.031852424,0.2570303,0.42330223,-0.86876386,-0.13315396,0.9059043,0.4020042,0.9571862,0.012352081,0.28920925,10.010376,0.16749573,-0.3098755,9.800455,0.15456288,-0.3123656,3.0517578E-5,-0.014678955,0.008041382,-24.958801,36.95984,24.058533,0,0.0,0.0,0.0,0.0
0.423339844,-0.035425354,0.5301217,-0.8471812,0.0036029797,0.8477756,0.53034294,0.99936587,0.01573521,-0.03194277,0.2510323,0.425467,-0.8694599,-0.13119577,0.9048887,0.40492484,0.95904666,0.012420261,0.28297576,10.010376,0.16749573,-0.3098755,9.800431,0.1543097,-0.31325155,0.005065918,-0.014984131,0.005279541,-24.958801,36.779785,24.058533,0,0.0,0.0,0.0,0.0
0.431640625,-0.035560194,0.5300541,-0.8472178,0.0037207045,0.84781826,0.5302736,0.99936056,0.01570439,-0.032120764,0.23938116,0.42973673,-0.8706452,-0.12731916,0.90286696,0.4106349,0.96254164,0.012551536,0.27084306,10.041473,0.16270447,-0.36131287,9.80038,0.15400746,-0.3149971,0.008270264,-0.013153076,5.493164E-4,-24.958801,36.779785,24.058533,0,0.0,0.0,0.0,0.0
0.439941407,-0.035682634,0.5268059,-0.8492363,0.0036776876,0.84984094,0.5270264,0.9993564,0.015682464,-0.03226199,0.22818977,0.43382552,-0.8716219,-0.12347196,0.9009077,0.41607684,0.9657557,0.012676392,0.2591432,10.02832,0.15434265,-0.3481598,9.800339,0.15379244,-0.31638205,0.0072021484,-0.0046081543,8.544922E-4,-24.839783,37.1994,24.119568,0,0.0,0.0,0.0,0.0
0.448242188,-0.035751034,0.52677196,-0.8492544,0.003743778,0.84986234,0.5269914,0.9993537,0.01566107,-0.032355577,0.22277047,0.4357367,-0.8720705,-0.12154531,0.89998406,0.4186352,0.9672642,0.012736515,0.25345162,10.02832,0.15434265,-0.3481598,9.800312,0.15358263,-0.3172998,0.009643555,-0.0027618408,0.0034484863,-24.839783,37.1994,24.119568,0,0.0,0.0,0.0,0.0
0.456542969,-0.035776593,0.5250635,-0.85031074,0.003688273,0.850919,0.52528393,0.999353,0.015656693,-0.032379564,0.21225654,0.4394381,-0.87283516,-0.11772863,0.8981809,0.42356935,0.9700964,0.012852329,0.2423792,10.030716,0.16270447,-0.3134613,9.800305,0.1535397,-0.31753504,0.014541626,-0.0070495605,-0.0012817383,-25.318909,37.139893,23.999023,0,0.0,0.0,0.0,0.0
0.46484375,-0.035800938,0.5250512,-0.8503173,0.0036904095,0.85092646,0.5252719,0.99935216,0.015667208,-0.032401618,0.20217423,0.44291455,-0.87347144,-0.11395288,0.8964701,0.428201,0.9726974,0.0129633825,0.23171455,10.034302,0.16870117,-0.32901,9.800297,0.15364283,-0.31775135,0.016830444,0.0024261475,0.0014648438,-25.318909,37.139893,23.999023,0,0.0,0.0,0.0,0.0
0.473144532,-0.035810824,0.52742255,-0.84884804,0.0037849555,0.8494584,0.5276421,0.99935144,0.015682448,-0.03241608,0.19728623,0.44459814,-0.8737337,-0.11208916,0.8956355,0.4304335,0.9739169,0.01301746,0.2265312,10.034302,0.16870117,-0.32901,9.80029,0.15379228,-0.31789315,0.012237549,-1.6784668E-4,-6.1035156E-5,-25.2594,37.1994,24.179077,0,0.0,0.0,0.0,0.0
0.481445313,-0.035828214,0.5274138,-0.84885275,0.0037946291,0.84946376,0.52763325,0.9993508,0.015683077,-0.03243611,0.18779483,0.44795924,-0.87410843,-0.10843372,0.8939576,0.4348354,0.97620445,0.013122995,0.21645452,10.037888,0.16630554,-0.3254242,9.800283,0.15379846,-0.31808957,0.0068969727,-0.01071167,0.0028381348,-25.2594,37.1994,24.179077,0,0.0,0.0,0.0,0.0
0.489746094,-0.035894513,0.5287946,-0.8479905,0.003925929,0.8486054,0.5290118,0.99934787,0.01565947,-0.032536283,0.17868824,0.45118096,-0.87436044,-0.10484654,0.8923345,0.43902886,0.9783035,0.013224375,0.20675445,10.04985,0.15074158,-0.34695435,9.800255,0.15356694,-0.31907195,0.004760742,-0.014526367,-0.0020446777,-25.498962,36.65924,23.939514,0,0.0,0.0,0.0,0.0
0.498046875,-0.03599958,0.5287406,-0.8480197,0.0040040137,0.8486392,0.5289569,0.99934375,0.015646746,-0.032667745,0.17426991,0.4527705,-0.87443054,-0.10308415,0.89152825,0.44107932,0.97928727,0.013273078,0.20204002,10.04985,0.15074158,-0.34695435,9.800215,0.15344217,-0.32036114,-0.003479004,-0.013153076,2.4414063E-4,-25.498962,36.65924,23.939514,0,0.0,0.0,0.0,0.0
0.506347657,-0.036133744,0.5278351,-0.8485779,0.004006449,0.8492021,0.52805275,0.9993389,0.01568074,-0.032799598,0.16570054,0.4558485,-0.8744973,-0.09961068,0.889957,0.44503284,0.9811325,0.013367078,0.19287373,10.017548,0.17945862,-0.36131287,9.800167,0.15377553,-0.32165417,0.0073547363,-0.0016937256,0.0028381348,-25.2594,36.65924,23.878479,0,0.0,0.0,0.0,0.0
0.514648438,-0.036154717,0.5278244,-0.8485837,0.004034795,0.849209,0.5280414,0.99933803,0.015667327,-0.03283257,0.15748037,0.45876193,-0.8744927,-0.09620445,0.88845724,0.44876316,0.9828248,0.013458701,0.18404952,10.018753,0.15672302,-0.32661438,9.8001585,0.153644,-0.32197753,0.0043029785,-0.0029144287,0.001159668,-25.2594,36.65924,23.878479,0,0.0,0.0,0.0,0.0
0.522949219,-0.036156096,0.52857125,-0.8481186,0.00409023,0.84874463,0.528787,0.99933773,0.015649874,-0.03284927,0.15349667,0.46017313,-0.87445945,-0.094529904,0.8877265,0.45056158,0.9836172,0.0135028735,0.17976318,10.018753,0.15672302,-0.32661438,9.800156,0.15347284,-0.32214132,0.0073547363,-0.0029144287,0.001159668,-25.2594,36.779785,23.999023,0,0.0,0.0,0.0,0.0
0.53125,-0.036156453,0.528571,-0.84811866,0.0040420843,0.8487439,0.5287884,0.9993379,0.015690949,-0.032824107,0.1457715,0.46293893,-0.8743216,-0.09124454,0.886286,0.45406115,0.9851016,0.013587896,0.17143591,10.036697,0.18185425,-0.2907257,9.800158,0.15387565,-0.32189453,0.0110321045,-0.008270264,-8.239746E-4,-25.2594,36.779785,23.999023,0,0.0,0.0,0.0,0.0
0.539550782,-0.036184996,0.5281813,-0.8483602,0.0040294994,0.8489863,0.5283993,0.99933696,0.01570166,-0.032848876,0.13836321,0.4655909,-0.87411714,-0.088040695,0.88489443,0.45739546,0.98646057,0.013671177,0.16342779,10.0247345,0.15553284,-0.31225586,9.800148,0.1539807,-0.32213745,0.01713562,-0.0046081543,-0.0032653809,-24.958801,37.319946,24.299622,0,0.0,0.0,0.0,0.0
0.547851563,-0.03620931,0.5281693,-0.84836674,0.0040373625,0.84899384,0.52838737,0.99933606,0.01570738,-0.03287389,0.13477415,0.46686766,-0.8739969,-0.0864677,0.8842209,0.45899537,0.98709637,0.013711788,0.1595391,10.0247345,0.15553284,-0.31225586,9.800139,0.15403678,-0.32238275,0.01576233,-0.002456665,-0.0014343262,-24.958801,37.319946,24.299622,0,0.0,0.0,0.0,0.0
0.556152344,-0.03625821,0.5282475,-0.8483159,0.0040482124,0.84894466,0.528466,0.9993342,0.015727071,-0.03291968,0.12781665,0.46934178,-0.87371695,-0.08338229,0.88290894,0.46208146,0.9882866,0.013790814,0.15198526,10.005585,0.17347717,-0.33259583,9.800121,0.15422988,-0.32283178,0.011169434,-0.008270264,0.0048217773,-25.138855,37.1994,24.238586,0,0.0,0.0,0.0,0.0
0.564453125,-0.03628155,0.5282358,-0.8483222,0.0040564155,0.84895194,0.5284544,0.9993334,0.015731998,-0.032944035,0.12114284,0.47171763,-0.87338823,-0.080378965,0.8816407,0.46502584,0.9893754,0.013867491,0.14472061,10.043869,0.17468262,-0.3062744,9.800113,0.1542782,-0.32307062,0.010864258,-0.013305664,9.1552734E-5,-25.138855,37.1994,24.238586,0,0.0,0.0,0.0,0.0
0.572753907,-0.036351923,0.5246275,-0.85055536,0.003922672,0.8511862,0.52484894,0.9993313,0.015742822,-0.0330002,0.11790904,0.47286856,-0.8732083,-0.07890779,0.8810233,0.46644568,0.9898843,0.013904782,0.14119361,10.043869,0.17468262,-0.3062744,9.800093,0.15438434,-0.32362142,0.003540039,-0.015136719,0.002532959,-25.19989,37.25891,24.058533,0,0.0,0.0,0.0,0.0
0.581054688,-0.03644715,0.5245796,-0.8505809,0.00398173,0.85121584,0.52480054,0.9993276,0.015740702,-0.033113126,0.111652,0.47495157,-0.87290025,-0.076007165,0.87990093,0.46903864,0.9908364,0.013977569,0.13434242,10.053452,0.16630554,-0.32302856,9.800056,0.15436356,-0.32472885,0.009185791,-0.015289307,0.0045166016,-25.19989,37.25891,24.058533,0,0.0,0.0,0.0,0.0
0.589355469,-0.036500536,0.52493393,-0.85036,0.0041028587,0.8509985,0.525152,0.9993252,0.015679423,-0.03321563,0.10564747,0.47694767,-0.8725592,-0.07318819,0.8788194,0.4715081,0.9917067,0.014047391,0.12775199,10.00679,0.14117432,-0.3134613,9.800033,0.15376262,-0.32573408,0.007659912,-0.013458252,0.0013122559,-25.19989,37.319946,24.119568,0,0.0,0.0,0.0,0.0
0.59765625,-0.036541976,0.5249131,-0.850371,0.004195732,0.85101235,0.52512866,0.99932325,0.015621312,-0.033300072,0.10273633,0.4779223,-0.8723735,-0.07180888,0.8782893,0.47270653,0.9921133,0.014080032,0.12455128,10.00679,0.14117432,-0.3134613,9.800014,0.15319274,-0.32656217,0.015151978,-0.0113220215,-0.0018920898,-25.19989,37.319946,24.119568,0,0.0,0.0,0.0,0.0
0.605957032,-0.036618832,0.5240671,-0.85088944,0.004207216,0.85153383,0.52428293,0.99932045,0.01561875,-0.033387035,0.09709183,0.47981098,-0.8719831,-0.06910854,0.8772579,0.47501847,0.9928732,0.014141067,0.11833361,10.047455,0.1603241,-0.32063293,9.799986,0.15316762,-0.32741496,0.0099487305,-0.016357422,0.0034484863,-25.498962,37.379456,24.119568,0,0.0,0.0,0.0,0.0
0.614257813,-0.036714297,0.5240186,-0.8509152,0.0042798743,0.8515639,0.5242334,0.99931663,0.015605052,-0.033507302,0.091678195,0.48158824,-0.8715893,-0.06648468,0.8762826,0.47718826,0.9935668,0.014199583,0.11235425,10.033112,0.15792847,-0.33499146,9.799949,0.15303329,-0.3285944,0.006134033,-0.014984131,0.0010070801,-25.498962,37.379456,24.119568,0,0.0,0.0,0.0,0.0
0.622558594,-0.03680687,0.52522516,-0.85016686,0.004410766,0.8508204,0.52543795,0.99931264,0.015589841,-0.033632684,0.08905319,0.4824486,-0.8713856,-0.065201856,0.8758087,0.47823405,0.99389046,0.014227692,0.10945011,10.033112,0.15792847,-0.33499146,9.79991,0.15288411,-0.32982397,0.010864258,-0.013153076,-0.0023498535,-25.19989,37.85858,24.479675,0,0.0,0.0,0.0,0.0
0.630859375,-0.036898606,0.5251797,-0.85019106,0.00445976,0.8508485,0.52539223,0.99930906,0.015594593,-0.033737298,0.08395733,0.48416588,-0.8709389,-0.06269839,0.8748597,0.48030144,0.99449486,0.014281635,0.1038073,10.0247345,0.15434265,-0.33140564,9.799874,0.15293072,-0.3308499,0.0110321045,-0.0078125,-0.003112793,-25.19989,37.85858,24.479675,0,0.0,0.0,0.0,0.0
0.639160157,-0.03695513,0.52857316,-0.8480831,0.0046629887,0.84874475,0.52878237,0.999306,0.015586615,-0.033830196,0.07906665,0.4858114,-0.8704802,-0.06027156,0.8739461,0.48227122,0.9950456,0.014333629,0.0983806,10.017548,0.1531372,-0.3625183,9.799845,0.15285248,-0.33176088,0.010726929,-0.006286621,-6.1035156E-5,-24.958801,38.398743,25.019836,0,0.0,0.0,0.0,0.0
0.647460938,-0.037032634,0.5285357,-0.8481029,0.004704918,0.84876794,0.5287447,0.99930304,0.015590553,-0.033918828,0.0766908,0.48667878,-0.8702082,-0.059092395,0.873463,0.48329133,0.99530226,0.014358688,0.095745586,10.017548,0.1531372,-0.3625183,9.799815,0.1528911,-0.3326301,0.0059814453,-0.0015411377,-6.713867E-4,-24.958801,38.398743,25.019836,0,0.0,0.0,0.0,0.0
0.655761719,-0.03709386,0.5239793,-0.8509228,0.004526835,0.85158813,0.5241917,0.99930143,0.015592303,-0.03396066,0.07208301,0.48835886,-0.8696606,-0.05678819,0.87252396,0.4852598,0.9957807,0.014407471,0.09062718,10.016357,0.1531372,-0.3517456,9.7998,0.15290827,-0.3330403,0.009338379,0.0036468506,0.0014648438,-25.2594,38.15918,24.598694,0,0.0,0.0,0.0,0.0
0.6640625,-0.037053764,0.5239991,-0.8509124,0.0045158817,0.8515762,0.5242112,0.99930304,0.0155813815,-0.033920426,0.067674525,0.4897857,-0.8692124,-0.05454221,0.87172306,0.4869539,0.99621546,0.014454391,0.08570743,10.0295105,0.1531372,-0.32901,9.799815,0.15280116,-0.33264574,0.011627197,0.014785767,-6.1035156E-5,-25.2594,38.15918,24.598694,0,0.0,0.0,0.0,0.0
0.672363282,-0.036977343,0.5205301,-0.85304224,0.0043343585,0.85370153,0.52074456,0.99930674,0.015558358,-0.03382378,0.06553911,0.49047774,-0.8689857,-0.05344744,0.8713335,0.48777184,0.9964176,0.014476931,0.0833212,10.0295105,0.1531372,-0.32901,9.799851,0.15257537,-0.33169797,0.023086548,0.01234436,0.002380371,-25.619507,38.09967,24.35913,0,0.0,0.0,0.0,0.0
0.680664063,-0.036892474,0.52057284,-0.85301983,0.004332181,0.8536762,0.52078605,0.99930984,0.01551765,-0.033749446,0.061411537,0.49167946,-0.868608,-0.051303875,0.8706552,0.48921105,0.9967931,0.014519755,0.07869334,10.04866,0.14596558,-0.3637085,9.799882,0.15217617,-0.330969,0.030578613,0.024871826,-2.1362305E-4,-25.619507,38.09967,24.35913,0,0.0,0.0,0.0,0.0
0.688964844,-0.036752835,0.5183382,-0.8543856,0.0041880235,0.8550356,0.51855236,0.99931556,0.0154800825,-0.033595793,0.057455096,0.49283442,-0.8682241,-0.0492337,0.8700013,0.49058515,0.9971334,0.014559272,0.07425007,10.04866,0.14596558,-0.3637085,9.799938,0.15180776,-0.3294622,0.031021118,0.03479004,0.0046691895,-25.559998,38.339233,24.35913,0,0.0,0.0,0.0,0.0
0.697265625,-0.036533084,0.51844823,-0.8543283,0.0041040117,0.8549696,0.5186619,0.999324,0.015442144,-0.03336239,0.055543207,0.49334878,-0.8680565,-0.04822343,0.86970943,0.49120262,0.9972911,0.014577688,0.07209741,10.022339,0.14955139,-0.3397827,9.800021,0.1514357,-0.3271733,0.031188965,0.034179688,0.0032958984,-25.559998,38.339233,24.35913,0,0.0,0.0,0.0,0.0
0.705566407,-0.03629025,0.5194561,-0.8537262,0.0040342733,0.85435814,0.51966906,0.99933314,0.015414758,-0.0331005,0.053674757,0.49385497,-0.8678861,-0.047232736,0.8694218,0.4918077,0.99744076,0.014594977,0.069992125,10.042679,0.13279724,-0.3481598,9.800111,0.15116714,-0.32460502,0.023544312,0.03265381,-0.0040283203,-25.439453,38.15918,24.299622,0,0.0,0.0,0.0,0.0
0.713867188,-0.036061935,0.51957023,-0.85366637,0.0038559167,0.8542879,0.51978564,0.9993421,0.015452812,-0.0328107,0.05005927,0.4948772,-0.8675198,-0.045310136,0.8688398,0.49301562,0.9977179,0.014627439,0.065916434,10.035492,0.17706299,-0.3062744,9.800199,0.15154032,-0.32176307,0.014694214,0.029144287,-0.0020446777,-25.439453,38.15918,24.299622,0,0.0,0.0,0.0,0.0
0.722167969,-0.035901017,0.51892793,-0.8540638,0.003683729,0.8546776,0.519146,0.9993485,0.01549173,-0.03259538,0.046599515,0.49586293,-0.8671496,-0.043462284,0.868277,0.49417204,0.99796766,0.014660124,0.062012628,10.033112,0.1878357,-0.31225586,9.8002615,0.15192197,-0.3196515,0.008117676,0.01586914,-0.0020446777,-25.379944,38.038635,24.179077,0,0.0,0.0,0.0,0.0
0.73046875,-0.0357652,0.5189959,-0.85402817,0.0035884436,0.8546361,0.51921505,0.99935377,0.0155052,-0.032428622,0.04492665,0.49632782,-0.86697185,-0.042565085,0.86801106,0.49471703,0.99808306,0.014676755,0.06012307,10.031906,0.16989136,-0.29910278,9.800313,0.15205407,-0.31801614,0.003540039,0.011886597,-0.0015869141,-25.379944,38.038635,24.179077,0,0.0,0.0,0.0,0.0
0.738769532,-0.035702456,0.51770663,-0.85481304,0.003489608,0.8554177,0.51792705,0.9993563,0.0155083025,-0.032347098,0.041688174,0.49723217,-0.8666154,-0.040822472,0.8674928,0.49577183,0.9982964,0.014709562,0.05646244,10.031906,0.16390991,-0.33499146,9.800338,0.1520845,-0.3172167,3.3569336E-4,0.0068511963,0.004211426,-25.019836,38.09967,24.119568,0,0.0,0.0,0.0,0.0
0.747070313,-0.035625227,0.5177447,-0.85479313,0.00346349,0.8553949,0.51796484,0.9993592,0.015492048,-0.03226684,0.038586125,0.49804842,-0.8662903,-0.039141558,0.8670239,0.49672675,0.9984884,0.014741192,0.052949484,10.031906,0.16390991,-0.33499146,9.800365,0.15192509,-0.3164296,-0.0010375977,0.019683838,-2.1362305E-4,-25.019836,38.09967,24.119568,0,0.0,0.0,0.0,0.0
0.755371094,-0.03552228,0.5125702,-0.8579102,0.0031575495,0.85850525,0.512795,0.9993639,0.015506753,-0.03211453,0.037083898,0.4984449,-0.8661278,-0.038324475,0.8667957,0.49718842,0.99857694,0.014756208,0.051246807,10.022339,0.1758728,-0.30867004,9.800412,0.1520693,-0.31493598,0.004760742,0.017547607,5.493164E-4,-25.498962,38.09967,23.81897,0,0.0,0.0,0.0,0.0
0.763671875,-0.035367426,0.5126486,-0.8578698,0.003079255,0.85845864,0.51287353,0.9993696,0.015497415,-0.031940047,0.034184635,0.49900693,-0.8659235,-0.036730185,0.8664719,0.49787292,0.9987404,0.01478593,0.04794864,10.018753,0.13998413,-0.32781982,9.800468,0.15197773,-0.31322488,-0.001953125,0.029907227,-0.0052490234,-25.498962,38.09967,23.81897,0,0.0,0.0,0.0,0.0
0.771972657,-0.035163462,0.5101413,-0.8593715,0.0028220518,0.85995054,0.5103696,0.9993776,0.015521172,-0.031678487,0.031407718,0.4995495,-0.8657158,-0.03519831,0.86615866,0.4985281,0.9988867,0.014814104,0.044787366,10.033112,0.1531372,-0.29193115,9.800547,0.15221071,-0.31065983,0.0020141602,0.022125244,0.0049743652,-26.098633,37.61902,23.399353,0,0.0,0.0,0.0,0.0
0.780273438,-0.034960087,0.5102482,-0.85931635,0.0027016494,0.85988706,0.5104772,0.99938506,0.015524755,-0.03144024,0.030067673,0.49976212,-0.8656407,-0.03445518,0.86603576,0.49879345,0.9989538,0.014828245,0.043259073,10.052246,0.15911865,-0.27278137,9.800619,0.15224583,-0.3083234,0.0038452148,0.020141602,-0.0026550293,-26.098633,37.61902,23.399353,0,0.0,0.0,0.0,0.0
0.788574219,-0.034772225,0.5103468,-0.8592654,0.0025851857,0.8598284,0.5105765,0.9993919,0.0155325215,-0.03121749,0.027476335,0.5001788,-0.8654861,-0.033016138,0.8657947,0.499309,0.99907714,0.014855827,0.040302835,10.02713,0.16870117,-0.25125122,9.800687,0.15232201,-0.306139,0.0018615723,0.0039520264,0.0029907227,-26.098633,37.61902,23.399353,0,0.0,0.0,0.0,0.0
0.796875,-0.03462046,0.5151592,-0.85639507,0.002705302,0.8569539,0.515386,0.99939686,0.015526092,-0.031061798,0.024995824,0.50058275,-0.8653277,-0.031636138,0.86556077,0.49980363,0.9991868,0.014882623,0.037471913,10.02713,0.16870117,-0.25125122,9.800735,0.15225895,-0.3046122,-4.272461E-4,0.00440979,0.0059051514,-25.85907,37.85858,23.81897,0,0.0,0.0,0.0,0.0
0.805175782,-0.034514762,0.5183556,-0.8544683,0.002839245,0.8550251,0.5185787,0.99940014,0.015472579,-0.030982733,0.023792492,0.5008757,-0.8651922,-0.030970057,0.8653911,0.5001392,0.9992371,0.014895492,0.03610196,10.042679,0.14476013,-0.28234863,9.800767,0.15173416,-0.3038368,0.0027770996,0.0025787354,0.0013122559,-25.559998,37.85858,23.999023,0,0.0,0.0,0.0,0.0
0.813476563,-0.03447595,0.5183753,-0.854458,0.002802371,0.855013,0.518599,0.9994016,0.015484682,-0.030930065,0.02145802,0.50157183,-0.8648498,-0.02967798,0.8649873,0.5009152,0.99932915,0.014918345,0.033446558,10.011566,0.17108154,-0.27876282,9.800782,0.15185286,-0.30332032,-8.8500977E-4,-0.002456665,-0.0025024414,-25.559998,37.85858,23.999023,0,0.0,0.0,0.0,0.0
0.821777344,-0.034549743,0.5181525,-0.8545902,0.0027866988,0.85514736,0.51837766,0.9993991,0.015528328,-0.030989055,0.019219443,0.50224084,-0.8645142,-0.02843488,0.86459863,0.50165784,0.99941087,0.014940771,0.030898264,10.037888,0.17706299,-0.33380127,9.800757,0.15228088,-0.3038988,0.0015563965,-0.001083374,0.0034484863,-25.559998,37.678528,23.878479,0,0.0,0.0,0.0,0.0
0.830078125,-0.034575522,0.51813936,-0.8545971,0.002799605,0.8551552,0.5183645,0.9993982,0.015530189,-0.031018022,0.018132865,0.50256085,-0.86435163,-0.027830625,0.8644125,0.50201243,0.9994482,0.014952523,0.029660856,10.04985,0.16270447,-0.3062744,9.800749,0.15229914,-0.30418292,0.0068969727,-0.007659912,0.003753662,-25.559998,37.678528,23.878479,0,0.0,0.0,0.0,0.0
0.838378907,-0.034600794,0.5181265,-0.8546038,0.0028392673,0.8551634,0.5183508,0.99939716,0.015508901,-0.031060433,0.016024724,0.50318104,-0.8640324,-0.026655234,0.8640513,0.50269765,0.99951625,0.014975397,0.027258594,10.025925,0.17706299,-0.27397156,9.800738,0.15209037,-0.3045988,0.0044555664,-0.008575439,0.003753662,-25.559998,37.678528,23.878479,0,0.0,0.0,0.0,0.0
0.846679688,-0.034628972,0.5210532,-0.8528214,0.0029766709,0.8533832,0.5212756,0.9993958,0.0155126685,-0.031102788,0.014000537,0.5037758,-0.863721,-0.025521815,0.86370426,0.50335234,0.9995762,0.014996523,0.024949593,10.025925,0.17706299,-0.28953552,9.800725,0.15212731,-0.30501416,6.4086914E-4,-0.018188477,0.007873535,-25.559998,37.678528,24.058533,0,0.0,0.0,0.0,0.0
0.854980469,-0.03468543,0.52018845,-0.8533469,0.0030087149,0.85391116,0.5204101,0.99939376,0.015483172,-0.031183373,0.013016801,0.5041234,-0.86353356,-0.024971554,0.8635013,0.5037281,0.99960345,0.015006846,0.023828767,10.02832,0.16390991,-0.29193115,9.800705,0.15183805,-0.30580443,0.0020141602,-0.016815186,0.00819397,-25.679016,37.55951,23.939514,0,0.0,0.0,0.0,0.0
0.86328125,-0.03478814,0.52013594,-0.8533747,0.00310848,0.85394377,0.52035606,0.9993899,0.015449518,-0.031323943,0.0111078955,0.5047629,-0.8631866,-0.023898382,0.86312723,0.5044207,0.9996527,0.01502571,0.021650545,10.02832,0.16390991,-0.29193115,9.800667,0.15150802,-0.30718297,0.005065918,-0.02720642,-6.1035156E-5,-25.679016,37.55951,23.939514,0,0.0,0.0,0.0,0.0
0.871582032,-0.034959137,0.52004856,-0.85342103,0.0032310057,0.8539974,0.5202674,0.99938357,0.01543069,-0.031535286,0.010180563,0.50507194,-0.8630172,-0.023374822,0.86294633,0.5047547,0.9996749,0.015034187,0.020591248,10.037888,0.1651001,-0.31704712,9.800605,0.15132338,-0.30925554,0.006591797,-0.026138306,0.006210327,-25.679016,37.55951,23.939514,0,0.0,0.0,0.0,0.0
0.879882813,-0.035116374,0.5203595,-0.85322493,0.0033739358,0.85380834,0.5205764,0.9993775,0.015402032,-0.031738315,0.008375193,0.5056679,-0.8626875,-0.022351883,0.8625969,0.50539786,0.9997151,0.015049887,0.018527046,10.034302,0.17706299,-0.33140564,9.800546,0.15104234,-0.31124654,0.0010986328,-0.021392822,0.0063476563,-25.979614,37.5,23.939514,0,0.0,0.0,0.0,0.0
0.888183594,-0.035274807,0.5202775,-0.8532685,0.0034721643,0.8538585,0.52049375,0.9993716,0.015397626,-0.03192618,0.0066360063,0.5062525,-0.8623597,-0.021362107,0.86225367,0.5060259,0.9997497,0.015063832,0.016536541,10.023529,0.13877869,-0.33140564,9.800488,0.15099914,-0.31308892,0.00491333,-0.017578125,2.4414063E-4,-25.979614,37.5,23.939514,0,0.0,0.0,0.0,0.0
0.896484375,-0.035441127,0.51888275,-0.8541104,0.003489809,0.85470635,0.5191,0.9993656,0.015416807,-0.03210256,0.005789817,0.5065344,-0.86220026,-0.020879202,0.8620881,0.5063282,0.9997652,0.015070507,0.015567366,10.033112,0.17228699,-0.33499146,9.800429,0.15118723,-0.31481856,-2.746582E-4,-0.020629883,-0.0023498535,-25.559998,37.55951,23.878479,0,0.0,0.0,0.0,0.0
0.904785157,-0.0355841,0.51767564,-0.8548367,0.0035169246,0.855438,0.5178934,0.9993605,0.015422372,-0.032260615,0.004143431,0.50702536,-0.86192125,-0.019937266,0.8617992,0.50685775,0.99979264,0.015084221,0.013679504,10.033112,0.15911865,-0.32661438,9.800379,0.15124181,-0.31636858,0.002166748,-0.016357422,0.005279541,-25.19989,37.799072,23.939514,0,0.0,0.0,0.0,0.0
0.913085938,-0.035686303,0.51762444,-0.8548634,0.0035935147,0.85546917,0.5178412,0.9993565,0.015407873,-0.03238862,0.0025587212,0.50744855,-0.8616783,-0.019027628,0.86154985,0.50731635,0.9998157,0.0150976125,0.011860008,10.033112,0.15911865,-0.35533142,9.80034,0.15109962,-0.31762388,7.9345703E-4,-0.011169434,0.0026855469,-25.19989,37.799072,23.939514,0,0.0,0.0,0.0,0.0
0.921386719,-0.035799302,0.5175678,-0.8548929,0.0036817137,0.85550374,0.51778346,0.9993522,0.015388814,-0.032531973,0.0017884681,0.50765276,-0.86155987,-0.018584352,0.86142933,0.5075373,0.99982566,0.015103817,0.010975036,10.019943,0.15911865,-0.35533142,9.800298,0.15091272,-0.3190297,7.9345703E-4,-0.0126953125,0.002532959,-25.19989,37.799072,23.939514,0,0.0,0.0,0.0,0.0
0.9296875,-0.035876825,0.5123986,-0.857998,0.0035126088,0.8586101,0.51261723,0.99935,0.015377268,-0.03260406,2.8991327E-4,0.5080467,-0.8613295,-0.017719548,0.8611969,0.5079625,0.99984294,0.015115104,0.00925203,10.033112,0.15434265,-0.29551697,9.800277,0.1507995,-0.31973663,-0.007751465,-0.017578125,-0.0040283203,-25.19989,37.61902,23.519897,0,0.0,0.0,0.0,0.0
0.937988282,-0.035978347,0.5123472,-0.8580245,0.003570782,0.8586408,0.5125655,0.9993462,0.015377438,-0.03272195,-0.0011466951,0.50821924,-0.861227,-0.016886113,0.8610949,0.50816375,0.99985677,0.015125486,0.007594434,10.031906,0.15911865,-0.26081848,9.800239,0.15080115,-0.32089272,4.8828125E-4,-0.02659607,0.0020751953,-25.19989,37.61902,23.519897,0,0.0,0.0,0.0,0.0
0.946289063,-0.036169045,0.51547104,-0.8561433,0.0038481606,0.8567694,0.51568544,0.9993383,0.015357273,-0.032972146,-0.0018454795,0.5083019,-0.86117697,-0.016480401,0.861046,0.50825995,0.99986243,0.015130525,0.0067879767,10.0295105,0.15194702,-0.3146515,9.800161,0.1506034,-0.32334632,4.8828125E-4,-0.054534912,0.0060424805,-25.439453,37.078857,23.399353,0,0.0,0.0,0.0,0.0
0.954589844,-0.03651007,0.5192015,-0.8538716,0.0042766836,0.8545146,0.51940966,0.99932414,0.015311946,-0.033418853,-0.0032114736,0.5085865,-0.86100495,-0.015686607,0.86087775,0.50856996,0.9998718,0.015139505,0.005213311,10.021133,0.14715576,-0.36610413,9.800022,0.1501589,-0.327727,-0.011276245,-0.05697632,3.9672852E-4,-25.559998,37.078857,23.638916,0,0.0,0.0,0.0,0.0
0.962890625,-0.036982737,0.51895744,-0.85399973,0.0045489483,0.8546629,0.5191635,0.99930555,0.015315284,-0.033968482,-0.0045397356,0.50900835,-0.86074966,-0.0149120465,0.8606283,0.50901526,0.99987847,0.015146333,0.0036833307,10.021133,0.16390991,-0.41036987,9.79984,0.15019163,-0.33311704,-0.03265381,-0.04888916,0.004058838,-25.559998,37.078857,23.638916,0,0.0,0.0,0.0,0.0
0.971191407,-0.037420027,0.5187314,-0.85411805,0.0047999853,0.8548001,0.5189353,0.999288,0.015318816,-0.034476537,-0.0051931124,0.509208,-0.8606278,-0.014530374,0.8605101,0.509226,0.99988097,0.015149713,0.002930257,10.021133,0.16390991,-0.41036987,9.799668,0.15022627,-0.33809936,-0.05052185,-0.045837402,0.0074310303,-25.559998,37.078857,23.638916,0,0.0,0.0,0.0,0.0
0.979492188,-0.03775282,0.5166717,-0.85535085,0.004937889,0.8560471,0.5168743,0.9992749,0.015289833,-0.034869455,-0.006477831,0.50958633,-0.8603952,-0.013778718,0.86028606,0.50962543,0.99988407,0.01515641,0.0014486591,10.025925,0.1603241,-0.3912201,9.79954,0.14994204,-0.34195253,-0.060440063,-0.030410767,0.0068206787,-25.679016,36.95984,23.458862,0,0.0,0.0,0.0,0.0
0.987792969,-0.03798447,0.51655066,-0.85541373,0.00510869,0.8561207,0.51675075,0.9992653,0.015258459,-0.03515819,-0.007722664,0.50986755,-0.8602182,-0.013047508,0.8601193,0.509926,0.9998851,0.015161692,1.0087919E-5,10.016357,0.15672302,-0.36489868,9.799445,0.14963438,-0.34478408,-0.056777954,-0.023391724,0.0072631836,-25.679016,36.95984,23.458862,0,0.0,0.0,0.0,0.0
0.99609375,-0.038189877,0.50917673,-0.8598143,0.0049012406,0.86052704,0.5093811,0.99925846,0.015239047,-0.03535902,-0.008330853,0.51000154,-0.8601332,-0.012689101,0.86003983,0.51006913,0.9998848,0.015163627,-6.9340435E-4,10.025925,0.15911865,-0.3254242,9.799378,0.149444,-0.34675354,-0.047454834,-0.022918701,-0.0020446777,-25.498962,37.5,23.339844,0,0.0,0.0,0.0,0.0
1.004394532,-0.03828006,0.5138339,-0.8570352,0.005156668,0.85775393,0.51403445,0.9992537,0.015257823,-0.03548454,-0.009513126,0.5099689,-0.86014026,-0.011991546,0.86005914,0.5100534,0.9998828,0.015166613,-0.0020665359,10.030716,0.14955139,-0.36012268,9.799332,0.14962813,-0.3479845,-0.039520264,-0.01651001,5.493164E-4,-25.079346,37.55951,23.638916,0,0.0,0.0,0.0,0.0
1.012695313,-0.038500033,0.51372266,-0.8570921,0.005261033,0.85782033,0.51392287,0.99924475,0.015276855,-0.03572882,-0.010655646,0.51012206,-0.860036,-0.011317526,0.8599682,0.5102221,0.9998792,0.015170225,-0.0033901976,10.005585,0.15911865,-0.43070984,9.799244,0.14981477,-0.35038003,-0.016159058,-0.0059814453,-6.1035156E-5,-25.079346,37.55951,23.638916,0,0.0,0.0,0.0,0.0
1.020996094,-0.038629588,0.5136572,-0.8571255,0.00532832,0.8578595,0.51385695,0.99923944,0.015283041,-0.035875686,-0.011214155,0.5101942,-0.8599861,-0.010988268,0.8599254,0.5103014,0.99987674,0.015172358,-0.0040371865,10.005585,0.15911865,-0.43070984,9.799191,0.14987543,-0.3518203,-0.0071411133,0.018157959,2.4414063E-4,-25.079346,37.55951,23.638916,0,0.0,0.0,0.0,0.0
1.029296875,-0.038584065,0.51354593,-0.8571942,0.005308399,0.85792625,0.51374555,0.9992413,0.015272062,-0.035828386,-0.0123027805,0.51033145,-0.85988975,-0.010346393,0.8598439,0.5104522,0.9998708,0.01517674,-0.005298381,10.013962,0.14715576,-0.4283142,9.79921,0.14976777,-0.35135645,-0.0039367676,0.04411316,-0.0026550293,-25.2594,37.55951,23.638916,0,0.0,0.0,0.0,0.0
1.037597657,-0.038376283,0.5136516,-0.8571402,0.0051896516,0.857863,0.5138524,0.99924994,0.015271486,-0.035587266,-0.012829748,0.51039577,-0.8598439,-0.010035272,0.85980564,0.5105228,0.9998673,0.015178647,-0.005909129,10.013962,0.14715576,-0.4283142,9.799294,0.14976212,-0.34899187,1.8310547E-4,0.05908203,-0.002960205,-25.2594,37.55951,23.638916,0,0.0,0.0,0.0,0.0
1.045898438,-0.03802381,0.51425016,-0.8567969,0.004958758,0.8575035,0.5144542,0.9992645,0.015312861,-0.035155594,-0.013843901,0.51052487,-0.8597516,-0.009436157,0.85972893,0.5106634,0.99985963,0.015182324,-0.0070846104,10.043869,0.17347717,-0.38285828,9.7994375,0.15016787,-0.34475863,0.01133728,0.06625366,0.0022277832,-25.2594,37.61902,23.699951,0,0.0,0.0,0.0,0.0
1.054199219,-0.037556387,0.5114155,-0.8585125,0.004516433,0.8591967,0.51162547,0.9992843,0.01533739,-0.034578096,-0.01480419,0.51067257,-0.8596478,-0.008870142,0.85964113,0.51082134,0.99985105,0.0151874935,-0.008196552,10.036697,0.17228699,-0.31225586,9.799632,0.15040842,-0.3390953,0.01713562,0.059539795,9.1552734E-5,-25.379944,37.61902,23.519897,0,0.0,0.0,0.0,0.0
1.0625,-0.03708454,0.51165676,-0.8583893,0.0042237444,0.8590528,0.5118698,0.9993032,0.015356836,-0.03401868,-0.01525964,0.5106874,-0.859631,-0.008602812,0.85963225,0.5108409,0.9998465,0.015190492,-0.008724331,10.036697,0.17228699,-0.31225586,9.799817,0.15059912,-0.3336093,0.016067505,0.059539795,9.1552734E-5,-25.379944,37.61902,23.519897,0,0.0,0.0,0.0,0.0
1.070800782,-0.036659367,0.51187396,-0.8582779,0.003960166,0.85892284,0.5120895,0.9993199,0.015373955,-0.03351468,-0.016124772,0.51072586,-0.8595924,-0.008095849,0.85960937,0.5108877,0.9998372,0.015197079,-0.009726245,10.02713,0.16989136,-0.2907257,9.799981,0.150767,-0.32866672,0.01423645,0.043045044,0.001159668,-25.379944,37.61902,23.519897,0,0.0,0.0,0.0,0.0
1.079101563,-0.03633445,0.51004475,-0.85938,0.003687554,0.8600104,0.51026297,0.99933285,0.015371115,-0.033128824,-0.016938783,0.5107713,-0.85954976,-0.007619535,0.8595822,0.51094073,0.9998275,0.015204083,-0.010668436,10.037888,0.16151428,-0.31585693,9.800108,0.15073915,-0.3248828,0.010421753,0.033432007,0.0022277832,-25.138855,38.038635,23.638916,0,0.0,0.0,0.0,0.0
1.087402344,-0.036055192,0.51018494,-0.85930866,0.0035368605,0.85992754,0.51040393,0.9993436,0.015363459,-0.032809306,-0.017326558,0.51075673,-0.8595507,-0.0073931348,0.85959077,0.5109296,0.99982256,0.015207425,-0.011117656,10.037888,0.16151428,-0.31585693,9.800213,0.15066406,-0.3217494,0.013015747,0.03036499,9.1552734E-5,-25.138855,38.038635,23.638916,0,0.0,0.0,0.0,0.0
1.095703125,-0.035803873,0.5050635,-0.8623393,0.003177181,0.86294574,0.5052867,0.99935377,0.015351412,-0.032501474,-0.018068206,0.5107342,-0.85954875,-0.0069598327,0.859604,0.5109133,0.9998125,0.015213603,-0.011976877,10.021133,0.16390991,-0.28355408,9.800313,0.15054592,-0.3187306,0.0044555664,0.024414063,0.006515503,-25.019836,38.279724,23.458862,0,0.0,0.0,0.0,0.0
1.104003907,-0.03557589,0.504414,-0.8627288,0.003043295,0.86332595,0.50463766,0.99936235,0.015327393,-0.03224866,-0.018768203,0.51051015,-0.8596668,-0.0065539763,0.85973704,0.51069486,0.99980235,0.015219061,-0.012789846,10.012772,0.16270447,-0.3026886,9.800397,0.15031038,-0.31625134,0.009033203,0.023040771,0.0017700195,-24.958801,38.15918,23.339844,0,0.0,0.0,0.0,0.0
1.112304688,-0.03536343,0.5045202,-0.8626753,0.0029457612,0.86326414,0.50474375,0.9993702,0.015308237,-0.03201418,-0.019103108,0.51038843,-0.8597318,-0.006359711,0.8598092,0.5105757,0.9997973,0.015221228,-0.013179106,10.012772,0.16270447,-0.3026886,9.800474,0.15012252,-0.31395188,0.005065918,0.026397705,0.005432129,-24.958801,38.15918,23.339844,0,0.0,0.0,0.0,0.0
1.120605469,-0.035188574,0.50460774,-0.8626313,0.0028904984,0.8632137,0.5048305,0.99937654,0.01527083,-0.031833827,-0.019744718,0.51015645,-0.859855,-0.0059870402,0.85994685,0.51034844,0.9997871,0.015224672,-0.013925081,10.036697,0.14715576,-0.3134613,9.800536,0.14975569,-0.3121832,0.010421753,0.0131073,8.544922E-4,-24.958801,38.15918,23.339844,0,0.0,0.0,0.0,0.0
1.12890625,-0.035041407,0.5074012,-0.86099714,0.0029163212,0.8615745,0.5076228,0.9993816,0.015276872,-0.031670526,-0.020354306,0.5099371,-0.8599708,-0.0056316913,0.8600769,0.5101333,0.99977696,0.0152265,-0.01463446,10.034302,0.16749573,-0.2979126,9.800586,0.14981493,-0.31058177,0.0124053955,0.015701294,3.9672852E-4,-24.719238,38.09967,23.458862,0,0.0,0.0,0.0,0.0
1.137207032,-0.034920994,0.5074607,-0.86096704,0.0028177034,0.861539,0.5076836,0.9993861,0.015302862,-0.03151567,-0.020647693,0.5098864,-0.85999393,-0.005459852,0.860107,0.51008445,0.9997719,0.015227508,-0.014975322,10.034302,0.16749573,-0.2979126,9.80063,0.15006982,-0.30906314,0.015304565,0.015563965,-0.005554199,-24.719238,38.09967,23.458862,0,0.0,0.0,0.0,0.0
1.145507813,-0.034825727,0.5028185,-0.8636902,0.0025050892,0.8642556,0.5030467,0.99939024,0.015355346,-0.031357937,-0.021212291,0.5097904,-0.860037,-0.005130468,0.8601638,0.50999206,0.9997618,0.015230492,-0.015630582,10.019943,0.17945862,-0.29551697,9.800671,0.1505845,-0.3075163,0.020339966,0.01876831,0.0031433105,-24.899292,38.15918,23.2193,0,0.0,0.0,0.0,0.0
1.153808594,-0.03467711,0.5060799,-0.86178917,0.0025354903,0.8623495,0.50630695,0.9993953,0.015372205,-0.031186953,-0.021749157,0.50951505,-0.8601868,-0.0048239,0.8603269,0.5097199,0.9997518,0.015235435,-0.016253535,10.025925,0.16630554,-0.28355408,9.800721,0.15074985,-0.30583957,0.037750244,0.015563965,9.1552734E-5,-24.899292,38.038635,23.339844,0,0.0,0.0,0.0,0.0
1.162109375,-0.03453115,0.50615275,-0.8617522,0.0024498738,0.86230665,0.50638026,0.99940056,0.01537471,-0.031016456,-0.022007149,0.5094464,-0.86022097,-0.004675735,0.8603675,0.50965285,0.99974686,0.0152381705,-0.016552199,10.025925,0.16630554,-0.28355408,9.800772,0.1507744,-0.30416754,0.04034424,0.020904541,-0.0012817383,-24.899292,38.038635,23.339844,0,0.0,0.0,0.0,0.0
1.170410157,-0.03439873,0.50621885,-0.8617187,0.002393594,0.86226827,0.5064461,0.9994053,0.0153585,-0.030872617,-0.022502175,0.5093161,-0.8602853,-0.004391742,0.86044455,0.5095252,0.99973714,0.015243577,-0.017125089,10.035492,0.14237976,-0.31825256,9.8008175,0.15061542,-0.30275694,0.036071777,0.023040771,-0.004638672,-24.899292,38.038635,23.339844,0,0.0,0.0,0.0,0.0
1.178710938,-0.03423418,0.5119056,-0.8583593,0.0025381334,0.8589044,0.5121295,0.99941057,0.015353703,-0.030703172,-0.022739735,0.5092542,-0.8603156,-0.0042551663,0.8604811,0.5094646,0.9997323,0.015245875,-0.01740015,10.035492,0.14237976,-0.31825256,9.80087,0.1505684,-0.30109528,0.03805542,0.02456665,-0.001739502,-24.778748,37.678528,23.458862,0,0.0,0.0,0.0,0.0
1.187011719,-0.034066763,0.51198894,-0.85831624,0.002421135,0.8588545,0.5122139,0.9994166,0.015371367,-0.030497983,-0.0231958,0.5093593,-0.86024123,-0.003987505,0.8604188,0.5095719,0.99972296,0.015250145,-0.01792703,10.02713,0.16630554,-0.32063293,9.800929,0.15074162,-0.29908305,0.03149414,0.030059814,2.4414063E-4,-24.778748,37.678528,23.458862,0,0.0,0.0,0.0,0.0
1.1953125,-0.033812676,0.5097334,-0.8596677,0.00219086,0.8601953,0.50996,0.99942577,0.0153597,-0.030202257,-0.023627143,0.50946355,-0.8601678,-0.0037349742,0.860357,0.5096782,0.99971384,0.0152549455,-0.018424945,10.034302,0.14596558,-0.2715912,9.80102,0.15062721,-0.296183,0.026748657,0.028686523,-0.0012817383,-24.539185,38.038635,23.519897,0,0.0,0.0,0.0,0.0
1.203613282,-0.03357572,0.5098494,-0.8596082,0.0020596115,0.86012655,0.51007646,0.99943405,0.015355727,-0.029929463,-0.023830954,0.509469,-0.860159,-0.0036165072,0.86035377,0.5096845,0.9997094,0.01525704,-0.018660553,10.034302,0.14596558,-0.2715912,9.8011,0.15058823,-0.29350775,0.024917603,0.025177002,-6.713867E-4,-24.539185,38.038635,23.519897,0,0.0,0.0,0.0,0.0
1.211914063,-0.033391543,0.50643796,-0.8616296,0.0018349607,0.86213994,0.5066668,0.9994406,0.015337329,-0.029717475,-0.024216905,0.509484,-0.86013925,-0.0033919616,0.86034477,0.50970125,0.99970096,0.015260948,-0.019106738,10.047455,0.14596558,-0.279953,9.801165,0.15040782,-0.2914289,0.02583313,0.0135650635,0.0045166016,-24.958801,37.85858,23.2193,0,0.0,0.0,0.0,0.0
1.220214844,-0.03325561,0.5065062,-0.86159474,0.0017628875,0.86209995,0.50673515,0.9994453,0.015332892,-0.029562572,-0.024579646,0.5093634,-0.86020035,-0.003183703,0.8604161,0.50958216,0.99969274,0.015263972,-0.01952706,10.021133,0.16630554,-0.26679993,9.80121,0.15036431,-0.2899098,0.010559082,0.0066986084,0.0029907227,-24.958801,37.85858,23.2193,0,0.0,0.0,0.0,0.0
1.228515625,-0.033173,0.50331384,-0.8634667,0.0015962366,0.8639677,0.50354457,0.9994483,0.015325787,-0.029463809,-0.024752928,0.5093063,-0.8602292,-0.0030841725,0.8604499,0.50952566,0.9996888,0.015265349,-0.019727867,10.021133,0.16630554,-0.26679993,9.80124,0.15029463,-0.28894126,0.0073547363,0.0034942627,0.0013122559,-25.138855,37.55951,22.859192,0,0.0,0.0,0.0,0.0
1.236816407,-0.033096623,0.5033528,-0.86344683,0.0015836041,0.8639454,0.5035828,0.99945086,0.0152995335,-0.029390791,-0.02508509,0.50906944,-0.86035985,-0.0028966423,0.86059,0.50929016,0.99968106,0.015267743,-0.020113386,10.043869,0.14356995,-0.25842285,9.801266,0.15003718,-0.28822523,0.012542725,-0.0016937256,-0.0025024414,-25.138855,37.55951,22.859192,0,0.0,0.0,0.0,0.0
1.245117188,-0.03314231,0.50254583,-0.86391515,0.0015792763,0.8644152,0.50277615,0.9994494,0.015298801,-0.029442372,-0.02540122,0.50884354,-0.8604842,-0.0027172184,0.86072356,0.50906533,0.9996736,0.015269003,-0.02048079,10.055832,0.15434265,-0.32183838,9.80125,0.15002999,-0.28873104,0.008575439,0.014175415,5.493164E-4,-25.439453,37.61902,22.859192,0,0.0,0.0,0.0,0.0
1.253417969,-0.033117637,0.5025585,-0.86390865,0.0015555639,0.8644076,0.50278914,0.9994502,0.015307325,-0.029408902,-0.025555518,0.50871783,-0.8605539,-0.0026301304,0.8607979,0.50894016,0.9996699,0.015269599,-0.020660141,10.055832,0.15434265,-0.32183838,9.801258,0.15011357,-0.2884028,0.01927185,0.018463135,-0.0025024414,-25.439453,37.61902,22.859192,0,0.0,0.0,0.0,0.0
1.26171875,-0.033011496,0.50095654,-0.8648426,0.0014221482,0.8653369,0.5011886,0.99945396,0.015315052,-0.029278504,-0.025853902,0.50847435,-0.860689,-0.0024622995,0.86094177,0.5086977,0.9996627,0.015271093,-0.021006687,10.025925,0.16390991,-0.31106567,9.801295,0.15018936,-0.28712404,0.019424438,0.028076172,-0.0011291504,-25.738525,37.55951,22.738647,0,0.0,0.0,0.0,0.0
1.270019532,-0.032861184,0.50103545,-0.86480266,0.0013291482,0.8652911,0.50126797,0.999459,0.015322805,-0.029100439,-0.026136044,0.50817734,-0.8608558,-0.0023061093,0.86111706,0.5084016,0.9996557,0.0152728325,-0.02133428,10.022339,0.16270447,-0.31106567,9.801345,0.1502654,-0.28537783,0.015914917,0.028076172,-0.001739502,-25.738525,37.55951,22.738647,0,0.0,0.0,0.0,0.0
1.278320313,-0.032703713,0.5035437,-0.8633505,0.0013091434,0.8638334,0.5037757,0.9994643,0.015345087,-0.028909773,-0.026269898,0.5080349,-0.8609358,-0.0022323458,0.86120105,0.50825953,0.9996524,0.015273832,-0.021489555,10.022339,0.16270447,-0.31106567,9.801396,0.1504839,-0.28350803,0.021102905,0.021514893,-0.002960205,-25.439453,37.438965,22.799683,0,0.0,0.0,0.0,0.0
1.286621094,-0.032545175,0.50362587,-0.86330867,0.0012272224,0.86378574,0.5038579,0.9994695,0.01533867,-0.028730117,-0.026523886,0.5078573,-0.8610327,-0.002090889,0.86130565,0.50808275,0.99964595,0.015276655,-0.021783302,10.040283,0.13400269,-0.28833008,9.801448,0.15042098,-0.2817462,0.013931274,0.01876831,-0.0035705566,-25.439453,37.438965,22.799683,0,0.0,0.0,0.0,0.0
1.294921875,-0.032422606,0.50000757,-0.86541384,9.6061174E-4,0.8658843,0.50024337,0.9994738,0.0153878685,-0.02855454,-0.026761757,0.5076901,-0.86112404,-0.0019583497,0.8614043,0.50791615,0.9996399,0.0152791105,-0.022058459,10.034302,0.17108154,-0.2536316,9.80149,0.15090345,-0.28002438,0.015609741,0.011581421,-6.1035156E-5,-25.19989,37.61902,22.679138,0,0.0,0.0,0.0,0.0
1.303222657,-0.032291394,0.500075,-0.86537987,8.65221E-4,0.86584514,0.50031155,0.99947816,0.015407013,-0.02839202,-0.026874518,0.5075368,-0.8612109,-0.0018989462,0.86149454,0.50776327,0.999637,0.015281285,-0.022188466,10.034302,0.17108154,-0.2536316,9.801533,0.15109119,-0.2784306,0.011489868,0.010665894,0.0010070801,-25.19989,37.61902,22.679138,0,0.0,0.0,0.0,0.0
1.311523438,-0.032236166,0.4969806,-0.86716264,7.0036016E-4,0.8676246,0.49721932,0.99948,0.01542112,-0.02831696,-0.027088026,0.507242,-0.8613779,-0.00178775,0.8616681,0.5074692,0.99963146,0.015286264,-0.022434067,10.047455,0.16989136,-0.27876282,9.801551,0.15122953,-0.27769452,0.011932373,0.0062408447,-0.0021972656,-25.498962,37.5,22.439575,0,0.0,0.0,0.0,0.0
1.319824219,-0.03217881,0.49701062,-0.8671476,6.8316795E-4,0.86760765,0.49724892,0.99948186,0.01540847,-0.028258123,-0.027290795,0.50683707,-0.86160976,-0.0016868431,0.86190623,0.5070649,0.9996261,0.015291605,-0.022667151,10.0295105,0.14476013,-0.28115845,9.801569,0.15110548,-0.27711752,0.0014038086,0.0054779053,-2.1362305E-4,-25.498962,37.5,22.439575,0,0.0,0.0,0.0,0.0
1.328125,-0.032124102,0.49469662,-0.8684718,5.7095475E-4,0.86892915,0.49493605,0.9994837,0.015403518,-0.02819602,-0.027388053,0.50664115,-0.8617219,-0.001638324,0.8620214,0.5068693,0.9996236,0.015293943,-0.022779046,10.0295105,0.14476013,-0.28115845,9.801587,0.15105692,-0.2765085,0.011627197,0.0054779053,-0.002960205,-25.91858,37.078857,22.079468,0,0.0,0.0,0.0,0.0
1.336425782,-0.03208509,0.4947176,-0.86846125,5.167341E-4,0.8689167,0.49495792,0.99948496,0.015432008,-0.028134909,-0.027574316,0.50617,-0.86199284,-0.0015483713,0.8622981,0.50639874,0.9996186,0.015298283,-0.022993539,10.019943,0.16630554,-0.26679993,9.8015995,0.1513363,-0.27590922,0.0137786865,0.0022735596,-0.0020446777,-25.91858,37.078857,22.079468,0,0.0,0.0,0.0,0.0
1.344726563,-0.032083392,0.495312,-0.8681225,5.098935E-4,0.86857766,0.49555284,0.9994851,0.015456366,-0.028119475,-0.027751844,0.5057181,-0.86225224,-0.0014643073,0.862563,0.50594753,0.99961376,0.015303579,-0.023197187,10.051056,0.16270447,-0.28833008,9.8016,0.15157518,-0.27575785,0.008880615,-7.7819824E-4,0.0045166016,-25.91858,37.01935,22.079468,0,0.0,0.0,0.0,0.0
1.353027344,-0.03208777,0.49530962,-0.8681237,5.0415285E-4,0.8685789,0.4955507,0.99948496,0.015463449,-0.028120471,-0.02783795,0.50551075,-0.8623711,-0.0014238153,0.8626845,0.50574046,0.99961144,0.015306635,-0.023295615,10.051056,0.16270447,-0.28833008,9.8015995,0.15164463,-0.27576762,0.0056762695,9.0026855E-4,-0.0018920898,-25.91858,37.01935,22.079468,0,0.0,0.0,0.0,0.0
1.361328125,-0.032079056,0.496972,-0.86717343,5.725892E-4,0.86762893,0.49721184,0.99948514,0.015453552,-0.028117277,-0.028005358,0.50510806,-0.86260164,-0.0013455376,0.8629202,0.5053384,0.9996069,0.015312845,-0.023486748,10.025925,0.15434265,-0.29670715,9.801601,0.15154758,-0.2757363,0.0058288574,0.010665894,9.1552734E-5,-25.85907,37.379456,22.37854,0,0.0,0.0,0.0,0.0
1.369628907,-0.032009643,0.49700886,-0.8671549,5.240692E-4,0.86760765,0.49724904,0.9994874,0.015462314,-0.028032279,-0.028165959,0.5047867,-0.8627845,-0.0012681223,0.86310816,0.50501746,0.99960244,0.015318417,-0.023670137,10.0247345,0.16151428,-0.27038574,9.801623,0.1516335,-0.27490276,0.009506226,0.015701294,-0.0023498535,-25.85907,37.379456,22.37854,0,0.0,0.0,0.0,0.0
1.377929688,-0.031914193,0.49279302,-0.86956114,2.9458385E-4,0.8700088,0.49303594,0.9994905,0.015478685,-0.027910799,-0.02824248,0.5046316,-0.8628728,-0.0012316117,0.8631989,0.50486267,0.9996004,0.015321295,-0.023757365,10.0247345,0.16151428,-0.27038574,9.801654,0.15179405,-0.27371144,-0.0057678223,0.015701294,-0.0023498535,-25.619507,37.61902,22.259521,0,0.0,0.0,0.0,0.0
1.386230469,-0.0318185,0.49284333,-0.86953604,2.0295475E-4,0.8699796,0.49308735,0.9994936,0.015512825,-0.027781475,-0.028386945,0.50416446,-0.863141,-0.0011692941,0.8634716,0.5043961,0.99959636,0.015327528,-0.023921805,10.02832,0.16749573,-0.2679901,9.801684,0.15212885,-0.2724432,3.3569336E-4,0.011123657,0.0034484863,-25.619507,37.61902,22.259521,0,0.0,0.0,0.0,0.0
1.39453125,-0.03172217,0.49212354,-0.86994714,1.055086E-4,0.87038684,0.49236843,0.99949676,0.015527208,-0.027662482,-0.028522084,0.5037178,-0.86339724,-0.0011132332,0.86373216,0.50394994,0.99959254,0.015334865,-0.024074685,10.042679,0.15911865,-0.25842285,9.801715,0.1522699,-0.2712763,0.005218506,0.0068511963,-6.713867E-4,-25.379944,37.5,22.138977,0,0.0,0.0,0.0,0.0
1.402832032,-0.031636614,0.4921683,-0.8699249,5.2740797E-5,0.8703614,0.49241334,0.99949944,0.0155324135,-0.02756125,-0.028585691,0.5034867,-0.86353,-0.0010880362,0.8638668,0.5037191,0.99959075,0.015338711,-0.024146419,10.042679,0.15911865,-0.25842285,9.801741,0.15232094,-0.27028352,0.0041503906,0.0131073,0.0028381348,-25.379944,37.5,22.138977,0,0.0,0.0,0.0,0.0
1.411132813,-0.03150089,0.49190533,-0.87007856,-4.4268556E-5,0.8705099,0.49215078,0.99950373,0.015541707,-0.027400065,-0.028705858,0.5030402,-0.86378616,-0.0010413397,0.86412674,0.5032732,0.99958736,0.015346382,-0.024281662,10.040283,0.16749573,-0.21894836,9.801784,0.15241209,-0.26870286,0.012542725,0.008224487,0.0026855469,-25.498962,37.739563,22.259521,0,0.0,0.0,0.0,0.0
1.419433594,-0.03144239,0.49193588,-0.87006336,-7.21626E-5,0.8704927,0.4921812,0.9995056,0.015538142,-0.027334874,-0.028816024,0.5026008,-0.8640383,-0.0010004584,0.86438227,0.50283426,0.99958426,0.015354116,-0.024405228,10.023529,0.17228699,-0.26919556,9.801802,0.15237713,-0.26806355,0.038513184,0.0062408447,0.004211426,-25.498962,37.739563,22.259521,0,0.0,0.0,0.0,0.0
1.427734375,-0.031404823,0.4884533,-0.8720247,-1.9799359E-4,0.872452,0.4886998,0.9995068,0.015520185,-0.02730249,-0.02886831,0.50238824,-0.8641602,-9.812433E-4,0.86450577,0.502622,0.99958277,0.015357797,-0.024463855,10.023529,0.17228699,-0.26919556,9.801813,0.15220103,-0.26774597,0.04156494,0.0025787354,0.0029907227,-25.979614,37.319946,21.839905,0,0.0,0.0,0.0,0.0
1.436035157,-0.031339068,0.48848882,-0.87200713,-2.1428149E-4,0.87243235,0.48873475,0.9995088,0.015503348,-0.027236547,-0.028968085,0.50183886,-0.8644759,-9.487029E-4,0.86482465,0.5020731,0.9995799,0.015364227,-0.024576219,10.016357,0.16630554,-0.23568726,9.801833,0.1520359,-0.2670993,0.033935547,9.0026855E-4,-0.0012817383,-25.979614,37.319946,21.839905,0,0.0,0.0,0.0,0.0
1.444335938,-0.031339608,0.492324,-0.8698476,-1.8938445E-5,0.87027484,0.49256647,0.9995088,0.015453315,-0.02726475,-0.029061291,0.50131243,-0.86477816,-9.1830175E-4,0.86512977,0.50154716,0.9995772,0.015369736,-0.024681432,10.02713,0.13160706,-0.2859497,9.801833,0.15154526,-0.26737586,0.035461426,-0.0070495605,0.0029907227,-26.039124,37.139893,21.958923,0,0.0,0.0,0.0,0.0
1.452636719,-0.03136092,0.49231246,-0.8698534,5.1245093E-5,0.87028223,0.49255335,0.99950814,0.0154023515,-0.027318083,-0.029106684,0.50113326,-0.86488044,-8.998262E-4,0.8652336,0.5013681,0.9995759,0.015371407,-0.024733149,10.02713,0.13160706,-0.2859497,9.8018265,0.15104547,-0.2678989,0.03439331,-0.0033874512,-0.0018920898,-26.039124,37.139893,21.958923,0,0.0,0.0,0.0,0.0
1.4609375,-0.031426344,0.4956533,-0.8679517,2.0706002E-4,0.86838377,0.49589255,0.999506,0.0154043725,-0.027392758,-0.029151563,0.5009573,-0.86498094,-8.803513E-4,0.8653355,0.50119233,0.99957466,0.015372027,-0.024784863,10.02713,0.1603241,-0.29551697,9.8018055,0.15106529,-0.2686312,0.0357666,-0.0044403076,-0.0028076172,-25.679016,37.55951,22.37854,0,0.0,0.0,0.0,0.0
1.469238282,-0.031478282,0.495626,-0.86796546,2.0446908E-4,0.868399,0.49586615,0.99950445,0.015431542,-0.027437048,-0.029284725,0.5006458,-0.8651567,-8.157622E-4,0.86551565,0.5008812,0.9995708,0.015373929,-0.02493798,10.0247345,0.16989136,-0.2763672,9.80179,0.15133174,-0.26906553,0.029800415,0.0019683838,0.0048217773,-25.679016,37.55951,22.37854,0,0.0,0.0,0.0,0.0
1.477539063,-0.031503372,0.49495205,-0.868349,1.8891599E-4,0.8687831,0.49519265,0.9995036,0.015436192,-0.0274631,-0.029328525,0.50054556,-0.8652133,-7.950794E-4,0.86557364,0.50078106,0.99956954,0.015375082,-0.024988025,10.0247345,0.16989136,-0.2763672,9.801783,0.15137734,-0.26932102,0.024154663,-4.7302246E-4,8.544922E-4,-25.79956,37.61902,22.37854,0,0.0,0.0,0.0,0.0
1.485839844,-0.031479083,0.49496487,-0.8683426,1.871027E-4,0.8687761,0.4952052,0.99950445,0.015426136,-0.027440883,-0.029371843,0.500434,-0.86527634,-7.7515E-4,0.8656382,0.5006695,0.9995683,0.015376304,-0.025037477,10.053452,0.16390991,-0.25723267,9.80179,0.15127872,-0.26910314,0.012710571,-4.7302246E-4,0.0010070801,-25.79956,37.61902,22.37854,0,0.0,0.0,0.0,0.0
1.494140625,-0.03147163,0.49496883,-0.8683406,1.8709991E-4,0.8687739,0.495209,0.9995046,0.015422567,-0.027434336,-0.029455166,0.5002178,-0.86539847,-7.364629E-4,0.865763,0.5004536,0.99956584,0.015378279,-0.025132801,10.053452,0.16390991,-0.25723267,9.801792,0.15124372,-0.26903895,-0.0030212402,-0.0043029785,0.0036010742,-25.79956,37.61902,22.37854,0,0.0,0.0,0.0,0.0
1.502441407,-0.031496793,0.49998632,-0.86546034,4.1029323E-4,0.8658963,0.5002232,0.99950373,0.015400336,-0.027478099,-0.029534694,0.5000103,-0.86551577,-6.99481E-4,0.86588293,0.5002463,0.9995636,0.015380032,-0.025223838,10.02832,0.15792847,-0.26679993,9.801784,0.15102571,-0.2694681,0.0026245117,-0.015899658,0.0022277832,-25.79956,37.319946,22.499084,0,0.0,0.0,0.0,0.0
1.510742188,-0.031556454,0.49388394,-0.868955,2.4204236E-4,0.8693917,0.49412334,0.9995019,0.015382457,-0.02755446,-0.029574001,0.5000098,-0.86551464,-6.7724753E-4,0.8658831,0.50024587,0.9995624,0.015380438,-0.025268998,10.045074,0.15792847,-0.24885559,9.801766,0.15085039,-0.27021697,-0.0025634766,-0.02078247,3.9672852E-4,-26.039124,37.078857,22.019958,0,0.0,0.0,0.0,0.0
1.519042969,-0.031732827,0.49378848,-0.8690029,3.2311864E-4,0.8694458,0.49402833,0.99949634,0.015396125,-0.027749524,-0.029652275,0.4997677,-0.8656518,-6.4028427E-4,0.8660229,0.5000039,0.99956006,0.015380518,-0.025359556,10.012772,0.16989136,-0.29312134,9.801711,0.1509844,-0.27212986,-0.013412476,-0.028121948,7.019043E-4,-26.039124,37.078857,22.019958,0,0.0,0.0,0.0,0.0
1.52734375,-0.031897802,0.49496415,-0.8683277,4.592538E-4,0.86877686,0.49520335,0.999491,0.015397117,-0.02793939,-0.029734358,0.49953136,-0.86578536,-6.016074E-4,0.8661592,0.49976772,0.9995577,0.015381135,-0.025454167,10.064209,0.15553284,-0.24885559,9.801659,0.15099414,-0.27399182,-0.03768921,-0.04017639,0.0028381348,-25.91858,36.95984,22.019958,0,0.0,0.0,0.0,0.0
1.535644532,-0.032126814,0.49484047,-0.8683897,6.025182E-4,0.8688476,0.4950791,0.9994836,0.015382095,-0.028211458,-0.029777493,0.49944013,-0.8658365,-5.801758E-4,0.86621183,0.4996766,0.99955636,0.0153814545,-0.025503855,10.04866,0.15074158,-0.26560974,9.801586,0.15084682,-0.2766599,-0.026382446,-0.037582397,0.005279541,-25.91858,36.95984,22.019958,0,0.0,0.0,0.0,0.0
1.543945313,-0.032405823,0.49468982,-0.8684652,7.714806E-4,0.8689337,0.49492788,0.99947447,0.015368541,-0.028540153,-0.029870288,0.49925822,-0.8659382,-5.328618E-4,0.8663167,0.49949482,0.9995536,0.015381481,-0.025611095,10.04866,0.1603241,-0.29670715,9.8014965,0.1507139,-0.2798833,-0.022262573,-0.03529358,0.0026855469,-25.91858,36.95984,22.019958,0,0.0,0.0,0.0,0.0
1.552246094,-0.032652628,0.48915717,-0.8715843,7.208586E-4,0.87206054,0.48939747,0.9994665,0.015351825,-0.028827684,-0.02997048,0.49907753,-0.86603886,-4.8067234E-4,0.8664208,0.49931428,0.99955064,0.015380969,-0.025727155,10.04866,0.1603241,-0.29670715,9.801418,0.15054998,-0.282703,-0.0068359375,-0.021697998,0.0032958984,-26.45874,36.71875,21.598816,0,0.0,0.0,0.0,0.0
1.560546875,-0.032873083,0.48998782,-0.8711093,8.7346695E-4,0.8715941,0.49022752,0.9994591,0.015354403,-0.029079968,-0.030023769,0.49887976,-0.866151,-4.560696E-4,0.86653477,0.4991166,0.99954915,0.015380386,-0.025789117,10.021133,0.17108154,-0.33857727,9.801346,0.15057527,-0.28517708,0.0033874512,-0.0056762695,-0.0015869141,-26.219177,36.95984,21.77887,0,0.0,0.0,0.0,0.0
1.568847657,-0.032971162,0.48993385,-0.8711358,9.1715064E-4,0.8716241,0.4901738,0.99945587,0.015362639,-0.029187808,-0.030136157,0.49852863,-0.8663493,-4.0223822E-4,0.8667368,0.49876562,0.99954575,0.015379357,-0.02591959,10.017548,0.14715576,-0.34576416,9.801314,0.15065603,-0.28623462,0.005065918,0.010513306,-0.0067749023,-26.219177,36.95984,21.77887,0,0.0,0.0,0.0,0.0
1.577148438,-0.032939456,0.4898214,-0.8712004,8.459799E-4,0.8716867,0.49006283,0.99945694,0.015405384,-0.02912726,-0.030247955,0.49818915,-0.8665406,-3.488781E-4,0.866932,0.49842635,0.9995424,0.015378695,-0.026049113,10.040283,0.15553284,-0.32661438,9.801325,0.15107521,-0.28564087,0.006439209,0.030212402,-0.0028076172,-26.039124,37.1994,21.899414,0,0.0,0.0,0.0,0.0
1.585449219,-0.032815482,0.4898886,-0.8711672,7.169228E-4,0.8716479,0.4901319,0.9994611,0.015459358,-0.028954763,-0.030301567,0.49802226,-0.8666347,-3.2445695E-4,0.86702794,0.49825954,0.9995408,0.015379229,-0.026110716,10.034302,0.17228699,-0.3146515,9.801366,0.15160452,-0.28394923,0.008422852,0.03326416,-0.0032653809,-26.039124,37.1994,21.899414,0,0.0,0.0,0.0,0.0
1.59375,-0.03263525,0.48998636,-0.8711189,5.6987815E-4,0.87159216,0.49023122,0.9994672,0.015502389,-0.028723866,-0.030400775,0.49770093,-0.8668158,-2.82282E-4,0.8672123,0.4979385,0.99953777,0.015382402,-0.026223434,10.025925,0.1651001,-0.29193115,9.801425,0.1520265,-0.2816849,0.018508911,0.035095215,-0.0021972656,-26.039124,37.1994,21.899414,0,0.0,0.0,0.0,0.0
1.602050782,-0.032380037,0.4835365,-0.87472504,1.689624E-4,0.87518656,0.4837854,0.9994756,0.015517195,-0.028420275,-0.030488923,0.49739617,-0.8669876,-2.477849E-4,0.86738706,0.49763405,0.9995351,0.015387152,-0.026322449,10.025925,0.1651001,-0.29193115,9.801507,0.15217169,-0.27870768,0.026901245,0.046707153,-0.0035705566,-26.159668,36.779785,21.299744,0,0.0,0.0,0.0,0.0
1.610351563,-0.03207264,0.4769671,-0.8783358,-2.3427978E-4,0.8787843,0.47721922,0.99948555,0.015511457,-0.02807319,-0.030526523,0.49712017,-0.8671445,-2.3887027E-4,0.8675452,0.4973583,0.99953395,0.0153897535,-0.02636439,10.036697,0.1483612,-0.29431152,9.801605,0.15211543,-0.27530396,0.032409668,0.0460968,-0.004486084,-26.339722,36.898804,20.999146,0,0.0,0.0,0.0,0.0
1.618652344,-0.0317144,0.47716808,-0.87823963,-4.511457E-4,0.8786747,0.47742072,0.9994968,0.015537325,-0.027651366,-0.03058743,0.49632713,-0.86759657,-2.3732614E-4,0.8679991,0.49656576,0.9995321,0.015394573,-0.026432067,10.037888,0.15792847,-0.25602722,9.801716,0.15236911,-0.27116728,0.0287323,0.050369263,-0.005554199,-26.339722,36.898804,20.999146,0,0.0,0.0,0.0,0.0
1.626953125,-0.031389724,0.47735015,-0.87815225,-6.6861324E-4,0.8785751,0.47760388,0.99950707,0.015579,-0.027259069,-0.030609943,0.49594623,-0.8678135,-2.4109986E-4,0.8682167,0.49618512,0.9995314,0.015397429,-0.026456492,10.059433,0.16749573,-0.20458984,9.801816,0.1527778,-0.26732016,0.023849487,0.03617859,-0.008148193,-26.339722,36.898804,20.999146,0,0.0,0.0,0.0,0.0
1.635253907,-0.031127648,0.47223985,-0.8809203,-0.0010302858,0.8813318,0.47249687,0.99951494,0.015615316,-0.026947245,-0.030640924,0.495214,-0.8682305,-2.5738217E-4,0.8686344,0.49545348,0.99953043,0.015404619,-0.026488302,10.042679,0.15194702,-0.22612,9.801893,0.15313394,-0.2642622,0.016677856,0.012496948,-9.765625E-4,-25.979614,36.898804,20.698547,0,0.0,0.0,0.0,0.0
1.643554688,-0.030979205,0.47232246,-0.8808812,-0.001093111,0.88128763,0.47257882,0.9995194,0.015603019,-0.02678529,-0.03066061,0.4943106,-0.8687445,-2.8746855E-4,0.86914873,0.49455076,0.99952984,0.015412964,-0.02650653,10.036697,0.16270447,-0.23449707,9.801937,0.15301335,-0.26267397,0.014389038,-0.0013885498,0.008346558,-25.979614,36.898804,20.698547,0,0.0,0.0,0.0,0.0
1.651855469,-0.030932996,0.48373297,-0.87466884,-6.7779794E-4,0.8750773,0.4839828,0.99952126,0.0155638885,-0.02674089,-0.030667208,0.4938738,-0.8689926,-3.0340813E-4,0.86939687,0.49411428,0.9995296,0.015416765,-0.02651213,10.025925,0.15553284,-0.2596283,9.801955,0.15262961,-0.26223856,0.0110321045,-0.0072021484,0.0049743652,-25.79956,37.078857,21.418762,0,0.0,0.0,0.0,0.0
1.66015625,-0.030940063,0.48428047,-0.87436557,-6.185146E-4,0.87477493,0.4845291,0.9995211,0.015532168,-0.026766056,-0.030677814,0.49347356,-0.8692196,-3.1811558E-4,0.8696241,0.49371436,0.9995293,0.01542259,-0.026521184,10.041473,0.15911865,-0.2644043,9.801953,0.15231854,-0.26248536,0.016525269,-9.3078613E-4,0.0032958984,-25.85907,37.01935,21.418762,0,0.0,0.0,0.0,0.0
1.668457032,-0.030945512,0.48427752,-0.874367,-5.952623E-4,0.87477684,0.48452556,0.99952084,0.01551437,-0.026782146,-0.030688211,0.49311057,-0.8694252,-3.2992847E-4,0.86982983,0.49335176,0.99952894,0.01542693,-0.02653083,10.041473,0.15911865,-0.2644043,9.801951,0.152144,-0.26264313,0.03224182,-0.003692627,0.0022277832,-25.85907,37.01935,21.418762,0,0.0,0.0,0.0,0.0
1.676757813,-0.030921457,0.4842906,-0.87436056,-5.646851E-4,0.8747702,0.48453748,0.9995216,0.015476344,-0.0267757,-0.03069336,0.49293438,-0.86952496,-3.3519603E-4,0.86992973,0.4931757,0.9995288,0.015428679,-0.026535835,10.047455,0.14596558,-0.25004578,9.801959,0.1517711,-0.26257992,0.03224182,4.4250488E-4,0.0016174316,-25.85907,37.01935,21.418762,1,0.0,0.0,0.0,0.0
1.685058594,-0.030867016,0.48643014,-0.873174,-4.900908E-4,0.87358284,0.4866752,0.9995234,0.015450149,-0.026726505,-0.030702451,0.49259296,-0.869718,-3.441805E-4,0.870123,0.49283445,0.9995285,0.015430566,-0.026545368,10.02713,0.1758728,-0.275177,9.801976,0.1515142,-0.26209748,0.060043335,0.012954712,-0.0015869141,-25.559998,37.25891,21.659851,1,0.0,0.0,0.0,0.0
1.693359375,-0.030794403,0.48646888,-0.873155,-5.3745136E-4,0.87356114,0.4867141,0.9995256,0.01545735,-0.026639342,-0.03070906,0.4923493,-0.8698558,-3.4986902E-4,0.8702609,0.49259096,0.9995283,0.015431341,-0.026552634,10.022339,0.15553284,-0.2596283,9.801998,0.15158482,-0.26124272,0.069503784,0.011886597,-0.004638672,-25.559998,37.25891,21.659851,1,0.0,0.0,0.0,0.0
1.701660157,-0.030728279,0.48618263,-0.87331676,-6.292965E-4,0.87371975,0.48642913,0.9995276,0.015496706,-0.026541952,-0.030710824,0.49223194,-0.86992216,-3.535822E-4,0.8703273,0.49247363,0.9995282,0.015431861,-0.026554422,10.015152,0.17228699,-0.27278137,9.802017,0.15197077,-0.26028764,0.069503784,0.018463135,-0.0028076172,-25.498962,37.078857,21.539307,1,0.0,0.0,0.0,0.0
1.709960938,-0.030605702,0.4814297,-0.8759503,-9.077778E-4,0.8763471,0.4816795,0.99953115,0.015537305,-0.026384182,-0.030711573,0.49199292,-0.87005734,-3.6448613E-4,0.8704624,0.49223483,0.9995283,0.015434429,-0.026553946,10.0247345,0.18185425,-0.2596283,9.8020525,0.15236892,-0.25874045,0.061264038,0.021820068,-0.004333496,-25.738525,36.898804,21.1792,1,0.0,0.0,0.0,0.0
1.718261719,-0.030468216,0.48150465,-0.87591386,-0.0010112468,0.8763054,0.48175508,0.99953526,0.015563982,-0.026212541,-0.030707484,0.4915759,-0.87029314,-3.8608257E-4,0.8706978,0.49181816,0.99952835,0.015438502,-0.02654715,10.013962,0.17468262,-0.27397156,9.802093,0.15263052,-0.25705722,0.0655365,0.019989014,-0.0032653809,-25.738525,36.898804,21.1792,1,0.0,0.0,0.0,0.0
1.7265625,-0.030357074,0.48156524,-0.8758843,-0.0010989271,0.8762716,0.48181623,0.99953854,0.015589065,-0.026071835,-0.030702714,0.49137515,-0.87040675,-3.9868802E-4,0.87081116,0.49161753,0.9995285,0.015441012,-0.02654036,10.013962,0.17468262,-0.27397156,9.802125,0.15287651,-0.25567737,0.064315796,0.021514893,-0.0028076172,-25.738525,36.898804,21.1792,1,0.0,0.0,0.0,0.0
1.734863282,-0.030215753,0.4893596,-0.87155855,-9.1115665E-4,0.8719428,0.48960692,0.99954295,0.015587967,-0.025900522,-0.030689321,0.49098784,-0.8706257,-4.265206E-4,0.87102944,0.4912306,0.9995289,0.015446874,-0.026521888,10.015152,0.15911865,-0.28234863,9.802168,0.15286574,-0.25399736,0.04537964,0.036483765,0.0017700195,-25.85907,36.65924,21.479797,1,0.0,0.0,0.0,0.0
1.743164063,-0.030011233,0.48947123,-0.8715029,-0.0010023238,0.8718804,0.48971778,0.99954903,0.015570562,-0.025675597,-0.030670654,0.49092337,-0.87066275,-4.4571888E-4,0.87106574,0.4911663,0.9995295,0.015452461,-0.02649734,10.017548,0.14117432,-0.2979126,9.802228,0.15269506,-0.2517916,0.030410767,0.035095215,-0.0018920898,-25.85907,36.65924,21.479797,1,0.0,0.0,0.0,0.0
1.751464844,-0.0298087,0.50116855,-0.86483604,-6.941939E-4,0.8652099,0.5014091,0.99955535,0.015546721,-0.02544288,-0.030657474,0.49089432,-0.87067956,-4.5687612E-4,0.871082,0.49113733,0.99952984,0.015454822,-0.026480896,10.039093,0.1651001,-0.21057129,9.80229,0.15246126,-0.24950942,0.021102905,0.040145874,-0.0032653809,-25.439453,36.898804,22.259521,1,0.0,0.0,0.0,0.0
1.759765625,-0.029503044,0.5019073,-0.864418,-8.877022E-4,0.864781,0.5021484,0.99956435,0.015582252,-0.02506813,-0.030623673,0.49130252,-0.87045044,-4.6589132E-4,0.8708518,0.4915454,0.99953085,0.015458461,-0.026439786,10.037888,0.16870117,-0.18424988,9.802378,0.1528097,-0.2458344,0.0078125,0.021209717,-0.0020446777,-25.738525,36.71875,22.198486,1,0.0,0.0,0.0,0.0
1.768066407,-0.029321235,0.5020044,-0.86436796,-0.0010022372,0.8647246,0.50224555,0.9995696,0.01559276,-0.024851665,-0.030578896,0.4917239,-0.87021405,-4.8213825E-4,0.8706138,0.49196675,0.9995323,0.015463363,-0.026385332,10.022339,0.15434265,-0.23210144,9.802429,0.15291275,-0.24371159,0.0027770996,0.012496948,9.1552734E-5,-25.738525,36.71875,22.198486,1,0.0,0.0,0.0,0.0
1.776367188,-0.02922096,0.5020579,-0.86434025,-0.0010621324,0.8646934,0.50229895,0.9995724,0.0155957,-0.024733916,-0.030553624,0.49193016,-0.87009835,-4.9222354E-4,0.8704973,0.49217296,0.999533,0.0154659515,-0.026354706,10.022339,0.15434265,-0.23210144,9.802457,0.15294157,-0.24255687,0.0027770996,2.89917E-4,-0.0018920898,-25.738525,36.71875,22.198486,1,0.0,0.0,0.0,0.0
1.784667969,-0.029167255,0.49889547,-0.86617124,-0.0011927672,0.86652195,0.4991376,0.9995738,0.015591615,-0.024679,-0.030500485,0.4923325,-0.8698727,-5.142195E-4,0.8702697,0.4925752,0.9995346,0.015471089,-0.02629048,10.035492,0.1531372,-0.23928833,9.80247,0.1529015,-0.2420183,0.0033874512,-0.0021514893,0.0013122559,-25.85907,36.71875,22.019958,1,0.0,0.0,0.0,0.0
1.79296875,-0.029144272,0.49890777,-0.8661648,-0.0011797417,0.8665151,0.49914926,0.99957454,0.015569196,-0.024665376,-0.030473754,0.49246398,-0.86979914,-5.275663E-4,0.87019527,0.49270678,0.99953544,0.0154735,-0.026258308,10.035492,0.1531372,-0.23928833,9.802478,0.15268166,-0.24188472,0.004760742,7.4768066E-4,0.0046691895,-25.85907,36.71875,22.019958,1,0.0,0.0,0.0,0.0
1.801269532,-0.029115753,0.5008288,-0.8650565,-0.0011271816,0.8654064,0.50106937,0.99957544,0.015564088,-0.024632437,-0.030420933,0.49271968,-0.8696562,-5.529914E-4,0.87005043,0.4929624,0.999537,0.0154772885,-0.026195275,10.057037,0.18424988,-0.24765015,9.802486,0.15263157,-0.2415617,0.0067443848,0.0065460205,-0.0040283203,-26.159668,36.71875,22.138977,1,0.0,0.0,0.0,0.0
1.809570313,-0.02903851,0.4980095,-0.8666853,-0.001295656,0.86703146,0.49825183,0.99957746,0.015591415,-0.02453205,-0.030368932,0.49304166,-0.86947554,-5.7530124E-4,0.869868,0.49328429,0.99953866,0.015480726,-0.026133314,10.042679,0.17108154,-0.20219421,9.802506,0.15289955,-0.24057724,0.012542725,0.0054779053,0.0016174316,-26.219177,36.05957,21.598816,1,0.0,0.0,0.0,0.0
1.817871094,-0.02897,0.49804762,-0.86666566,-0.0013712356,0.8670089,0.49829075,0.9995793,0.015623883,-0.024434306,-0.030342206,0.49314114,-0.86942005,-5.895719E-4,0.86981153,0.49338382,0.99953943,0.01548294,-0.02610126,10.042679,0.17108154,-0.20219421,9.802525,0.15321796,-0.23961869,0.010421753,1.373291E-4,-0.0023498535,-26.219177,36.05957,21.598816,1,0.0,0.0,0.0,0.0
1.826171875,-0.028903322,0.49808466,-0.8666466,-0.001411926,0.8669876,0.49832776,0.9995812,0.015626967,-0.02435556,-0.030287681,0.49333575,-0.8693116,-6.202329E-4,0.8697011,0.49357843,0.9995411,0.015488521,-0.026035247,10.042679,0.1651001,-0.18066406,9.802543,0.15324819,-0.23884645,0.016830444,-0.0068969727,0.0031433105,-26.219177,36.05957,21.598816,1,0.0,0.0,0.0,0.0
1.834472657,-0.028945647,0.4977484,-0.86683834,-0.0013975529,0.8671807,0.49799168,0.99958,0.015626144,-0.024405476,-0.030232701,0.49352401,-0.86920655,-6.5128505E-4,0.8695941,0.49376675,0.9995427,0.015494004,-0.025968755,10.034302,0.15553284,-0.23330688,9.802532,0.15324013,-0.23933598,0.019424438,-0.013305664,-0.002960205,-26.519775,35.758972,21.418762,1,0.0,0.0,0.0,0.0
1.842773438,-0.02902087,0.49770582,-0.8668603,-0.0013684696,0.8672049,0.49794948,0.9995778,0.0156372,-0.024485948,-0.030206922,0.49360862,-0.8691594,-6.660642E-4,0.86954606,0.49385136,0.9995434,0.015496647,-0.025937535,10.034302,0.15553284,-0.23330688,9.80251,0.15334855,-0.24012512,0.028579712,-0.011779785,3.9672852E-4,-26.519775,35.758972,21.418762,1,0.0,0.0,0.0,0.0
1.851074219,-0.029085139,0.49709064,-0.86721104,-0.0013725339,0.8675574,0.4973352,0.999576,0.015655339,-0.02455075,-0.030159961,0.4937711,-0.86906874,-6.9358386E-4,0.8694537,0.49401388,0.99954486,0.0155022135,-0.02588022,10.040283,0.1651001,-0.21534729,9.802492,0.15352643,-0.24076062,0.04034424,-0.014526367,-0.0026550293,-26.45874,35.81848,21.418762,1,0.0,0.0,0.0,0.0
1.859375,-0.029171446,0.49239764,-0.8698814,-0.0014953641,0.8702293,0.4926447,0.9995733,0.015671946,-0.02464953,-0.030117273,0.4939027,-0.8689954,-7.2032306E-4,0.8693788,0.49414563,0.9995461,0.015508276,-0.025827551,10.058228,0.1651001,-0.24526978,9.802465,0.1536893,-0.24172933,0.042175293,-0.011169434,-0.0032653809,-26.638794,35.51941,20.999146,1,0.0,0.0,0.0,0.0
1.867675782,-0.029266922,0.49234256,-0.86990935,-0.0014642393,0.87026006,0.4925903,0.99957055,0.015690358,-0.024748925,-0.030098353,0.49387267,-0.86901313,-7.358715E-4,0.86939585,0.49411565,0.9995467,0.01551155,-0.025803957,10.058228,0.1651001,-0.24526978,9.802439,0.15386985,-0.24270405,0.045684814,-0.015899658,-0.0012817383,-26.638794,35.51941,20.999146,1,0.0,0.0,0.0,0.0
1.875976563,-0.02935715,0.49229053,-0.86993575,-0.001430627,0.87028927,0.49253887,0.9995679,0.01570409,-0.024844928,-0.030065538,0.49381208,-0.8690487,-7.6473504E-4,0.8694302,0.49405524,0.99954766,0.01551863,-0.025762253,10.017548,0.16870117,-0.22851563,9.802413,0.15400451,-0.24364552,0.03224182,-0.013153076,3.9672852E-4,-26.638794,35.51941,20.999146,1,0.0,0.0,0.0,0.0
1.884277344,-0.029455677,0.48544687,-0.8737698,-0.0015913649,0.87412524,0.48569798,0.9995648,0.015697049,-0.024975428,-0.030037511,0.49375182,-0.8690839,-7.911613E-4,0.8694643,0.49399525,0.9995485,0.015525973,-0.025725905,10.019943,0.16270447,-0.25842285,9.802382,0.15393546,-0.24492529,0.02583313,-0.014221191,0.0026855469,-27.059937,34.858704,20.27893,1,0.0,0.0,0.0,0.0
1.892578125,-0.029556494,0.4853862,-0.8738001,-0.0015233979,0.8741591,0.48563713,0.9995619,0.015684877,-0.025097642,-0.030025993,0.49358615,-0.8691784,-8.0727506E-4,0.8695583,0.49382973,0.9995488,0.015529395,-0.02571089,10.019943,0.16270447,-0.25842285,9.802354,0.1538161,-0.2461238,0.015457153,-0.015136719,0.002532959,-27.059937,34.858704,20.27893,1,0.0,0.0,0.0,0.0
1.900878907,-0.029660735,0.48664755,-0.8730947,-0.0013686828,0.8734584,0.48689675,0.99955904,0.015636707,-0.025241354,-0.030007586,0.49326217,-0.869363,-8.358164E-4,0.869742,0.49350607,0.9995493,0.015535553,-0.025686579,10.045074,0.14237976,-0.27397156,9.802326,0.15334372,-0.24753313,0.003692627,-0.0070495605,0.005584717,-27.178955,34.61914,20.219421,1,0.0,0.0,0.0,0.0
1.909179688,-0.029727126,0.48542446,-0.8737731,-0.0013565253,0.8741391,0.48567393,0.99955714,0.015622984,-0.025327148,-0.029993862,0.49300075,-0.8695118,-8.5707847E-4,0.8698901,0.4932449,0.99954975,0.015539558,-0.025668824,10.041473,0.1603241,-0.26679993,9.802307,0.15320913,-0.24837448,0.012710571,-0.0018463135,-0.0038757324,-27.23999,34.07898,19.859314,1,0.0,0.0,0.0,0.0
1.917480469,-0.029768845,0.48539856,-0.87378603,-0.0013511991,0.8741531,0.4856485,0.9995559,0.015637854,-0.025366658,-0.029988628,0.4928496,-0.8695977,-8.67093E-4,0.86997575,0.4930938,0.9995499,0.015541226,-0.025662031,10.041473,0.1603241,-0.26679993,9.802295,0.15335497,-0.24876195,0.008880615,-0.0018463135,-0.0038757324,-27.23999,34.07898,19.859314,1,0.0,0.0,0.0,0.0
1.92578125,-0.029733371,0.48542055,-0.87377506,-0.0013912786,0.87414056,0.48567095,0.99955684,0.015656298,-0.02531579,-0.029979952,0.49255526,-0.8697646,-8.863807E-4,0.87014234,0.49279973,0.99955016,0.015545053,-0.025650233,10.064209,0.1603241,-0.22132874,9.802305,0.15353584,-0.2482631,0.0024719238,0.0053253174,-0.0011291504,-27.23999,34.07898,19.859314,1,0.0,0.0,0.0,0.0
1.934082032,-0.029656546,0.48175925,-0.8758017,-0.0015495736,0.8761639,0.48201096,0.999559,0.015651898,-0.025237473,-0.029975094,0.49241287,-0.86984545,-8.965088E-4,0.87022287,0.4926574,0.9995502,0.015547277,-0.025643561,10.064209,0.1603241,-0.22132874,9.802325,0.15349269,-0.24749507,0.003692627,0.004714966,0.004211426,-27.2995,33.659363,19.439697,1,0.0,0.0,0.0,0.0
1.942382813,-0.029581685,0.48180643,-0.8757782,-0.0015568519,0.8761384,0.48205715,0.99956113,0.015623521,-0.025167549,-0.029962692,0.4919924,-0.8700837,-9.22516E-4,0.87046057,0.49223727,0.9995506,0.015551421,-0.025627472,10.015152,0.1483612,-0.22970581,9.802346,0.15321441,-0.24680935,0.0017089844,0.008987427,-0.001739502,-27.2995,33.659363,19.439697,1,0.0,0.0,0.0,0.0
1.950683594,-0.029558439,0.48565632,-0.87365,-0.0014659055,0.8740099,0.48590598,0.99956197,0.01564331,-0.025122441,-0.029947793,0.49159035,-0.87031144,-9.4780885E-4,0.8706876,0.49183545,0.999551,0.015554276,-0.02560924,10.030716,0.16989136,-0.2644043,9.802355,0.15340847,-0.246367,-0.0024108887,0.010513306,-0.0012817383,-27.418518,33.839417,19.73877,1,0.0,0.0,0.0,0.0
1.958984375,-0.029523704,0.48567814,-0.8736391,-0.0015140884,0.8739974,0.4859285,0.999563,0.015669173,-0.025068277,-0.029940031,0.4914719,-0.8703786,-9.5823966E-4,0.8707545,0.49171707,0.99955124,0.015556057,-0.025599468,10.030716,0.16989136,-0.2644043,9.802364,0.1536621,-0.24583583,0.004760742,0.0033416748,0.0019226074,-27.418518,33.839417,19.73877,1,0.0,0.0,0.0,0.0
1.967285157,-0.02945231,0.48572347,-0.8736162,-0.0015668748,0.8739719,0.48597404,0.999565,0.015681906,-0.024979424,-0.029923506,0.49124286,-0.8705085,-9.804424E-4,0.87088364,0.4914883,0.9995518,0.015560536,-0.025578257,10.02832,0.15553284,-0.22492981,9.802384,0.15378697,-0.24496447,-0.001953125,0.0050201416,-0.0021972656,-27.23999,33.95996,19.799805,1,0.0,0.0,0.0,0.0
1.975585938,-0.029418258,0.48574463,-0.87360567,-0.0016291039,0.87395954,0.48599625,0.9995659,0.015720354,-0.024919033,-0.029904863,0.49102467,-0.8706322,-0.0010038354,0.87100655,0.49127033,0.99955225,0.015565342,-0.025554422,10.059433,0.16870117,-0.2416687,9.802393,0.15416402,-0.24437225,-0.0024108887,0.012039185,-0.0034179688,-27.23999,33.95996,19.799805,1,0.0,0.0,0.0,0.0
1.983886719,-0.029362215,0.48473513,-0.87416804,-0.0017262856,0.87451917,0.48498785,0.99956733,0.01574938,-0.02484103,-0.029895157,0.4909193,-0.87069196,-0.0010164184,0.871066,0.491165,0.99955255,0.015568444,-0.025541674,10.059433,0.16870117,-0.2416687,9.802407,0.15444866,-0.24360728,-0.009750366,0.008682251,-6.1035156E-5,-27.23999,33.839417,19.67926,1,0.0,0.0,0.0,0.0
1.9921875,-0.029306725,0.48476964,-0.87415063,-0.001786204,0.8744995,0.485023,0.9995689,0.01577585,-0.024762824,-0.029874198,0.49067488,-0.8708305,-0.0010446813,0.87120354,0.4909209,0.99955314,0.015575608,-0.025513906,10.036697,0.1651001,-0.26200867,9.802423,0.15470824,-0.24284035,-0.0071411133,0.014785767,-0.0026550293,-27.23999,33.839417,19.67926,1,0.0,0.0,0.0,0.0
2.000488282,-0.02918551,0.4912999,-0.87050134,-0.0016479827,0.8708475,0.49155053,0.9995727,0.015780725,-0.024606476,-0.02985185,0.4904415,-0.87096274,-0.0010742126,0.8713348,0.49068785,0.9995538,0.015583538,-0.025484117,10.04985,0.15074158,-0.21894836,9.80246,0.15475605,-0.2413071,-0.0025634766,0.016937256,0.0026855469,-27.059937,33.898926,20.039368,1,0.0,0.0,0.0,0.0
2.008789063,-0.029033339,0.49139324,-0.8704538,-0.0017046742,0.87079525,0.49164286,0.999577,0.015757872,-0.024444425,-0.029838542,0.49045867,-0.8709535,-0.0010856586,0.8713251,0.49070507,0.99955416,0.015587482,-0.025466599,10.04985,0.15074158,-0.21894836,9.802502,0.15453194,-0.23971793,-0.0042419434,0.011581421,0.0074310303,-27.059937,33.898926,20.039368,1,0.0,0.0,0.0,0.0
2.017089844,-0.028876457,0.4946761,-0.8685975,-0.0016436102,0.86893517,0.49492308,0.99958163,0.015719263,-0.024278719,-0.0298067,0.49049574,-0.8709337,-0.0011100965,0.87130404,0.4907423,0.9995551,0.015594228,-0.025426202,10.037888,0.15911865,-0.19502258,9.802547,0.15415332,-0.2380929,-0.007751465,0.0079193115,0.002532959,-26.939392,33.718872,20.098877,1,0.0,0.0,0.0,0.0
2.025390625,-0.028746225,0.49475572,-0.8685565,-0.0016828012,0.8688904,0.4950016,0.99958533,0.015691036,-0.024144745,-0.029769788,0.49066156,-0.87084156,-0.0011310307,0.87121063,0.49090815,0.9995562,0.01559918,-0.025380801,10.047455,0.16390991,-0.19740295,9.802584,0.1538765,-0.23677906,-0.0037841797,0.0053253174,0.0014648438,-26.939392,33.718872,20.098877,1,0.0,0.0,0.0,0.0
2.033691407,-0.02863994,0.4944649,-0.8687256,-0.0017416868,0.8690561,0.49471042,0.99958825,0.015681526,-0.024028512,-0.029749203,0.49074358,-0.870796,-0.0011420026,0.8711644,0.49099016,0.9995568,0.015601017,-0.025356015,10.047455,0.16390991,-0.19740295,9.802612,0.15378323,-0.23563921,0.008422852,0.005630493,0.0031433105,-26.998901,33.53882,19.979858,1,0.0,0.0,0.0,0.0
2.041992188,-0.02856724,0.49450967,-0.8687026,-0.0017337464,0.8690315,0.4947539,0.9995904,0.015639862,-0.023968475,-0.029705185,0.49089107,-0.87071437,-0.0011655604,0.8710812,0.49113762,0.99955803,0.015604205,-0.025303466,10.041473,0.14356995,-0.22492981,9.802633,0.15337466,-0.23505045,-8.8500977E-4,0.0012054443,0.0016174316,-26.998901,33.53882,19.979858,1,0.0,0.0,0.0,0.0
2.050292969,-0.028563444,0.49196678,-0.87014526,-0.0018179752,0.8704734,0.49221197,0.9995903,0.015641173,-0.023969337,-0.029660093,0.49103445,-0.8706351,-0.0011878451,0.87100035,0.4912809,0.99955934,0.015605618,-0.025250679,10.031906,0.17706299,-0.25483704,9.802632,0.15338752,-0.2350589,0.006591797,0.0025787354,0.0049743652,-27.178955,34.07898,20.159912,1,0.0,0.0,0.0,0.0
2.05859375,-0.028577171,0.49195844,-0.8701496,-0.0018061446,0.87047833,0.49220362,0.99959,0.015637401,-0.023987258,-0.029638153,0.49105307,-0.8706253,-0.0012004236,0.87098986,0.49129954,0.99956,0.01560633,-0.02522506,10.031906,0.17706299,-0.25483704,9.802629,0.15335053,-0.23523465,-8.8500977E-4,-0.0056762695,0.0036010742,-27.178955,34.07898,20.159912,1,0.0,0.0,0.0,0.0
2.066894532,-0.028579723,0.4978587,-0.86678714,-0.001614402,0.8671172,0.49810153,0.9995902,0.015634947,-0.023978226,-0.029596047,0.49108893,-0.87060654,-0.0012244042,0.8709696,0.49133536,0.9995612,0.01560756,-0.025175966,10.035492,0.16630554,-0.21894836,9.802631,0.15332645,-0.23514608,-0.0013427734,-0.0070495605,5.493164E-4,-27.359009,34.259033,20.579529,1,0.0,0.0,0.0,0.0
2.075195313,-0.028620273,0.49783406,-0.86679995,-0.0015926547,0.8671313,0.49807695,0.999589,0.015635611,-0.024024656,-0.029555658,0.49135762,-0.8704563,-0.001239541,0.870818,0.4916039,0.9995624,0.015608643,-0.025128542,10.040283,0.16749573,-0.23568726,9.802621,0.153333,-0.23560141,0.006134033,-0.010101318,0.0034484863,-27.359009,34.259033,20.579529,1,0.0,0.0,0.0,0.0
2.083496094,-0.028674513,0.4959389,-0.8678839,-0.0016004033,0.86821705,0.49618214,0.99958754,0.015616744,-0.024101997,-0.029536912,0.49148738,-0.8703837,-0.0012464514,0.8707448,0.49173358,0.9995629,0.015609183,-0.025106499,10.040283,0.16749573,-0.23568726,9.802605,0.15314794,-0.23635983,0.006439209,-0.016815186,0.004058838,-27.479553,33.898926,20.27893,1,0.0,0.0,0.0,0.0
2.091796875,-0.028726866,0.49590647,-0.86790067,-0.0015469613,0.8682359,0.49614924,0.9995861,0.01559542,-0.024174549,-0.02950266,0.49166384,-0.8702852,-0.0012603113,0.87064517,0.49190995,0.99956393,0.015609482,-0.025066698,10.046265,0.16270447,-0.20578003,9.802591,0.15293883,-0.23707135,0.002166748,-0.024917603,0.002532959,-27.479553,33.898926,20.27893,1,0.0,0.0,0.0,0.0
2.100097657,-0.02885739,0.49974924,-0.8656893,-0.0013622604,0.8660295,0.49999106,0.9995826,0.01560773,-0.02431056,-0.02947182,0.49183205,-0.87019116,-0.0012715487,0.87055016,0.49207804,0.9995648,0.015608925,-0.02503131,10.041473,0.18185425,-0.21655273,9.802557,0.15305954,-0.23840517,-0.006072998,-0.021087646,0.0013122559,-27.719116,33.839417,20.458984,1,0.0,0.0,0.0,0.0
2.108398438,-0.028999157,0.49966097,-0.8657354,-0.0013072956,0.86608,0.49990362,0.9995786,0.015628558,-0.024462387,-0.029459488,0.4919908,-0.8701018,-0.0012732521,0.87046045,0.4922367,0.9995652,0.015608902,-0.02501689,10.041473,0.18185425,-0.21655273,9.802518,0.1532638,-0.23989408,-0.01234436,-0.023529053,7.019043E-4,-27.719116,33.839417,20.458984,1,0.0,0.0,0.0,0.0
2.116699219,-0.02917111,0.5031755,-0.8636917,-0.0010873703,0.86404294,0.50341684,0.9995738,0.0156243825,-0.024657955,-0.029441234,0.49229524,-0.86993027,-0.0012744302,0.8702883,0.492541,0.9995657,0.015609681,-0.024994966,10.022339,0.16749573,-0.24645996,9.802471,0.15322286,-0.24181195,-0.017990112,-0.023391724,0.0029907227,-27.83966,34.01947,20.759583,1,0.0,0.0,0.0,0.0
2.125,-0.029313723,0.5030873,-0.8637383,-9.728996E-4,0.8640949,0.503328,0.9995698,0.015594747,-0.024840383,-0.029430436,0.4927276,-0.8696858,-0.001266947,0.8700436,0.4929732,0.9995661,0.015610262,-0.024981502,10.040283,0.1531372,-0.23568726,9.802431,0.15293223,-0.24360095,-0.01020813,-0.024307251,-5.187988E-4,-27.83966,34.01947,20.759583,1,0.0,0.0,0.0,0.0
2.133300782,-0.029463528,0.5085313,-0.8605392,-6.860094E-4,0.8609024,0.50876945,0.9995656,0.015580484,-0.025016371,-0.029428096,0.4929355,-0.8695681,-0.0012610564,0.86992586,0.49318096,0.99956614,0.015609952,-0.024978641,10.040283,0.1531372,-0.23568726,9.802391,0.15279236,-0.24532682,-0.0042419434,-0.025527954,7.019043E-4,-28.138733,33.599854,20.819092,1,0.0,0.0,0.0,0.0
2.141601563,-0.029660808,0.5084073,-0.8606057,-5.9861783E-4,0.8609753,0.50864625,0.9995598,0.0156020345,-0.025232883,-0.029429864,0.49355608,-0.8692159,-0.0012382204,0.8695739,0.4938013,0.9995661,0.015608786,-0.02498031,10.010376,0.17706299,-0.27038574,9.802334,0.1530037,-0.24745007,-0.0095825195,-0.016204834,0.0036010742,-28.138733,33.599854,20.819092,1,0.0,0.0,0.0,0.0
2.149902344,-0.029776718,0.503547,-0.8634546,-6.9470145E-4,0.863827,0.5037882,0.99955636,0.015601003,-0.02537212,-0.029439267,0.494147,-0.86887974,-0.0012130337,0.8692382,0.49439198,0.99956584,0.015608517,-0.024990318,10.053452,0.17347717,-0.25602722,9.8022995,0.15299357,-0.2488155,-0.0010375977,-0.0043029785,0.0016174316,-27.95868,33.839417,20.698547,1,0.0,0.0,0.0,0.0
2.158203125,-0.029834721,0.5035107,-0.86347365,-6.585857E-4,0.86384803,0.50375175,0.9995546,0.015597968,-0.025441065,-0.029446084,0.4943356,-0.86877227,-0.0012027416,0.86913097,0.4945805,0.99956566,0.015608367,-0.024997946,10.053452,0.17347717,-0.25602722,9.802282,0.15296382,-0.24949163,-1.2207031E-4,-0.0056762695,0.0029907227,-27.95868,33.839417,20.698547,1,0.0,0.0,0.0,0.0
2.166503907,-0.029875603,0.5068206,-0.8615337,-5.449774E-4,0.86191,0.5070609,0.99955344,0.015618266,-0.025473874,-0.029461604,0.49469995,-0.86856437,-0.001181365,0.86892366,0.49494475,0.99956524,0.015607955,-0.025015462,10.043869,0.18185425,-0.26200867,9.802271,0.15316287,-0.24981338,0.0043029785,0.006088257,-6.713867E-4,-28.019714,33.839417,20.878601,1,0.0,0.0,0.0,0.0
2.174804688,-0.029841933,0.50684154,-0.8615225,-5.5617E-4,0.8618978,0.5070816,0.9995545,0.01561145,-0.02543881,-0.029478187,0.4951817,-0.8682892,-0.0011564046,0.8686492,0.4954263,0.99956477,0.015608363,-0.025033573,10.046265,0.15911865,-0.25004578,9.802281,0.15309604,-0.2494695,0.006286621,0.005935669,0.001159668,-28.019714,33.839417,20.878601,1,0.0,0.0,0.0,0.0
2.183105469,-0.02978113,0.5124632,-0.85819256,-3.9237738E-4,0.8585673,0.5127006,0.99955636,0.01560554,-0.025368027,-0.029485565,0.49541578,-0.86815536,-0.0011444977,0.86851573,0.4956603,0.9995646,0.015608425,-0.025041675,10.046265,0.15911865,-0.25004578,9.8022995,0.15303807,-0.24877538,0.005065918,0.013717651,-0.0015869141,-27.95868,33.239746,20.819092,1,0.0,0.0,0.0,0.0
2.19140625,-0.02973835,0.51249015,-0.85817796,-4.374329E-4,0.85855097,0.51272804,0.9995576,0.015623082,-0.02530771,-0.02949767,0.49609455,-0.8677673,-0.0011149002,0.8681282,0.49633878,0.99956423,0.015608312,-0.025054663,10.041473,0.17347717,-0.27876282,9.802312,0.1532101,-0.24818385,0.0038452148,0.018463135,-8.239746E-4,-27.95868,33.239746,20.819092,1,0.0,0.0,0.0,0.0
2.199707032,-0.029615328,0.5081381,-0.8607663,-6.771954E-4,0.8611336,0.50837827,0.99956113,0.015638694,-0.025158644,-0.029507581,0.4967473,-0.86739355,-0.0010881862,0.8677549,0.49699128,0.999564,0.015608896,-0.025064792,10.043869,0.15672302,-0.2141571,9.802346,0.15336321,-0.24672201,0.0026245117,0.012191772,-0.0028076172,-28.079224,32.818604,20.339966,1,0.0,0.0,0.0,0.0
2.208007813,-0.02946836,0.5082324,-0.8607156,-7.7351835E-4,0.8610777,0.5084727,0.99956536,0.015649635,-0.02498142,-0.029509816,0.49697593,-0.8672624,-0.0010799794,0.8676239,0.49721983,0.99956393,0.015609492,-0.025066698,10.043869,0.15672302,-0.2141571,9.802388,0.1534705,-0.24498405,-2.746582E-4,0.007156372,-0.0011291504,-28.079224,32.818604,20.339966,1,0.0,0.0,0.0,0.0
2.216308594,-0.029391019,0.5122689,-0.8583221,-6.9776364E-4,0.8586823,0.5125078,0.99956775,0.01566203,-0.024880102,-0.029508267,0.4974233,-0.86700594,-0.0010678004,0.8673675,0.49766704,0.999564,0.015611081,-0.025063362,10.051056,0.15792847,-0.22851563,9.802411,0.15359205,-0.24399047,0.0032348633,-0.0021514893,0.0049743652,-28.259277,33.059692,20.698547,1,0.0,0.0,0.0,0.0
2.224609375,-0.02935499,0.51229185,-0.8583096,-7.137107E-4,0.85866874,0.51253057,0.9995688,0.015657913,-0.02484058,-0.029503688,0.49801397,-0.866667,-0.0010530725,0.8670285,0.49825752,0.9995641,0.015613099,-0.025056092,10.061813,0.16630554,-0.23091125,9.802422,0.15355167,-0.24360289,0.0012512207,-0.0128479,0.005584717,-28.259277,33.059692,20.698547,1,0.0,0.0,0.0,0.0
2.232910157,-0.029360462,0.51029766,-0.85949653,-7.431228E-4,0.85985583,0.5105363,0.9995686,0.015628295,-0.024866551,-0.029500764,0.49830088,-0.86650217,-0.0010462264,0.8668636,0.4985443,0.99956423,0.0156139955,-0.025051802,10.061813,0.16630554,-0.23091125,9.80242,0.15326123,-0.24385758,0.0020141602,-0.0128479,0.005584717,-28.559875,33.1192,20.639038,1,0.0,0.0,0.0,0.0
2.241210938,-0.029460315,0.5102332,-0.8595314,-6.766431E-4,0.8598942,0.51047176,0.99956566,0.015620255,-0.024987508,-0.029497892,0.49854174,-0.8663637,-0.0010401793,0.8667251,0.4987851,0.99956435,0.015614281,-0.02504799,10.030716,0.18066406,-0.25723267,9.802391,0.15318237,-0.24504374,0.0020141602,-0.018341064,0.0036010742,-28.559875,33.1192,20.639038,1,0.0,0.0,0.0,0.0
2.249511719,-0.02957796,0.5101573,-0.8595723,-6.1690714E-4,0.85993904,0.5103962,0.99956226,0.015626756,-0.025120527,-0.029496498,0.49900645,-0.86609614,-0.0010257568,0.86645764,0.49924964,0.9995644,0.015614519,-0.025045607,10.030716,0.18066406,-0.25723267,9.802358,0.15324613,-0.24634822,0.005218506,-0.0113220215,0.002380371,-28.559875,33.1192,20.639038,1,0.0,0.0,0.0,0.0
2.2578125,-0.029677458,0.5088432,-0.86034757,-5.707694E-4,0.8607179,0.5090819,0.99955934,0.015599314,-0.025253484,-0.029499738,0.4994496,-0.86584055,-0.0010096552,0.8662022,0.49969265,0.9995643,0.015615002,-0.025048465,10.017548,0.1651001,-0.2632141,9.802329,0.15297702,-0.24765208,0.0020141602,-0.015289307,0.0074310303,-28.678894,32.818604,20.399475,1,0.0,0.0,0.0,0.0
2.266113282,-0.029789703,0.49925494,-0.86594284,-7.918989E-4,0.8663153,0.4994969,0.9995559,0.015565606,-0.025411919,-0.029503308,0.49963808,-0.8657317,-0.0010009389,0.8660936,0.499881,0.99956423,0.015614688,-0.025052518,10.00679,0.16151428,-0.2907257,9.802295,0.15264645,-0.2492058,0.0059814453,-0.0078125,-0.0026550293,-28.678894,33.358765,20.219421,1,0.0,0.0,0.0,0.0
2.274414063,-0.02987077,0.499202,-0.86597055,-7.432196E-4,0.8663458,0.49944398,0.9995535,0.015562384,-0.025507404,-0.029514601,0.49962285,-0.86574006,-9.926837E-4,0.86610234,0.49986574,0.9995639,0.015612745,-0.025066696,10.018753,0.17228699,-0.28234863,9.802272,0.15261486,-0.2501422,0.0026245117,0.0025787354,0.0020751953,-28.678894,33.358765,20.219421,1,0.0,0.0,0.0,0.0
2.282714844,-0.0298258,0.5014259,-0.8646863,-6.879885E-4,0.8650607,0.5016667,0.9995549,0.015557507,-0.025456153,-0.029528655,0.49960613,-0.86574924,-9.828294E-4,0.866112,0.49984902,0.9995635,0.015610751,-0.025084095,10.025925,0.15792847,-0.24765015,9.802285,0.15256703,-0.24963959,0.009033203,0.015258789,9.1552734E-5,-28.858948,33.358765,20.339966,1,0.0,0.0,0.0,0.0
2.291015625,-0.029721241,0.5014944,-0.8646502,-7.3387194E-4,0.8650211,0.50173473,0.9995579,0.015546724,-0.025341472,-0.029534563,0.4996426,-0.865728,-9.769667E-4,0.86609095,0.49988544,0.99956334,0.015609685,-0.025091484,10.019943,0.17826843,-0.2524414,9.802315,0.15246129,-0.24851495,0.016983032,0.017700195,0.0028381348,-28.858948,33.358765,20.339966,1,0.0,0.0,0.0,0.0
2.299316407,-0.029588465,0.5015812,-0.86460435,-8.301297E-4,0.8649704,0.50182194,0.9995618,0.015565878,-0.025176773,-0.029541964,0.49971592,-0.86568546,-9.6736196E-4,0.86604875,0.4999586,0.9995631,0.015607191,-0.025101375,10.019943,0.17826843,-0.2524414,9.802353,0.15264912,-0.24689981,0.021865845,0.025482178,-5.187988E-4,-28.858948,33.358765,20.339966,1,0.0,0.0,0.0,0.0
2.307617188,-0.02941185,0.5016969,-0.8645434,-9.5164403E-4,0.86490315,0.50193805,0.999567,0.015585662,-0.024960963,-0.029543912,0.49978992,-0.8656426,-9.6187275E-4,0.8660061,0.50003254,0.99956304,0.015605556,-0.025104474,10.035492,0.1603241,-0.25125122,9.802403,0.15284313,-0.24478343,0.022476196,0.03250122,-0.0028076172,-28.858948,33.358765,20.339966,1,0.0,0.0,0.0,0.0
2.315917969,-0.029231053,0.49744263,-0.8670042,-0.0012354273,0.8673562,0.49768627,0.9995719,0.015619014,-0.024739183,-0.029541278,0.49982804,-0.8656207,-9.616576E-4,0.8659841,0.5000707,0.9995631,0.015605158,-0.025101613,10.041473,0.16151428,-0.27876282,9.802452,0.15317021,-0.24260852,0.021408081,0.039535522,-0.001739502,-28.678894,33.659363,20.27893,1,0.0,0.0,0.0,0.0
2.32421875,-0.02896881,0.49761268,-0.8669155,-0.0013924716,0.8672586,0.49785614,0.99957937,0.015629454,-0.024430536,-0.02952896,0.4997337,-0.8656756,-9.725634E-4,0.8660385,0.49997634,0.99956346,0.015605707,-0.025087196,10.0295105,0.16270447,-0.2536316,9.802525,0.15327257,-0.2395817,0.016830444,0.04335022,0.0013122559,-28.678894,33.659363,20.27893,1,0.0,0.0,0.0,0.0
2.332519532,-0.02868452,0.49386612,-0.86906475,-0.0016844515,0.86939734,0.49411073,0.99958706,0.015637225,-0.024106348,-0.029506736,0.4996498,-0.8657248,-9.892881E-4,0.8660869,0.49989247,0.9995641,0.015606647,-0.025061099,10.021133,0.1651001,-0.25723267,9.802601,0.15334879,-0.23640253,0.012237549,0.047927856,-8.239746E-4,-28.678894,34.01947,20.27893,1,0.0,0.0,0.0,0.0
2.340820313,-0.02836134,0.4940743,-0.8689569,-0.0018841997,0.8692786,0.49431872,0.99959594,0.01565683,-0.023722973,-0.029490395,0.4995344,-0.865792,-0.0010032831,0.8661535,0.4997771,0.9995646,0.015607259,-0.025042035,10.052246,0.16870117,-0.22732544,9.802688,0.15354106,-0.2326429,0.015457153,0.047927856,-9.765625E-4,-28.678894,34.01947,20.27893,1,0.0,0.0,0.0,0.0
2.349121094,-0.027990418,0.4943132,-0.8688332,-0.0020876434,0.86914295,0.4945567,0.999606,0.015656661,-0.023295723,-0.029445909,0.49931848,-0.865918,-0.0010384144,0.8662779,0.4995613,0.99956584,0.015609221,-0.024989842,10.039093,0.15074158,-0.21655273,9.802787,0.1535394,-0.22845301,0.016830444,0.047927856,-0.004180908,-28.678894,34.01947,20.27893,1,0.0,0.0,0.0,0.0
2.357421875,-0.027623206,0.4906805,-0.87090164,-0.002425897,0.87119865,0.49092478,0.9996155,0.015673634,-0.022874959,-0.029388487,0.49912065,-0.866034,-0.001080282,0.8663919,0.49936357,0.9995675,0.0156111,-0.024922756,10.039093,0.15074158,-0.21655273,9.802879,0.15370585,-0.22432671,0.016830444,0.042282104,-0.008148193,-28.318787,34.07898,20.098877,1,0.0,0.0,0.0,0.0
2.365722657,-0.027321294,0.49273267,-0.86975163,-0.0025764778,0.8700388,0.4929763,0.99962336,0.01570965,-0.022501076,-0.029353384,0.49895233,-0.8661322,-0.0011075446,0.8664888,0.4991953,0.9995685,0.015612351,-0.024881765,10.042679,0.1483612,-0.18902588,9.802957,0.15405904,-0.22066018,0.0124053955,0.034179688,-0.004333496,-27.479553,34.379578,20.339966,1,0.0,0.0,0.0,0.0
2.374023438,-0.027032653,0.4929095,-0.8696605,-0.0027561132,0.8699383,0.49315265,0.99963075,0.015728109,-0.02215823,-0.029273303,0.49870652,-0.8662764,-0.0011662561,0.8666302,0.49894962,0.9995708,0.015616204,-0.02478751,10.034302,0.1986084,-0.20458984,9.803029,0.15424006,-0.217298,-0.0011901855,0.02670288,-6.713867E-4,-27.479553,34.379578,20.339966,1,0.0,0.0,0.0,0.0
2.382324219,-0.026797669,0.4901803,-0.8712091,-0.0030183345,0.8714784,0.4904247,0.9996363,0.015771836,-0.021874057,-0.029185036,0.4984774,-0.8664113,-0.001229736,0.866762,0.4987206,0.9995733,0.015620635,-0.024683483,10.04985,0.17945862,-0.17945862,9.803083,0.15466888,-0.21451123,0.0018615723,0.022277832,-0.005706787,-27.119446,34.55963,20.27893,1,0.0,0.0,0.0,0.0
2.390625,-0.026648939,0.49027005,-0.8711631,-0.0031415885,0.8714271,0.49051479,0.99963987,0.015808534,-0.021682382,-0.02913755,0.49831194,-0.866508,-0.0012659784,0.866857,0.49855518,0.9995746,0.015623658,-0.024627239,10.047455,0.16749573,-0.20578003,9.803119,0.15502876,-0.21263154,7.9345703E-4,0.012649536,-9.765625E-4,-27.119446,34.55963,20.27893,1,0.0,0.0,0.0,0.0
2.398925782,-0.026550222,0.49032956,-0.87113255,-0.0032472368,0.87139285,0.49057505,0.9996422,0.01585365,-0.021543458,-0.029039685,0.49799427,-0.8666939,-0.0013410868,0.8670394,0.49823773,0.99957734,0.01563098,-0.024510698,10.031906,0.17468262,-0.20578003,9.803142,0.1554712,-0.21126916,0.0041503906,0.01234436,-0.0021972656,-27.119446,34.55963,20.27893,1,0.0,0.0,0.0,0.0
2.407226563,-0.026462376,0.4926835,-0.8698061,-0.003229796,0.8700641,0.4929279,0.9996446,0.01585334,-0.021432696,-0.02899021,0.4978414,-0.86678344,-0.001379637,0.8671271,0.49808493,0.9995788,0.015635433,-0.024451356,10.031906,0.15672302,-0.19381714,9.8031645,0.15546817,-0.21018295,0.0043029785,0.0066986084,0.002532959,-26.759338,34.259033,20.219421,1,0.0,0.0,0.0,0.0
2.415527344,-0.026391191,0.4989908,-0.8662052,-0.0030886447,0.8664622,0.49923295,0.9996469,0.015850754,-0.021325767,-0.02889042,0.49763745,-0.86690384,-0.0014535226,0.867244,0.49788117,0.9995816,0.01564406,-0.024331717,10.02832,0.18424988,-0.22372437,9.803187,0.1554428,-0.20913434,-0.0030212402,0.010818481,-5.187988E-4,-26.579285,34.318542,20.579529,1,0.0,0.0,0.0,0.0
2.423828125,-0.026342476,0.49901953,-0.8661902,-0.0031490102,0.8664451,0.49926218,0.999648,0.015879445,-0.021252893,-0.028791245,0.4976911,-0.86687636,-0.0015181899,0.86721313,0.49793485,0.9995843,0.015652247,-0.024212556,10.02832,0.18424988,-0.22372437,9.803198,0.15572415,-0.2084197,0.0014038086,0.010665894,0.004058838,-26.579285,34.318542,20.579529,1,0.0,0.0,0.0,0.0
2.432128907,-0.026223935,0.4990894,-0.86615366,-0.0031975284,0.8664053,0.4993312,0.99965096,0.01586398,-0.021124704,-0.028742192,0.49771768,-0.8668627,-0.0015507499,0.8671978,0.49796146,0.9995857,0.015656792,-0.024153331,10.043869,0.1531372,-0.15553284,9.803227,0.15557249,-0.20716257,0.0014038086,-0.00491333,-0.004333496,-26.579285,34.318542,20.579529,1,0.0,0.0,0.0,0.0
2.440429688,-0.026201254,0.49550867,-0.8682077,-0.0033560041,0.8684573,0.4957524,0.99965096,0.015903044,-0.021091744,-0.02864242,0.49777204,-0.8668348,-0.0016157832,0.8671664,0.49801585,0.99958843,0.015664997,-0.024033451,10.043869,0.1531372,-0.15553284,9.803227,0.1559556,-0.20683935,0.010253906,-0.02796936,0.007736206,-26.939392,34.318542,20.399475,1,0.0,0.0,0.0,0.0
2.448730469,-0.026346486,0.49542162,-0.86825305,-0.003236238,0.8685078,0.49566516,0.9996477,0.015868908,-0.021278825,-0.028545873,0.49768248,-0.8668894,-0.0016849618,0.8672176,0.4979264,0.9995911,0.015674422,-0.02391691,10.017548,0.1603241,-0.21296692,9.803195,0.15562083,-0.20867398,0.0039978027,-0.01864624,0.007736206,-26.939392,34.318542,20.399475,1,0.0,0.0,0.0,0.0
2.45703125,-0.026498139,0.49216846,-0.8700966,-0.003201942,0.87035596,0.49241266,0.9996437,0.015834017,-0.021486918,-0.02850194,0.49763727,-0.8669168,-0.0017161164,0.8672435,0.49788123,0.9995923,0.015678313,-0.02386412,10.045074,0.17228699,-0.23330688,9.803156,0.15527867,-0.21071468,0.010116577,-0.016662598,0.0026855469,-27.119446,34.498596,20.339966,1,0.0,0.0,0.0,0.0
2.465332032,-0.02666551,0.5009956,-0.865039,-0.0028319638,0.8653053,0.5012371,0.99964035,0.015815502,-0.021655006,-0.028422924,0.49742115,-0.8670434,-0.0017754314,0.8673674,0.4976652,0.9995944,0.015684478,-0.02376998,10.036697,0.16270447,-0.23210144,9.803123,0.1550971,-0.21236306,0.014694214,-0.018951416,0.0013122559,-26.879883,34.61914,20.878601,1,0.0,0.0,0.0,0.0
2.473632813,-0.026811503,0.50090957,-0.86508423,-0.0027555665,0.86535496,0.5011517,0.99963665,0.015820429,-0.021821178,-0.028353142,0.49756292,-0.8669644,-0.0018170029,0.867286,0.4978069,0.99959636,0.015689665,-0.02368621,10.036697,0.13998413,-0.21057129,9.803087,0.1551454,-0.21399267,0.009643555,-0.011932373,-0.0034179688,-26.879883,34.61914,20.878601,1,0.0,0.0,0.0,0.0
2.481933594,-0.026898922,0.50085807,-0.8651114,-0.0026800511,0.8653853,0.50109994,0.99963456,0.015797589,-0.021935603,-0.028322235,0.4976299,-0.866927,-0.0018356573,0.8672475,0.4978739,0.9995972,0.01569228,-0.023648908,10.036697,0.13998413,-0.21057129,9.803067,0.15492144,-0.2151148,0.0059814453,-0.013916016,0.002380371,-26.879883,34.61914,20.878601,1,0.0,0.0,0.0,0.0
2.490234375,-0.026974307,0.4996059,-0.8658327,-0.0026239622,0.86610955,0.49984738,0.9996327,0.01575495,-0.022051757,-0.028265884,0.4977578,-0.8668554,-0.0018688152,0.867174,0.49800172,0.99959874,0.015696451,-0.023581224,10.046265,0.17826843,-0.19142151,9.803048,0.15450327,-0.21625388,0.006286621,-0.01864624,0.0059051514,-27.059937,34.61914,20.819092,1,0.0,0.0,0.0,0.0
2.498535157,-0.027099282,0.49953166,-0.86587167,-0.0024986062,0.8661532,0.49977225,0.99962956,0.015706941,-0.022223996,-0.0282146,0.49783105,-0.8668149,-0.0018986575,0.86713195,0.4980749,0.99960005,0.015698768,-0.023520568,10.040283,0.14955139,-0.2368927,9.803018,0.15403248,-0.21794295,0.0053710938,-0.018493652,0.001159668,-27.059937,34.61914,20.819092,1,0.0,0.0,0.0,0.0
2.506835938,-0.027227795,0.49773955,-0.8668991,-0.0024278155,0.8671851,0.49798,0.9996263,0.01566357,-0.02240312,-0.02819223,0.4978651,-0.86679614,-0.0019106362,0.8671124,0.4981089,0.9996007,0.015698932,-0.023494592,10.037888,0.14715576,-0.2141571,9.802985,0.15360714,-0.21969955,0.0068969727,-0.022918701,0.005126953,-27.598572,34.01947,20.399475,1,0.0,0.0,0.0,0.0
2.515136719,-0.027361408,0.49906516,-0.86613244,-0.0022886992,0.86642325,0.49930504,0.99962294,0.015644005,-0.02256435,-0.028154014,0.49786013,-0.86680025,-0.0019311383,0.86711526,0.4981038,0.9996018,0.015697531,-0.02345134,10.0295105,0.16749573,-0.21894836,9.802953,0.15341528,-0.22128068,0.0056762695,-0.016815186,0.005279541,-27.659607,34.199524,20.579529,1,0.0,0.0,0.0,0.0
2.5234375,-0.027499054,0.49898052,-0.8661767,-0.0022123866,0.86647195,0.4992208,0.99961936,0.015644418,-0.02272322,-0.028122582,0.49790782,-0.86677384,-0.0019452693,0.8670879,0.4981514,0.9996026,0.015695412,-0.023416186,10.019943,0.17468262,-0.23449707,9.8029175,0.15341933,-0.22283867,1.8310547E-4,-0.014373779,-0.0021972656,-27.659607,34.199524,20.579529,1,0.0,0.0,0.0,0.0
2.531738282,-0.027626015,0.4989025,-0.8662177,-0.002174263,0.86651635,0.49914387,0.99961597,0.015672741,-0.022853648,-0.028110137,0.4979293,-0.8667619,-0.0019505788,0.8670756,0.49817276,0.999603,0.015694391,-0.023402365,10.019943,0.17468262,-0.23449707,9.802884,0.15369709,-0.22411774,1.8310547E-4,-0.013916016,-0.0014343262,-27.659607,34.199524,20.579529,1,0.0,0.0,0.0,0.0
2.540039063,-0.027731173,0.49172437,-0.87030923,-0.0023710625,0.8706092,0.49196944,0.99961257,0.015706446,-0.022977104,-0.028090991,0.49796787,-0.8667404,-0.0019593947,0.86705345,0.49821126,0.9996035,0.015693534,-0.023380676,10.034302,0.15194702,-0.20578003,9.802851,0.15402763,-0.22532843,0.0043029785,-0.0178833,-5.187988E-4,-27.89917,34.318542,20.27893,1,0.0,0.0,0.0,0.0
2.548339844,-0.0278139,0.49167275,-0.8703357,-0.0023142733,0.8706385,0.4919178,0.9996104,0.015696349,-0.02307799,-0.028083812,0.49784327,-0.8668123,-0.0019676927,0.86712503,0.49808666,0.9996037,0.015693791,-0.023372574,10.034302,0.15194702,-0.20578003,9.80283,0.15392861,-0.22631778,3.3569336E-4,-0.019561768,0.0020751953,-27.89917,34.318542,20.27893,1,0.0,0.0,0.0,0.0
2.556640625,-0.027896821,0.48488393,-0.87413347,-0.0024626032,0.8744377,0.4851313,0.9996077,0.015686266,-0.023199959,-0.028073076,0.4975994,-0.86695254,-0.0019815536,0.867265,0.49784285,0.9996039,0.015693894,-0.023360776,10.041473,0.15792847,-0.20698547,9.802803,0.15382972,-0.22751388,7.9345703E-4,-0.018951416,7.019043E-4,-28.079224,34.07898,19.799805,1,0.0,0.0,0.0,0.0
2.564941407,-0.028009314,0.48150963,-0.87599313,-0.0024736095,0.8763009,0.48175785,0.9996046,0.015660573,-0.023353519,-0.028066296,0.4970978,-0.86724055,-0.0020006672,0.8675526,0.49734142,0.9996041,0.015693592,-0.023354461,10.033112,0.14955139,-0.22970581,9.8027725,0.15357776,-0.22901979,0.0014038086,-0.024917603,0.0068206787,-27.659607,34.739685,19.979858,1,0.0,0.0,0.0,0.0
2.573242188,-0.02814251,0.48142716,-0.8760342,-0.0023603886,0.8763468,0.4816748,0.99960107,0.015623318,-0.023526242,-0.028065253,0.49678755,-0.86741835,-0.0020101303,0.8677303,0.4970313,0.9996041,0.01569293,-0.023354461,10.033112,0.14955139,-0.22970581,9.802738,0.15321241,-0.23071364,-0.0013427734,-0.024139404,0.0020751953,-27.659607,34.739685,19.979858,1,0.0,0.0,0.0,0.0
2.581542969,-0.028320266,0.4813171,-0.876089,-0.0022652624,0.8764073,0.48156524,0.9995963,0.015622626,-0.023729779,-0.028068472,0.4961821,-0.86776465,-0.0020238804,0.8680767,0.49642596,0.999604,0.015690172,-0.023361374,10.025925,0.16870117,-0.22132874,9.802691,0.15320563,-0.23270965,0.009338379,-0.03147888,-0.0014343262,-27.659607,34.739685,19.979858,1,0.0,0.0,0.0,0.0
2.58984375,-0.02854192,0.4854145,-0.8738181,-0.0020377403,0.87414414,0.48566216,0.99959046,0.015642347,-0.023960605,-0.028078506,0.49559614,-0.8680991,-0.0020332327,0.8684114,0.4958402,0.9996036,0.0156875,-0.02337603,10.037888,0.17347717,-0.22372437,9.802634,0.15339902,-0.23497327,-0.0065307617,-0.034225464,0.0022277832,-27.418518,34.67865,20.159912,1,0.0,0.0,0.0,0.0
2.598144532,-0.02876764,0.48527637,-0.8738875,-0.0019382108,0.8742206,0.48552513,0.99958426,0.015661191,-0.024208695,-0.028087724,0.4953932,-0.86821467,-0.0020332215,0.86852723,0.4956373,0.99960345,0.015686596,-0.02338771,10.037888,0.17347717,-0.22372437,9.802573,0.15358382,-0.23740621,0.0012512207,-0.034835815,7.019043E-4,-27.418518,34.67865,20.159912,1,0.0,0.0,0.0,0.0
2.606445313,-0.029044501,0.48490998,-0.8740817,-0.0017942013,0.8744239,0.48515943,0.9995765,0.015659492,-0.02452718,-0.02811455,0.49499378,-0.8684415,-0.0020291433,0.8687549,0.4952381,0.9996027,0.015685588,-0.02342024,10.035492,0.16749573,-0.2644043,9.802498,0.15356718,-0.24052948,-0.0030212402,-0.038497925,0.005279541,-27.479553,34.259033,19.918823,1,0.0,0.0,0.0,0.0
2.614746094,-0.029323092,0.49305388,-0.8695044,-0.0013631247,0.8698579,0.4933003,0.999569,0.015650334,-0.02483483,-0.028151318,0.4945957,-0.8686671,-0.0020193579,0.8689816,0.49484023,0.99960166,0.015684554,-0.023464212,10.035492,0.14596558,-0.24885559,9.8024235,0.15347736,-0.2435465,-8.8500977E-4,-0.025222778,0.006652832,-27.2995,34.13849,20.27893,1,0.0,0.0,0.0,0.0
2.623046875,-0.029494546,0.4929488,-0.86955833,-0.0012091585,0.8699186,0.49319404,0.99956423,0.015597968,-0.025061801,-0.028174724,0.49456486,-0.86868393,-0.0020061955,0.8689992,0.49480945,0.999601,0.015683869,-0.02349162,10.035492,0.14596558,-0.24885559,9.802377,0.15296382,-0.24577232,0.0018615723,-0.018951416,0.0045166016,-27.2995,34.13849,20.27893,1,0.0,0.0,0.0,0.0
2.631347657,-0.02966245,0.49284577,-0.8696109,-0.0010926081,0.8699772,0.49309063,0.99955934,0.015576421,-0.025267169,-0.02822685,0.49450094,-0.86871856,-0.0019745845,0.8690356,0.49474555,0.9995996,0.015680468,-0.023553705,10.041473,0.17228699,-0.26919556,9.802329,0.15275252,-0.24778628,0.0018615723,-0.027511597,0.005279541,-27.2995,34.13849,20.27893,1,0.0,0.0,0.0,0.0
2.639648438,-0.029829917,0.5020111,-0.86434656,-6.6073984E-4,0.8647213,0.50225157,0.9995548,0.015553232,-0.025462868,-0.028283695,0.49443546,-0.86875415,-0.0019395202,0.869073,0.49468014,0.9995981,0.015676348,-0.023621626,10.022339,0.15434265,-0.28833008,9.802284,0.15252511,-0.24970543,0.0068969727,-0.0113220215,0.0060424805,-27.23999,34.01947,20.698547,1,0.0,0.0,0.0,0.0
2.647949219,-0.029953375,0.50193614,-0.86438584,-5.373787E-4,0.8647656,0.5021753,0.9995511,0.015506349,-0.02563292,-0.028314816,0.49458733,-0.8686666,-0.0019142106,0.8689866,0.49483192,0.99959725,0.015673885,-0.023658449,10.022339,0.15434265,-0.28833008,9.802248,0.15206534,-0.25137308,0.0044555664,-0.0053710938,0.0020751953,-27.23999,34.01947,20.698547,1,0.0,0.0,0.0,0.0
2.65625,-0.030030634,0.505145,-0.8625118,-3.580097E-4,0.8628955,0.5053822,0.99954885,0.015485737,-0.025732454,-0.028380092,0.49487916,-0.8684983,-0.0018602237,0.8688206,0.4951236,0.9995955,0.015667252,-0.023736622,10.039093,0.15792847,-0.29670715,9.802226,0.1518632,-0.25234917,0.0032348633,0.0077667236,-0.0018920898,-27.2995,33.718872,20.698547,1,0.0,0.0,0.0,0.0
2.664550782,-0.030059991,0.51114255,-0.8589701,-1.3959873E-4,0.8593563,0.5113773,0.9995481,0.0154919075,-0.025760889,-0.028446026,0.495287,-0.86826354,-0.0018014926,0.86858827,0.4955312,0.99959373,0.015660064,-0.023815628,10.046265,0.17706299,-0.2679901,9.802218,0.15192372,-0.25262803,0.0059814453,0.009140015,-0.0023498535,-27.418518,34.07898,21.238708,1,0.0,0.0,0.0,0.0
2.672851563,-0.030034665,0.5111578,-0.858962,-2.0298362E-4,0.85934657,0.5113937,0.99954885,0.015533894,-0.025706427,-0.028478857,0.49560577,-0.8680806,-0.0017688051,0.8684065,0.49584985,0.9995929,0.015656702,-0.023854595,10.046265,0.17706299,-0.2679901,9.802226,0.15233546,-0.25209394,0.0024719238,0.008224487,2.4414063E-4,-27.418518,34.07898,21.238708,1,0.0,0.0,0.0,0.0
2.681152344,-0.029956361,0.511205,-0.8589366,-2.8283522E-4,0.8593179,0.5114418,0.9995512,0.015563872,-0.02559745,-0.028541211,0.49622467,-0.86772484,-0.0017079422,0.8680531,0.4964685,0.9995912,0.015651837,-0.023927761,10.035492,0.18066406,-0.25125122,9.802249,0.15262945,-0.25102523,0.008728027,0.017700195,0.001159668,-27.418518,34.07898,21.238708,1,0.0,0.0,0.0,0.0
2.689453125,-0.02982255,0.5133629,-0.8576533,-2.8410088E-4,0.85803056,0.5135986,0.9995552,0.015560478,-0.02544281,-0.02859793,0.49682075,-0.86738193,-0.0016524903,0.86771214,0.49706438,0.9995897,0.015648352,-0.023993779,10.043869,0.16390991,-0.25125122,9.802288,0.15259616,-0.24950875,0.0072021484,0.022277832,2.4414063E-4,-27.598572,33.779907,21.1792,1,0.0,0.0,0.0,0.0
2.697753907,-0.029671794,0.51345485,-0.8576035,-3.733365E-4,0.85797554,0.51369053,0.99955964,0.015562292,-0.025265979,-0.028622808,0.4971534,-0.8671904,-0.0016255919,0.8675216,0.49739692,0.99958897,0.015646594,-0.024022734,10.043869,0.16390991,-0.25125122,9.802332,0.15261395,-0.24777462,0.010116577,0.020751953,0.0019226074,-27.598572,33.779907,21.1792,1,0.0,0.0,0.0,0.0
2.706054688,-0.029527808,0.5226666,-0.8520256,-1.4252216E-4,0.8523951,0.52289814,0.99956393,0.01556147,-0.025094869,-0.028665135,0.4978024,-0.86681664,-0.0015767012,0.8671494,0.49804562,0.99958783,0.015643256,-0.024072068,10.045074,0.15911865,-0.26200867,9.802374,0.15260589,-0.2460966,0.0055236816,0.021820068,7.019043E-4,-27.659607,33.059692,21.238708,1,0.0,0.0,0.0,0.0
