Time,Rot1,Rot2,Rot3,Rot4,Rot5,Rot6,Rot7,Rot8,Rot9,FRot1,FRot2,FRot3,FRot4,FRot5,FRot6,FRot7,FRot8,FRot9,AccX,AccY,AccZ,GravX,GravY,GravZ,GyroX,GyroY,GyroZ,MagX,MagY,MagZ,Imid
0.0,0.0,0.0,0.0,0.0,0.0,0.0,0.0,0.0,0.0,1.0,0.0,0.0,0.0,1.0,0.0,0.0,0.0,1.0,10.00679,0.112457275,-0.15672302,9.804831,0.10354894,-0.1579827,0.013458252,-0.004135132,0.0036010742,0.0,0.0,0.0,0,0.0,0.0,0.0,0.0
0.008300781,-0.01924086,0.47772348,-0.8782995,-0.0015578866,0.8784467,0.47783768,0.9998137,0.010562299,-0.01615783,1.0,0.0,0.0,0.0,1.0,0.0,0.0,0.0,1.0,9.998413,0.124420166,-0.17826843,9.804823,0.10358077,-0.1584542,0.01789856,-0.0047454834,0.0014648438,-24.539185,41.038513,22.859192,0,0.0,0.0,0.0,0.0
0.016601563,-0.019232363,0.47789,-0.8782092,-0.0015519056,0.8783563,0.47800407,0.99981385,0.010556044,-0.016151225,0.9978313,0.01972314,-0.06279805,-0.019710472,0.9998054,8.21286E-4,0.06280203,4.1827443E-4,0.99802595,10.030716,0.13519287,-0.13160706,9.804825,0.10351943,-0.15838942,0.016830444,-0.00491333,0.005432129,-24.839783,41.33911,23.039246,0,0.0,0.0,0.0,0.0
0.024902344,-0.019215923,0.47789773,-0.8782053,-0.0015435424,0.8783523,0.4780115,0.99981415,0.010540978,-0.016140692,0.9952194,0.029291356,-0.093168184,-0.029221745,0.9995707,0.002111598,0.093190044,6.210335E-4,0.99564815,10.030716,0.13519287,-0.13160706,9.804828,0.10337169,-0.15828612,0.018661499,-0.0021514893,0.004211426,-24.839783,41.33911,23.039246,0,0.0,0.0,0.0,0.0
0.033203125,-0.019186672,0.4779115,-0.8781984,-0.0015256801,0.8783451,0.47802463,0.99981475,0.010511551,-0.016123377,0.98725903,0.047849417,-0.1517564,-0.047448132,0.99885404,0.006266529,0.15188235,0.0010138706,0.988398,10.013962,0.10887146,-0.13877869,9.804833,0.103083104,-0.15811633,0.012542725,-0.0013885498,0.0034484863,-24.839783,41.33911,23.039246,0,0.0,0.0,0.0,0.0
0.041503906,-0.019139063,0.46599904,-0.8845782,-0.0017757099,0.884723,0.46611375,0.9998152,0.010491734,-0.01610529,0.97605175,0.06565771,-0.20739336,-0.06451336,0.99784124,0.012283834,0.20775218,0.0013899857,0.97818047,10.02713,0.12921143,-0.17706299,9.804838,0.10288877,-0.15793894,0.015457153,-0.0053710938,-0.0015869141,-24.839783,41.459656,22.37854,0,0.0,0.0,0.0,0.0
0.049804688,-0.019193152,0.46597326,-0.88459057,-0.0017704782,0.88473636,0.46608847,0.9998143,0.0105118565,-0.016155886,0.9693929,0.07401894,-0.23409098,-0.072320744,0.99725556,0.015842503,0.23462118,0.0015720241,0.9720856,10.02713,0.12921143,-0.17706299,9.804829,0.1030861,-0.15843512,0.01789856,-0.0018463135,0.0017700195,-24.839783,41.459656,22.37854,0,0.0,0.0,0.0,0.0
0.058105469,-0.019242786,0.46804687,-0.883494,-0.0017201421,0.8836409,0.46816212,0.9998134,0.010528481,-0.016198607,0.9542019,0.09022654,-0.28523305,-0.08700065,0.9959194,0.023988016,0.28623348,0.0019260483,0.95815796,10.010376,0.12562561,-0.18066406,9.80482,0.103249125,-0.15885407,0.013458252,0.0028839111,0.0029907227,-25.2594,40.979004,22.259521,0,0.0,0.0,0.0,0.0
0.06640625,-0.019208204,0.46959403,-0.88267344,-0.0016742321,0.8828199,0.46970838,0.99981403,0.010500055,-0.016171176,0.93683046,0.105862215,-0.33337942,-0.100499354,0.9943782,0.033344034,0.33503512,0.0022667113,0.94220287,10.005585,0.10887146,-0.14356995,9.804827,0.10297036,-0.15858507,0.020339966,-6.2561035E-4,0.0057373047,-25.559998,40.67993,22.198486,0,0.0,0.0,0.0,0.0
0.074707031,-0.019180832,0.46960762,-0.8826668,-0.0016550329,0.8828131,0.4697214,0.9998146,0.01047049,-0.016155874,0.9274407,0.113471925,-0.35633942,-0.1068,0.9935382,0.03841288,0.3583956,0.0024313815,0.9335666,10.005585,0.10887146,-0.14356995,9.804832,0.10268044,-0.158435,0.025222778,-0.0058288574,-0.001739502,-25.559998,40.67993,22.198486,0,0.0,0.0,0.0,0.0
0.083007813,-0.019218378,0.46958905,-0.882676,-0.0016647181,0.8828227,0.46970338,0.99981385,0.010496342,-0.016184684,0.9074695,0.12821902,-0.4000738,-0.11844128,0.99174213,0.049186792,0.40307668,0.0027497364,0.9151621,10.010376,0.14715576,-0.15074158,9.804825,0.10293395,-0.15871754,0.022781372,-0.0099487305,-0.0069274902,-25.559998,40.67993,22.198486,0,0.0,0.0,0.0,0.0
0.091308594,-0.019271657,0.46505412,-0.8850724,-0.0018220516,0.885219,0.46517083,0.9998126,0.0105772605,-0.016212285,0.88616407,0.1423547,-0.44096303,-0.12882265,0.989811,0.06065414,0.44510448,0.003056508,0.8954735,10.017548,0.12802124,-0.16390991,9.804812,0.1037275,-0.15898821,0.013626099,0.003036499,5.493164E-4,-25.559998,40.618896,21.899414,0,0.0,0.0,0.0,0.0
0.099609375,-0.01928591,0.46504697,-0.8850758,-0.0018450073,0.8852224,0.46516418,0.9998123,0.010604088,-0.016214307,0.87511283,0.1490995,-0.46037695,-0.1334631,0.98881704,0.06654731,0.4651507,0.003206926,0.8852257,10.017548,0.12802124,-0.16390991,9.80481,0.103990585,-0.15900804,0.017288208,0.0037994385,0.006958008,-25.559998,40.618896,21.899414,0,0.0,0.0,0.0,0.0
0.107910156,-0.019270312,0.46565858,-0.88475466,-0.0018525659,0.8849008,0.46577588,0.9998126,0.010614712,-0.016189652,0.85234785,0.16216667,-0.49719736,-0.14186278,0.98675716,0.07864623,0.5033668,0.003499859,0.8640657,10.016357,0.13639832,-0.16630554,9.804812,0.104094766,-0.15876625,0.0099487305,9.0026855E-4,0.005432129,-25.79956,40.19928,21.71936,0,0.0,0.0,0.0,0.0
0.116210938,-0.019273141,0.46946308,-0.8827417,-0.0017896108,0.8828881,0.46958002,0.9998127,0.010630047,-0.016175872,0.828887,0.17471662,-0.5314324,-0.14915453,0.9846115,0.09106661,0.53916526,0.0037816127,0.84219146,10.012772,0.1483612,-0.16270447,9.804813,0.104245156,-0.15863112,0.01927185,-0.0039978027,0.0043640137,-25.498962,40.019226,21.839905,0,0.0,0.0,0.0,0.0
0.124511719,-0.019292908,0.4694532,-0.8827466,-0.0017949739,0.88289326,0.4695704,0.9998123,0.0106438855,-0.016190922,0.81694925,0.18087855,-0.54761016,-0.15246409,0.9834976,0.09740177,0.55619115,0.003918584,0.83104515,10.012772,0.1483612,-0.16270447,9.80481,0.10438086,-0.15877871,0.012542725,-7.7819824E-4,0.003753662,-25.498962,40.019226,21.839905,0,0.0,0.0,0.0,0.0
0.1328125,-0.019265302,0.46946707,-0.8827398,-0.0017863992,0.88288605,0.46958384,0.9998128,0.010623599,-0.016170409,0.7928005,0.19281428,-0.5781782,-0.15829816,0.9812264,0.11016598,0.58856523,0.004184912,0.80843884,10.040283,0.11605835,-0.1375885,9.804814,0.10418192,-0.15857755,0.018508911,-7.7819824E-4,0.0010070801,-25.498962,40.019226,21.839905,0,0.0,0.0,0.0,0.0
0.141113281,-0.01927959,0.46825853,-0.8833812,-0.001833343,0.88352734,0.468376,0.9998124,0.010649637,-0.016175564,0.76842695,0.20425113,-0.6064664,-0.16314033,0.9789085,0.1229775,0.61879337,0.0044398885,0.78554124,10.022339,0.14117432,-0.1651001,9.804811,0.10443727,-0.1586281,0.014694214,-0.0029144287,0.0031433105,-25.91858,40.019226,21.77887,0,0.0,0.0,0.0,0.0
0.149414063,-0.019309424,0.4682432,-0.8833886,-0.0018438422,0.8835351,0.4683612,0.9998118,0.010672615,-0.01619719,0.7562069,0.20976187,-0.61979914,-0.1651899,0.97774184,0.12935674,0.63313764,0.004564086,0.77402574,10.022339,0.14117432,-0.1651001,9.804806,0.10466261,-0.15884018,0.007965088,-0.008270264,0.0057373047,-25.91858,40.019226,21.77887,0,0.0,0.0,0.0,0.0
0.157714844,-0.019328402,0.46306288,-0.88611466,-0.0019260882,0.88626134,0.46318156,0.99981135,0.010659294,-0.016238116,0.73177344,0.22043514,-0.6449154,-0.16863231,0.9753898,0.1420489,0.6603565,0.0048059886,0.7509368,10.016357,0.12562561,-0.15911865,9.8048,0.10453197,-0.15924153,0.010116577,-6.2561035E-4,0.003753662,-25.979614,40.019226,21.479797,0,0.0,0.0,0.0,0.0
0.166015625,-0.019335583,0.46305925,-0.8861165,-0.001911229,0.8862635,0.46317774,0.99981123,0.010649382,-0.016251408,0.719609,0.22548872,-0.6567478,-0.16995744,0.9742333,0.14826956,0.6732587,0.004923057,0.7393906,10.016357,0.12562561,-0.15911865,9.804799,0.104434766,-0.15937187,0.012542725,0.0039520264,0.0028381348,-25.979614,40.019226,21.479797,0,0.0,0.0,0.0,0.0
0.174316406,-0.019332957,0.4692759,-0.88284,-0.0017922013,0.88298726,0.4693934,0.9998114,0.010656989,-0.016229717,0.6954107,0.2352771,-0.6790056,-0.17203909,0.9719147,0.16057517,0.6977152,0.005149824,0.71635675,10.036697,0.1375885,-0.1531372,9.804801,0.10450936,-0.15915915,0.011627197,-3.2043457E-4,0.005126953,-25.91858,40.019226,21.839905,0,0.0,0.0,0.0,0.0
0.182617188,-0.01932198,0.46928146,-0.8828372,-0.001799019,0.8829843,0.46939903,0.9998117,0.0106579615,-0.01621676,0.6714141,0.24492523,-0.6994389,-0.17360383,0.96952707,0.17285512,0.7204616,0.0053679114,0.69347405,10.025925,0.13639832,-0.15194702,9.804804,0.1045189,-0.15903209,0.009033203,-4.7302246E-4,0.002380371,-25.91858,40.019226,21.839905,0,0.0,0.0,0.0,0.0
0.190917969,-0.019321285,0.47217062,-0.8812953,-0.0017518457,0.88144255,0.47228792,0.9998118,0.010669105,-0.016203435,0.65953475,0.24959654,-0.7090243,-0.17413417,0.9683345,0.17890133,0.7312258,0.005473714,0.6821135,10.025925,0.13639832,-0.15194702,9.804805,0.10462818,-0.15890142,0.021560669,9.0026855E-4,0.002380371,-25.979614,40.25879,22.138977,0,0.0,0.0,0.0,0.0
0.19921875,-0.01932963,0.47216645,-0.8812975,-0.001761971,0.88144475,0.47228396,0.9998116,0.010681894,-0.016206056,0.63603437,0.2587693,-0.7269792,-0.17481202,0.9659224,0.19087842,0.75159895,0.005679455,0.65959585,10.013962,0.13877869,-0.16749573,9.804802,0.10475359,-0.15892711,0.0137786865,0.0037994385,0.0043640137,-25.979614,40.25879,22.138977,0,0.0,0.0,0.0,0.0
0.207519531,-0.019263662,0.46777123,-0.88363963,-0.0018779268,0.8837852,0.46788925,0.9998127,0.01067267,-0.016146498,0.6129568,0.26755673,-0.74343616,-0.17490943,0.9635242,0.2025533,0.77051324,0.005877555,0.63739693,10.016357,0.119644165,-0.1268158,9.804813,0.10466314,-0.15834306,0.019882202,-9.3078613E-4,0.0031433105,-25.79956,40.078735,21.77887,0,0.0,0.0,0.0,0.0
0.215820313,-0.019215807,0.46779552,-0.8836278,-0.0018968093,0.8837723,0.46791327,0.99981356,0.010667406,-0.016095081,0.60161066,0.27171525,-0.75115603,-0.1746986,0.96235913,0.20819521,0.7794517,0.005973459,0.62643385,10.016357,0.119644165,-0.1268158,9.804822,0.10461152,-0.15783884,0.016830444,-1.6784668E-4,0.0045166016,-25.79956,40.078735,21.77887,0,0.0,0.0,0.0,0.0
0.224121094,-0.019221496,0.47700593,-0.8786898,-0.0017181858,0.8788351,0.4771224,0.99981374,0.010680759,-0.016072942,0.5792931,0.27977094,-0.7656028,-0.17392309,0.96004707,0.21922699,0.7963481,0.0061593424,0.60480726,10.0247345,0.13279724,-0.16151428,9.804824,0.104742475,-0.15762171,0.01637268,0.009750366,-0.0015869141,-25.91858,39.959717,22.259521,0,0.0,0.0,0.0,0.0
0.232421875,-0.019190926,0.47702143,-0.87868214,-0.00179125,0.8788262,0.47713876,0.9998143,0.010730674,-0.016011024,0.5574299,0.2878855,-0.778713,-0.17294824,0.95764387,0.23023279,0.81201035,0.0063383933,0.5836086,10.022339,0.1375885,-0.14715576,9.804829,0.10523196,-0.1570145,0.020339966,0.0050201416,-0.0014343262,-25.91858,39.959717,22.259521,0,0.0,0.0,0.0,0.0
0.240722656,-0.01917306,0.48094046,-0.8765437,-0.0017781542,0.8766871,0.48105803,0.9998146,0.010781981,-0.015953584,0.5467062,0.29181442,-0.7848291,-0.17230576,0.9564534,0.23560065,0.81940407,0.0064262403,0.5731803,10.022339,0.1375885,-0.14715576,9.804832,0.105735116,-0.15645121,0.014541626,0.0062408447,0.0032958984,-25.979614,40.078735,22.558594,0,0.0,0.0,0.0,0.0
0.249023438,-0.01913592,0.48095918,-0.87653416,-0.00184133,0.8766763,0.48107734,0.9998152,0.010819846,-0.0158904,0.52565795,0.29959255,-0.7961959,-0.17083311,0.95404446,0.24620172,0.8333665,0.00659873,0.5526814,10.018753,0.14237976,-0.13877869,9.804838,0.106106445,-0.1558316,0.018051147,9.0026855E-4,-3.6621094E-4,-25.979614,40.078735,22.558594,0,0.0,0.0,0.0,0.0
0.257324219,-0.019081093,0.47997674,-0.87707365,-0.0019010562,0.8772143,0.48009512,0.9998161,0.010828105,-0.015825745,0.50519747,0.3070448,-0.8065351,-0.16901238,0.951671,0.2564315,0.8462921,0.0067658885,0.53267616,9.996017,0.12802124,-0.13639832,9.804847,0.10618744,-0.15519755,0.016983032,0.007461548,0.004058838,-26.278687,39.959717,22.439575,0,0.0,0.0,0.0,0.0
0.265625,-0.019013664,0.48001128,-0.8770563,-0.0019320757,0.87719566,0.4801294,0.9998174,0.010823558,-0.015751284,0.4951956,0.31063154,-0.81135035,-0.1679735,0.95050573,0.26138806,0.85238856,0.006847134,0.52286416,9.996017,0.12802124,-0.13639832,9.804859,0.10614285,-0.15446733,0.021255493,0.003189087,0.0046691895,-26.278687,39.959717,22.439575,0,0.0,0.0,0.0,0.0
0.273925781,-0.018989705,0.4843764,-0.8746535,-0.0018382953,0.8747929,0.48449346,0.99981797,0.01080826,-0.015721632,0.47564596,0.31757995,-0.8203072,-0.16568859,0.9482056,0.2710229,0.8638913,0.007004603,0.5036295,10.02713,0.12083435,-0.14715576,9.804865,0.10599283,-0.15417655,0.013931274,-0.0056762695,0.005584717,-25.91858,39.718628,22.558594,0,0.0,0.0,0.0,0.0
0.282226563,-0.018963214,0.48438987,-0.8746468,-0.0018384638,0.8747857,0.48450667,0.9998185,0.010795808,-0.015698213,0.45667127,0.3244239,-0.82837224,-0.16324666,0.94588476,0.2804507,0.8745296,0.00715523,0.4849195,10.017548,0.124420166,-0.11605835,9.80487,0.10587071,-0.15394688,0.020492554,-0.008575439,0.0013122559,-25.91858,39.718628,22.558594,0,0.0,0.0,0.0,0.0
0.290527344,-0.018973015,0.48907056,-0.8720379,-0.0017256476,0.87217754,0.48918644,0.99981844,0.010786171,-0.015703874,0.44741276,0.32773775,-0.83211166,-0.16194005,0.9447411,0.28502575,0.8795438,0.0072280425,0.47576308,10.017548,0.124420166,-0.11605835,9.804871,0.10577621,-0.15400241,0.02079773,-0.009490967,0.0036010742,-25.619507,39.65912,22.799683,0,0.0,0.0,0.0,0.0
0.298828125,-0.019037277,0.4890386,-0.87205446,-0.0016951305,0.8721955,0.4891547,0.9998174,0.010790417,-0.01577524,0.42931792,0.33435637,-0.8389827,-0.15926711,0.94241786,0.29407904,0.8889995,0.0073689464,0.45784885,10.021133,0.12921143,-0.1531372,9.804859,0.10581785,-0.15470226,0.01789856,-0.010406494,0.0013122559,-25.619507,39.65912,22.799683,0,0.0,0.0,0.0,0.0
0.307128906,-0.019129694,0.48735693,-0.8729933,-0.0016861409,0.8731361,0.4874736,0.9998156,0.010797211,-0.015881075,0.41182783,0.34069604,-0.845177,-0.1564071,0.9401436,0.30276546,0.89773864,0.007504438,0.44046456,10.025925,0.13160706,-0.15194702,9.804842,0.10588447,-0.15574014,0.018814087,-0.0058288574,0.0059051514,-25.79956,39.718628,22.738647,0,0.0,0.0,0.0,0.0
0.315429688,-0.019163134,0.48734015,-0.8730018,-0.0016633132,0.8731454,0.48745683,0.999815,0.010793277,-0.015921606,0.40331274,0.34372932,-0.8480501,-0.15490076,0.9390382,0.30694124,0.9018562,0.007570294,0.43197,10.025925,0.13160706,-0.15194702,9.804835,0.10584588,-0.1561376,0.016677856,-0.007659912,0.0032958984,-25.79956,39.718628,22.738647,0,0.0,0.0,0.0,0.0
0.323730469,-0.019216193,0.48233044,-0.87577856,-0.001789961,0.87592226,0.48244888,0.99981374,0.01083844,-0.015968539,0.3867271,0.3496042,-0.8533575,-0.15178649,0.93686587,0.3150289,0.90961695,0.007697926,0.4153766,10.015152,0.16630554,-0.14955139,9.804824,0.10628879,-0.15659787,0.018661499,-0.006286621,0.0045166016,-25.738525,39.718628,22.439575,0,0.0,0.0,0.0,0.0
0.33203125,-0.019278657,0.482299,-0.8757946,-0.0017669988,0.8759396,0.48241773,0.9998126,0.010847893,-0.016034715,0.37075925,0.35502142,-0.8581943,-0.14847566,0.9348254,0.32257771,0.91678387,0.007822292,0.39930722,10.001999,0.13998413,-0.15792847,9.804812,0.10638149,-0.15724684,0.0099487305,-0.007507324,0.004058838,-25.738525,39.718628,22.439575,0,0.0,0.0,0.0,0.0
0.340332031,-0.019325573,0.47797903,-0.87815857,-0.0018396885,0.87830406,0.47809872,0.99981153,0.010855071,-0.0160944,0.3629897,0.3576441,-0.8604238,-0.14678833,0.93382466,0.3262279,0.92015857,0.007882805,0.39146674,10.001999,0.13998413,-0.15792847,9.804802,0.106451884,-0.15783215,0.015914917,-0.00491333,0.0028381348,-25.85907,39.959717,22.31903,0,0.0,0.0,0.0,0.0
0.348632813,-0.019379271,0.47795188,-0.87817216,-0.0018069847,0.8783189,0.47807163,0.9998106,0.010851525,-0.01615753,0.3478999,0.3625434,-0.864597,-0.14329517,0.93193257,0.33311895,0.9265161,0.008000508,0.37616998,10.015152,0.122039795,-0.18304443,9.804792,0.10641711,-0.15845124,0.010864258,0.004257202,0.0026855469,-25.85907,39.959717,22.31903,0,0.0,0.0,0.0,0.0
0.356933594,-0.019390048,0.47181967,-0.88148177,-0.0019579227,0.8816279,0.47194096,0.99981004,0.010876833,-0.016171025,0.33335987,0.36723804,-0.868336,-0.13975744,0.9300917,0.33970198,0.93238354,0.008113409,0.36137944,10.019943,0.1375885,-0.16151428,9.804788,0.106665306,-0.15858358,0.01576233,0.0039520264,0.0036010742,-25.79956,40.078735,22.019958,0,0.0,0.0,0.0,0.0
0.365234375,-0.019362297,0.4718338,-0.881475,-0.0019783317,0.88162047,0.47195512,0.9998106,0.010881982,-0.016136749,0.32631126,0.3693823,-0.87010205,-0.13793238,0.9292416,0.34276035,0.93514466,0.008168679,0.35417178,10.019943,0.1375885,-0.16151428,9.804792,0.10671579,-0.15824746,0.020950317,0.0051727295,0.004211426,-25.79956,40.078735,22.019958,0,0.0,0.0,0.0,0.0
0.373535156,-0.019317983,0.47138217,-0.88171744,-0.0019894163,0.8818621,0.4715031,0.9998114,0.010862594,-0.016098024,0.31260934,0.37353802,-0.8733526,-0.1342786,0.927578,0.34866664,0.9403428,0.008276127,0.34012768,10.019943,0.12562561,-0.16749573,9.804801,0.10652565,-0.15786768,0.015914917,0.0076141357,0.00390625,-25.738525,40.019226,21.958923,0,0.0,0.0,0.0,0.0
0.381835938,-0.01925069,0.47141626,-0.8817007,-0.0019931886,0.8818443,0.47153658,0.9998127,0.0108348,-0.01603649,0.29942504,0.37750334,-0.8762624,-0.13062279,0.9259703,0.3542833,0.94513613,0.008378553,0.32656923,10.0247345,0.11843872,-0.16151428,9.804813,0.106253095,-0.15726425,0.01789856,0.012802124,-5.187988E-4,-25.738525,40.019226,21.958923,0,0.0,0.0,0.0,0.0
0.390136719,-0.019181607,0.47186586,-0.8814617,-0.002015552,0.88160384,0.47198585,0.999814,0.010830077,-0.015959507,0.29302207,0.37942493,-0.877596,-0.1288005,0.92518413,0.35699403,0.9473903,0.008427679,0.3199695,10.0247345,0.11843872,-0.16151428,9.804826,0.10620678,-0.15650931,0.008728027,0.009902954,7.019043E-4,-25.498962,40.319824,22.138977,0,0.0,0.0,0.0,0.0
0.3984375,-0.01908228,0.47191533,-0.88143736,-0.0020863172,0.88157713,0.47203535,0.9998157,0.010846469,-0.015837938,0.28058285,0.3831676,-0.88003176,-0.1251796,0.92363954,0.36224318,0.9516319,0.008522813,0.30712217,10.017548,0.13040161,-0.1268158,9.804843,0.10636752,-0.15531711,0.015609741,0.006088257,0.0036010742,-25.498962,40.319824,22.138977,0,0.0,0.0,0.0,0.0
0.406738281,-0.018959822,0.46937075,-0.88279766,-0.0021563908,0.88293517,0.46949017,0.99981797,0.010805106,-0.015728146,0.26862356,0.38675815,-0.8821902,-0.121591136,0.9221409,0.36724883,0.9555402,0.008614831,0.29473513,10.035492,0.12921143,-0.14715576,9.804865,0.1059619,-0.15424043,0.015609741,0.008529663,0.0059051514,-25.2594,40.618896,22.138977,0,0.0,0.0,0.0,0.0
0.415039063,-0.018900257,0.46940005,-0.8827834,-0.0021805079,0.88291967,0.4695192,0.999819,0.010798948,-0.015663877,0.26282686,0.38844448,-0.88319474,-0.11979538,0.9214314,0.3696122,0.9573772,0.008658636,0.2887108,10.035492,0.12921143,-0.14715576,9.804874,0.105901495,-0.15361015,0.01210022,-0.002609253,0.006210327,-25.2594,40.618896,22.138977,0,0.0,0.0,0.0,0.0
0.423339844,-0.01886855,0.47419816,-0.88021594,-0.0020723874,0.8803522,0.474316,0.9998198,0.010773804,-0.015628248,0.25157303,0.39171422,-0.8850259,-0.116239555,0.9200454,0.37417218,0.96083266,0.008743393,0.2769913,10.010376,0.12921143,-0.1375885,9.804884,0.10565493,-0.15326078,0.019424438,-0.0029144287,0.0032958984,-25.079346,41.09955,22.679138,0,0.0,0.0,0.0,0.0
0.431640625,-0.018895883,0.474185,-0.8802224,-0.0020449315,0.8803594,0.4743027,0.9998194,0.010762364,-0.015665494,0.24073371,0.39504772,-0.8865577,-0.11278634,0.9186182,0.3787081,0.96401584,0.008823799,0.26569837,10.011566,0.13279724,-0.16390991,9.804879,0.105542734,-0.15362602,0.011795044,-0.0047454834,-0.0020446777,-25.079346,41.09955,22.679138,0,0.0,0.0,0.0,0.0
0.439941406,-0.018948525,0.4760495,-0.87921435,-0.002006025,0.87935233,0.47616747,0.99981844,0.010786396,-0.015707461,0.23547368,0.3966625,-0.8872491,-0.11107755,0.9179217,0.3808956,0.9655123,0.00886257,0.2602067,10.011566,0.13279724,-0.16390991,9.80487,0.10577842,-0.15403758,0.01789856,-0.0053710938,-0.001739502,-24.659729,41.459656,22.979736,0,0.0,0.0,0.0,0.0
0.448242188,-0.018981112,0.47603425,-0.87922186,-0.0020502848,0.8793599,0.47615325,0.9998177,0.010840574,-0.015715225,0.22525385,0.3998692,-0.88846236,-0.10771918,0.91652864,0.38519067,0.96832705,0.008938753,0.24952519,10.017548,0.14596558,-0.13400269,9.804863,0.10630972,-0.15411371,0.021713257,-0.0055236816,0.0034484863,-24.659729,41.459656,22.979736,0,0.0,0.0,0.0,0.0
0.456542969,-0.019008083,0.48094115,-0.8765468,-0.0019719629,0.87668544,0.48106,0.9998174,0.010872545,-0.01571571,0.21543674,0.4029437,-0.8895074,-0.10441746,0.9151804,0.3892838,0.97091913,0.009014066,0.23923782,10.022339,0.13279724,-0.15194702,9.804859,0.10662325,-0.15411848,0.015151978,-0.0056762695,0.001159668,-24.479675,41.459656,23.278809,0,0.0,0.0,0.0,0.0
0.46484375,-0.019034045,0.4809292,-0.8765528,-0.001967494,0.87669194,0.48104823,0.9998169,0.010880907,-0.015740769,0.21066311,0.40453556,-0.88992816,-0.10281254,0.9144775,0.3913573,0.97213715,0.009051236,0.23423798,10.022339,0.13279724,-0.15194702,9.804854,0.10670525,-0.15436421,0.013320923,-0.0070495605,-9.765625E-4,-24.479675,41.459656,23.278809,0,0.0,0.0,0.0,0.0
0.473144531,-0.019124579,0.4870606,-0.87315875,-0.0018064408,0.8733002,0.48717907,0.99981546,0.010894406,-0.015821654,0.20598516,0.40609413,-0.89031327,-0.101221286,0.91378605,0.39338186,0.9733059,0.009087831,0.22933173,10.015152,0.12083435,-0.18544006,9.80484,0.106837615,-0.15515742,0.014694214,-0.003692627,-0.0014343262,-24.299622,41.63971,23.75946,0,0.0,0.0,0.0,0.0
0.481445313,-0.019172912,0.48703873,-0.87316984,-0.0018002773,0.8733122,0.48715764,0.99981457,0.010912179,-0.015867133,0.19688031,0.40936822,-0.8908736,-0.098135754,0.9123233,0.3975369,0.9755037,0.009159371,0.21979214,10.0295105,0.13639832,-0.16630554,9.8048315,0.10701192,-0.15560342,0.016983032,0.004257202,5.493164E-4,-24.299622,41.63971,23.75946,0,0.0,0.0,0.0,0.0
0.489746094,-0.019153066,0.48803544,-0.87261367,-0.0017982246,0.8727555,0.48815423,0.9998149,0.010918804,-0.015838346,0.18813968,0.4125068,-0.89131457,-0.09510323,0.91090786,0.40150017,0.9775269,0.009228784,0.21060862,10.009171,0.12562561,-0.16390991,9.804835,0.1070769,-0.15532112,0.019424438,0.007461548,0.0045166016,-24.179077,41.63971,23.81897,0,0.0,0.0,0.0,0.0
0.498046875,-0.019106539,0.48805636,-0.872603,-0.0018278919,0.8727437,0.4881751,0.9998157,0.01092236,-0.015782997,0.18390064,0.41404817,-0.8914845,-0.09361262,0.91020787,0.4034332,0.97847694,0.009262585,0.20614792,10.023529,0.14237976,-0.13877869,9.804843,0.10711177,-0.15477833,0.01576233,0.012496948,-0.0020446777,-24.179077,41.63971,23.81897,0,0.0,0.0,0.0,0.0
0.506347656,-0.019028721,0.48809135,-0.8725851,-0.0019251327,0.87272364,0.4882108,0.9998171,0.010969869,-0.015667174,0.17568214,0.41703653,-0.891749,-0.09067591,0.90884185,0.4071663,0.98026204,0.009328312,0.19748245,10.0295105,0.14476013,-0.1531372,9.804856,0.10757767,-0.15364249,0.014083862,0.011886597,-0.0020446777,-24.179077,41.63971,23.81897,0,0.0,0.0,0.0,0.0
0.514648438,-0.018980157,0.48771703,-0.8727954,-0.0020116768,0.8729323,0.48783726,0.99981785,0.011015011,-0.015587265,0.16779952,0.4199038,-0.8919216,-0.087803006,0.90752,0.4107287,0.9819032,0.009393319,0.18915024,10.0295105,0.14476013,-0.1531372,9.804864,0.10802036,-0.15285885,0.01713562,-1.6784668E-4,0.0014648438,-24.479675,41.459656,23.699951,0,0.0,0.0,0.0,0.0
0.522949219,-0.018960452,0.48622158,-0.87362975,-0.002075958,0.87376577,0.4863423,0.999818,0.011034891,-0.01555762,0.16398054,0.42128527,-0.8919804,-0.086389706,0.9068792,0.41244024,0.9826735,0.009425752,0.18510526,10.015152,0.13998413,-0.13998413,9.804866,0.10821532,-0.15256813,0.014541626,1.373291E-4,0.0068206787,-24.479675,41.519165,23.638916,0,0.0,0.0,0.0,0.0
0.53125,-0.01892241,0.48623905,-0.873621,-0.0020835935,0.8737563,0.4863595,0.99981874,0.011023364,-0.01552045,0.15658216,0.4239017,-0.89207023,-0.0836013,0.9056585,0.41568437,0.98412037,0.009489475,0.17724872,9.999603,0.12562561,-0.124420166,9.8048725,0.10810228,-0.15220362,0.018508911,-0.0013885498,0.0013122559,-24.479675,41.519165,23.638916,0,0.0,0.0,0.0,0.0
0.539550781,-0.018949201,0.49092418,-0.8709962,-0.0019963295,0.87113225,0.4910443,0.99981844,0.011043694,-0.015527216,0.14948508,0.42641196,-0.89209145,-0.08087918,0.90447867,0.41878027,0.98545057,0.009550218,0.16969393,10.031906,0.14117432,-0.14356995,9.80487,0.10830165,-0.15226997,0.013320923,-0.0055236816,0.0049743652,-24.899292,40.979004,23.638916,0,0.0,0.0,0.0,0.0
0.547851563,-0.01897602,0.49091163,-0.8710027,-0.0019732267,0.8711394,0.4910317,0.99981797,0.011036513,-0.015562079,0.1460365,0.4277254,-0.8920338,-0.07955919,0.90385795,0.42037025,0.9860749,0.009580088,0.16602574,10.018753,0.12083435,-0.1483612,9.804865,0.108231224,-0.15261187,0.016677856,-0.0073547363,0.001159668,-24.899292,40.979004,23.638916,0,0.0,0.0,0.0,0.0
0.556152344,-0.019030433,0.49088618,-0.8710159,-0.0019180076,0.8711542,0.491006,0.9998171,0.01101467,-0.015636913,0.1393498,0.43027097,-0.8918792,-0.07696578,0.9026484,0.42344096,0.98724765,0.009637763,0.15890001,10.023529,0.119644165,-0.17108154,9.804856,0.10801702,-0.15334575,0.01423645,-0.0056762695,0.0071258545,-24.899292,40.979004,23.638916,0,0.0,0.0,0.0,0.0
0.564453125,-0.01906814,0.48512292,-0.87423813,-0.0019758344,0.8743771,0.4852431,0.9998162,0.010980032,-0.01571422,0.13293391,0.43271145,-0.8916778,-0.07443442,0.9014804,0.42637148,0.9883259,0.009692289,0.15204595,10.023529,0.119644165,-0.17108154,9.804848,0.10767734,-0.15410388,0.014541626,-0.0032196045,0.0019226074,-25.019836,40.859985,23.2193,0,0.0,0.0,0.0,0.0
0.572753906,-0.019051263,0.48527306,-0.8741551,-0.0019784844,0.8742937,0.48539314,0.9998165,0.010976854,-0.015696293,0.12983343,0.4337751,-0.89161795,-0.07317459,0.9009688,0.42766896,0.98883206,0.009718045,0.14871718,10.025925,0.13279724,-0.114852905,9.804851,0.10764617,-0.15392806,0.01713562,-0.0012359619,2.4414063E-4,-24.958801,40.73944,23.15979,0,0.0,0.0,0.0,0.0
0.581054688,-0.019030247,0.48528302,-0.87415,-0.0020011785,0.8742881,0.48540324,0.9998169,0.010986674,-0.01566678,0.12382234,0.43584335,-0.8914643,-0.0707082,0.8999696,0.43018037,0.989782,0.009767894,0.14225404,10.025925,0.14356995,-0.15792847,9.804854,0.107742466,-0.15363863,0.01576233,-0.005050659,0.004211426,-24.958801,40.73944,23.15979,0,0.0,0.0,0.0,0.0
0.589355469,-0.019055732,0.48327935,-0.87525874,-0.0020262222,0.87539726,0.48339996,0.9998164,0.010985009,-0.015702106,0.11805647,0.43782794,-0.89127403,-0.068312,0.89900523,0.43257734,0.99065447,0.009816159,0.13604228,10.035492,0.12802124,-0.1603241,9.80485,0.10772614,-0.15398505,0.015609741,-0.002609253,8.544922E-4,-25.019836,40.73944,23.039246,0,0.0,0.0,0.0,0.0
0.59765625,-0.019081626,0.483267,-0.8752651,-0.0020199344,0.87540406,0.48338777,0.9998159,0.010991802,-0.015727965,0.11526444,0.43874863,-0.8911867,-0.067134075,0.89855593,0.4336937,0.99106365,0.009839536,0.13302654,10.005585,0.12562561,-0.1531372,9.804845,0.10779276,-0.15423866,0.021102905,-0.001083374,0.0019226074,-25.019836,40.73944,23.039246,0,0.0,0.0,0.0,0.0
0.605957031,-0.019166661,0.4832264,-0.87528557,-0.0020121406,0.875426,0.48334798,0.9998143,0.0110253645,-0.015806673,0.10985001,0.4405333,-0.89099014,-0.06483033,0.89768183,0.435849,0.99183166,0.009885165,0.12717028,10.022339,0.15434265,-0.19740295,9.804829,0.108121894,-0.15501052,0.015609741,-0.0039978027,0.0057373047,-25.019836,40.73944,23.039246,0,0.0,0.0,0.0,0.0
0.614257813,-0.019155966,0.47431287,-0.8801478,-0.0021547698,0.8802877,0.47443515,0.99981415,0.010984781,-0.015840728,0.104652174,0.44224402,-0.8907683,-0.06259535,0.8968398,0.43790436,0.992537,0.009930316,0.121538654,10.011566,0.105285645,-0.17706299,9.804828,0.10772391,-0.15534447,0.019882202,0.004257202,0.0014648438,-25.019836,40.73944,22.499084,0,0.0,0.0,0.0,0.0
0.622558594,-0.01913208,0.47664583,-0.8788872,-0.0021308041,0.87902665,0.47676784,0.9998147,0.0109942965,-0.015801968,0.10214512,0.44289118,-0.89073783,-0.06148172,0.89652014,0.4387159,0.99286777,0.009951406,0.118804865,10.00679,0.13400269,-0.1483612,9.804833,0.10781723,-0.15496439,0.019882202,0.0054779053,0.0046691895,-24.958801,41.038513,22.799683,0,0.0,0.0,0.0,0.0
0.630859375,-0.019105002,0.47665873,-0.8788808,-0.0021515656,0.87901956,0.47678077,0.9998151,0.010999867,-0.015768107,0.0949188,0.44489443,-0.8905388,-0.058266565,0.89552706,0.44117606,0.99377835,0.010012736,0.110924825,10.0295105,0.15074158,-0.14117432,9.804837,0.107871845,-0.15463232,0.016067505,-0.0027618408,-0.0023498535,-24.958801,41.038513,22.799683,0,0.0,0.0,0.0,0.0
0.639160156,-0.019114995,0.47665396,-0.8788831,-0.002193876,0.8790215,0.47677675,0.9998148,0.0110417465,-0.015756773,0.0949188,0.44489443,-0.8905388,-0.058266565,0.89552706,0.44117606,0.99377835,0.010012736,0.110924825,10.0295105,0.15074158,-0.14117432,9.804834,0.10828254,-0.15452117,0.016067505,-0.0027618408,-0.0023498535,-24.958801,41.038513,22.799683,0,0.0,0.0,0.0,0.0
0.647460938,-0.0191336,0.47338375,-0.88064843,-0.0023137252,0.88078636,0.47350818,0.9998143,0.0110974945,-0.015757333,0.09034427,0.44616324,-0.89037985,-0.056212958,0.89489514,0.44272205,0.9943229,0.010053485,0.1059288,10.011566,0.13639832,-0.17347717,9.804829,0.108829245,-0.15452667,0.010116577,-0.0015411377,0.0032958984,-24.899292,41.519165,22.859192,0,0.0,0.0,0.0,0.0
0.655761719,-0.019176276,0.4770605,-0.87866116,-0.0022357958,0.8788001,0.4771847,0.99981356,0.011115134,-0.015785504,0.085961126,0.44724935,-0.8902689,-0.05421646,0.8943523,0.44406584,0.9948222,0.010094829,0.1011278,10.035492,0.13400269,-0.16151428,9.804822,0.109002225,-0.15480292,0.014389038,0.0019683838,0.0010070801,-24.719238,41.218567,22.918701,0,0.0,0.0,0.0,0.0
0.6640625,-0.019186037,0.4770559,-0.8786634,-0.0022447323,0.8788024,0.4771804,0.9998134,0.011127566,-0.015789874,0.08383112,0.44785067,-0.8901698,-0.053250927,0.8940512,0.4447886,0.99505615,0.010115235,0.098797776,10.013962,0.1531372,-0.12921143,9.80482,0.10912415,-0.15484577,0.008880615,-0.0023040771,2.4414063E-4,-24.719238,41.218567,22.918701,0,0.0,0.0,0.0,0.0
0.672363281,-0.019174654,0.47347152,-0.88060033,-0.0023817937,0.8807381,0.47359744,0.99981326,0.011178477,-0.015760139,0.07970017,0.44901666,-0.8899618,-0.051368814,0.8934657,0.44618422,0.9954944,0.010155323,0.09427483,10.035492,0.12802124,-0.14476013,9.804819,0.10962341,-0.15455416,0.020187378,-0.0030822754,0.0057373047,-24.598694,41.519165,22.859192,0,0.0,0.0,0.0,0.0
0.680664063,-0.019222545,0.47344914,-0.8806113,-0.0023751347,0.88074994,0.47357553,0.9998124,0.011194899,-0.015805751,0.0757442,0.44999173,-0.88981473,-0.049540333,0.8929745,0.44737265,0.9958959,0.01019584,0.08993038,10.022339,0.14117432,-0.16870117,9.804811,0.109784454,-0.15500148,0.015914917,-0.0016937256,0.0032958984,-24.598694,41.519165,22.859192,0,0.0,0.0,0.0,0.0
0.688964844,-0.019265004,0.47342938,-0.88062114,-0.0023590229,0.8807606,0.47355598,0.99981165,0.011200462,-0.015851025,0.07382536,0.45046404,-0.889737,-0.04864985,0.89273614,0.44794574,0.99608386,0.010215821,0.08782157,10.022339,0.14117432,-0.16870117,9.804803,0.10983901,-0.15544546,0.016067505,-0.0015411377,0.0032958984,-24.598694,41.519165,22.859192,0,0.0,0.0,0.0,0.0
0.697265625,-0.019289738,0.47549406,-0.8795075,-0.0023304094,0.87964743,0.4756208,0.99981123,0.011224212,-0.01586007,0.07010225,0.45137936,-0.8895743,-0.046914972,0.89227325,0.44905174,0.996436,0.010254812,0.08372681,10.019943,0.14237976,-0.15792847,9.804799,0.11007192,-0.15553416,0.021865845,0.0018157959,-5.187988E-4,-24.299622,41.519165,22.979736,0,0.0,0.0,0.0,0.0
0.705566406,-0.01929856,0.47549,-0.87950945,-0.002346004,0.87964934,0.4756171,0.99981105,0.011242058,-0.015860464,0.06652378,0.45234078,-0.88936067,-0.045247704,0.89178574,0.4501897,0.99675834,0.010293202,0.07979234,10.016357,0.13400269,-0.16749573,9.804797,0.110246934,-0.15553802,0.008422852,0.004714966,0.0029907227,-24.299622,41.519165,22.979736,0,0.0,0.0,0.0,0.0
0.713867188,-0.019281778,0.4768032,-0.87879854,-0.0023581828,0.8789379,0.47693056,0.99981135,0.011268437,-0.015823096,0.064788885,0.45280686,-0.88925153,-0.04443632,0.891549,0.45073918,0.99690914,0.010312178,0.077883534,10.009171,0.14237976,-0.1483612,9.8048,0.11050562,-0.15517157,0.008422852,-1.5258789E-5,9.1552734E-5,-24.598694,41.578674,23.098755,0,0.0,0.0,0.0,0.0
0.722167969,-0.019271392,0.47732463,-0.8785157,-0.002385518,0.8786544,0.4774523,0.9998114,0.011296886,-0.015794227,0.061422504,0.4537635,-0.8890028,-0.042861518,0.891062,0.45185325,0.9971911,0.010350047,0.07418025,10.018753,0.14117432,-0.14237976,9.804801,0.11078461,-0.15488847,0.0137786865,0.0021209717,0.0048217773,-24.41864,41.63971,23.15979,0,0.0,0.0,0.0,0.0
0.73046875,-0.019244999,0.47733676,-0.8785097,-0.002412913,0.8786477,0.47746462,0.9998119,0.011308574,-0.015757803,0.058191374,0.45470282,-0.8887401,-0.041344643,0.8905826,0.45293838,0.9974489,0.010387542,0.070623755,10.036697,0.12921143,-0.12562561,9.804806,0.11089923,-0.15453126,0.013015747,4.4250488E-4,0.0060424805,-24.41864,41.63971,23.15979,0,0.0,0.0,0.0,0.0
0.738769531,-0.019183775,0.47736487,-0.87849575,-0.0024162554,0.8786328,0.4774921,0.9998131,0.011282771,-0.015702058,0.056625515,0.45515847,-0.8886081,-0.0406068,0.8903497,0.4534629,0.9975694,0.010405962,0.068899035,10.036697,0.12921143,-0.12562561,9.804817,0.11064619,-0.15398459,0.0137786865,0.0012054443,0.006515503,-24.41864,41.63971,23.15979,0,0.0,0.0,0.0,0.0
0.747070313,-0.019147702,0.48172477,-0.87611336,-0.0023080423,0.8762504,0.48185053,0.999814,0.011248437,-0.015666338,0.052120686,0.45647246,-0.88820964,-0.03847155,0.8896761,0.45496854,0.99789953,0.010457527,0.06393173,10.017548,0.1483612,-0.1651001,9.804826,0.11030948,-0.1536343,0.013458252,-0.006134033,0.0060424805,-24.598694,41.578674,23.399353,0,0.0,0.0,0.0,0.0
0.755371094,-0.019141944,0.48172742,-0.87611204,-0.0022552633,0.8762496,0.48185232,0.9998143,0.011199454,-0.015686698,0.050676998,0.45698124,-0.88803154,-0.037789837,0.8894147,0.45553645,0.9979999,0.0104733445,0.06234211,9.999603,0.122039795,-0.1483612,9.804829,0.10982913,-0.15383396,0.015914917,-0.0067443848,0.0063476563,-24.598694,41.578674,23.399353,0,0.0,0.0,0.0,0.0
0.763671875,-0.019142618,0.48109433,-0.8764598,-0.0022172043,0.8765978,0.48121852,0.9998143,0.0111550735,-0.015713694,0.049262833,0.45747972,-0.8878544,-0.03711898,0.8891582,0.45609197,0.99809587,0.0104878675,0.06078363,10.033112,0.124420166,-0.14955139,9.804829,0.1093939,-0.1540987,0.014694214,-9.3078613E-4,0.0072631836,-24.479675,41.218567,23.15979,0,0.0,0.0,0.0,0.0
0.771972656,-0.019190282,0.48957345,-0.87175095,-0.001974896,0.87189126,0.4896957,0.99981385,0.011119015,-0.01576498,0.046521634,0.45842123,-0.88751656,-0.035809197,0.8886728,0.4571414,0.9982753,0.010514288,0.057758212,10.011566,0.124420166,-0.17826843,9.804825,0.10904028,-0.15460163,0.010116577,-0.0044403076,5.493164E-4,-24.179077,41.038513,23.579407,0,0.0,0.0,0.0,0.0
0.780273438,-0.019227078,0.48955673,-0.87175953,-0.0019410928,0.8719008,0.48967886,0.99981326,0.0111072585,-0.015813828,0.04518538,0.45905003,-0.8872606,-0.035179295,0.88834804,0.4578211,0.99835896,0.010526382,0.056289397,10.011566,0.124420166,-0.17826843,9.804819,0.108925,-0.15508068,0.015457153,-0.0030822754,0.0013122559,-24.179077,41.038513,23.579407,0,0.0,0.0,0.0,0.0
0.788574219,-0.019255914,0.4895436,-0.87176627,-0.0019406676,0.871908,0.48966604,0.9998127,0.011120774,-0.015839342,0.042593427,0.46026883,-0.88675725,-0.033950187,0.8877169,0.45913622,0.9985154,0.010549385,0.053437117,10.015152,0.12802124,-0.15553284,9.804813,0.10905754,-0.15533088,0.021255493,-0.0018463135,0.0019226074,-24.179077,41.038513,23.579407,0,0.0,0.0,0.0,0.0
0.796875,-0.019269472,0.48774776,-0.87277186,-0.0019735754,0.8729137,0.4878706,0.9998124,0.0111234905,-0.01585798,0.040106088,0.46143803,-0.8862655,-0.032762926,0.88710946,0.46039486,0.9986581,0.010572013,0.050696544,10.005585,0.13877869,-0.15792847,9.804811,0.10908418,-0.15551366,0.021560669,-0.0029144287,7.019043E-4,-24.659729,41.218567,23.579407,0,0.0,0.0,0.0,0.0
0.805175781,-0.019300595,0.48773336,-0.87277925,-0.0019750847,0.87292165,0.48785657,0.9998118,0.0111397365,-0.015884593,0.03890161,0.46196833,-0.8860429,-0.03218289,0.88683325,0.4609675,0.99872464,0.010583043,0.049366713,10.005585,0.13877869,-0.15792847,9.804805,0.1092435,-0.15577465,0.012710571,-0.0056762695,0.0017700195,-24.659729,41.218567,23.579407,0,0.0,0.0,0.0,0.0
0.813476563,-0.019324161,0.48761845,-0.87284297,-0.001960474,0.8729858,0.48774165,0.99981135,0.011136385,-0.015913757,0.036564853,0.46299636,-0.88560563,-0.031053111,0.88629675,0.46207553,0.99884874,0.010605089,0.04678479,10.011566,0.12322998,-0.15672302,9.8048,0.10921063,-0.15606064,0.011795044,7.4768066E-4,0.005126953,-24.598694,41.33911,23.638916,0,0.0,0.0,0.0,0.0
0.821777344,-0.019301295,0.49011353,-0.8714449,-0.0018828893,0.8715879,0.49023563,0.9998119,0.011103017,-0.015899945,0.034322217,0.46397838,-0.88518137,-0.02996204,0.8857828,0.46313187,0.9989616,0.010626128,0.04430377,10.035492,0.107681274,-0.13639832,9.804806,0.10888341,-0.1559252,0.008422852,-0.0033874512,0.0049743652,-24.899292,41.159058,23.699951,0,0.0,0.0,0.0,0.0
0.830078125,-0.019273646,0.49012646,-0.8714382,-0.0018601762,0.87158096,0.4902479,0.9998125,0.011069894,-0.015886823,0.033234183,0.46450517,-0.8849466,-0.029432453,0.8855066,0.46369377,0.99901414,0.010635667,0.043100614,10.035492,0.107681274,-0.13639832,9.8048115,0.10855857,-0.15579651,0.0128479,-0.0033874512,8.544922E-4,-24.899292,41.159058,23.699951,0,0.0,0.0,0.0,0.0
0.838378906,-0.019246874,0.49013895,-0.87143177,-0.0018903101,0.8715738,0.4902606,0.99981296,0.011083261,-0.015848558,0.03112565,0.46552745,-0.88448596,-0.028400132,0.8849693,0.46478245,0.99911195,0.0106528625,0.040766288,10.004395,0.13040161,-0.12322998,9.804816,0.108689666,-0.15542127,0.01423645,0.0018157959,-0.0020446777,-24.899292,41.159058,23.699951,0,0.0,0.0,0.0,0.0
0.846679688,-0.019194381,0.48302254,-0.87539756,-0.0020914986,0.8755375,0.48314562,0.99981356,0.011104573,-0.015795158,0.029103735,0.46650916,-0.88403744,-0.027405147,0.884452,0.4658257,0.99920064,0.010669907,0.038525607,10.04985,0.13160706,-0.15434265,9.804822,0.10889866,-0.15489759,0.014846802,-0.0012359619,0.0029907227,-25.019836,40.979004,23.15979,0,0.0,0.0,0.0,0.0
0.854980469,-0.01919985,0.4830199,-0.8753988,-0.0020986157,0.8755388,0.48314318,0.9998135,0.011113403,-0.015796542,0.028128866,0.46684104,-0.8838938,-0.026917154,0.88427675,0.46618676,0.9992418,0.0106786,0.037439737,10.04985,0.13160706,-0.15434265,9.804821,0.10898526,-0.15491116,0.01499939,-0.0030822754,0.0031433105,-25.019836,40.979004,23.15979,0,0.0,0.0,0.0,0.0
0.86328125,-0.019178415,0.4805302,-0.8767685,-0.0021714615,0.8769077,0.48065397,0.9998137,0.011122049,-0.015774244,0.026238007,0.4674848,-0.88361156,-0.025968382,0.88393635,0.46688554,0.99931836,0.010695818,0.035332553,10.037888,0.13160706,-0.14237976,9.804824,0.109070055,-0.1546925,0.015457153,-0.0016937256,0.005584717,-25.019836,41.038513,23.039246,0,0.0,0.0,0.0,0.0
0.871582031,-0.019151038,0.47929746,-0.8774436,-0.00219773,0.87758225,0.47942114,0.99981415,0.011109795,-0.015753241,0.024426792,0.4680034,-0.88338906,-0.025052525,0.88366175,0.46745512,0.9993877,0.010712697,0.033309687,10.016357,0.12562561,-0.13639832,9.804829,0.108949885,-0.15448654,0.013015747,-0.0070495605,0.005584717,-25.019836,41.39862,23.15979,0,0.0,0.0,0.0,0.0
0.879882813,-0.019146087,0.47929975,-0.8774424,-0.0021691108,0.8775813,0.47942296,0.99981433,0.011082344,-0.015762595,0.023549747,0.46823007,-0.8832927,-0.024606787,0.8835415,0.46770594,0.9994198,0.010720639,0.032328818,10.016357,0.12562561,-0.13639832,9.80483,0.108680665,-0.15457825,0.016525269,-0.0019989014,0.0036010742,-25.019836,41.39862,23.15979,0,0.0,0.0,0.0,0.0
0.888183594,-0.019180732,0.47928342,-0.87745064,-0.0021652286,0.8775901,0.47940695,0.9998137,0.011095256,-0.015795061,0.02184886,0.4686699,-0.88310313,-0.02373948,0.8833082,0.46819133,0.99947935,0.010734962,0.030425252,10.022339,0.13279724,-0.1603241,9.804823,0.10880729,-0.15489665,0.016067505,-0.0030822754,-2.1362305E-4,-25.019836,41.39862,23.15979,0,0.0,0.0,0.0,0.0
0.896484375,-0.01922786,0.48486125,-0.87437963,-0.0020347852,0.87452054,0.48498413,0.9998131,0.011104383,-0.01582857,0.020214511,0.4690915,-0.8829182,-0.022904575,0.8830842,0.46865526,0.99953324,0.010749229,0.028595455,10.037888,0.10887146,-0.1603241,9.804816,0.108896784,-0.15522525,0.020492554,0.004257202,0.007736206,-24.958801,41.63971,23.638916,0,0.0,0.0,0.0,0.0
0.904785156,-0.01920533,0.48487177,-0.8743744,-0.001998941,0.8745153,0.48499385,0.99981356,0.011062289,-0.015826125,0.019418549,0.4694084,-0.8827676,-0.022501368,0.8829157,0.46899217,0.99955815,0.0107563315,0.02770727,10.037888,0.10887146,-0.1603241,9.804822,0.108484,-0.15520127,0.019119263,0.0034942627,0.005584717,-24.958801,41.63971,23.638916,0,0.0,0.0,0.0,0.0
0.913085938,-0.019177053,0.48559487,-0.8739736,-0.0020090407,0.8741138,0.48571688,0.99981403,0.0110704675,-0.015787348,0.017875599,0.47002354,-0.8824729,-0.021715835,0.88258815,0.4696451,0.99960434,0.010768447,0.025983745,10.0295105,0.15434265,-0.14955139,9.804827,0.108564205,-0.154821,0.015151978,0.0019683838,0.0048217773,-24.778748,41.459656,23.579407,0,0.0,0.0,0.0,0.0
0.921386719,-0.019165792,0.48624897,-0.87361014,-0.0020311703,0.8737499,0.48637134,0.9998143,0.011096141,-0.015758453,0.01639529,0.47064304,-0.88217133,-0.0209609,0.8822578,0.4702996,0.9996458,0.010780406,0.024329975,10.018753,0.1375885,-0.1603241,9.804829,0.108815975,-0.15453763,0.019729614,0.004714966,0.0010070801,-24.479675,41.39862,23.579407,0,0.0,0.0,0.0,0.0
0.9296875,-0.019158911,0.4862521,-0.8736085,-0.0020606318,0.8737479,0.48637486,0.99981433,0.011118597,-0.01573807,0.015677564,0.47095665,-0.882017,-0.020594895,0.8820904,0.47062975,0.99966496,0.010786721,0.02352833,10.018753,0.1375885,-0.1603241,9.80483,0.10903619,-0.15433775,0.015151978,0.0062408447,-8.239746E-4,-24.479675,41.39862,23.579407,0,0.0,0.0,0.0,0.0
0.937988281,-0.01911863,0.48627055,-0.87359905,-0.0021114363,0.87373716,0.48639363,0.999815,0.011143729,-0.015677929,0.014286025,0.47156516,-0.88171554,-0.019884456,0.8817651,0.4712695,0.99970025,0.010799864,0.021973735,10.025925,0.13400269,-0.14476013,9.804835,0.10928264,-0.15374796,0.0124053955,0.004257202,0.0049743652,-24.479675,41.39862,23.579407,0,0.0,0.0,0.0,0.0
0.946289063,-0.01909655,0.4905673,-0.8711941,-0.0020446847,0.87133205,0.49068975,0.9998155,0.011151796,-0.015636375,0.01361226,0.47186053,-0.88156813,-0.019540187,0.88160694,0.4715796,0.9997164,0.01080674,0.021220906,10.025925,0.13400269,-0.14476013,9.804841,0.10936177,-0.15334046,0.0137786865,-0.0027618408,0.004211426,-24.299622,41.459656,23.878479,0,0.0,0.0,0.0,0.0
0.954589844,-0.019094924,0.490568,-0.8711937,-0.0020233942,0.8713318,0.4906901,0.9998156,0.011132458,-0.015645402,0.012303116,0.4726055,-0.8811882,-0.0188743,0.8812077,0.4723524,0.99974614,0.010820406,0.019761698,10.009171,0.13160706,-0.16989136,9.804842,0.10917212,-0.15342897,0.012237549,0.0028839111,0.0036010742,-24.299622,41.459656,23.878479,0,0.0,0.0,0.0,0.0
0.962890625,-0.01906961,0.48859477,-0.8723024,-0.0020601945,0.87244,0.48871684,0.999816,0.011116753,-0.015630491,0.011046814,0.4733206,-0.880821,-0.018231783,0.8808236,0.4730934,0.9997728,0.010832761,0.018359775,10.011566,0.124420166,-0.16390991,9.804846,0.10901811,-0.15328276,0.0124053955,0.0062408447,8.544922E-4,-24.238586,41.578674,23.81897,0,0.0,0.0,0.0,0.0
0.971191406,-0.01905802,0.4886,-0.8722997,-0.0020750524,0.8724369,0.48872218,0.9998162,0.011124145,-0.01561305,0.010439053,0.47362754,-0.8806634,-0.017918788,0.8806586,0.4734125,0.99978495,0.010838442,0.017680073,10.011566,0.124420166,-0.16390991,9.804848,0.109090604,-0.15311173,0.020492554,-6.2561035E-4,8.544922E-4,-24.238586,41.578674,23.81897,0,0.0,0.0,0.0,0.0
0.979492188,-0.019092988,0.4980621,-0.8669311,-0.0018886821,0.8670696,0.49818328,0.9998159,0.011149167,-0.015614271,0.009260863,0.47422302,-0.8803561,-0.017310828,0.88033783,0.47403118,0.99980724,0.010849755,0.016361883,10.016357,0.12921143,-0.15074158,9.804845,0.10933598,-0.15312369,0.018356323,-0.002609253,-0.0014343262,-24.119568,41.578674,24.41864,0,0.0,0.0,0.0,0.0
0.987792969,-0.019087065,0.49806476,-0.8669297,-0.0018790797,0.86706835,0.49818575,0.9998161,0.011137934,-0.0156138865,0.00812221,0.4751739,-0.87985444,-0.016729688,0.8798249,0.4750035,0.999827,0.010861612,0.0150956325,10.034302,0.10887146,-0.13519287,9.804847,0.109225824,-0.15311992,0.016525269,0.0013580322,0.006958008,-24.119568,41.578674,24.41864,0,0.0,0.0,0.0,0.0
0.99609375,-0.0190603,0.50146896,-0.8649656,-0.0017852541,0.8651044,0.5015887,0.9998168,0.011104616,-0.015593902,0.0075704814,0.47563496,-0.87961024,-0.01644673,0.8795756,0.47547477,0.9998361,0.010867137,0.0144814495,10.034302,0.10887146,-0.13519287,9.804853,0.10889909,-0.15292394,0.0055236816,-0.0016937256,2.4414063E-4,-24.41864,41.39862,24.539185,0,0.0,0.0,0.0,0.0
1.004394531,-0.019049643,0.5014737,-0.8649631,-0.0017990535,0.8651016,0.5015936,0.99981695,0.011111294,-0.015577698,0.006499733,0.4766661,-0.8790604,-0.015896322,0.8790172,0.4765251,0.99985254,0.010876542,0.013290615,10.02832,0.12921143,-0.12921143,9.804855,0.10896457,-0.15276504,0.015304565,-0.008880615,-0.0018920898,-24.41864,41.39862,24.539185,0,0.0,0.0,0.0,0.0
1.012695313,-0.019137328,0.50329745,-0.86390126,-0.0017567528,0.86404127,0.50341797,0.99981534,0.011151736,-0.015651273,0.00547314,0.4776559,-0.87852997,-0.015365943,0.8784796,0.47753277,0.99986696,0.010885838,0.012147675,10.011566,0.13639832,-0.16870117,9.804839,0.10936117,-0.15348656,0.018661499,-0.0058288574,-0.0015869141,-24.179077,41.09955,24.479675,0,0.0,0.0,0.0,0.0
1.020996094,-0.019222034,0.50325966,-0.8639214,-0.0017523635,0.8640627,0.503381,0.9998137,0.0111899115,-0.01572715,0.004973147,0.47817284,-0.8782517,-0.015107981,0.8781982,0.4780582,0.9998735,0.010891156,0.011591636,10.011566,0.13639832,-0.16870117,9.804823,0.10973555,-0.15423065,0.018356323,-0.0055236816,0.0031433105,-24.179077,41.09955,24.479675,0,0.0,0.0,0.0,0.0
1.029296875,-0.019289715,0.4979154,-0.8670111,-0.0018522674,0.8671531,0.49803817,0.9998122,0.011212951,-0.015804864,0.004000721,0.4791739,-0.8777108,-0.014605759,0.8776523,0.47907534,0.9998853,0.010902986,0.01050994,10.023529,0.14117432,-0.17706299,9.804809,0.10996148,-0.15499277,0.022323608,-0.0033874512,0.0032958984,-24.41864,40.73944,23.939514,0,0.0,0.0,0.0,0.0
1.037597656,-0.019312628,0.49790487,-0.8670165,-0.0018158834,0.8671593,0.49802732,0.9998118,0.011192619,-0.01584299,0.0030680345,0.47992033,-0.8773067,-0.014119824,0.87724423,0.47983673,0.99989563,0.010915261,0.009467807,10.018753,0.119644165,-0.15672302,9.804805,0.1097621,-0.15536666,0.012542725,-0.002456665,0.005126953,-24.41864,40.73944,23.939514,0,0.0,0.0,0.0,0.0
1.045898438,-0.019298699,0.48888904,-0.8721325,-0.0019817152,0.8722746,0.4890125,0.9998118,0.011165624,-0.015864925,0.0026154825,0.480282,-0.87711024,-0.013882834,0.87704617,0.48020554,0.9999002,0.010920808,0.008961575,10.018753,0.119644165,-0.15672302,9.804805,0.10949737,-0.15558177,0.016220093,-0.002456665,0.005126953,-24.41864,41.09955,23.579407,0,0.0,0.0,0.0,0.0
1.054199219,-0.019305672,0.48888576,-0.8721341,-0.0019333935,0.8722767,0.48900852,0.9998117,0.011126819,-0.015894685,0.0017430834,0.48062372,-0.87692523,-0.013419799,0.87685883,0.48056066,0.99990845,0.010930503,0.007978311,10.017548,0.11843872,-0.17468262,9.804804,0.10911682,-0.15587361,0.015151978,0.003189087,0.002532959,-24.41864,41.09955,23.579407,0,0.0,0.0,0.0,0.0
1.0625,-0.019300768,0.48833126,-0.87244487,-0.0019160076,0.8725878,0.48845363,0.9998119,0.011099142,-0.015905969,9.0530096E-4,0.48095164,-0.87674665,-0.012972547,0.8766789,0.4809011,0.9999154,0.010938277,0.0070328256,10.013962,0.12921143,-0.16989136,9.804806,0.108845405,-0.15598427,0.01713562,4.4250488E-4,0.0063476563,-24.479675,41.159058,23.579407,0,0.0,0.0,0.0,0.0
1.070800781,-0.019304302,0.48832968,-0.8724457,-0.0018867832,0.872589,0.48845163,0.9998119,0.011075333,-0.015923347,9.0530096E-4,0.48095164,-0.87674665,-0.012972547,0.8766789,0.4809011,0.9999154,0.010938277,0.0070328256,10.013962,0.12921143,-0.16989136,9.804805,0.108611904,-0.15615468,0.01713562,4.4250488E-4,0.0063476563,-24.479675,41.159058,23.579407,0,0.0,0.0,0.0,0.0
1.079101563,-0.01929961,0.48293123,-0.87544554,-0.001976951,0.8755885,0.48305368,0.9998118,0.011053462,-0.015943786,-2.8823735E-4,0.4813865,-0.8765083,-0.012330279,0.87644005,0.48135304,0.99992394,0.010946337,0.005683007,10.010376,0.122039795,-0.1758728,9.804805,0.10839743,-0.15635514,0.013320923,0.0048675537,0.0020751953,-24.539185,41.218567,23.278809,0,0.0,0.0,0.0,0.0
1.087402344,-0.019262293,0.4829485,-0.8754369,-0.0019959453,0.87557906,0.48307085,0.9998125,0.011052377,-0.015901722,-0.0010418585,0.4814477,-0.8764742,-0.011921633,0.8764064,0.48142466,0.9999284,0.01095058,0.0048265513,10.00798,0.13160706,-0.14117432,9.8048115,0.10838679,-0.15594262,0.012237549,0.0025787354,0.0048217773,-24.539185,41.218567,23.278809,0,0.0,0.0,0.0,0.0
1.095703125,-0.019216094,0.48298448,-0.87541807,-0.0020135012,0.8755593,0.48310658,0.9998133,0.011046077,-0.01585234,-0.0014066361,0.48147774,-0.87645715,-0.011723766,0.87638986,0.4814596,0.9999303,0.010952617,0.0044119707,10.00798,0.13160706,-0.14117432,9.80482,0.10832502,-0.15545836,0.015151978,0.005783081,0.004211426,-24.778748,41.09955,23.2193,0,0.0,0.0,0.0,0.0
1.104003906,-0.019165702,0.48300806,-0.8754061,-0.0020231223,0.87554634,0.48312977,0.9998143,0.011030575,-0.015803277,-0.0021125628,0.48153746,-0.87642294,-0.011340482,0.87635696,0.48152858,0.9999335,0.010956318,0.0036095083,10.00679,0.13160706,-0.13519287,9.804829,0.10817299,-0.15497722,0.01210022,4.4250488E-4,0.006652832,-24.778748,41.09955,23.2193,0,0.0,0.0,0.0,0.0
1.112304688,-0.019134859,0.4805937,-0.87673455,-0.002068255,0.8768742,0.48071542,0.9998148,0.011011733,-0.015784875,-0.002788484,0.48159575,-0.876389,-0.01097268,0.87632495,0.48159543,0.99993587,0.010959257,0.0028407776,10.016357,0.13400269,-0.15194702,9.804834,0.10798821,-0.15479675,0.011169434,0.0027313232,0.004211426,-24.598694,41.159058,23.098755,0,0.0,0.0,0.0,0.0
1.120605469,-0.019108115,0.48060617,-0.8767283,-0.0020698793,0.8768676,0.4807276,0.99981534,0.011000521,-0.015760489,-0.0031152223,0.48157567,-0.876399,-0.0107942615,0.876336,0.48157942,0.9999369,0.010960307,0.002468272,10.016357,0.13400269,-0.15194702,9.804839,0.10787826,-0.1545576,0.018508911,0.0015106201,0.0029907227,-24.598694,41.159058,23.098755,0,0.0,0.0,0.0,0.0
1.12890625,-0.019086422,0.47971153,-0.8772186,-0.0021185223,0.87735707,0.47983333,0.9998156,0.011016711,-0.01572933,-0.0037481259,0.48153722,-0.8764176,-0.010448209,0.8763571,0.48154864,0.99993837,0.0109618995,0.001746505,10.015152,0.13040161,-0.15911865,9.804842,0.108037025,-0.15425204,0.016830444,0.009292603,-0.0021972656,-24.119568,41.279602,23.098755,0,0.0,0.0,0.0,0.0
1.137207031,-0.019049771,0.4797283,-0.8772103,-0.0022021905,0.8773473,0.47985104,0.9998161,0.011072836,-0.01565681,-0.0043549314,0.48146498,-0.8764545,-0.010117175,0.8763968,0.48148352,0.9999394,0.010964071,0.0010544182,10.025925,0.14237976,-0.1483612,9.804847,0.10858743,-0.15354086,0.010726929,0.0041046143,0.00390625,-24.119568,41.279602,23.098755,0,0.0,0.0,0.0,0.0
1.145507813,-0.019016685,0.4824864,-0.8756971,-0.00220914,0.87583303,0.4826093,0.9998167,0.011112167,-0.015589561,-0.0046485504,0.48143026,-0.87647206,-0.009958323,0.8764158,0.4814522,0.9999396,0.010966247,7.2017545E-4,10.025925,0.14237976,-0.1483612,9.804853,0.10897314,-0.15288138,0.01713562,0.0048675537,3.9672852E-4,-24.41864,41.39862,23.339844,0,0.0,0.0,0.0,0.0
1.153808594,-0.018984005,0.48250142,-0.8756895,-0.0022411677,0.8758246,0.4826244,0.99981725,0.01112471,-0.015545289,-0.005217781,0.48147213,-0.8764459,-0.009652236,0.8763927,0.48150042,0.9999398,0.010972026,7.445761E-5,10.013962,0.13040161,-0.15074158,9.804858,0.10909613,-0.15244721,0.019882202,-1.6784668E-4,0.0026855469,-24.41864,41.39862,23.339844,0,0.0,0.0,0.0,0.0
1.162109375,-0.018938651,0.4738691,-0.8803916,-0.0024317084,0.88052505,0.47399324,0.99981767,0.011117648,-0.015523646,-0.005763276,0.4815129,-0.8764201,-0.009359419,0.87637025,0.48154712,0.9999396,0.010978071,-5.440821E-4,10.017548,0.1375885,-0.15792847,9.804862,0.10902689,-0.15223497,0.014389038,-4.7302246E-4,0.008346558,-24.41864,41.93878,23.098755,0,0.0,0.0,0.0,0.0
1.170410156,-0.018922979,0.4738763,-0.880388,-0.00240519,0.88052154,0.4739999,0.999818,0.011086992,-0.015522331,-0.006025567,0.4813604,-0.87650204,-0.009218655,0.87645394,0.48139736,0.9999393,0.010980862,-8.4363687E-4,10.023529,0.124420166,-0.15194702,9.804866,0.10872625,-0.15222207,0.012237549,-9.3078613E-4,0.0010070801,-24.41864,41.93878,23.098755,0,0.0,0.0,0.0,0.0
1.178710938,-0.018939113,0.47871014,-0.8777687,-0.0023042182,0.8779029,0.47883305,0.99981797,0.011091244,-0.01552365,-0.006534157,0.48106474,-0.87666076,-0.008944665,0.8766163,0.481107,0.99993867,0.010985065,-0.0014249851,10.000809,0.13040161,-0.1531372,9.804865,0.10876796,-0.152235,0.01576233,0.0027313232,0.0014648438,-24.899292,41.69922,23.278809,0,0.0,0.0,0.0,0.0
1.187011719,-0.01894337,0.47870815,-0.87776965,-0.0023158332,0.8779038,0.4788313,0.99981785,0.011103447,-0.015521849,-0.007024658,0.4809716,-0.87670803,-0.008680514,0.8766673,0.4810188,0.99993765,0.010989268,-0.0019832077,10.001999,0.122039795,-0.1531372,9.804864,0.10888762,-0.15221734,0.013153076,-0.0043029785,3.9672852E-4,-24.899292,41.69922,23.278809,0,0.0,0.0,0.0,0.0
1.1953125,-0.0189373,0.4727377,-0.8809997,-0.0024402258,0.8811332,0.4728618,0.99981767,0.011104564,-0.015532697,-0.007262766,0.48092642,-0.87673086,-0.008552609,0.8766921,0.48097596,0.99993706,0.010991552,-0.0022540342,10.001999,0.122039795,-0.1531372,9.804862,0.10889858,-0.15232372,0.007965088,-0.0013885498,0.0036010742,-24.899292,41.93878,23.039246,0,0.0,0.0,0.0,0.0
1.203613281,-0.018948974,0.47273222,-0.88100237,-0.002414174,0.88113636,0.47285604,0.99981755,0.01108703,-0.015555373,-0.007946255,0.480446,-0.8769883,-0.008187117,0.87695533,0.48050213,0.9999349,0.010998198,-0.0030350431,10.031906,0.12322998,-0.15672302,9.804861,0.10872663,-0.15254611,0.021865845,-0.0019989014,0.0034484863,-24.899292,41.93878,23.039246,0,0.0,0.0,0.0,0.0
1.211914063,-0.019004045,0.47459057,-0.8800015,-0.0023483168,0.88013685,0.47471425,0.99981666,0.011088015,-0.015611673,-0.008165342,0.4802921,-0.87707055,-0.008069761,0.8770396,0.4803503,0.9999341,0.010999975,-0.0032854853,9.988831,0.13998413,-0.18424988,9.8048525,0.108736284,-0.15309821,0.016525269,0.0053253174,0.005584717,-24.839783,42.059326,23.2193,0,0.0,0.0,0.0,0.0
1.220214844,-0.019039305,0.47457427,-0.88000953,-0.002339072,0.8801455,0.47469822,0.999816,0.011096329,-0.015647294,-0.008381375,0.4801783,-0.87713087,-0.007953975,0.87710196,0.48023844,0.99993324,0.011001736,-0.0035319938,9.988831,0.13998413,-0.18424988,9.804846,0.10881782,-0.15344754,0.020645142,0.0010528564,0.002380371,-24.839783,42.059326,23.2193,0,0.0,0.0,0.0,0.0
1.228515625,-0.019027358,0.47658244,-0.8789239,-0.0023014434,0.8790598,0.47670597,0.9998163,0.011093249,-0.015629359,-0.008593858,0.4800664,-0.87719,-0.007840343,0.8771631,0.4801285,0.9999323,0.011003628,-0.0037743298,10.017548,0.12802124,-0.1531372,9.80485,0.10878762,-0.15327166,0.014389038,-3.2043457E-4,3.9672852E-4,-24.659729,42.059326,23.339844,0,0.0,0.0,0.0,0.0
1.236816406,-0.01908286,0.4765569,-0.8789365,-0.0023015998,0.8790733,0.47668102,0.9998152,0.011119396,-0.015678389,-0.0090061575,0.4799286,-0.87726134,-0.0076194755,0.8772385,0.47999433,0.99993044,0.011007176,-0.004243744,10.017548,0.12802124,-0.19621277,9.804838,0.10904403,-0.15375248,0.010116577,0.001663208,-0.0026550293,-24.659729,42.059326,23.339844,0,0.0,0.0,0.0,0.0
1.245117188,-0.019103356,0.4701188,-0.88239634,-0.0024468023,0.8825327,0.4702444,0.99981445,0.011142297,-0.01570905,-0.00940435,0.47979525,-0.8773301,-0.0074074827,0.8773114,0.47986442,0.99992836,0.01101162,-0.004696469,10.004395,0.124420166,-0.1758728,9.804831,0.109268606,-0.15405315,0.01423645,0.0018157959,-3.6621094E-4,-24.719238,42.23938,23.039246,0,0.0,0.0,0.0,0.0
1.253417969,-0.019067293,0.47013548,-0.88238823,-0.0024626371,0.8825239,0.47026095,0.9998151,0.011139607,-0.01566957,-0.009597167,0.47960225,-0.8774335,-0.0073062303,0.87741685,0.4796731,0.9999272,0.011014234,-0.0049166316,10.021133,0.122039795,-0.13400269,9.804837,0.10924223,-0.15366599,0.01133728,0.0063934326,0.0057373047,-24.719238,42.23938,23.039246,0,0.0,0.0,0.0,0.0
1.26171875,-0.019015975,0.4701592,-0.8823767,-0.0024983366,0.8825112,0.47028473,0.9998161,0.011147398,-0.015607196,-0.009970145,0.47922844,-0.87763363,-0.0071105827,0.87762105,0.4793024,0.999925,0.0110192,-0.0053424155,10.0295105,0.12802124,-0.13639832,9.804847,0.10931863,-0.15305431,0.011169434,0.0015106201,-3.6621094E-4,-24.719238,42.23938,23.039246,0,0.0,0.0,0.0,0.0
1.270019531,-0.018964885,0.47247115,-0.88114214,-0.002484256,0.88127565,0.4725962,0.9998171,0.011151715,-0.015539551,-0.010326514,0.47887018,-0.877825,-0.006924414,0.8778165,0.47894704,0.9999227,0.011024276,-0.005748888,10.0295105,0.12802124,-0.13639832,9.804856,0.10936097,-0.15239094,0.01713562,0.0027313232,0.0074310303,-25.019836,42.29889,23.2193,0,0.0,0.0,0.0,0.0
1.278320313,-0.018929547,0.4671518,-0.88397455,-0.0025985208,0.884107,0.4672774,0.99981743,0.011142375,-0.01552184,-0.010498671,0.47874245,-0.8778926,-0.006834372,0.8778862,0.47882068,0.99992156,0.011026825,-0.005944734,10.0295105,0.13279724,-0.1651001,9.80486,0.10926937,-0.15221725,0.018661499,0.0012054443,0.002532959,-25.079346,42.23938,22.859192,0,0.0,0.0,0.0,0.0
1.286621094,-0.01892296,0.46715486,-0.883973,-0.0025953432,0.8841053,0.46728036,0.99981755,0.011136541,-0.015517464,-0.010830397,0.47828507,-0.8781378,-0.0066624023,0.8781353,0.4783659,0.9999191,0.0110314,-0.0063240267,10.012772,0.12921143,-0.1603241,9.804861,0.10921216,-0.15217434,0.014389038,-0.0013885498,0.0032958984,-25.079346,42.23938,22.859192,0,0.0,0.0,0.0,0.0
1.294921875,-0.018979244,0.4737801,-0.88043857,-0.0024641454,0.8805724,0.47390524,0.9998169,0.011163893,-0.015545136,-0.011148734,0.47784576,-0.878373,-0.006497536,0.8783744,0.47792906,0.99991673,0.011035563,-0.006687943,10.011566,0.14237976,-0.17228699,9.804854,0.109480396,-0.15244572,0.012237549,-0.0019989014,0.0029907227,-25.079346,41.69922,22.979736,0,0.0,0.0,0.0,0.0
1.303222656,-0.018973483,0.4737829,-0.8804374,-0.0024653664,0.880571,0.47390792,0.9998169,0.011162283,-0.015539448,-0.011304967,0.47776455,-0.8784152,-0.006416173,0.87841856,0.477849,0.99991554,0.01103813,-0.006865073,9.999603,0.1268158,-0.14476013,9.804854,0.1094646,-0.15238993,0.013015747,0.0022735596,0.004211426,-25.079346,41.69922,22.979736,0,0.0,0.0,0.0,0.0
1.311523438,-0.018952208,0.4737929,-0.88043237,-0.0024837614,0.88056546,0.473918,0.99981725,0.011168575,-0.0155118685,-0.011607982,0.47760707,-0.8784969,-0.0062584016,0.87850416,0.47769374,0.99991304,0.011043047,-0.0072086044,10.030716,0.14237976,-0.14476013,9.804858,0.10952631,-0.15211947,0.014694214,0.0019683838,0.004211426,-25.079346,41.69922,22.979736,0,0.0,0.0,0.0,0.0
1.319824219,-0.018922962,0.4708299,-0.88202107,-0.002554791,0.8821534,0.4709553,0.99981767,0.011165249,-0.015490081,-0.0118981395,0.4774562,-0.87857497,-0.006107756,0.87858605,0.47754493,0.99991053,0.011048018,-0.0075373542,10.030716,0.14237976,-0.14476013,9.804862,0.109493695,-0.1519058,0.014083862,-0.001083374,0.010482788,-24.958801,41.819763,22.859192,0,0.0,0.0,0.0,0.0
1.328125,-0.018915916,0.47119462,-0.8818264,-0.0024971566,0.8819592,0.47131914,0.99981797,0.011117492,-0.015506418,-0.012038172,0.47732398,-0.87864494,-0.0060356297,0.87865794,0.47741374,0.99990934,0.011050363,-0.007696484,10.009171,0.124420166,-0.15792847,9.804865,0.10902535,-0.15206602,0.018508911,-0.0013885498,0.0084991455,-25.079346,41.09955,22.499084,0,0.0,0.0,0.0,0.0
1.336425781,-0.018905183,0.47119984,-0.8818239,-0.0024380446,0.8819572,0.47132334,0.9998183,0.01106038,-0.015524756,-0.012309518,0.4770817,-0.87877274,-0.0058937278,0.8787894,0.47717333,0.99990684,0.011053021,-0.008005684,10.02713,0.124420166,-0.16749573,9.804869,0.108465284,-0.15224585,0.013458252,-0.0021514893,0.00819397,-25.079346,41.09955,22.499084,0,0.0,0.0,0.0,0.0
1.344726563,-0.018917572,0.469242,-0.8828669,-0.002473081,0.88300025,0.46936586,0.99981797,0.011062665,-0.015543749,-0.012569923,0.47684917,-0.8788953,-0.0057551577,0.8789156,0.47694257,0.99990445,0.011053312,-0.008303559,10.013962,0.13998413,-0.15792847,9.804866,0.108487695,-0.15243211,0.01423645,-0.0016937256,0.0010070801,-25.318909,40.859985,22.259521,0,0.0,0.0,0.0,0.0
1.353027344,-0.018914463,0.46924356,-0.8828662,-0.0024804752,0.8829995,0.4693675,0.999818,0.011067762,-0.015537512,-0.0126963295,0.4766974,-0.87897575,-0.005688435,0.878998,0.4767916,0.9999032,0.011053499,-0.008448386,10.023529,0.124420166,-0.14476013,9.804866,0.108537674,-0.15237094,0.01713562,0.0018157959,0.0048217773,-25.318909,40.859985,22.259521,0,0.0,0.0,0.0,0.0
1.361328125,-0.018921573,0.4692401,-0.8828679,-0.0024740035,0.8830013,0.46936405,0.99981797,0.011065325,-0.015546873,-0.012941603,0.47640285,-0.8791319,-0.005559357,0.87915766,0.47649866,0.9999008,0.011054063,-0.008729215,10.039093,0.13279724,-0.16630554,9.804865,0.10851377,-0.15246275,0.013626099,0.0019683838,0.005279541,-25.318909,40.859985,22.259521,0,0.0,0.0,0.0,0.0
1.369628906,-0.018824345,0.46681815,-0.88415295,-0.0025061383,0.88428485,0.46694118,0.9998197,0.011005672,-0.015476173,-0.013177438,0.47611976,-0.8792817,-0.005435333,0.87931097,0.47621706,0.99989843,0.011054509,-0.008999197,10.034302,0.100494385,-0.12322998,9.804882,0.107928775,-0.15176941,0.018051147,-4.7302246E-4,0.0028381348,-25.439453,40.67993,22.019958,0,0.0,0.0,0.0,0.0
1.377929688,-0.018827736,0.4694259,-0.88277113,-0.0024533677,0.8829033,0.46954846,0.9998197,0.011006298,-0.015471396,-0.013289673,0.47593424,-0.8793804,-0.0053756265,0.8794114,0.47603226,0.99989724,0.011053533,-0.009128645,10.037888,0.1375885,-0.16630554,9.804882,0.107934915,-0.15172257,0.016067505,0.0015106201,0.0032958984,-25.679016,40.379333,22.019958,0,0.0,0.0,0.0,0.0
1.386230469,-0.018832853,0.46942338,-0.8827724,-0.0024662944,0.88290447,0.46954623,0.9998196,0.011020072,-0.015469873,-0.013508227,0.475677,-0.8795163,-0.005258309,0.8795505,0.47577634,0.9998949,0.011051663,-0.009379912,10.037888,0.1375885,-0.16630554,9.804881,0.108069986,-0.15170763,0.01927185,0.007003784,-0.0011291504,-25.679016,40.379333,22.019958,0,0.0,0.0,0.0,0.0
1.39453125,-0.018807111,0.46943626,-0.88276607,-0.0025178962,0.8828972,0.46955967,0.99982,0.011053774,-0.015422753,-0.013614342,0.4755522,-0.87958217,-0.0052017225,0.8796181,0.47565216,0.99989384,0.011051032,-0.009501731,10.013962,0.13160706,-0.15074158,9.804885,0.108400494,-0.15124555,0.008575439,0.0063934326,-0.0047912598,-25.679016,40.379333,22.019958,0,0.0,0.0,0.0,0.0
1.402832031,-0.018775793,0.4664352,-0.884356,-0.0026300848,0.8844859,0.4665595,0.9998203,0.011085957,-0.015380161,-0.013819138,0.47531042,-0.87970966,-0.005094139,0.8797487,0.4754116,0.9998915,0.011051141,-0.009736071,10.025925,0.14356995,-0.14356995,9.804888,0.10871611,-0.15082785,0.013153076,-0.0030822754,0.004211426,-25.559998,40.379333,21.839905,0,0.0,0.0,0.0,0.0
1.411132813,-0.018789867,0.46941012,-0.88278043,-0.0025896141,0.88291055,0.46953443,0.9998201,0.011108547,-0.015374177,-0.014014434,0.47495988,-0.87989587,-0.0049946727,0.879938,0.47506225,0.9998893,0.01105252,-0.009959565,10.018753,0.13519287,-0.13998413,9.804886,0.10893764,-0.15076917,0.020187378,-0.0072021484,-0.0025024414,-25.559998,40.499878,22.079468,0,0.0,0.0,0.0,0.0
1.419433594,-0.018823816,0.46939316,-0.88278866,-0.0026006931,0.8829191,0.46951795,0.9998194,0.011133981,-0.015399157,-0.014109585,0.47484908,-0.87995416,-0.0049460144,0.87999785,0.47495198,0.99988824,0.01105364,-0.0100677945,10.021133,0.122039795,-0.17826843,9.804879,0.10918706,-0.15101415,0.015457153,-0.005050659,-5.187988E-4,-25.559998,40.499878,22.079468,0,0.0,0.0,0.0,0.0
1.427734375,-0.018931871,0.47080675,-0.8820332,-0.0025772844,0.8821654,0.47093263,0.99981743,0.011188886,-0.015487639,-0.014295578,0.47463337,-0.8800675,-0.0048521026,0.88011414,0.47473738,0.99988604,0.011056822,-0.010278771,10.022339,0.1483612,-0.18902588,9.80486,0.10972549,-0.15188186,0.012542725,-0.0033874512,0.001159668,-25.79956,40.438843,22.138977,0,0.0,0.0,0.0,0.0
1.436035156,-0.018992404,0.47077626,-0.88204813,-0.0025768788,0.8821813,0.4709028,0.9998163,0.011216508,-0.015541611,-0.014478739,0.47448197,-0.88014615,-0.004761288,0.8801957,0.47458705,0.99988383,0.011062051,-0.010484979,10.00679,0.13040161,-0.1603241,9.804849,0.10999637,-0.15241115,0.021102905,0.0048675537,0.0071258545,-25.79956,40.438843,22.138977,0,0.0,0.0,0.0,0.0
1.444335938,-0.018963503,0.47079077,-0.882041,-0.0025674566,0.8821738,0.47091684,0.9998169,0.011194836,-0.015520372,-0.014568782,0.47440797,-0.8801846,-0.004717257,0.88023555,0.47451353,0.99988276,0.011065141,-0.010586056,10.00679,0.13040161,-0.1603241,9.804854,0.10978384,-0.15220286,0.021102905,0.0050201416,0.0045166016,-25.79956,40.438843,22.138977,0,0.0,0.0,0.0,0.0
1.452636719,-0.018944254,0.47081947,-0.8820261,-0.00255825,0.8821587,0.4709452,0.99981725,0.01117815,-0.015507365,-0.014742544,0.4742649,-0.8802588,-0.0046314048,0.8803126,0.47437146,0.9998806,0.011070277,-0.010781536,10.031906,0.15194702,-0.13877869,9.804858,0.109620206,-0.1520753,0.021408081,5.950928E-4,0.0020751953,-26.159668,40.19928,22.019958,0,0.0,0.0,0.0,0.0
1.4609375,-0.018948933,0.47081706,-0.8820273,-0.002584577,0.88215965,0.4709432,0.9998171,0.01120354,-0.0154991215,-0.01490872,0.47412854,-0.8803295,-0.004548636,0.880386,0.47423607,0.9998785,0.0110745495,-0.01096879,10.025925,0.14476013,-0.1603241,9.804856,0.10986919,-0.15199447,0.01637268,-0.0056762695,0.0028381348,-26.159668,40.19928,22.019958,0,0.0,0.0,0.0,0.0
1.469238281,-0.019004487,0.4755527,-0.879482,-0.0024835072,0.8796156,0.47567868,0.9998163,0.011224227,-0.015535603,-0.014989361,0.47406238,-0.8803637,-0.004509067,0.8804216,0.47417036,0.9998775,0.011077129,-0.011059378,10.0295105,0.11843872,-0.15911865,9.804849,0.11007207,-0.15235223,0.01637268,-0.0012359619,0.0026855469,-26.278687,40.559387,22.499084,0,0.0,0.0,0.0,0.0
1.477539063,-0.01901728,0.4700519,-0.8824338,-0.0025956063,0.8825672,0.47017893,0.9998158,0.011231977,-0.01556396,-0.015148477,0.47412142,-0.8803292,-0.0044291266,0.88038975,0.47423026,0.9998755,0.011082954,-0.011236619,10.001999,0.13400269,-0.16270447,9.804844,0.110148065,-0.15263031,0.01210022,2.89917E-4,7.019043E-4,-25.91858,40.73944,22.259521,0,0.0,0.0,0.0,0.0
1.485839844,-0.019036168,0.47004256,-0.88243854,-0.0025942372,0.88257223,0.47016975,0.9998154,0.011239484,-0.015581391,-0.015301282,0.4739604,-0.8804132,-0.0043558823,0.8804763,0.4740701,0.9998734,0.0110888565,-0.0114079,10.013962,0.15074158,-0.16390991,9.80484,0.11022169,-0.15280125,0.014694214,0.0019683838,0.0057373047,-25.91858,40.73944,22.259521,0,0.0,0.0,0.0,0.0
1.494140625,-0.019061062,0.47002998,-0.88244456,-0.002603652,0.88257855,0.4701576,0.9998149,0.011259283,-0.0155990925,-0.015375793,0.47388217,-0.880454,-0.0043203416,0.8805184,0.47399226,0.99987245,0.011091869,-0.011491336,10.013962,0.15074158,-0.16390991,9.804835,0.11041585,-0.15297484,0.0128479,-0.0032196045,0.00390625,-25.91858,40.73944,22.259521,0,0.0,0.0,0.0,0.0
1.502441406,-0.01907129,0.46783838,-0.88360834,-0.002662192,0.88374215,0.46796668,0.99981457,0.011277062,-0.0156086255,-0.015521362,0.47372982,-0.88053346,-0.0042517907,0.8806003,0.47384074,0.99987054,0.011098498,-0.011653916,10.021133,0.110076904,-0.1651001,9.8048315,0.1105902,-0.15306833,0.013320923,0.003189087,0.0013122559,-26.159668,40.859985,22.198486,0,0.0,0.0,0.0,0.0
1.510742188,-0.019048724,0.47296172,-0.880877,-0.0025922717,0.88101053,0.47308952,0.9998152,0.011295225,-0.015556083,-0.015661638,0.4734969,-0.88065624,-0.0041878796,0.88072544,0.47360864,0.9998686,0.011105569,-0.011810655,10.042679,0.14117432,-0.14237976,9.804838,0.11076832,-0.15255307,0.018508911,0.005630493,0.0063476563,-25.91858,40.859985,22.499084,0,0.0,0.0,0.0,0.0
1.519042969,-0.019005697,0.47298324,-0.8808664,-0.0026090834,0.88099915,0.4731108,0.999816,0.011290054,-0.015509949,-0.015729416,0.4734862,-0.8806608,-0.004155899,0.88073117,0.4735983,0.9998677,0.011109362,-0.011885627,9.993622,0.13040161,-0.16270447,9.804845,0.1107176,-0.15210064,0.018051147,0.008682251,0.004211426,-25.91858,40.859985,22.499084,0,0.0,0.0,0.0,0.0
1.52734375,-0.018919898,0.47475287,-0.87991583,-0.0025702836,0.8800473,0.4748791,0.99981767,0.011246296,-0.015430153,-0.015859112,0.47346625,-0.88066924,-0.0040945853,0.88074183,0.47357902,0.99986583,0.011116518,-0.012029135,9.993622,0.13040161,-0.16270447,9.804862,0.110288486,-0.15131812,0.012237549,0.005783081,0.00390625,-25.85907,40.559387,22.439575,0,0.0,0.0,0.0,0.0
1.535644531,-0.018837731,0.47479397,-0.8798953,-0.0025795358,0.88002545,0.47491944,0.9998192,0.011216125,-0.015352935,-0.015980516,0.4735172,-0.8806396,-0.0040343357,0.88071436,0.47363064,0.99986416,0.011121657,-0.012163942,10.02832,0.117248535,-0.11605835,9.804877,0.10999262,-0.15056086,0.018203735,0.0036468506,-8.239746E-4,-25.85907,40.559387,22.439575,0,0.0,0.0,0.0,0.0
1.543945313,-0.01876635,0.47482967,-0.8798776,-0.002597135,0.88000643,0.4749546,0.9998205,0.011198323,-0.01528131,-0.016037691,0.47354275,-0.88062483,-0.004005328,0.8807006,0.47365645,0.9998634,0.011123546,-0.01222771,10.02832,0.117248535,-0.11605835,9.804891,0.10981805,-0.14985847,0.012710571,-0.008728027,0.008651733,-25.85907,40.559387,22.439575,0,0.0,0.0,0.0,0.0
1.552246094,-0.018822689,0.47388783,-0.880384,-0.002580788,0.8805141,0.474013,0.9998195,0.011194284,-0.015350638,-0.016145874,0.47359368,-0.88059545,-0.0039496887,0.8806731,0.4737079,0.99986184,0.011126507,-0.01234869,10.039093,0.13877869,-0.15672302,9.80488,0.10977843,-0.15053834,0.015151978,-0.011932373,0.0045166016,-25.559998,40.559387,22.37854,0,0.0,0.0,0.0,0.0
1.560546875,-0.018915903,0.4738417,-0.88040686,-0.0025180555,0.88053906,0.473967,0.99981797,0.011182426,-0.015463032,-0.016199345,0.47359958,-0.8805913,-0.0039223693,0.88066995,0.47371405,0.99986106,0.011127862,-0.012408644,10.039093,0.13877869,-0.15672302,9.804865,0.10966214,-0.15164055,0.014541626,-0.0128479,0.0057373047,-25.559998,40.559387,22.37854,0,0.0,0.0,0.0,0.0
1.568847656,-0.018999366,0.47025144,-0.8823279,-0.0025118552,0.88246197,0.47037694,0.9998163,0.011153145,-0.015585015,-0.016306855,0.47360924,-0.8805841,-0.0038668327,0.88066477,0.4737242,0.9998596,0.011130024,-0.012529505,10.015152,0.12802124,-0.16390991,9.804849,0.10937499,-0.15283678,0.007965088,-0.016052246,0.009109497,-24.839783,41.09955,22.439575,0,0.0,0.0,0.0,0.0
1.577148438,-0.019096615,0.47617736,-0.8791418,-0.002340259,0.8792785,0.47630224,0.9998149,0.011153182,-0.015676867,-0.016413368,0.4734764,-0.8806535,-0.0038127387,0.8807362,0.47359186,0.999858,0.01113094,-0.012650605,10.030716,0.14237976,-0.14596558,9.804835,0.10937536,-0.15373755,0.021102905,-0.006439209,-0.003112793,-24.299622,41.33911,22.918701,0,0.0,0.0,0.0,0.0
1.585449219,-0.019168613,0.47614413,-0.8791583,-0.0023483043,0.879296,0.4762699,0.9998135,0.011193966,-0.015736755,-0.016467141,0.4735305,-0.8806235,-0.0037834398,0.88070714,0.4736462,0.99985725,0.011131384,-0.012711154,10.030716,0.14237976,-0.14596558,9.804821,0.109775305,-0.15432484,0.020645142,-0.006439209,-0.003112793,-24.299622,41.33911,22.918701,0,0.0,0.0,0.0,0.0
1.59375,-0.019239737,0.47611132,-0.87917453,-0.002317062,0.8793137,0.4762374,0.9998122,0.0111997835,-0.015814584,-0.016574256,0.47363406,-0.8805658,-0.0037269276,0.88065135,0.47375026,0.9998557,0.011133863,-0.012830942,10.001999,0.12921143,-0.18185425,9.804809,0.10983236,-0.1550881,0.018203735,-0.0073547363,0.0016174316,-24.299622,41.33911,22.918701,0,0.0,0.0,0.0,0.0
1.602050781,-0.019299107,0.47313076,-0.8807808,-0.0023398297,0.8809211,0.4732574,0.99981105,0.011194322,-0.015893945,-0.016679823,0.47373226,-0.880511,-0.0036714547,0.88059855,0.4738489,0.99985415,0.011136472,-0.012948941,10.034302,0.13040161,-0.13040161,9.804797,0.1097788,-0.15586637,0.015914917,-7.7819824E-4,0.005126953,-24.299622,41.33911,22.738647,0,0.0,0.0,0.0,0.0
1.610351563,-0.019275213,0.4731418,-0.88077545,-0.002336096,0.8809154,0.4732681,0.9998115,0.011179918,-0.015874526,-0.016732175,0.47372022,-0.88051635,-0.0036447966,0.8806049,0.4738371,0.9998533,0.011137629,-0.0130078215,10.034302,0.13040161,-0.13040161,9.804802,0.10963756,-0.15567593,0.0110321045,0.005630493,0.0057373047,-24.299622,41.33911,22.738647,0,0.0,0.0,0.0,0.0
1.618652344,-0.01928249,0.47658578,-0.8789165,-0.0022605252,0.87905693,0.4767115,0.99981153,0.011178997,-0.015873073,-0.016832802,0.4736974,-0.8805268,-0.003592934,0.8806172,0.47381473,0.9998519,0.011139304,-0.013121293,10.000809,0.14117432,-0.17706299,9.804802,0.10962852,-0.15566167,0.021102905,0.0062408447,-3.6621094E-4,-24.659729,41.159058,22.859192,0,0.0,0.0,0.0,0.0
1.626953125,-0.019254014,0.4762214,-0.8791146,-0.0022761952,0.8792544,0.476347,0.999812,0.011172628,-0.015845204,-0.016930051,0.4738119,-0.88046324,-0.0035404349,0.88055557,0.47392964,0.9998504,0.011140876,-0.013230352,10.021133,0.11605835,-0.15553284,9.804807,0.109566055,-0.15538837,0.02003479,0.0015106201,0.0028381348,-24.659729,40.979004,22.738647,0,0.0,0.0,0.0,0.0
1.635253906,-0.019231679,0.4762319,-0.8791094,-0.0022732932,0.8792489,0.47635722,0.9998125,0.011159622,-0.015826818,-0.016976517,0.47386014,-0.8804365,-0.0035153176,0.88052964,0.47397807,0.99984974,0.011141511,-0.013282558,10.021133,0.11605835,-0.15553284,9.8048115,0.10943851,-0.15520807,0.020187378,0.004562378,8.544922E-4,-24.659729,40.979004,22.738647,0,0.0,0.0,0.0,0.0
1.643554688,-0.019200787,0.47624654,-0.8791022,-0.0023046858,0.8792408,0.47637197,0.99981296,0.0111727705,-0.015784517,-0.017065916,0.47395414,-0.88038415,-0.0034663817,0.88047904,0.4740724,0.99984837,0.011142228,-0.013383275,10.009171,0.12921143,-0.14237976,9.804816,0.10956745,-0.15479323,0.013015747,-0.0019989014,0.002532959,-24.659729,40.979004,22.738647,1,0.0,0.0,0.0,0.0
1.651855469,-0.01918778,0.46924362,-0.8828603,-0.0024736002,0.8829979,0.46937048,0.9998128,0.0111900205,-0.015782047,-0.017150592,0.47404495,-0.8803336,-0.0034205802,0.88043016,0.4741636,0.99984705,0.011143438,-0.013478389,10.011566,0.13519287,-0.15074158,9.804814,0.109736614,-0.15476902,0.017593384,-0.006286621,-9.765625E-4,-24.778748,40.979004,22.31903,1,0.0,0.0,0.0,0.0
1.66015625,-0.01922943,0.4692237,-0.8828699,-0.0024770233,0.88300806,0.4693511,0.999812,0.011212245,-0.015817465,-0.017191276,0.47394904,-0.8803844,-0.0034013982,0.8804817,0.47406784,0.9998464,0.01114437,-0.013524516,10.011566,0.13519287,-0.15074158,9.804807,0.109954566,-0.15511635,0.012542725,-0.0070495605,-0.0023498535,-24.778748,40.979004,22.31903,1,0.0,0.0,0.0,0.0
1.668457031,-0.019299513,0.46875048,-0.8831198,-0.0025092862,0.8832588,0.4688791,0.9998106,0.011265137,-0.015870234,-0.01727181,0.4737622,-0.8804835,-0.0033643683,0.8805823,0.4738814,0.9998452,0.011147059,-0.013615339,10.015152,0.14715576,-0.1603241,9.804792,0.11047326,-0.15563384,0.012237549,-9.3078613E-4,0.005126953,-24.839783,40.79895,22.198486,1,0.0,0.0,0.0,0.0
1.676757813,-0.019343412,0.4678166,-0.88361394,-0.0025368184,0.88375354,0.46794602,0.9998097,0.011293239,-0.01590804,-0.017351892,0.47356406,-0.8805885,-0.0033300775,0.8806888,0.47368363,0.9998439,0.011151735,-0.013704612,10.009171,0.15553284,-0.16989136,9.804784,0.11074884,-0.15600458,0.011169434,-0.0067443848,0.0059051514,-24.958801,40.559387,22.019958,1,0.0,0.0,0.0,0.0
1.685058594,-0.019398112,0.4677899,-0.8836268,-0.0025228658,0.88376737,0.46791968,0.9998086,0.01130603,-0.015963247,-0.017391643,0.4734493,-0.8806494,-0.0033139428,0.8807504,0.4735691,0.99984324,0.011154565,-0.013748712,10.009171,0.15553284,-0.16989136,9.804773,0.11087428,-0.15654598,0.008728027,-0.0067443848,0.0071258545,-24.958801,40.559387,22.019958,1,0.0,0.0,0.0,0.0
1.693359375,-0.019420212,0.46777916,-0.883632,-0.0024543875,0.88377374,0.46790814,0.99980843,0.01125565,-0.016014962,-0.01747081,0.4732256,-0.880768,-0.003282168,0.8808705,0.47334582,0.999842,0.011160563,-0.013836317,10.000809,0.114852905,-0.15911865,9.804771,0.110380225,-0.15705313,0.013931274,-0.0056762695,0.00390625,-24.958801,40.559387,22.019958,1,0.0,0.0,0.0,0.0
1.701660156,-0.019459462,0.47191966,-0.88142675,-0.0023012967,0.8815702,0.47204727,0.999808,0.011214211,-0.016068855,-0.017509734,0.47311687,-0.88082564,-0.0032653525,0.88092893,0.47323728,0.9998414,0.0111624645,-0.01387994,10.000809,0.114852905,-0.15911865,9.804767,0.10997383,-0.15758163,0.01637268,-0.008422852,0.004211426,-25.439453,40.078735,22.019958,1,0.0,0.0,0.0,0.0
1.709960938,-0.019507136,0.47189587,-0.8814385,-0.0022550644,0.8815833,0.47202328,0.9998072,0.011195522,-0.016133007,-0.017586868,0.4730695,-0.88084954,-0.0032270886,0.8809543,0.47319022,0.9998401,0.011164513,-0.01396659,10.017548,0.12322998,-0.17228699,9.80476,0.10979058,-0.15821077,0.0078125,-0.0039978027,-8.239746E-4,-25.439453,40.078735,22.019958,1,0.0,0.0,0.0,0.0
1.718261719,-0.019507367,0.46725717,-0.88390625,-0.0023561162,0.88405055,0.46738544,0.99980694,0.011200044,-0.016144585,-0.017662989,0.47302306,-0.88087296,-0.0031884308,0.88097924,0.47314408,0.9998389,0.011165742,-0.014052526,10.021133,0.12802124,-0.14715576,9.804757,0.10983492,-0.1583243,0.015304565,-0.0018463135,-6.713867E-4,-25.559998,40.019226,21.71936,1,0.0,0.0,0.0,0.0
1.7265625,-0.019525615,0.46724793,-0.88391066,-0.0023718318,0.88405514,0.4673767,0.9998066,0.011222305,-0.016153486,-0.017699864,0.47290796,-0.880934,-0.0031714942,0.88104105,0.4730291,0.9998383,0.011166428,-0.014094481,10.021133,0.12802124,-0.14715576,9.804753,0.11005322,-0.15841159,0.013626099,-0.0055236816,-6.713867E-4,-25.559998,40.019226,21.71936,1,0.0,0.0,0.0,0.0
1.734863281,-0.019556144,0.46518287,-0.8849985,-0.0024269116,0.8851431,0.4653125,0.9998058,0.011247533,-0.016181031,-0.017771944,0.47268426,-0.8810526,-0.0031393855,0.8811611,0.47280577,0.99983716,0.011168641,-0.014176007,10.015152,0.13639832,-0.15074158,9.804746,0.11030062,-0.1586817,0.019577026,-0.005050659,0.002380371,-25.498962,40.019226,21.598816,1,0.0,0.0,0.0,0.0
1.743164063,-0.019568918,0.46517646,-0.88500166,-0.0024362882,0.8851463,0.46530637,0.9998055,0.01126166,-0.01618805,-0.01784243,0.47238782,-0.8812102,-0.003110547,0.88132,0.47250965,0.99983597,0.011171766,-0.014255506,10.0247345,0.14955139,-0.15194702,9.804743,0.11043916,-0.15875055,0.020339966,-1.6784668E-4,-0.0012817383,-25.498962,40.019226,21.598816,1,0.0,0.0,0.0,0.0
1.751464844,-0.019590244,0.4656098,-0.88477325,-0.0024585635,0.88491803,0.46574038,0.9998051,0.011299239,-0.016191028,-0.01787681,0.47224393,-0.88128656,-0.0030967984,0.88139707,0.47236595,0.99983543,0.011173563,-0.014294123,10.0247345,0.14955139,-0.15194702,9.804739,0.11080768,-0.15877976,0.012237549,-0.0055236816,0.0034484863,-25.498962,40.19928,21.71936,1,0.0,0.0,0.0,0.0
1.759765625,-0.019562675,0.46562368,-0.88476664,-0.0024808138,0.8849107,0.46575433,0.99980557,0.011306341,-0.016156094,-0.017944433,0.47198173,-0.88142574,-0.0030710474,0.8815375,0.4721041,0.9998343,0.01117854,-0.014369212,10.004395,0.13639832,-0.11126709,9.804744,0.11087733,-0.15843716,0.020950317,-0.0055236816,0.0026855469,-25.498962,40.19928,21.71936,1,0.0,0.0,0.0,0.0
1.768066406,-0.019572202,0.46417135,-0.88552916,-0.0025030714,0.88567334,0.46430224,0.99980533,0.01130396,-0.016172724,-0.018008158,0.47173038,-0.88155895,-0.0030473252,0.8816719,0.4718531,0.9998332,0.011183602,-0.014439772,10.018753,0.13040161,-0.17706299,9.804741,0.110853985,-0.15860024,0.015609741,-0.0047454834,0.0048217773,-25.439453,40.019226,21.539307,1,0.0,0.0,0.0,0.0
1.776367188,-0.0196243,0.46414506,-0.8855418,-0.0024635233,0.88568723,0.46427587,0.9998044,0.011292642,-0.01623756,-0.018039355,0.47157955,-0.881639,-0.0030361647,0.88175255,0.47170243,0.99983263,0.011186009,-0.014474454,10.018753,0.13040161,-0.17706299,9.804731,0.110742986,-0.15923606,0.017440796,-0.0053710938,0.005126953,-25.439453,40.019226,21.539307,1,0.0,0.0,0.0,0.0
1.784667969,-0.019656522,0.4688662,-0.8830505,-0.0023491592,0.88319707,0.46899632,0.999804,0.011293262,-0.016259141,-0.018101932,0.4712858,-0.8817948,-0.0030129673,0.8819096,0.471409,0.9998316,0.011190233,-0.0145443,10.00679,0.13877869,-0.15074158,9.8047285,0.11074907,-0.15944771,0.015914917,-0.002609253,0.0013122559,-25.439453,39.839172,21.71936,1,0.0,0.0,0.0,0.0
1.79296875,-0.019691924,0.4688483,-0.8830591,-0.002338029,0.88320637,0.4689786,0.99980336,0.011299711,-0.016295854,-0.018163448,0.47118998,-0.8818447,-0.002986507,0.8819607,0.47131348,0.9998306,0.011194314,-0.014612236,10.0247345,0.13400269,-0.16989136,9.804722,0.110812314,-0.15980774,0.017745972,-0.0012359619,0.0043640137,-25.439453,39.839172,21.71936,1,0.0,0.0,0.0,0.0
1.801269531,-0.019698184,0.4661154,-0.8845047,-0.0023970152,0.8846518,0.46624628,0.99980307,0.011304375,-0.016308745,-0.018194035,0.4711432,-0.8818691,-0.0029734303,0.88198566,0.47126684,0.99983,0.011196421,-0.014645967,10.0247345,0.13400269,-0.16989136,9.804719,0.11085805,-0.15993416,0.016220093,0.007003784,0.0022277832,-25.439453,40.13977,21.71936,1,0.0,0.0,0.0,0.0
1.809570313,-0.019670727,0.46612915,-0.88449794,-0.0024402644,0.8846441,0.46626043,0.99980354,0.011330091,-0.016264115,-0.018253416,0.47094443,-0.88197404,-0.0029503037,0.8820918,0.47106835,0.99982905,0.011200698,-0.014711758,9.994827,0.14356995,-0.17706299,9.804724,0.11111024,-0.15949649,0.017288208,0.024719238,-3.6621094E-4,-25.439453,40.13977,21.71936,1,0.0,0.0,0.0,0.0
1.817871094,-0.019411134,0.4652609,-0.8849608,-0.0025890716,0.88510114,0.4653915,0.9998082,0.011325002,-0.01597622,-0.018309552,0.470754,-0.88207453,-0.0029297434,0.8821934,0.4708782,0.9998281,0.011205821,-0.014773378,10.00679,0.119644165,-0.057434082,9.8047695,0.11106033,-0.15667321,0.01423645,0.0062408447,0.002380371,-25.379944,40.13977,21.659851,1,0.0,0.0,0.0,0.0
1.826171875,-0.019197475,0.46536803,-0.88490903,-0.0026755221,0.88504505,0.4654976,0.9998121,0.011303973,-0.01574553,-0.018331554,0.4706443,-0.8821326,-0.002922786,0.88225186,0.47076866,0.9998277,0.0112082055,-0.014797454,10.00679,0.119644165,-0.057434082,9.804809,0.11085412,-0.15441091,0.01789856,-0.010559082,0.006515503,-25.379944,40.13977,21.659851,1,0.0,0.0,0.0,0.0
1.834472656,-0.019243343,0.46059546,-0.8874016,-0.0027324855,0.88753843,0.46072572,0.9998111,0.011290715,-0.015820635,-0.018365879,0.47043562,-0.8822431,-0.0029127416,0.882363,0.4705602,0.999827,0.011211999,-0.0148351155,9.996017,0.13519287,-0.16870117,9.804798,0.11072409,-0.15514743,0.01713562,-0.008422852,0.0043640137,-25.679016,40.078735,21.359253,1,0.0,0.0,0.0,0.0
1.842773438,-0.019415867,0.46050733,-0.88744354,-0.0026304047,0.88758427,0.46063787,0.999808,0.011278019,-0.016021896,-0.01840046,0.47004706,-0.88244957,-0.002905252,0.88257015,0.47017187,0.9998265,0.011215116,-0.014874091,10.012772,0.13400269,-0.25125122,9.804768,0.11059959,-0.15712114,0.016220093,0.012496948,3.9672852E-4,-25.679016,40.078735,21.359253,1,0.0,0.0,0.0,0.0
1.851074219,-0.019484596,0.4578524,-0.88881475,-0.0026558107,0.8889567,0.45798373,0.99980664,0.011284151,-0.016104992,-0.018420728,0.4698568,-0.8825504,-0.0028995145,0.8826714,0.46998167,0.99982613,0.011216373,-0.014897094,10.012772,0.13400269,-0.25125122,9.804754,0.110659726,-0.15793602,0.01637268,0.016326904,0.00390625,-25.619507,40.13977,21.238708,1,0.0,0.0,0.0,0.0
1.859375,-0.019361036,0.45791546,-0.8887849,-0.002726947,0.888924,0.45804653,0.9998088,0.011291924,-0.015961777,-0.018462734,0.46938306,-0.88280153,-0.0028892672,0.88292336,0.46950823,0.99982536,0.011219056,-0.014945007,10.016357,0.13279724,-0.114852905,9.804775,0.11073595,-0.15653157,0.018203735,-0.006134033,0.0013122559,-25.619507,40.13977,21.238708,1,0.0,0.0,0.0,0.0
1.867675781,-0.019303424,0.46004486,-0.88768584,-0.00272702,0.88782376,0.46017566,0.99981,0.011303702,-0.015883487,-0.018498186,0.46893042,-0.8830414,-0.002882379,0.8831638,0.4690558,0.99982476,0.011221942,-0.014985293,10.000809,0.13998413,-0.19023132,9.804787,0.11085145,-0.15576379,0.015914917,-0.0078125,0.0026855469,-25.738525,40.019226,21.299744,1,0.0,0.0,0.0,0.0
1.875976563,-0.019389363,0.46000072,-0.8877068,-0.0026876344,0.8878466,0.46013185,0.99980843,0.011307495,-0.015978465,-0.018514268,0.46875316,-0.88313514,-0.0028790962,0.88325787,0.46887866,0.9998244,0.011223577,-0.015003289,10.000809,0.13998413,-0.19023132,9.804771,0.110888645,-0.15669522,0.01713562,-0.0018463135,0.0084991455,-25.738525,40.019226,21.299744,1,0.0,0.0,0.0,0.0
1.884277344,-0.019377869,0.45481092,-0.89037716,-0.002759961,0.89051664,0.45494223,0.99980843,0.011273217,-0.016001055,-0.01854892,0.4684075,-0.8833178,-0.002871125,0.8834412,0.46853325,0.99982387,0.011226902,-0.015042026,10.031906,0.12083435,-0.18185425,9.804771,0.1105525,-0.15691675,0.013320923,0.013259888,0.001159668,-25.679016,39.779663,20.878601,1,0.0,0.0,0.0,0.0
1.892578125,-0.01924064,0.454882,-0.89034384,-0.0028462014,0.8904802,0.45501316,0.9998109,0.011288842,-0.015838724,-0.018581424,0.46787113,-0.88360137,-0.002866318,0.88372535,0.46799707,0.9998232,0.011228735,-0.0150798075,10.037888,0.14715576,-0.100494385,9.804795,0.110705726,-0.15532482,0.021102905,-0.0067443848,0.003753662,-25.679016,39.779663,20.878601,1,0.0,0.0,0.0,0.0
1.900878906,-0.019177174,0.46168265,-0.8868377,-0.00277072,0.8869729,0.46181294,0.9998123,0.011313449,-0.015730444,-0.018594526,0.46761233,-0.88373804,-0.00286574,0.8838623,0.4677384,0.999823,0.011229937,-0.015094944,10.037888,0.14715576,-0.100494385,9.80481,0.110947035,-0.15426296,0.01576233,-0.0067443848,0.003753662,-25.619507,40.078735,21.418762,1,0.0,0.0,0.0,0.0
1.909179688,-0.019197343,0.46167243,-0.8868427,-0.0027297726,0.88697857,0.46180224,0.9998119,0.011286255,-0.015767371,-0.01861754,0.4673779,-0.88386154,-0.0028618337,0.88398623,0.46750414,0.99982256,0.011233242,-0.015120092,10.011566,0.11366272,-0.14476013,9.804806,0.11068036,-0.1546251,0.019882202,-0.00491333,0.006210327,-25.619507,40.078735,21.418762,1,0.0,0.0,0.0,0.0
1.917480469,-0.019271519,0.45784402,-0.8888236,-0.00275748,0.888961,0.45797455,0.99981046,0.011276779,-0.015869133,-0.018640341,0.46715233,-0.88398033,-0.002856519,0.8841055,0.46727866,0.99982214,0.0112353405,-0.015145598,10.012772,0.13040161,-0.20698547,9.804791,0.110587426,-0.15562303,0.009811401,0.009597778,-3.6621094E-4,-25.679016,40.499878,21.418762,1,0.0,0.0,0.0,0.0
1.92578125,-0.019208783,0.45787585,-0.8888086,-0.0028148135,0.8889444,0.4580066,0.99981153,0.011299579,-0.015786704,-0.01865288,0.46696663,-0.88407815,-0.0028544292,0.88420355,0.46709305,0.99982196,0.011236169,-0.0151600195,10.012772,0.14596558,-0.12322998,9.804802,0.110811025,-0.15481468,0.009811401,0.004714966,-3.6621094E-4,-25.679016,40.499878,21.418762,1,0.0,0.0,0.0,0.0
1.934082031,-0.0191607,0.46160147,-0.88688046,-0.002774645,0.8870153,0.46173158,0.9998125,0.011307878,-0.015715053,-0.018674923,0.46660754,-0.88426733,-0.002852595,0.88439304,0.46673414,0.9998215,0.011238681,-0.01518493,10.016357,0.13279724,-0.12802124,9.8048115,0.11089241,-0.15411203,0.0137786865,-0.008117676,0.0103302,-25.85907,40.078735,21.418762,1,0.0,0.0,0.0,0.0
1.942382813,-0.019185908,0.46158853,-0.88688666,-0.0027466342,0.88702226,0.4617185,0.9998121,0.011294442,-0.015750512,-0.018694011,0.4664096,-0.8843713,-0.0028494652,0.8844974,0.46653634,0.9998212,0.011241422,-0.0152057875,10.005585,0.13877869,-0.16151428,9.804808,0.110760644,-0.15445977,0.015609741,-0.0021514893,0.0022277832,-25.85907,40.078735,21.418762,1,0.0,0.0,0.0,0.0
1.950683594,-0.019221049,0.46416155,-0.885542,-0.002666892,0.8856787,0.46429107,0.9998117,0.011285807,-0.015785806,-0.01870379,0.4663133,-0.8844218,-0.0028473781,0.8845482,0.4664401,0.999821,0.011242482,-0.015216634,10.005585,0.13877869,-0.16151428,9.804804,0.11067596,-0.15480587,0.014083862,0.008834839,0.0029907227,-26.339722,39.65912,21.359253,1,0.0,0.0,0.0,0.0
1.958984375,-0.019151088,0.46419838,-0.88552415,-0.002709141,0.8856592,0.46432778,0.9998129,0.011291393,-0.01570376,-0.018724138,0.4662281,-0.88446647,-0.002840247,0.88459307,0.46635503,0.99982065,0.011244198,-0.015239039,10.011566,0.13400269,-0.12802124,9.804815,0.110730745,-0.15400128,0.010253906,0.0054779053,-0.0014343262,-26.339722,39.65912,21.359253,1,0.0,0.0,0.0,0.0
1.967285156,-0.019058654,0.46225727,-0.886541,-0.0027906583,0.886674,0.4623866,0.99981445,0.0112865,-0.015608813,-0.018741095,0.46614778,-0.8845084,-0.002834984,0.8846354,0.4662748,0.99982035,0.0112460675,-0.015257514,10.013962,0.11605835,-0.122039795,9.804831,0.110682756,-0.15307017,0.020950317,-0.009338379,0.0014648438,-26.039124,39.65912,21.238708,1,0.0,0.0,0.0,0.0
1.975585938,-0.019041233,0.4622664,-0.88653666,-0.002799423,0.8866693,0.46239567,0.99981475,0.011286374,-0.015589196,-0.018747445,0.46607006,-0.88454914,-0.0028340686,0.88467634,0.46619713,0.99982023,0.011246877,-0.015264546,10.013962,0.11605835,-0.122039795,9.804833,0.11068153,-0.1528778,0.015914917,-0.0043029785,0.0017700195,-26.039124,39.65912,21.238708,1,0.0,0.0,0.0,0.0
1.983886719,-0.019109273,0.46651796,-0.88430524,-0.0026552868,0.8844399,0.46664637,0.99981385,0.011265358,-0.015662266,-0.018753262,0.46599406,-0.8845891,-0.0028333757,0.88471633,0.46612117,0.9998201,0.011247667,-0.015270982,10.016357,0.11605835,-0.18185425,9.804825,0.11047542,-0.15359436,0.0128479,7.4768066E-4,0.006210327,-26.339722,39.179993,21.238708,1,0.0,0.0,0.0,0.0
1.9921875,-0.01912548,0.4665093,-0.8843095,-0.0026550698,0.8844444,0.46663794,0.99981356,0.0112725785,-0.01567681,-0.018767469,0.46601483,-0.8845778,-0.0028262767,0.8847054,0.46614197,0.9998199,0.011248368,-0.015286596,10.023529,0.1483612,-0.17108154,9.804822,0.11054623,-0.153737,0.018051147,0.003036499,0.005279541,-26.339722,39.179993,21.238708,1,0.0,0.0,0.0,0.0
2.000488281,-0.019073932,0.46276188,-0.8862774,-0.0027291174,0.8864112,0.4628905,0.99981433,0.0112478975,-0.015644416,-0.018781582,0.46603444,-0.88456714,-0.002819539,0.884695,0.46616167,0.9998196,0.011249327,-0.015301971,10.012772,0.119644165,-0.14476013,9.80483,0.1103042,-0.15341932,0.016067505,0.0015106201,0.0017700195,-26.278687,39.479065,21.1792,1,0.0,0.0,0.0,0.0
2.008789063,-0.019045196,0.46277708,-0.88627005,-0.002730959,0.8864034,0.4629054,0.99981487,0.011236492,-0.015617902,-0.018787477,0.46596906,-0.8846016,-0.0028176815,0.88472944,0.46609634,0.9998195,0.011249299,-0.015308883,10.012772,0.14237976,-0.15792847,9.804835,0.11019235,-0.15315932,0.013320923,0.0015106201,0.002532959,-26.278687,39.479065,21.1792,1,0.0,0.0,0.0,0.0
2.017089844,-0.019031947,0.46278414,-0.88626677,-0.0027443478,0.8863998,0.46291253,0.9998151,0.01124235,-0.015599872,-0.018797703,0.4658428,-0.8846679,-0.0028141923,0.884796,0.4659701,0.9998194,0.0112487925,-0.015321161,10.016357,0.13519287,-0.15074158,9.804837,0.110249795,-0.15298249,0.0128479,-6.2561035E-4,0.0048217773,-26.278687,39.479065,21.1792,1,0.0,0.0,0.0,0.0
2.025390625,-0.01902467,0.46699175,-0.884057,-0.002662599,0.8841902,0.46711943,0.99981546,0.0112406835,-0.015578018,-0.018807005,0.46572182,-0.8847313,-0.0028113718,0.8848597,0.46584913,0.9998192,0.011248536,-0.015332245,10.016357,0.13519287,-0.15074158,9.804841,0.110233456,-0.15276818,0.01576233,1.373291E-4,0.0026855469,-26.579285,39.239502,21.299744,1,0.0,0.0,0.0,0.0
2.033691406,-0.019018527,0.46699506,-0.8840553,-0.0026682466,0.8841884,0.46712276,0.9998156,0.0112428665,-0.015569906,-0.018811338,0.46574724,-0.8847178,-0.0028084163,0.8848463,0.46587455,0.9998191,0.01124838,-0.015337131,10.034302,0.13279724,-0.15074158,9.804842,0.11025486,-0.15268862,0.0137786865,-0.0043029785,0.002532959,-26.579285,39.239502,21.299744,1,0.0,0.0,0.0,0.0
2.041992188,-0.019016868,0.4605225,-0.88744426,-0.0028090882,0.88757664,0.46065143,0.9998152,0.011253056,-0.01558528,-0.018819515,0.4657967,-0.8846916,-0.0028028958,0.8848203,0.46592405,0.999819,0.011248162,-0.015346309,10.039093,0.14715576,-0.16270447,9.804838,0.11035479,-0.15283939,0.012237549,-0.003692627,0.0019226074,-26.998901,39.118958,20.878601,1,0.0,0.0,0.0,0.0
2.050292969,-0.019066226,0.4611252,-0.8871302,-0.0028129094,0.88726324,0.4612548,0.9998143,0.011289806,-0.015619659,-0.018827382,0.46558818,-0.8848012,-0.0028030593,0.88493,0.46571562,0.99981886,0.011248356,-0.015355844,10.019943,0.15553284,-0.15911865,9.804829,0.11071518,-0.15317653,0.01637268,-3.2043457E-4,0.0016174316,-27.119446,38.69934,20.698547,1,0.0,0.0,0.0,0.0
2.05859375,-0.019091232,0.46111122,-0.8871369,-0.002832578,0.88727003,0.4612414,0.9998137,0.011318551,-0.015632946,-0.018832127,0.465499,-0.884848,-0.002803248,0.88497686,0.4656265,0.9998187,0.011249186,-0.015361087,9.998413,0.122039795,-0.17945862,9.804823,0.11099707,-0.15330684,0.018508911,0.00440979,0.0046691895,-27.119446,38.69934,20.698547,1,0.0,0.0,0.0,0.0
2.066894531,-0.019108688,0.46110156,-0.88714164,-0.0028052605,0.88727546,0.46123153,0.9998135,0.011302192,-0.015661158,-0.018842455,0.46532544,-0.88493913,-0.002804324,0.8850682,0.46545297,0.9998185,0.011251933,-0.015371934,10.033112,0.13639832,-0.12802124,9.804821,0.11083664,-0.1535835,0.02293396,-0.0027618408,0.0045166016,-27.119446,38.69934,20.698547,1,0.0,0.0,0.0,0.0
2.075195313,-0.019086177,0.46099874,-0.8871956,-0.002820016,0.88732886,0.46112868,0.99981385,0.011303087,-0.015635688,-0.018852875,0.46515837,-0.88502675,-0.0028043734,0.885156,0.46528605,0.9998184,0.011253924,-0.015383256,10.033112,0.13639832,-0.12802124,9.804825,0.11084542,-0.15333372,0.006286621,0.0018157959,0.005584717,-27.418518,38.69934,20.698547,1,0.0,0.0,0.0,0.0
2.083496094,-0.01905061,0.45505038,-0.8902619,-0.0029154434,0.8903944,0.4551805,0.9998143,0.011266974,-0.015635882,-0.0188575,0.46507525,-0.88507026,-0.002804685,0.8851996,0.465203,0.9998182,0.011254908,-0.0153882615,10.036697,0.11843872,-0.15194702,9.804829,0.110491276,-0.15333562,0.009033203,7.4768066E-4,0.00819397,-27.2995,39.118958,20.579529,1,0.0,0.0,0.0,0.0
2.091796875,-0.019077824,0.4550352,-0.89026916,-0.0028705453,0.8904026,0.45516494,0.99981385,0.011239112,-0.015680743,-0.01886512,0.46467942,-0.88527805,-0.0028089955,0.88540745,0.46480724,0.9998181,0.011255385,-0.015398034,9.978073,0.13400269,-0.17826843,9.804825,0.11021805,-0.15377557,0.016067505,-0.0058288574,0.006958008,-27.2995,39.118958,20.579529,1,0.0,0.0,0.0,0.0
2.100097656,-0.019107474,0.46352264,-0.88587904,-0.0026819007,0.88601387,0.46365103,0.99981385,0.01123504,-0.015686365,-0.018873638,0.46429852,-0.88547766,-0.0028112796,0.88560724,0.4644264,0.9998179,0.011254742,-0.015409358,10.025925,0.1375885,-0.13400269,9.804825,0.110178106,-0.15383069,0.018203735,0.003189087,0.0020751953,-27.659607,38.879395,20.939636,1,0.0,0.0,0.0,0.0
2.108398438,-0.019090015,0.4635325,-0.8858743,-0.002709495,0.88600844,0.4636611,0.99981403,0.01125157,-0.015657976,-0.018878367,0.46428302,-0.88548565,-0.0028086589,0.8856154,0.4644109,0.9998178,0.011254347,-0.015414959,10.02713,0.1375885,-0.13998413,9.804827,0.11034021,-0.1535523,0.018966675,0.005630493,0.002380371,-27.659607,38.879395,20.939636,1,0.0,0.0,0.0,0.0
2.116699219,-0.019052537,0.46355358,-0.8858639,-0.0027589202,0.88599694,0.46368253,0.9998146,0.011278359,-0.0156015875,-0.018886771,0.4642533,-0.8855011,-0.0028047096,0.88563097,0.46438125,0.99981767,0.011254236,-0.015424614,10.0247345,0.1531372,-0.14117432,9.804832,0.11060292,-0.15299931,0.016220093,0.0048675537,0.0049743652,-27.659607,38.879395,20.939636,1,0.0,0.0,0.0,0.0
2.125,-0.0190331,0.46030778,-0.88755536,-0.002805002,0.8876881,0.46043676,0.9998149,0.011253133,-0.015604292,-0.01889325,0.4642256,-0.88551545,-0.0028029373,0.88564545,0.46435356,0.99981755,0.011255192,-0.015431526,10.0247345,0.119644165,-0.18066406,9.804835,0.11035554,-0.15302584,0.016983032,9.0026855E-4,-6.1035156E-5,-27.539063,39.118958,20.878601,1,0.0,0.0,0.0,0.0
2.133300781,-0.01902211,0.46359923,-0.88584083,-0.00277605,0.8859733,0.46372816,0.9998152,0.0112802265,-0.015566106,-0.018896045,0.46414733,-0.8855564,-0.0028029648,0.88568646,0.4642753,0.9998175,0.011255151,-0.015434983,10.012772,0.14356995,-0.13877869,9.804838,0.110621236,-0.15265135,0.018203735,5.950928E-4,-8.239746E-4,-27.418518,38.99994,20.999146,1,0.0,0.0,0.0,0.0
2.141601563,-0.019014347,0.46360353,-0.8858386,-0.0028115138,0.8859705,0.4637329,0.9998152,0.011308127,-0.015542725,-0.018900976,0.46412566,-0.88556767,-0.0028019273,0.8856978,0.4642537,0.99981743,0.011256144,-0.015440108,10.012772,0.14356995,-0.13877869,9.804838,0.110894844,-0.15242207,0.020187378,-0.0043029785,0.0060424805,-27.418518,38.99994,20.999146,1,0.0,0.0,0.0,0.0
2.149902344,-0.019024389,0.46359795,-0.88584137,-0.0028183446,0.88597333,0.46372753,0.99981505,0.0113187395,-0.015548523,-0.018903326,0.46411526,-0.8855731,-0.0028020726,0.88570327,0.4642433,0.9998174,0.011257184,-0.015442253,10.025925,0.15194702,-0.14476013,9.804836,0.11099892,-0.15247892,0.01789856,-0.004135132,0.0071258545,-27.418518,38.99994,20.999146,1,0.0,0.0,0.0,0.0
2.158203125,-0.018988645,0.4608817,-0.8872584,-0.0028893733,0.8873894,0.4610116,0.9998155,0.011317605,-0.015518661,-0.018908193,0.4640948,-0.8855837,-0.002802676,0.88571393,0.46422294,0.99981725,0.011259622,-0.015446543,10.011566,0.14356995,-0.1268158,9.804841,0.1109878,-0.15218608,0.019729614,0.004562378,0.0019226074,-27.539063,39.05945,20.878601,1,0.0,0.0,0.0,0.0
2.166503906,-0.018960783,0.46089733,-0.8872509,-0.0029106275,0.88738126,0.4610272,0.999816,0.011323893,-0.015483942,-0.018911496,0.46396765,-0.8856502,-0.0028060423,0.8857805,0.4640958,0.9998172,0.011261919,-0.015449523,10.012772,0.14237976,-0.14476013,9.804846,0.111049466,-0.1518456,0.016067505,-0.0015411377,0.0020751953,-27.539063,39.05945,20.878601,1,0.0,0.0,0.0,0.0
2.174804688,-0.018928869,0.45997488,-0.8877301,-0.0029428494,0.8878597,0.46010476,0.9998165,0.011321719,-0.015452543,-0.018912511,0.46390635,-0.88568234,-0.0028081168,0.88581264,0.46403453,0.9998172,0.011263158,-0.015450238,10.012772,0.12322998,-0.13400269,9.804851,0.111028135,-0.15153769,0.016220093,-0.002609253,-0.003112793,-26.818848,39.538574,21.058655,1,0.0,0.0,0.0,0.0
2.183105469,-0.018940242,0.46162084,-0.8868751,-0.0029239408,0.88700485,0.4617508,0.9998163,0.011338843,-0.015450334,-0.018913094,0.46375084,-0.88576376,-0.002813491,0.885894,0.46387914,0.99981713,0.011265477,-0.015450237,10.016357,0.12562561,-0.13519287,9.804849,0.11119606,-0.15151602,0.014389038,-0.0032196045,9.1552734E-5,-26.45874,39.718628,21.238708,1,0.0,0.0,0.0,0.0
2.19140625,-0.018947726,0.46161687,-0.88687706,-0.0028978065,0.88700724,0.46174654,0.9998163,0.011319045,-0.015469094,-0.018914172,0.46366656,-0.8858079,-0.002817864,0.8859381,0.4637949,0.99981713,0.011268383,-0.015450237,10.035492,0.11366272,-0.15672302,9.804849,0.111001916,-0.15169999,0.020645142,0.0012054443,0.005126953,-26.45874,39.718628,21.238708,1,0.0,0.0,0.0,0.0
2.199707031,-0.018944614,0.46161854,-0.8868762,-0.0028693923,0.88700664,0.4617477,0.9998164,0.011292428,-0.015479433,-0.018914828,0.4636256,-0.8858292,-0.0028194687,0.8859595,0.463754,0.99981713,0.011269396,-0.015450595,10.035492,0.11366272,-0.15672302,9.80485,0.110740885,-0.15180139,0.020645142,-0.0032196045,5.493164E-4,-26.45874,39.718628,21.238708,1,0.0,0.0,0.0,0.0
2.208007813,-0.01895064,0.4574133,-0.88905233,-0.0029221354,0.8891828,0.45754272,0.9998161,0.011268658,-0.015513958,-0.018916056,0.46354622,-0.88587075,-0.0028214199,0.886001,0.46367463,0.9998171,0.011270309,-0.015451786,10.019943,0.12083435,-0.1651001,9.804848,0.11050779,-0.15213998,0.014694214,-0.0029144287,0.005432129,-26.219177,40.078735,21.1792,1,0.0,0.0,0.0,0.0
2.216308594,-0.01897008,0.4574031,-0.8890571,-0.002899638,0.8891882,0.4575324,0.9998158,0.011257369,-0.015541666,-0.01891747,0.46330377,-0.8859976,-0.0028253775,0.8861278,0.46343222,0.999817,0.011270243,-0.015454289,9.991226,0.13279724,-0.15672302,9.804844,0.11039708,-0.15241168,0.018966675,-0.002609253,0.0028381348,-26.219177,40.078735,21.1792,1,0.0,0.0,0.0,0.0
2.224609375,-0.018967375,0.46066454,-0.8873716,-0.0028156582,0.8875031,0.46079302,0.9998161,0.011238568,-0.01553653,-0.018918453,0.46318597,-0.88605917,-0.0028268914,0.88618946,0.4633144,0.9998171,0.011269985,-0.0154559575,10.013962,0.11843872,-0.13998413,9.804847,0.110212706,-0.15236132,0.018966675,2.89917E-4,0.0019226074,-25.979614,39.959717,21.299744,1,0.0,0.0,0.0,0.0
2.232910156,-0.018945878,0.45551077,-0.8900287,-0.0029328302,0.8901593,0.45564002,0.9998162,0.011242802,-0.015528912,-0.018920517,0.46308622,-0.88611126,-0.0028263722,0.8862416,0.46321467,0.999817,0.0112687405,-0.015459295,10.030716,0.13400269,-0.14596558,9.804848,0.11025423,-0.1522866,0.014541626,5.950928E-4,0.003753662,-25.679016,40.078735,21.058655,1,0.0,0.0,0.0,0.0
2.241210938,-0.018926455,0.45552072,-0.89002395,-0.0029278807,0.8901543,0.45564973,0.9998166,0.011229718,-0.015513756,-0.018921409,0.46278685,-0.8862676,-0.0028306372,0.88639796,0.46291533,0.99981695,0.011267713,-0.015461917,10.043869,0.12562561,-0.14715576,9.804852,0.11012592,-0.15213798,0.025222778,-0.0023040771,2.4414063E-4,-25.679016,40.078735,21.058655,1,0.0,0.0,0.0,0.0
2.249511719,-0.018920356,0.45552385,-0.8900225,-0.0029331725,0.8901527,0.45565286,0.99981666,0.011231704,-0.015505876,-0.018921547,0.46264184,-0.8863434,-0.002832564,0.8864737,0.46277034,0.99981695,0.011266953,-0.01546299,10.043869,0.12562561,-0.14715576,9.8048525,0.11014539,-0.1520607,0.018508911,-0.0012359619,-0.0011291504,-25.679016,40.078735,21.058655,1,0.0,0.0,0.0,0.0
2.2578125,-0.018926855,0.45539275,-0.89008945,-0.0029458418,0.89021957,0.455522,0.9998165,0.011243661,-0.015507542,-0.01892148,0.4623605,-0.88649005,-0.0028365576,0.88662046,0.46248904,0.9998169,0.011265557,-0.015464659,10.012772,0.119644165,-0.14596558,9.804851,0.110262655,-0.15207703,0.015151978,-0.0012359619,-0.001739502,-26.219177,39.718628,20.878601,1,0.0,0.0,0.0,0.0
2.266100647,-0.018936442,0.45538765,-0.89009184,-0.002944515,0.89022225,0.455517,0.99981636,0.01124676,-0.015516746,-0.018921783,0.46208513,-0.8866337,-0.0028408403,0.88676405,0.46221367,0.99981695,0.011264691,-0.015466448,10.031906,0.14237976,-0.16390991,9.804849,0.11029304,-0.15216729,0.019424438,-0.0029144287,2.4414063E-4,-26.219177,39.718628,20.878601,1,0.0,0.0,0.0,0.0
2.274401429,-0.018913198,0.45754713,-0.8889842,-0.0029389677,0.8891139,0.4576764,0.9998168,0.011268821,-0.015471272,-0.018922035,0.46195143,-0.88670343,-0.0028429343,0.8868337,0.46208,0.99981695,0.011264333,-0.015467402,10.022339,0.1375885,-0.10887146,9.804853,0.11050938,-0.15172136,0.013626099,0.0018157959,0.0013122559,-26.159668,39.718628,20.999146,1,0.0,0.0,0.0,0.0
2.28270221,-0.01891848,0.45918474,-0.8881393,-0.0029410203,0.8882688,0.45931435,0.99981666,0.011301566,-0.015454227,-0.018921768,0.46177724,-0.88679415,-0.0028466973,0.88692445,0.46190584,0.99981695,0.0112645095,-0.015467639,10.012772,0.13998413,-0.14237976,9.8048525,0.1108305,-0.1515542,0.018508911,-6.2561035E-4,9.1552734E-5,-25.85907,39.89868,21.1792,1,0.0,0.0,0.0,0.0
2.291002991,-0.018918036,0.459185,-0.8881392,-0.0029433616,0.88826877,0.45931467,0.9998167,0.011303446,-0.015452752,-0.018921696,0.46167463,-0.88684756,-0.0028504077,0.8869778,0.4618033,0.9998169,0.011265977,-0.015467162,10.005585,0.119644165,-0.15434265,9.804853,0.110848956,-0.15153974,0.018203735,-1.5258789E-5,0.0045166016,-25.85907,39.89868,21.1792,1,0.0,0.0,0.0,0.0
2.299303772,-0.0189182,0.45918494,-0.8881393,-0.0029279618,0.888269,0.45931438,0.9998167,0.011289837,-0.015459971,-0.018921563,0.4616249,-0.8868734,-0.0028522988,0.88700366,0.46175355,0.9998169,0.011266727,-0.015466805,10.005585,0.119644165,-0.15434265,9.804853,0.11071549,-0.15161054,0.018203735,-0.002609253,0.002532959,-25.85907,39.89868,21.1792,1,0.0,0.0,0.0,0.0
2.307604554,-0.018963192,0.46502006,-0.8850971,-0.0028030574,0.8852281,0.46514896,0.9998163,0.011301686,-0.01548327,-0.018921463,0.46152833,-0.8869237,-0.00285528,0.8870539,0.46165702,0.9998169,0.011267642,-0.015466566,9.98764,0.13519287,-0.1651001,9.804849,0.11083168,-0.15183902,0.024154663,-0.002609253,-0.0014343262,-26.039124,39.479065,21.299744,1,0.0,0.0,0.0,0.0
2.315905335,-0.01899249,0.4650047,-0.8851045,-0.0028095744,0.8852358,0.465134,0.99981564,0.011320818,-0.015506364,-0.018922321,0.46159825,-0.8868873,-0.002854228,0.88701755,0.46172693,0.9998169,0.011268322,-0.015466924,9.98764,0.13519287,-0.1651001,9.804843,0.11101931,-0.1520655,0.025222778,1.373291E-4,0.0043640137,-26.039124,39.479065,21.299744,1,0.0,0.0,0.0,0.0
2.324206116,-0.019004699,0.46438524,-0.8854294,-0.0028429832,0.8855607,0.46451515,0.9998154,0.011345231,-0.015509575,-0.018924983,0.46173328,-0.88681686,-0.0028525302,0.88694715,0.461862,0.9998168,0.011270402,-0.0154683525,10.000809,0.14596558,-0.15074158,9.80484,0.111258715,-0.15209697,0.008117676,-0.0021514893,5.493164E-4,-26.219177,39.538574,21.299744,1,0.0,0.0,0.0,0.0
2.332506897,-0.018998852,0.464436,-0.8854029,-0.002858114,0.8855339,0.46456602,0.9998154,0.011356803,-0.015496715,-0.01892817,0.4618384,-0.88676214,-0.0028521437,0.8868925,0.46196717,0.9998168,0.0112733655,-0.015470021,10.005585,0.13519287,-0.13639832,9.80484,0.111372195,-0.15197086,0.014846802,-0.002609253,0.0016174316,-25.91858,39.65912,21.359253,1,0.0,0.0,0.0,0.0
2.340807679,-0.018998157,0.46443632,-0.88540274,-0.0028729262,0.8855336,0.4645666,0.9998154,0.011369606,-0.015489214,-0.018929634,0.46189037,-0.88673496,-0.0028522364,0.8868654,0.46201915,0.9998168,0.011275033,-0.0154706165,10.005585,0.13519287,-0.13639832,9.804839,0.11149774,-0.1518973,0.014694214,-0.0012359619,0.0032958984,-25.91858,39.65912,21.359253,1,0.0,0.0,0.0,0.0
2.34910846,-0.01901585,0.4644271,-0.88540715,-0.0028502033,0.88553846,0.46455723,0.9998151,0.011357541,-0.015515557,-0.01893243,0.46199125,-0.8866824,-0.0028530196,0.8868128,0.46212012,0.9998167,0.011278777,-0.01547145,10.009171,0.12562561,-0.15911865,9.804837,0.11137943,-0.15215564,0.008880615,-0.0016937256,0.005279541,-25.91858,39.65912,21.359253,1,0.0,0.0,0.0,0.0
2.357409241,-0.019045629,0.46890733,-0.88304204,-0.002725483,0.8831746,0.46903652,0.9998149,0.011339811,-0.015542615,-0.01893566,0.46208775,-0.88663197,-0.0028529507,0.88676244,0.46221665,0.9998166,0.011281895,-0.015473118,10.0247345,0.12921143,-0.15553284,9.804834,0.11120555,-0.15242098,0.014541626,-0.0056762695,-0.0018920898,-26.159668,39.839172,21.71936,1,0.0,0.0,0.0,0.0
2.365710022,-0.019071203,0.4688941,-0.88304853,-0.00271892,0.8831816,0.46902347,0.99981445,0.0113457795,-0.015568449,-0.018937904,0.46222442,-0.8865608,-0.002850398,0.8866912,0.46235332,0.9998166,0.011283054,-0.015474549,10.0247345,0.12921143,-0.15553284,9.804831,0.11126409,-0.15267433,0.016220093,0.0015106201,-0.0014343262,-26.159668,39.839172,21.71936,1,0.0,0.0,0.0,0.0
2.374010804,-0.019048851,0.47023514,-0.88233566,-0.0026981956,0.8824684,0.47036415,0.9998149,0.011340609,-0.015541221,-0.018943284,0.46248907,-0.8864226,-0.0028451825,0.88655317,0.462618,0.99981654,0.011285538,-0.015478362,10.012772,0.12322998,-0.1375885,9.804835,0.111213386,-0.15240732,0.01499939,0.0013580322,0.0029907227,-25.91858,40.379333,22.079468,1,0.0,0.0,0.0,0.0
2.382311585,-0.019038107,0.47326782,-0.8807129,-0.0026154607,0.880846,0.47339588,0.99981534,0.01131603,-0.015531826,-0.01894739,0.46279645,-0.886262,-0.0028394423,0.88639265,0.4629254,0.9998164,0.011287719,-0.015480746,10.02832,0.12802124,-0.15672302,9.804839,0.11097235,-0.15231518,0.014389038,-0.0013885498,0.005279541,-25.498962,40.618896,22.37854,1,0.0,0.0,0.0,0.0
2.390612366,-0.019039996,0.47326687,-0.8807133,-0.002596072,0.8808466,0.47339463,0.99981534,0.011299827,-0.015542681,-0.018949278,0.46300656,-0.88615227,-0.0028349562,0.886283,0.46313548,0.9998164,0.011288285,-0.0154818185,10.02832,0.12802124,-0.15672302,9.80484,0.11081346,-0.15242165,0.017745972,-0.0018463135,0.0013122559,-25.498962,40.618896,22.37854,1,0.0,0.0,0.0,0.0
2.398913147,-0.019038731,0.4732675,-0.88071305,-0.0025876747,0.88084644,0.47339514,0.9998154,0.01129184,-0.015545535,-0.018953007,0.46341404,-0.8859392,-0.0028254874,0.88607,0.4635429,0.99981636,0.011288743,-0.015484321,10.016357,0.13160706,-0.15434265,9.80484,0.110735126,-0.15244962,0.017440796,9.0026855E-4,0.005279541,-25.498962,40.618896,22.37854,1,0.0,0.0,0.0,0.0
2.407213929,-0.019006921,0.46623954,-0.88445425,-0.0027347198,0.88458645,0.46636802,0.9998156,0.011282956,-0.015538232,-0.018956423,0.46380535,-0.8857343,-0.0028161178,0.8858652,0.46393418,0.99981636,0.011288865,-0.015486704,10.004395,0.13877869,-0.15553284,9.804842,0.110648006,-0.15237801,0.013626099,0.0018157959,0.0032958984,-25.439453,40.618896,21.958923,1,0.0,0.0,0.0,0.0
2.41551471,-0.019003972,0.46624106,-0.8844536,-0.0027400241,0.8845857,0.46636957,0.9998156,0.011286299,-0.015533132,-0.018957473,0.46385404,-0.88570875,-0.002814474,0.8858397,0.46398285,0.9998163,0.011288747,-0.015487777,10.004395,0.13877869,-0.15553284,9.804842,0.11068079,-0.15232798,0.015304565,-0.001083374,0.003753662,-25.439453,40.618896,21.958923,1,0.0,0.0,0.0,0.0
2.423815491,-0.019042328,0.4728474,-0.8809386,-0.0025860444,0.8810721,0.47297496,0.99981534,0.01128469,-0.015554858,-0.018959418,0.46394864,-0.8856592,-0.0028114785,0.88579017,0.46407744,0.9998163,0.011288649,-0.015489684,10.010376,0.13400269,-0.16989136,9.804839,0.11066501,-0.15254106,0.012542725,-1.6784668E-4,0.0031433105,-25.379944,40.559387,22.31903,1,0.0,0.0,0.0,0.0
2.432116272,-0.019060673,0.47172928,-0.8815374,-0.002605847,0.88167113,0.4718572,0.9998149,0.011291066,-0.015575988,-0.018962787,0.46430197,-0.8854739,-0.0028025578,0.885605,0.46443075,0.99981624,0.011288493,-0.015492306,10.009171,0.1375885,-0.16630554,9.804835,0.11072754,-0.15274827,0.014389038,0.0022735596,0.007873535,-25.2594,40.79895,22.37854,1,0.0,0.0,0.0,0.0
2.440417054,-0.019064225,0.47172752,-0.8815383,-0.0025931909,0.88167226,0.4718553,0.9998149,0.011281552,-0.015585118,-0.01896476,0.46445087,-0.8853958,-0.002798641,0.88552696,0.4645796,0.99981624,0.011288545,-0.015493975,10.009171,0.1375885,-0.16630554,9.804835,0.11063423,-0.1528378,0.0137786865,0.0022735596,0.007873535,-25.2594,40.79895,22.37854,1,0.0,0.0,0.0,0.0
2.448717835,-0.019053096,0.47173297,-0.88153553,-0.0025675376,0.88166964,0.47186023,0.9998152,0.011253774,-0.015587344,-0.018968813,0.46473962,-0.8852442,-0.0027904902,0.8853754,0.46486834,0.9998162,0.011288267,-0.0154976705,10.031906,0.15434265,-0.15553284,9.804838,0.11036183,-0.15285963,0.01499939,-0.0058288574,0.0022277832,-25.2594,40.79895,22.37854,1,0.0,0.0,0.0,0.0
2.457018616,-0.019102056,0.47268412,-0.8810249,-0.0025544097,0.8811597,0.47281182,0.9998143,0.011282176,-0.015624531,-0.018970517,0.4648798,-0.8851705,-0.002786046,0.8853019,0.46500847,0.9998161,0.0112875765,-0.015499458,10.031906,0.15434265,-0.15553284,9.804829,0.110640354,-0.1532243,0.01637268,-0.004135132,0.0016174316,-25.379944,40.79895,22.439575,1,0.0,0.0,0.0,0.0
2.465319397,-0.019100327,0.47268492,-0.8810245,-0.0025337194,0.88115954,0.4728123,0.99981433,0.011263138,-0.015632784,-0.018975716,0.4651895,-0.88500774,-0.002776945,0.88513917,0.4653181,0.99981606,0.011287363,-0.015504344,10.035492,0.117248535,-0.14237976,9.80483,0.11045365,-0.15330525,0.019577026,0.0018157959,0.0026855469,-25.379944,40.79895,22.439575,1,0.0,0.0,0.0,0.0
2.473620179,-0.019079128,0.47825325,-0.8780148,-0.0024077003,0.8781501,0.47837925,0.99981505,0.011241054,-0.015602846,-0.018980738,0.46548697,-0.8848512,-0.0027673314,0.88498276,0.46561557,0.999816,0.011286404,-0.015509469,10.016357,0.114852905,-0.13639832,9.804836,0.110237084,-0.15301165,0.02293396,0.0018157959,0.005279541,-25.498962,40.618896,22.679138,1,0.0,0.0,0.0,0.0
2.48192096,-0.019025601,0.47827953,-0.8780016,-0.002406836,0.87813604,0.47840497,0.9998161,0.011215148,-0.015555927,-0.018982805,0.46574327,-0.8847162,-0.002760143,0.88484794,0.46587178,0.999816,0.011285497,-0.015511378,10.016357,0.114852905,-0.13639832,9.804847,0.10998303,-0.15255153,0.014389038,0.0033416748,0.00390625,-25.498962,40.618896,22.679138,1,0.0,0.0,0.0,0.0
2.490221741,-0.019004699,0.47716045,-0.8786107,-0.0024548913,0.8787445,0.47728625,0.9998164,0.011227574,-0.015528896,-0.018984744,0.46624154,-0.8844538,-0.0027460973,0.8845855,0.46636996,0.999816,0.01128271,-0.015513285,10.022339,0.13877869,-0.13998413,9.80485,0.110104896,-0.15228646,0.018661499,-0.0023040771,0.0043640137,-25.079346,40.319824,22.439575,1,0.0,0.0,0.0,0.0
2.498522522,-0.01900397,0.47716078,-0.87861043,-0.002443917,0.87874436,0.47728637,0.9998164,0.011217588,-0.015533491,-0.018985491,0.46667534,-0.88422495,-0.0027346322,0.8843568,0.46680364,0.99981606,0.011280526,-0.015513763,10.018753,0.12322998,-0.1603241,9.80485,0.11000696,-0.15233152,0.009506226,0.0019683838,0.0026855469,-25.079346,40.319824,22.439575,1,0.0,0.0,0.0,0.0
2.506823304,-0.018994223,0.47796604,-0.8781729,-0.002418147,0.8783068,0.47809124,0.99981666,0.011204525,-0.015526966,-0.01898587,0.46688572,-0.8841139,-0.002728838,0.88424575,0.46701398,0.99981606,0.011279268,-0.0155141195,10.018753,0.12322998,-0.1603241,9.8048525,0.10987886,-0.15226753,0.019882202,0.0013580322,2.4414063E-4,-25.138855,39.89868,22.259521,1,0.0,0.0,0.0,0.0
2.515124085,-0.018971812,0.47797713,-0.87816733,-0.0024028793,0.87830114,0.47810185,0.9998172,0.011180589,-0.015514443,-0.018986262,0.46732587,-0.8838812,-0.002716545,0.88401324,0.467454,0.999816,0.011276308,-0.015514595,10.033112,0.112457275,-0.15074158,9.804857,0.10964413,-0.15214472,0.019119263,-0.0016937256,0.0031433105,-25.138855,39.89868,22.259521,1,0.0,0.0,0.0,0.0
2.523424866,-0.018964136,0.4717195,-0.88154465,-0.002523492,0.8816778,0.47184506,0.99981695,0.011172704,-0.0155298775,-0.01898579,0.46774897,-0.8836574,-0.0027041077,0.8837895,0.46787694,0.99981606,0.011272518,-0.015514596,10.019943,0.12802124,-0.16151428,9.804855,0.10956681,-0.15229608,0.019119263,1.373291E-4,0.0022277832,-24.719238,40.379333,22.138977,1,0.0,0.0,0.0,0.0
2.531725647,-0.018979961,0.47171184,-0.8815485,-0.0025089653,0.88168204,0.4718373,0.99981666,0.011167228,-0.015550783,-0.018985309,0.4678285,-0.8836153,-0.002700524,0.8837474,0.46795645,0.99981606,0.011270522,-0.015514835,10.019943,0.12802124,-0.16151428,9.8048525,0.109513104,-0.15250109,0.01423645,-0.0035247803,0.0046691895,-24.719238,40.379333,22.138977,1,0.0,0.0,0.0,0.0
2.540026429,-0.018994795,0.4779942,-0.87815756,-0.0023579462,0.87829214,0.47811845,0.9998168,0.011152411,-0.015555895,-0.018985128,0.46798244,-0.8835338,-0.0026929313,0.8836659,0.4681103,0.9998161,0.011266431,-0.015516266,10.039093,0.12802124,-0.14596558,9.804853,0.109367795,-0.15255122,0.018051147,0.0036468506,0.0026855469,-24.778748,40.019226,22.31903,1,0.0,0.0,0.0,0.0
2.54832721,-0.018966671,0.47800785,-0.8781509,-0.0023636161,0.878285,0.47813192,0.9998174,0.01114418,-0.015528313,-0.018985698,0.4683801,-0.8833231,-0.0026796167,0.8834553,0.46850783,0.9998162,0.011261915,-0.015517936,10.00798,0.13040161,-0.13639832,9.804859,0.109287076,-0.15228073,0.013153076,0.0027313232,0.002380371,-24.778748,40.019226,22.31903,1,0.0,0.0,0.0,0.0
2.556627991,-0.018917238,0.47485462,-0.87986094,-0.0024605468,0.8799937,0.47497916,0.999818,0.0111502325,-0.015478648,-0.01898539,0.46857318,-0.8832207,-0.0026732758,0.8833529,0.46870086,0.9998162,0.0112595605,-0.0155181745,10.00798,0.13040161,-0.13639832,9.804866,0.10934643,-0.15179369,0.016525269,0.0021209717,8.544922E-4,-24.899292,40.13977,22.198486,1,0.0,0.0,0.0,0.0
2.564928772,-0.018938383,0.47484434,-0.87986606,-0.0024691643,0.879999,0.4749692,0.99981755,0.011167682,-0.015493288,-0.01898285,0.4688224,-0.88308847,-0.0026647667,0.88322073,0.4689499,0.99981624,0.011255231,-0.015516745,10.001999,0.13998413,-0.17347717,9.804862,0.10951756,-0.15193726,0.008880615,-0.0044403076,0.004058838,-24.899292,40.13977,22.198486,1,0.0,0.0,0.0,0.0
2.573229554,-0.018975211,0.47231507,-0.88122547,-0.0024962178,0.881359,0.47244036,0.9998168,0.011164388,-0.015544972,-0.018981103,0.46906132,-0.88296163,-0.0026570167,0.88309395,0.46918872,0.9998163,0.011251763,-0.015515792,10.022339,0.124420166,-0.17945862,9.804853,0.109485246,-0.15244411,0.015609741,0.0021209717,0.0016174316,-25.019836,40.078735,22.019958,1,0.0,0.0,0.0,0.0
2.581530335,-0.01901205,0.472297,-0.88123447,-0.00247656,0.8813688,0.47242245,0.9998162,0.011164147,-0.015586955,-0.018981006,0.46912646,-0.882927,-0.002653794,0.8830593,0.46925384,0.9998163,0.011250015,-0.015516388,10.022339,0.124420166,-0.17945862,9.804848,0.10948289,-0.15285581,0.021255493,0.0050201416,0.003753662,-25.019836,40.078735,22.019958,1,0.0,0.0,0.0,0.0
2.589831116,-0.018991549,0.46869308,-0.8831569,-0.0025850954,0.88329023,0.46881944,0.9998163,0.011186652,-0.015563433,-0.018982314,0.4692521,-0.8828602,-0.0026467475,0.8829926,0.4693794,0.9998163,0.011246615,-0.01551925,10.011566,0.14356995,-0.15792847,9.804849,0.10970358,-0.15262514,0.014846802,0.0018157959,0.0072631836,-25.138855,40.019226,21.77887,1,0.0,0.0,0.0,0.0
2.598131897,-0.018969692,0.46870396,-0.88315165,-0.0025898945,0.8832845,0.46883014,0.99981666,0.011180832,-0.015541741,-0.018982606,0.4692299,-0.882872,-0.0026443466,0.8830044,0.46935716,0.9998163,0.011244241,-0.015520919,10.009171,0.13877869,-0.14237976,9.8048525,0.10964651,-0.15241241,0.015914917,-0.005050659,0.0071258545,-25.138855,40.019226,21.77887,1,0.0,0.0,0.0,0.0
2.606432679,-0.018957213,0.46360946,-0.88583684,-0.0026695486,0.88596934,0.46373594,0.99981666,0.011155926,-0.015557882,-0.018982295,0.46921942,-0.8828776,-0.002643284,0.8830101,0.46934664,0.99981636,0.011242973,-0.015521278,10.009171,0.13877869,-0.14237976,9.8048525,0.10940226,-0.15257071,0.011932373,-0.0053710938,0.006958008,-25.019836,40.019226,21.479797,1,0.0,0.0,0.0,0.0
2.61473346,-0.018949673,0.4636132,-0.8858351,-0.0026351693,0.88596797,0.4637391,0.99981695,0.011122029,-0.0155671025,-0.018981278,0.46899763,-0.8829954,-0.0026443363,0.8831279,0.46912482,0.9998163,0.011239525,-0.015522707,10.019943,0.12802124,-0.14596558,9.804854,0.10906985,-0.15266111,0.014541626,-7.7819824E-4,0.0013122559,-25.019836,40.019226,21.479797,1,0.0,0.0,0.0,0.0
2.623034241,-0.018948605,0.46350813,-0.88589,-0.002637465,0.8860228,0.463634,0.99981695,0.011121723,-0.015566412,-0.018980142,0.4687847,-0.88310856,-0.0026439088,0.88324106,0.46891186,0.99981636,0.011234871,-0.0155246155,10.009171,0.122039795,-0.14476013,9.804855,0.109066844,-0.15265436,0.014541626,-0.001083374,0.002532959,-25.138855,40.13977,21.539307,1,0.0,0.0,0.0,0.0
2.631335022,-0.018947318,0.46350887,-0.88588977,-0.0026426842,0.88602245,0.46363482,0.99981695,0.011125761,-0.015562839,-0.018979503,0.46867934,-0.8831645,-0.0026437826,0.88329697,0.46880648,0.9998164,0.011232608,-0.015525451,10.009171,0.122039795,-0.14476013,9.804855,0.10910645,-0.15261932,0.011795044,-0.0033874512,-0.003112793,-25.138855,40.13977,21.539307,1,0.0,0.0,0.0,0.0
2.639635804,-0.018962901,0.46128044,-0.8870517,-0.0026704124,0.8871847,0.46140668,0.9998166,0.011118404,-0.015591787,-0.018978171,0.46847486,-0.883273,-0.0026437696,0.88340545,0.46860194,0.99981636,0.011228379,-0.015526881,10.010376,0.110076904,-0.1603241,9.804852,0.10903429,-0.1529032,0.019577026,-0.0023040771,5.493164E-4,-25.138855,40.618896,21.659851,1,0.0,0.0,0.0,0.0
2.647936585,-0.01898725,0.46126842,-0.8870575,-0.0026879124,0.88719064,0.46139523,0.9998161,0.011144958,-0.015605462,-0.0189776,0.46819058,-0.8834237,-0.0026448024,0.8835562,0.46831766,0.9998164,0.011224025,-0.015529504,10.013962,0.13400269,-0.1483612,9.804847,0.109294705,-0.15303731,0.020645142,-1.6784668E-4,-3.6621094E-4,-25.138855,40.618896,21.659851,1,0.0,0.0,0.0,0.0
2.656237366,-0.019026536,0.4694233,-0.8827682,-0.002530944,0.8829026,0.46954933,0.9998158,0.0111681335,-0.015610495,-0.018977813,0.4680524,-0.8834969,-0.0026456472,0.88362944,0.46817943,0.99981636,0.011222444,-0.015531053,10.013962,0.13400269,-0.1483612,9.804844,0.10952198,-0.15308666,0.016220093,-0.003692627,0.0036010742,-25.19989,40.499878,22.079468,1,0.0,0.0,0.0,0.0
2.664538147,-0.019034134,0.4694195,-0.88277,-0.002547583,0.88290435,0.46954584,0.9998156,0.0111863315,-0.015609438,-0.018979708,0.4681067,-0.8834681,-0.0026411302,0.8836007,0.46823367,0.99981636,0.011220293,-0.015534153,10.005585,0.13998413,-0.14596558,9.804842,0.10970044,-0.15307629,0.018814087,-6.2561035E-4,0.0026855469,-25.19989,40.499878,22.079468,1,0.0,0.0,0.0,0.0
2.672838929,-0.019031791,0.47178683,-0.8815072,-0.0024941498,0.8816417,0.47191265,0.9998157,0.011179955,-0.015602515,-0.01898197,0.46815866,-0.88344055,-0.0026373728,0.8835732,0.46828568,0.99981636,0.011218947,-0.015537253,10.001999,0.1268158,-0.13877869,9.804844,0.109637916,-0.15300842,0.017440796,0.0021209717,0.005279541,-25.138855,40.79895,22.37854,1,0.0,0.0,0.0,0.0
2.68113971,-0.019012935,0.47179592,-0.8815027,-0.0024863249,0.88163704,0.47192144,0.9998162,0.011164315,-0.015589472,-0.01898298,0.46823132,-0.88340193,-0.002634508,0.88353467,0.46835828,0.9998163,0.011218167,-0.015538563,10.017548,0.13040161,-0.14117432,9.804847,0.10948452,-0.15288049,0.013153076,-0.0035247803,0.008804321,-25.138855,40.79895,22.37854,1,0.0,0.0,0.0,0.0
