Time,Rot1,Rot2,Rot3,Rot4,Rot5,Rot6,Rot7,Rot8,Rot9,FRot1,FRot2,FRot3,FRot4,FRot5,FRot6,FRot7,FRot8,FRot9,AccX,AccY,AccZ,GravX,GravY,GravZ,GyroX,GyroY,GyroZ,MagX,MagY,MagZ,Imid
0.0,0.0,0.0,0.0,0.0,0.0,0.0,0.0,0.0,0.0,0.0,0.0,0.0,0.0,0.0,0.0,0.0,0.0,0.0,0.0,0.0,0.0,9.802693,0.14786021,0.23607595,0.0,0.0,0.0,0.0,0.0,0.0,0,0.0,0.0,0.0,0.0
0.008300782,-0.010728996,0.9864868,-0.1634888,-0.02621108,0.16316459,0.9862506,0.99959886,0.014866698,0.024106294,1.0,0.0,0.0,0.0,1.0,0.0,0.0,0.0,1.0,10.060623,0.058624268,0.21057129,9.802716,0.1457925,0.23640199,-0.06466675,0.0056762695,0.010925293,-38.578796,3.1799316,21.71936,0,0.0,0.0,0.0,0.0
0.016601563,-0.010518931,0.9865493,-0.16312484,-0.026190903,0.16280606,0.9863103,0.99960154,0.014647317,0.024126073,0.9965743,0.05568359,-0.061148133,-0.05561517,0.9984483,0.0028216876,0.061210368,5.8874226E-4,0.9981247,10.060623,0.058624268,0.21057129,9.802743,0.14364111,0.23659596,-0.06329346,0.0113220215,0.015823364,-38.578796,3.1799316,21.71936,0,0.0,0.0,0.0,0.0
0.024902344,-0.010233328,0.9866341,-0.16262995,-0.02618394,0.16231829,0.986391,0.99960476,0.014352355,0.02417291,0.99245256,0.08264862,-0.09059245,-0.08238575,0.9965784,0.0066437456,0.09083158,8.699239E-4,0.9958659,10.060623,0.058624268,0.21057129,9.802774,0.14074853,0.23705527,-0.06329346,0.0014038086,0.02986145,-38.578796,3.1799316,21.71936,0,0.0,0.0,0.0,0.0
0.033203125,-0.010037357,0.9876671,-0.1562462,-0.026107615,0.15594196,0.9874211,0.99960876,0.013990316,0.02422039,0.97992444,0.13480107,-0.14689063,-0.13352154,0.99087167,0.018582264,0.14805466,0.0014038468,0.98897815,10.039093,0.056228638,0.26200867,9.802814,0.13719814,0.2375209,-0.053375244,-0.0027160645,0.033828735,-38.879395,2.8793335,20.698547,0,0.0,0.0,0.0,0.0
0.041503907,-0.009669275,0.9877775,-0.15557016,-0.02604543,0.15527587,0.98752767,0.999614,0.01360057,0.024225686,0.96233535,0.18479213,-0.19940536,-0.18134075,0.98277587,0.035598844,0.20254914,0.0019022878,0.9792703,10.035492,0.06700134,0.26679993,9.802865,0.13337603,0.23757283,-0.053207397,-0.005630493,0.03215027,-38.879395,2.8793335,20.698547,0,0.0,0.0,0.0,0.0
0.049804688,-0.009605768,0.9894844,-0.14431968,-0.025891209,0.14403184,0.9892342,0.9996186,0.013238966,0.024235414,0.95190257,0.20889065,-0.22415633,-0.20382941,0.9779367,0.045754045,0.22876829,0.0021362612,0.97347856,10.023529,0.07298279,0.2763672,9.80291,0.12982991,0.23766823,-0.053207397,-0.005630493,0.03138733,-39.05945,2.6397705,20.698547,0,0.0,0.0,0.0,0.0
0.058105469,-0.009280451,0.9895752,-0.14371736,-0.025825089,0.14343841,0.9893221,0.99962336,0.012892871,0.024224697,0.9281356,0.25571382,-0.2705083,-0.24624404,0.9667491,0.06899327,0.27915618,0.0025759423,0.9602422,10.036697,0.09211731,0.2632141,9.802957,0.12643588,0.23756313,-0.057647705,-0.01676941,0.024673462,-39.05945,2.6397705,20.698547,0,0.0,0.0,0.0,0.0
0.06640625,-0.009264917,0.99039304,-0.13797054,-0.025574131,0.13769664,0.99014425,0.99963,0.01270208,0.02405269,0.90121156,0.30014873,-0.31261554,-0.28459635,0.9538877,0.09541015,0.3268374,0.0029845047,0.94507587,9.999603,0.1375885,0.19262695,9.803021,0.12456486,0.23587632,-0.046188354,-0.012039185,0.0032958984,-38.938904,2.519226,20.698547,0,0.0,0.0,0.0,0.0
0.074707032,-0.0092256,0.9904035,-0.13789783,-0.025391703,0.13762721,0.9901586,0.99963504,0.012636269,0.023878338,0.8867441,0.32158622,-0.33206525,-0.302338,0.946875,0.109633744,0.34968096,0.003178862,0.9368634,9.999603,0.1375885,0.19262695,9.803071,0.12391947,0.2341665,-0.043136597,-0.00944519,-0.0022125244,-38.938904,2.519226,20.698547,0,0.0,0.0,0.0,0.0
0.083007813,-0.00983642,0.99318475,-0.11613509,-0.025055544,0.11585944,0.99294955,0.99963766,0.012676897,0.02374514,0.8562465,0.3627096,-0.36780936,-0.33476585,0.93189543,0.1396521,0.39341304,0.0035533858,0.919355,10.018753,0.09451294,0.23330688,9.803097,0.1243179,0.23286028,-0.03703308,1.8310547E-4,-0.013809204,-39.59961,1.979065,20.27893,0,0.0,0.0,0.0,0.0
0.091308594,-0.009794065,0.99319464,-0.11605335,-0.02505275,0.11577877,0.99295896,0.99963814,0.012632562,0.023748316,0.82382333,0.40234703,-0.39928928,-0.3639234,0.9154788,0.17163391,0.43459728,0.0039146873,0.90061635,10.034302,0.029907227,0.2536316,9.8031025,0.12388312,0.23289144,-0.029083252,0.0014038086,-0.016098022,-39.59961,1.979065,20.27893,0,0.0,0.0,0.0,0.0
0.099609375,-0.010189662,0.9946438,-0.10285902,-0.024898566,0.10258009,0.99441314,0.999638,0.012693775,0.023719946,0.8071581,0.42131233,-0.41351143,-0.37702143,0.9069064,0.18808413,0.45425832,0.0040890495,0.8908606,10.035492,0.090927124,0.21655273,9.803101,0.12448341,0.23261322,-0.0284729,-0.0062408447,-0.0104522705,-40.019226,1.6189575,19.619751,0,0.0,0.0,0.0,0.0
0.107910157,-0.009675653,0.99216527,-0.12455672,-0.025063034,0.12428279,0.9919302,0.99963903,0.0127193425,0.023664156,0.77300394,0.458052,-0.43892273,-0.40077484,0.8889143,0.22183506,0.49177673,0.0044298065,0.87071,10.054642,0.08375549,0.22732544,9.803111,0.12473415,0.23206612,-0.02923584,-0.0077667236,-0.011672974,-39.65912,2.0385742,19.319153,0,0.0,0.0,0.0,0.0
0.116210938,-0.009703039,0.9921581,-0.12461219,-0.02501595,0.124338195,0.9919244,0.99963987,0.012741974,0.023613319,0.7387302,0.4918628,-0.46081302,-0.42021158,0.8706597,0.25568318,0.5269724,0.0047580814,0.84986913,10.054642,0.08375549,0.22732544,9.803119,0.12495608,0.23156756,-0.035507202,0.0032348633,-0.004043579,-39.65912,2.0385742,19.319153,0,0.0,0.0,0.0,0.0
0.124511719,-0.009653574,0.9921711,-0.12451202,-0.025011895,0.124239266,0.99193686,0.99964046,0.012690018,0.02361673,0.72153556,0.5080033,-0.47044575,-0.4286529,0.8613411,0.27266872,0.54373085,0.0049177636,0.83924526,10.037888,0.052642822,0.23449707,9.803124,0.12444656,0.231601,-0.0443573,7.9345703E-4,0.0013122559,-39.65912,2.0385742,19.319153,0,0.0,0.0,0.0,0.0
0.1328125,-0.0097922925,0.99335694,-0.11465638,-0.024921935,0.11438382,0.99312395,0.9996414,0.012582419,0.023636298,0.6872272,0.53881705,-0.48723197,-0.4431325,0.84240663,0.30656928,0.57563215,0.005225553,0.8176921,10.037888,0.052642822,0.23449707,9.803134,0.12339138,0.23179291,-0.036575317,-2.746582E-4,2.4414063E-4,-39.779663,1.8585205,19.499207,0,0.0,0.0,0.0,0.0
0.141113282,-0.009719834,0.99337447,-0.11451022,-0.02490121,0.114239655,0.993141,0.9996426,0.012504609,0.023625838,0.6700951,0.55367714,-0.4943827,-0.44936252,0.8327141,0.32351285,0.5908011,0.005372694,0.80679935,10.046265,0.08135986,0.23210144,9.803145,0.12262833,0.23169032,-0.034118652,-0.00730896,0.0019226074,-39.779663,1.8585205,19.499207,0,0.0,0.0,0.0,0.0
0.149414063,-0.009635093,0.9931549,-0.11640663,-0.024840107,0.116138384,0.9929223,0.99964494,0.012458453,0.023551071,0.6361993,0.58201504,-0.50646716,-0.45966655,0.8131584,0.3570436,0.61964273,0.0056551252,0.78486365,10.021133,0.114852905,0.19740295,9.803168,0.122175686,0.23095712,-0.03642273,0.006591797,0.009094238,-39.65912,1.8585205,19.1391,0,0.0,0.0,0.0,0.0
0.157714844,-0.009633717,0.99340546,-0.114248544,-0.02484722,0.113980755,0.9931721,0.9996448,0.012406699,0.023585308,0.6030028,0.6085214,-0.5158385,-0.4672509,0.7935154,0.38988456,0.6465789,0.0059245443,0.7628242,10.057037,0.14117432,0.24287415,9.803167,0.12166816,0.23129287,-0.03504944,0.011169434,0.012451172,-39.59961,1.8585205,19.499207,0,0.0,0.0,0.0,0.0
0.166015625,-0.009541475,0.99342763,-0.11406332,-0.024935257,0.11379666,0.993191,0.9996435,0.012320706,0.023685588,0.58668834,0.62117547,-0.5195554,-0.4701451,0.78364813,0.40602854,0.6593636,0.006054191,0.7517998,10.057037,0.14117432,0.24287415,9.803154,0.12082485,0.23227628,-0.03504944,0.018203735,0.014434814,-39.59961,1.8585205,19.499207,0,0.0,0.0,0.0,0.0
0.174316407,-0.009518609,0.9934331,-0.114017405,-0.024993263,0.113750584,0.9931949,0.9996423,0.012303502,0.02374639,0.5547554,0.6452759,-0.52522904,-0.47423422,0.76392365,0.43763292,0.6836288,0.00630235,0.72980267,10.030716,0.19023132,0.21655273,9.803143,0.12065614,0.23287255,-0.019317627,0.0020141602,0.009857178,-39.59961,1.8585205,19.499207,0,0.0,0.0,0.0,0.0
0.182617188,-0.00970857,0.99451923,-0.104102015,-0.0249038,0.10383415,0.99428284,0.9996427,0.0122456,0.023759227,0.523845,0.6678343,-0.5287568,-0.47624534,0.74428123,0.4682262,0.70624125,0.0065400014,0.707941,10.030716,0.19023132,0.21655273,9.803146,0.12008832,0.23299843,-0.0090789795,0.0126953125,0.008026123,-40.019226,1.6189575,19.198608,0,0.0,0.0,0.0,0.0
0.190917969,-0.009683129,0.994525,-0.10404947,-0.024928682,0.103781916,0.9942876,0.9996423,0.012221631,0.023787262,0.5087069,0.67870885,-0.5296901,-0.4766414,0.7343774,0.48322144,0.71695906,0.006654116,0.69708353,10.036697,0.14237976,0.20936584,9.803143,0.11985326,0.23327336,-0.005874634,0.008117676,-5.187988E-4,-40.019226,1.6189575,19.198608,0,0.0,0.0,0.0,0.0
0.19921875,-0.009405637,0.99400073,-0.108968586,-0.025076145,0.10870467,0.9937578,0.9996413,0.012079436,0.023903267,0.4793025,0.69939005,-0.53020996,-0.47612214,0.71470714,0.5123489,0.7372766,0.0068745944,0.675556,10.015152,0.0047912598,0.28953552,9.803132,0.1184588,0.23441097,-2.2888184E-4,-4.272461E-4,-0.013809204,-40.019226,1.6799927,18.778992,0,0.0,0.0,0.0,0.0
0.207519532,-0.009427303,0.9939451,-0.10947209,-0.025020726,0.109208204,0.9937039,0.9996425,0.01210702,0.023839692,0.45119968,0.71857977,-0.5292087,-0.47393337,0.6954084,0.54017985,0.75617856,0.00708071,0.65432703,10.011566,0.061019897,0.22492981,9.803144,0.118729316,0.23378752,0.0060424805,-0.023651123,-0.02130127,-39.538574,1.739502,19.198608,0,0.0,0.0,0.0,0.0
0.215820313,-0.009522446,0.9939229,-0.10966601,-0.024899762,0.109401286,0.9936857,0.9996446,0.012192977,0.023706675,0.43761212,0.72769,-0.5281694,-0.472307,0.68586856,0.5536338,0.7651286,0.0071812384,0.64383745,10.011566,0.061019897,0.22492981,9.8031645,0.11957226,0.23248306,0.016113281,-0.0068511963,-0.026947021,-39.538574,1.739502,19.198608,0,0.0,0.0,0.0,0.0
0.224121094,-0.009639388,0.9938954,-0.10990436,-0.024758201,0.10963854,0.9936631,0.99964696,0.012299339,0.023550214,0.41136667,0.7449996,-0.52512205,-0.46810827,0.66702414,0.57961494,0.78208196,0.007379708,0.62313193,10.063019,0.047851563,0.17945862,9.803188,0.12061532,0.23094872,0.020996094,0.0015563965,-0.029693604,-39.538574,1.739502,19.198608,0,0.0,0.0,0.0,0.0
0.232421875,-0.009691171,0.99374014,-0.111294806,-0.024760732,0.11102742,0.9935088,0.9996464,0.012384005,0.02352975,0.38636494,0.7611584,-0.52092224,-0.46278813,0.6485218,0.60435635,0.79784036,0.0075745285,0.6028212,10.045074,0.0143585205,0.20698547,9.803183,0.1214456,0.23074803,0.027267456,0.006591797,-0.024353027,-39.35852,1.739502,18.959045,0,0.0,0.0,0.0,0.0
0.240722657,-0.009751818,0.9937256,-0.111419365,-0.024775118,0.111150354,0.99349475,0.99964553,0.012448808,0.023535753,0.3743411,0.76881343,-0.518454,-0.45974854,0.63942707,0.6162502,0.805295,0.00767072,0.5928247,10.045074,0.0143585205,0.20698547,9.803174,0.12208111,0.23080689,0.031692505,0.0030822754,-0.018539429,-39.35852,1.739502,18.959045,0,0.0,0.0,0.0,0.0
0.249023438,-0.009975667,0.99446386,-0.10460412,-0.02469631,0.10433239,0.99423575,0.99964523,0.012501502,0.023518803,0.35121477,0.7833534,-0.51284075,-0.45302257,0.6215269,0.63912034,0.81940144,0.007859937,0.5731662,10.025925,0.04547119,0.19740295,9.803171,0.122597866,0.23064068,0.035964966,0.007659912,-0.008926392,-39.29901,1.6189575,19.1391,0,0.0,0.0,0.0,0.0
0.257324219,-0.009750065,0.9935077,-0.113345936,-0.024809409,0.11307608,0.9932765,0.99964464,0.012496558,0.023545843,0.32917494,0.79708934,-0.50625336,-0.4456356,0.6038078,0.6609275,0.83249795,0.008043746,0.55396974,10.040283,0.06939697,0.23210144,9.803165,0.12254937,0.23090585,0.024963379,0.003692627,0.0115356445,-39.179993,1.7990112,19.1391,0,0.0,0.0,0.0,0.0
0.265625,-0.00963782,0.9935347,-0.1131187,-0.024818059,0.11285144,0.9933018,0.99964553,0.012380651,0.023569962,0.31868127,0.80350333,-0.5028167,-0.44163746,0.5952447,0.6712973,0.8386886,0.008132804,0.54455054,10.040283,0.06939697,0.23210144,9.803174,0.12141272,0.23114237,0.027420044,0.003692627,0.0115356445,-39.179993,1.7990112,19.1391,0,0.0,0.0,0.0,0.0
0.273925782,-0.009477891,0.99357307,-0.112794906,-0.024913257,0.11253033,0.9933359,0.9996447,0.012224818,0.023686592,0.29856068,0.81569123,-0.49548903,-0.4332302,0.57842803,0.691182,0.8503958,0.008301022,0.5260779,10.036697,0.06460571,0.30389404,9.803166,0.11988452,0.23228614,0.021911621,0.0059814453,0.009399414,-39.179993,1.7990112,19.1391,0,0.0,0.0,0.0,0.0
0.282226563,-0.00907768,0.9924431,-0.122369826,-0.025104817,0.1221101,0.992199,0.99964356,0.012078937,0.023806626,0.28892547,0.8214802,-0.49162212,-0.42884836,0.5701754,0.7007061,0.8559271,0.008379499,0.5170286,10.036697,0.06460571,0.30389404,9.803155,0.11845391,0.23346326,0.016418457,0.0038452148,0.008636475,-39.179993,2.0385742,19.439697,0,0.0,0.0,0.0,0.0
0.290527344,-0.0090250885,0.99245644,-0.12226522,-0.025192373,0.122005716,0.99220955,0.99964184,0.012034931,0.023901219,0.27064648,0.8322628,-0.4838275,-0.41968107,0.5543157,0.7187503,0.86638224,0.008525999,0.49930856,10.034302,0.13160706,0.2715912,9.803138,0.11802236,0.23439088,0.0022125244,0.011016846,0.0061950684,-39.179993,2.0385742,19.439697,0,0.0,0.0,0.0,0.0
0.298828125,-0.008521495,0.99014455,-0.13978991,-0.025441408,0.13953505,0.9898903,0.99964,0.011991796,0.024001623,0.2534199,0.8423325,-0.47566187,-0.41020545,0.53888845,0.73575175,0.87607634,0.008664955,0.48209453,10.02832,0.11605835,0.27397156,9.80312,0.11759935,0.23537551,-0.020233154,-0.0048675537,-0.0020446777,-38.99994,2.4597168,19.799805,0,0.0,0.0,0.0,0.0
0.307128907,-0.008501706,0.9901501,-0.13975161,-0.025472675,0.13949688,0.98989487,0.9996394,0.011975642,0.02403581,0.24533221,0.84692615,-0.47172898,-0.4052896,0.53163886,0.74370724,0.8806545,0.008731493,0.47367847,10.02832,0.11605835,0.27397156,9.803114,0.11744094,0.23571077,-0.016418457,-0.011734009,-3.6621094E-4,-38.99994,2.4597168,19.799805,0,0.0,0.0,0.0,0.0
0.315429688,-0.008149782,0.9881762,-0.15310591,-0.025538024,0.15285538,0.98791856,0.99964064,0.011961344,0.023990327,0.2298718,0.855662,-0.4636825,-0.39533898,0.51745915,0.7589091,0.8893065,0.008859963,0.4572258,10.011566,0.09690857,0.2632141,9.803126,0.11730071,0.23526475,-0.02267456,-0.005630493,-0.0037384033,-38.578796,2.758789,19.859314,0,0.0,0.0,0.0,0.0
0.323730469,-0.008212764,0.9881571,-0.15322562,-0.025497653,0.15297402,0.98790115,0.9996411,0.012020293,0.023939347,0.21553291,0.863559,-0.4558633,-0.38516128,0.50416774,0.77295905,0.8973273,0.0089827785,0.44127423,10.041473,0.13040161,0.24765015,9.803131,0.11787881,0.2347648,-0.02923584,0.0026245117,-0.009384155,-38.578796,2.758789,19.859314,0,0.0,0.0,0.0,0.0
0.33203125,-0.008535323,0.9895992,-0.14359793,-0.025427973,0.14334193,0.98934644,0.9996402,0.012095798,0.023940036,0.2086855,0.86731404,-0.4519034,-0.38005435,0.49767914,0.77966285,0.9011155,0.009043531,0.4334849,10.041473,0.13040161,0.24765015,9.803122,0.11861925,0.23477155,-0.034439087,4.8828125E-4,-0.0077056885,-38.99994,2.519226,19.67926,0,0.0,0.0,0.0,0.0
0.340332032,-0.008531097,0.98960054,-0.14358974,-0.025458988,0.14333346,0.989347,0.9996395,0.012095865,0.023971437,0.1954639,0.8746479,-0.44360435,-0.36991173,0.48467204,0.79262745,0.9082726,0.0091644,0.4182784,10.031906,0.07417297,0.26081848,9.803115,0.11861992,0.2350795,-0.033981323,-2.746582E-4,-0.011978149,-38.99994,2.519226,19.67926,0,0.0,0.0,0.0,0.0
0.348632813,-0.008365265,0.9886511,-0.14999641,-0.02544,0.14974271,0.9883976,0.99964136,0.012084118,0.02389865,0.18304479,0.88150793,-0.43524513,-0.35978422,0.47207794,0.80479664,0.91490424,0.009280488,0.40356404,10.009171,0.059814453,0.1878357,9.803133,0.11850472,0.2343657,-0.03565979,0.0046081543,-0.004501343,-39.479065,2.5787354,19.198608,0,0.0,0.0,0.0,0.0
0.356933594,-0.008333108,0.9886612,-0.14993165,-0.025412219,0.14967905,0.98840797,0.9996423,0.012046607,0.023876784,0.17716818,0.8847098,-0.43116122,-0.35471338,0.46604872,0.81054115,0.91803586,0.009336561,0.3963874,10.009171,0.059814453,0.1878357,9.803143,0.11813686,0.23415127,-0.04588318,0.018661499,-3.6621094E-4,-39.479065,2.5787354,19.198608,0,0.0,0.0,0.0,0.0
0.365234375,-0.008359563,0.98965245,-0.14324142,-0.025566397,0.14298807,0.9893941,0.99963814,0.01193307,0.02410653,0.16595714,0.8908061,-0.4229927,-0.3446319,0.4542856,0.8214947,0.9239519,0.00944388,0.38239214,10.00679,0.046661377,0.29193115,9.803102,0.11702344,0.23640431,-0.035964966,0.022628784,0.0010070801,-39.839172,2.4597168,19.319153,0,0.0,0.0,0.0,0.0
0.373535157,-0.008338094,0.989659,-0.14319798,-0.025718573,0.14294335,0.9893967,0.99963444,0.011932528,0.024260739,0.15535347,0.8966323,-0.41462728,-0.33470297,0.44267306,0.8318741,0.92942953,0.009542453,0.36887628,10.060623,0.13877869,0.20936584,9.803065,0.117018126,0.23791659,-0.030151367,0.014526367,0.0014648438,-39.839172,2.4597168,19.319153,0,0.0,0.0,0.0,0.0
0.381835938,-0.00824729,0.98918027,-0.14647336,-0.025848147,0.14621851,0.98891455,0.9996318,0.011941928,0.024362568,0.15030207,0.89940435,-0.41046456,-0.329786,0.43701243,0.8368162,0.93201417,0.009590255,0.36229482,10.060623,0.13877869,0.20936584,9.80304,0.11711032,0.23891518,-0.02557373,0.014678955,0.0014648438,-39.89868,2.519226,19.259644,0,0.0,0.0,0.0,0.0
0.390136719,-0.008296433,0.98916507,-0.14657317,-0.025784822,0.14631785,0.98890156,0.9996331,0.011983717,0.024291528,0.14071749,0.9046251,-0.4023083,-0.3200411,0.42609808,0.8461762,0.936895,0.009683384,0.34947667,10.016357,0.1603241,0.11605835,9.803052,0.11752012,0.23821852,-0.0051116943,0.006286621,-0.0034332275,-39.89868,2.519226,19.259644,0,0.0,0.0,0.0,0.0
0.3984375,-0.008438559,0.9896137,-0.14350404,-0.025790254,0.14324601,0.9893509,0.9996317,0.012049702,0.0243136,0.13172956,0.9095128,-0.39425084,-0.3104517,0.4155609,0.85494375,0.94141763,0.009774477,0.33710146,10.021133,0.15434265,0.16151428,9.803039,0.118167214,0.23843499,-0.009536743,0.017730713,-0.015335083,-40.078735,2.4597168,19.319153,0,0.0,0.0,0.0,0.0
0.406738282,-0.008550548,0.9895797,-0.14373203,-0.02586322,0.14347033,0.9893166,0.9996289,0.012176571,0.02436697,0.12742876,0.9118649,-0.39021054,-0.3057304,0.4103729,0.8591408,0.94355226,0.009819983,0.33107814,10.036697,0.14715576,0.19381714,9.803011,0.11941138,0.23895834,0.002670288,0.020492554,-0.0118255615,-40.078735,2.4597168,19.319153,0,0.0,0.0,0.0,0.0
0.415039063,-0.008955996,0.9912616,-0.13160665,-0.025881663,0.13133805,0.99099976,0.9996249,0.012281587,0.024479235,0.119233824,0.9163409,-0.38223395,-0.2964264,0.40027642,0.8671276,0.9475836,0.009913304,0.31935412,10.04985,0.12322998,0.22612,9.802972,0.12044123,0.24005929,0.02130127,0.010864258,-0.017623901,-40.499878,2.1591187,19.018555,0,0.0,0.0,0.0,0.0
0.423339844,-0.008810692,0.9913033,-0.13130195,-0.025998406,0.13103558,0.9910368,0.9996232,0.01214536,0.02461779,0.111413255,0.92072356,-0.37397224,-0.28737348,0.3900872,0.8747848,0.9513168,0.010007088,0.30805242,10.057037,-0.06700134,0.26560974,9.802955,0.119105294,0.24141805,0.029403687,0.017425537,-0.024658203,-40.499878,2.1591187,19.018555,0,0.0,0.0,0.0,0.0
0.431640625,-0.008610817,0.99078625,-0.13516088,-0.026166623,0.13489635,0.9905142,0.99962056,0.012065839,0.024763962,0.10769336,0.92281103,-0.36989453,-0.28292063,0.38512185,0.8784288,0.9530782,0.0100498535,0.30255735,10.057037,-0.06700134,0.26560974,9.802929,0.118325464,0.24285151,0.02053833,0.019729614,-0.025115967,-40.67993,2.1591187,18.418884,0,0.0,0.0,0.0,0.0
0.439941407,-0.008383957,0.99085534,-0.13466792,-0.02640436,0.13440633,0.9905744,0.99961615,0.011860754,0.025036044,0.100658685,0.9267271,-0.36200088,-0.27415237,0.37559846,0.8853057,0.9564038,0.010129688,0.29187167,10.021133,-0.15911865,0.35653687,9.802886,0.11631427,0.24551973,0.036575317,-0.0025787354,-0.012741089,-40.67993,2.1591187,18.418884,0,0.0,0.0,0.0,0.0
0.448242188,-0.008516889,0.9920043,-0.12591647,-0.026385872,0.12565424,0.9917232,0.99961555,0.011768812,0.025104715,0.094077565,0.93040293,-0.35425955,-0.2656004,0.36639655,0.89174545,0.9594821,0.010198239,0.2815851,9.996017,-0.049057007,0.27397156,9.80288,0.11541262,0.24619316,0.046966553,-0.0066986084,-0.020828247,-40.919495,1.979065,18.359375,0,0.0,0.0,0.0,0.0
0.456542969,-0.008438797,0.9920266,-0.12574482,-0.02636349,0.12548488,0.9917451,0.99961686,0.011684209,0.025094349,0.090901986,0.9322168,-0.35029778,-0.26142073,0.36175552,0.89486986,0.96093494,0.010229651,0.2765851,9.996017,-0.049057007,0.27397156,9.802893,0.114582956,0.2460915,0.045578003,-0.006088257,-0.019607544,-40.919495,1.979065,18.359375,0,0.0,0.0,0.0,0.0
0.46484375,-0.008609075,0.9925181,-0.121793665,-0.026353633,0.12153066,0.9922377,0.99961555,0.011751955,0.02511019,0.08486,0.93567306,-0.34251237,-0.25321868,0.35271817,0.90081644,0.96367997,0.010287252,0.26686156,10.0295105,0.034698486,0.29312134,9.80288,0.11524732,0.24624686,0.026794434,7.9345703E-4,-0.027709961,-40.979004,1.9195557,18.539429,0,0.0,0.0,0.0,0.0
0.473144532,-0.008924123,0.9924307,-0.12248099,-0.02634073,0.122210056,0.9921546,0.99961317,0.01208035,0.025050735,0.07916594,0.93896407,-0.33478242,-0.2452448,0.3438597,0.90643007,0.9662234,0.010345255,0.25749803,10.04985,0.20219421,0.22013855,9.802857,0.11846778,0.24566382,0.022216797,-0.00730896,-0.028320313,-40.979004,1.9195557,18.539429,0,0.0,0.0,0.0,0.0
0.481445313,-0.0097339945,0.99438864,-0.10534006,-0.026145265,0.10505594,0.99412256,0.9996107,0.012430926,0.024975939,0.07645524,0.9405255,-0.33100826,-0.24133827,0.3395646,0.909094,0.96742463,0.010379958,0.2529463,10.04985,0.20219421,0.22013855,9.802833,0.121905744,0.2449303,0.025878906,-0.009140015,-0.032592773,-40.67993,1.5594482,18.47992,0,0.0,0.0,0.0,0.0
0.489746094,-0.010286255,0.9942547,-0.106544465,-0.026033837,0.1062477,0.99399877,0.9996081,0.012998286,0.024791377,0.071123816,0.9437253,-0.3229923,-0.2337377,0.33056495,0.9143815,0.96969485,0.010461177,0.24409522,10.046265,0.34457397,0.15553284,9.802807,0.12746964,0.24312036,0.019927979,0.004760742,-0.028320313,-40.67993,1.5594482,18.47992,0,0.0,0.0,0.0,0.0
0.498046875,-0.010382937,0.9933113,-0.11499864,-0.026118815,0.11469619,0.993057,0.9996049,0.013314479,0.024753235,0.06612904,0.94670177,-0.31525028,-0.22634245,0.32193825,0.91930676,0.9718004,0.010561648,0.23556826,10.073776,0.18544006,0.22492981,9.802775,0.13057044,0.24274632,0.014434814,0.007659912,-0.022521973,-40.25879,1.739502,18.659973,0,0.0,0.0,0.0,0.0
0.506347657,-0.010622164,0.99324965,-0.115509026,-0.026173666,0.11519979,0.9929975,0.999601,0.013571076,0.024773313,0.06378695,0.948063,-0.3116211,-0.2227139,0.31790528,0.9215936,0.97279483,0.010616705,0.23142502,10.073776,0.18544006,0.22492981,9.802737,0.1330868,0.24294321,0.001449585,0.013458252,-0.01625061,-40.25879,1.739502,18.659973,0,0.0,0.0,0.0,0.0
0.514648438,-0.010797592,0.9933982,-0.114208855,-0.026289167,0.11389401,0.9931451,0.999596,0.013726027,0.024885824,0.059325702,0.95064914,-0.30454358,-0.21561937,0.31008244,0.92593586,0.9746737,0.010733699,0.22337422,10.066605,0.15434265,0.2536316,9.802689,0.13460635,0.24404657,-0.0016021729,0.02659607,0.002532959,-40.25879,1.6799927,18.418884,0,0.0,0.0,0.0,0.0
0.522949219,-0.0107514765,0.99341,-0.11410912,-0.02649966,0.113792576,0.99315107,0.99959105,0.013701695,0.025101593,0.055136077,0.9530876,-0.2976306,-0.20874634,0.30249992,0.9300101,0.9764143,0.010852196,0.21563222,10.046265,0.105285645,0.26919556,9.802639,0.13436772,0.24616252,-0.017181396,0.02796936,0.017486572,-40.25879,1.6799927,18.418884,0,0.0,0.0,0.0,0.0
0.53125,-0.01077533,0.9942097,-0.10691626,-0.026652342,0.10659893,0.9939449,0.9995867,0.01355965,0.025349375,0.053144664,0.9542493,-0.2942516,-0.20539287,0.29881325,0.9319466,0.9772356,0.010909189,0.21187632,10.046265,0.105285645,0.26919556,9.802597,0.13297474,0.24859245,-0.018554688,0.01651001,0.022994995,-40.19928,1.499939,17.999268,0,0.0,0.0,0.0,0.0
0.539550782,-0.010304836,0.99432606,-0.105875164,-0.026868306,0.10556723,0.9940492,0.9995859,0.013088199,0.025628002,0.049305536,0.95654625,-0.28738165,-0.19886407,0.2913725,0.935711,0.978786,0.011014149,0.20458895,10.033112,-0.0765686,0.34336853,9.802589,0.12835139,0.25132486,-0.013198853,0.0053710938,0.023910522,-40.19928,1.499939,17.999268,0,0.0,0.0,0.0,0.0
0.547851563,-0.010196044,0.9960894,-0.08776085,-0.026885377,0.08746061,0.9958051,0.9995865,0.012512756,0.025888488,0.045727313,0.95870954,-0.28068674,-0.19254644,0.28417054,0.93924063,0.9802218,0.011096282,0.19759049,10.025925,-0.13639832,0.38404846,9.802595,0.12270822,0.25387934,-0.009536743,0.010101318,0.02330017,-39.959717,1.1398315,17.57965,0,0.0,0.0,0.0,0.0
0.556152344,-0.009654887,0.9962018,-0.086538054,-0.027060326,0.0862501,0.995906,0.9995872,0.011957107,0.026124809,0.043969393,0.9598415,-0.2770759,-0.18948108,0.2803223,0.9410187,0.9808994,0.011124612,0.1941974,10.025925,-0.13639832,0.38404846,9.802602,0.11725917,0.25619686,-0.01687622,-0.0079193115,0.017181396,-39.959717,1.1398315,17.57965,0,0.0,0.0,0.0,0.0
0.564453125,-0.010100435,0.998006,-0.062306285,-0.026842643,0.062016398,0.9977141,0.9995886,0.0117498115,0.026162725,0.04064355,0.9620072,-0.269982,-0.1835002,0.27279603,0.94440985,0.98217916,0.011157579,0.18761592,10.019943,0.07058716,0.30747986,9.802616,0.11522629,0.2565687,-0.0064849854,-0.021972656,0.0013122559,-40.019226,0.71868896,17.999268,0,0.0,0.0,0.0,0.0
0.572753907,-0.01000046,0.9980208,-0.062084593,-0.026567645,0.06180059,0.9977349,0.999597,0.011627249,0.025897026,0.037375662,0.9642868,-0.26220983,-0.17774612,0.26462412,0.94782937,0.9833663,0.011181032,0.18128873,10.015152,0.06819153,0.17228699,9.802698,0.11402437,0.25396308,-0.011993408,-0.023040771,-0.01335144,-40.019226,0.71868896,17.999268,0,0.0,0.0,0.0,0.0
0.581054688,-0.009647204,0.9971367,-0.075002365,-0.026392125,0.07472582,0.9968549,0.9996052,0.011596333,0.02559566,0.03582641,0.96536875,-0.2584177,-0.1749317,0.26064926,0.94945294,0.98392856,0.011189956,0.1782117,10.015152,0.06819153,0.17228699,9.802778,0.113721184,0.25100768,-0.019470215,-0.023040771,-0.014877319,-39.718628,1.0192871,18.659973,0,0.0,0.0,0.0,0.0
0.589355469,-0.009820166,0.99710727,-0.075368926,-0.026164893,0.07509052,0.99683326,0.99960935,0.01176109,0.02535181,0.034374572,0.9663465,-0.2549368,-0.17214766,0.25699997,0.9509554,0.9844712,0.011198085,0.17518856,10.021133,0.16151428,0.18424988,9.802819,0.115336895,0.24861632,-0.019470215,-0.0048675537,-0.014877319,-39.718628,1.0192871,18.659973,0,0.0,0.0,0.0,0.0
0.59765625,-0.010029607,0.9970717,-0.07581279,-0.026045967,0.07553039,0.99680334,0.9996104,0.011972162,0.025212154,0.031611867,0.96820086,-0.24816899,-0.16670893,0.24992251,0.9538065,0.98549926,0.011220379,0.16930825,10.021133,0.16151428,0.18424988,9.80283,0.1174068,0.24724677,-0.028167725,0.0024719238,-0.027404785,-39.718628,1.0192871,18.659973,0,0.0,0.0,0.0,0.0
0.605957032,-0.0097426735,0.9951541,-0.09784338,-0.026221614,0.09756012,0.99488413,0.9996087,0.012258444,0.025144054,0.029027743,0.9699285,-0.2416527,-0.16144712,0.24312973,0.95646363,0.9864543,0.0112501485,0.16364968,10.030716,0.18304443,0.16630554,9.802813,0.12021427,0.24657895,-0.028167725,0.01927185,-0.023895264,-38.99994,1.499939,19.1391,0,0.0,0.0,0.0,0.0
0.614257813,-0.009313846,0.9921733,-0.12452053,-0.026523001,0.124237,0.99189806,0.9996048,0.012541044,0.02515829,0.027865583,0.9706431,-0.23890457,-0.15887073,0.24025998,0.95761955,0.98690605,0.011270314,0.16090177,10.052246,0.1268158,0.27397156,9.802775,0.12298564,0.24671857,-0.03642273,0.023544312,-0.022827148,-38.63983,2.0996094,19.619751,0,0.0,0.0,0.0,0.0
0.622558594,-0.009380141,0.99215657,-0.1246493,-0.026728064,0.12436148,0.99187696,0.99959874,0.012635578,0.025351895,0.025806975,0.97175545,-0.2345748,-0.15382822,0.23571841,0.9595695,0.98776054,0.011320636,0.15556659,10.0295105,0.07896423,0.25602722,9.802715,0.1239127,0.24861717,-0.03794861,0.018966675,-0.014724731,-38.63983,2.0996094,19.619751,0,0.0,0.0,0.0,0.0
0.630859375,-0.009046215,0.99073994,-0.13547081,-0.027036253,0.13518448,0.9904514,0.9995935,0.012622462,0.025562992,0.023873024,0.97280246,-0.23040262,-0.1489745,0.23135677,0.96139514,0.9885528,0.011372708,0.15044595,10.071396,0.025131226,0.279953,9.802664,0.123784065,0.25068733,-0.033981323,0.020187378,-0.014724731,-38.519287,2.3391724,19.67926,0,0.0,0.0,0.0,0.0
0.639160157,-0.008987239,0.99075603,-0.13535728,-0.027210765,0.13507031,0.9904623,0.9995893,0.012584697,0.025745323,0.02298381,0.97325325,-0.22858228,-0.14661266,0.22945197,0.96221435,0.9889269,0.011397703,0.14796492,10.0295105,0.03111267,0.31106567,9.802623,0.12341373,0.25247538,-0.032592773,0.014526367,-0.007247925,-38.519287,2.3391724,19.67926,0,0.0,0.0,0.0,0.0
0.647460938,-0.008872697,0.99078727,-0.1351368,-0.027409308,0.13485037,0.99048686,0.9995849,0.012492294,0.025960304,0.021287037,0.97411823,-0.22503436,-0.14202571,0.22574902,0.963777,0.98963404,0.011444707,0.14315537,10.0295105,0.105285645,0.2596283,9.802579,0.12250755,0.2545836,-0.04512024,0.015594482,0.0013122559,-38.519287,2.3391724,19.67926,0,0.0,0.0,0.0,0.0
0.655761719,-0.008474087,0.9890624,-0.14725445,-0.027622309,0.14697203,0.98875505,0.9995825,0.012446301,0.026074728,0.019694302,0.9749378,-0.22160418,-0.1376148,0.22218089,0.9652449,0.99029,0.011486193,0.13854156,10.077377,0.105285645,0.2596283,9.802556,0.12205652,0.25570574,-0.036727905,0.0046081543,0.0048217773,-38.398743,2.6992798,20.339966,0,0.0,0.0,0.0,0.0
0.6640625,-0.008009395,0.9866807,-0.16247155,-0.027812768,0.16219409,0.9863668,0.99958104,0.012418985,0.026143245,0.018967893,0.9752766,-0.22017223,-0.13546807,0.22068807,0.9658909,0.9906001,0.011505395,0.13630483,10.0295105,0.13639832,0.26679993,9.802542,0.12178864,0.25637767,-0.028778076,-1.2207031E-4,0.008178711,-38.09967,3.1188965,20.819092,0,0.0,0.0,0.0,0.0
0.672363282,-0.00798349,0.98668855,-0.16242532,-0.027804555,0.16214865,0.98637456,0.9995815,0.012390876,0.026139924,0.017658683,0.9757944,-0.21797605,-0.13128673,0.21838538,0.96699107,0.9911872,0.011541573,0.13196525,10.025925,0.1268158,0.24526978,9.8025465,0.12151299,0.2563451,-0.027404785,0.0018615723,-0.0019073486,-38.09967,3.1188965,20.819092,0,0.0,0.0,0.0,0.0
0.680664063,-0.007634905,0.9845258,-0.17507371,-0.027928155,0.17480057,0.98420775,0.99958074,0.012403818,0.0261614,0.016420465,0.97628695,-0.21585688,-0.12726322,0.21617086,0.96802586,0.991733,0.011575206,0.12779504,10.031906,0.11126709,0.26081848,9.802539,0.1216399,0.2565557,-0.01626587,0.003692627,-0.009384155,-38.398743,3.479004,21.238708,0,0.0,0.0,0.0,0.0
0.688964844,-0.0075949044,0.9845385,-0.1750035,-0.027976025,0.17473084,0.98421866,0.9995797,0.01237095,0.02621641,0.015858352,0.9764688,-0.21507487,-0.12530537,0.21534698,0.9684649,0.99199146,0.011591779,0.12577184,10.023529,0.052642822,0.28234863,9.802529,0.12131758,0.2570952,-0.026641846,4.8828125E-4,-0.007247925,-38.398743,3.479004,21.238708,0,0.0,0.0,0.0,0.0
0.697265625,-0.007482205,0.98457456,-0.17480564,-0.0279374,0.17453647,0.98425424,0.99958163,0.012248007,0.026200533,0.014778307,0.9768203,-0.21355028,-0.12150442,0.21374525,0.9693037,0.9924809,0.011622635,0.12184678,10.018753,-0.010772705,0.24287415,9.802547,0.12011192,0.25693947,-0.022979736,-0.001663208,-0.009841919,-38.398743,3.479004,21.238708,0,0.0,0.0,0.0,0.0
0.705566407,-0.006919771,0.98154527,-0.1911043,-0.02800298,0.1908437,0.98122084,0.99958384,0.012141314,0.0261656,0.013756238,0.9771571,-0.21207246,-0.11784769,0.21219875,0.97009456,0.9929364,0.011647399,0.11807477,10.018753,-0.010772705,0.24287415,9.802569,0.11906563,0.2565969,-0.025268555,0.0056762695,-0.018081665,-38.519287,3.8986206,21.418762,0,0.0,0.0,0.0,0.0
0.713867188,-0.006835681,0.981387,-0.19191901,-0.027992312,0.1916605,0.98106205,0.99958473,0.012078483,0.026161158,0.013304993,0.97724944,-0.21167545,-0.11606671,0.21177259,0.9704024,0.9931523,0.011657277,0.116243765,10.025925,0.046661377,0.24406433,9.802578,0.11844946,0.25655332,-0.023284912,0.011169434,-0.01991272,-38.398743,3.8391113,20.999146,0,0.0,0.0,0.0,0.0
0.722167969,-0.00695636,0.9813445,-0.19213194,-0.028014172,0.19186991,0.9810205,0.9995833,0.012206746,0.026156833,0.012439798,0.97742116,-0.21093395,-0.1126077,0.21097773,0.9709829,0.9935616,0.011673958,0.112689674,10.015152,0.110076904,0.21534729,9.802564,0.119707294,0.2565109,-0.02923584,0.0024719238,-0.015792847,-38.398743,3.8391113,20.999146,0,0.0,0.0,0.0,0.0
0.73046875,-0.0074830526,0.98402727,-0.17786008,-0.02794373,0.17758982,0.98370767,0.99958146,0.012331211,0.026168482,0.011609986,0.97758365,-0.21022718,-0.109283976,0.21022247,0.9715264,0.9939428,0.011695056,0.10927491,10.023529,0.11843872,0.24287415,9.802546,0.12092787,0.25662515,-0.021453857,0.007965088,-0.01838684,-38.75885,3.479004,20.878601,0,0.0,0.0,0.0,0.0
0.738769532,-0.007603765,0.9839871,-0.17807747,-0.027992008,0.17780338,0.9836678,0.9995792,0.012464324,0.026191799,0.011609986,0.97758365,-0.21022718,-0.109283976,0.21022247,0.9715264,0.9939428,0.011695056,0.10927491,10.023529,0.11843872,0.24287415,9.802524,0.122233264,0.25685382,-0.021453857,0.007965088,-0.01838684,-38.75885,3.479004,20.878601,0,0.0,0.0,0.0,0.0
0.747070313,-0.0076885964,0.98395884,-0.17823023,-0.028150877,0.17795187,0.98363656,0.9995741,0.01258012,0.0263311,0.010332769,0.9779898,-0.20839673,-0.104552776,0.2083222,0.9724559,0.99446565,0.011740295,0.10440409,10.054642,0.09211731,0.28355408,9.802474,0.12336884,0.2582199,-0.014587402,0.022323608,-0.015487671,-38.75885,3.479004,20.878601,0,0.0,0.0,0.0,0.0
0.755371094,-0.007907453,0.98491293,-0.17286932,-0.02830922,0.17258494,0.9845876,0.9995679,0.012679378,0.026517415,0.009926416,0.97811836,-0.20781219,-0.10304007,0.20771666,0.97274697,0.99462765,0.011757093,0.10284727,10.054642,0.09211731,0.28355408,9.802413,0.124342225,0.26004702,-0.013977051,0.012237549,-0.015029907,-38.99994,3.2989502,20.579529,0,0.0,0.0,0.0,0.0
0.763671875,-0.0086700255,0.9889,-0.14832953,-0.028202042,0.14803427,0.98858,0.9995646,0.012754209,0.026605537,0.009119297,0.9784113,-0.2064657,-0.1001128,0.20633022,0.9733475,0.9949343,0.011793616,0.09983309,10.054642,0.058624268,0.2763672,9.802381,0.12507607,0.2609112,0.0019073486,-0.0013580322,-0.014266968,-39.05945,2.6992798,20.27893,0,0.0,0.0,0.0,0.0
0.771972657,-0.008668213,0.9889005,-0.1483261,-0.028205797,0.14803085,0.9885804,0.9995645,0.012752881,0.026609566,0.008253848,0.9788923,-0.20421009,-0.097310856,0.20403406,0.9741154,0.9952199,0.011831657,0.09694091,10.054642,0.058624268,0.2763672,9.80238,0.12506305,0.2609507,0.002822876,-0.002105713,-0.013046265,-39.05945,2.6992798,20.27893,0,0.0,0.0,0.0,0.0
0.780273438,-0.00865688,0.98890376,-0.1483047,-0.02819538,0.1480099,0.98858374,0.9995649,0.01273956,0.026601216,0.00783883,0.97912365,-0.20311433,-0.09595033,0.20291983,0.97448295,0.99535525,0.01185008,0.09553789,10.022339,0.037094116,0.25723267,9.802383,0.12493241,0.26086882,0.002822876,-0.0034942627,-0.012130737,-39.05945,2.6992798,20.27893,0,0.0,0.0,0.0,0.0
0.788574219,-0.0089643905,0.990594,-0.13653977,-0.028040648,0.13624252,0.99027854,0.99956656,0.012705907,0.026555566,0.0070426622,0.97956914,-0.20098445,-0.09330683,0.20075628,0.9751876,0.9956125,0.011885305,0.09281435,10.018753,0.07777405,0.26679993,9.8024,0.12460239,0.26042116,0.0046539307,-0.004714966,-0.009536743,-39.419556,2.3391724,19.558716,0,0.0,0.0,0.0,0.0
0.796875,-0.009055386,0.9905684,-0.13672008,-0.028000671,0.13642088,0.99025524,0.99956685,0.012795397,0.026501233,0.0062472224,0.9800859,-0.19847561,-0.09076559,0.19821595,0.9759467,0.99585265,0.0119178,0.09019637,10.019943,0.13279724,0.24287415,9.8024025,0.12547998,0.25988832,-0.0035858154,0.0015563965,-0.010299683,-39.419556,2.3391724,19.558716,0,0.0,0.0,0.0,0.0
0.805175782,-0.009521183,0.99226034,-0.12380888,-0.027869985,0.12350307,0.99195266,0.9995662,0.012895116,0.02647839,0.005864489,0.98033345,-0.19726084,-0.08953072,0.19698675,0.9763096,0.9959668,0.011935351,0.0889252,10.037888,0.16989136,0.25483704,9.802397,0.1264579,0.25966433,-0.0035858154,0.0032348633,-0.014572144,-39.538574,2.0385742,19.378662,0,0.0,0.0,0.0,0.0
0.813475084,-0.009654403,0.99210095,-0.12506995,-0.027927894,0.12475945,0.9917939,0.9995633,0.013068117,0.026502812,0.005081715,0.9809097,-0.19439736,-0.08713457,0.1940948,0.9771053,0.9961836,0.011973358,0.086457476,10.059433,0.1268158,0.28115845,9.802367,0.12815446,0.25990382,-0.017333984,0.0078125,-0.021438599,-39.179993,2.0996094,19.67926,0,0.0,0.0,0.0,0.0
0.821775865,-0.009784943,0.99206734,-0.12532626,-0.028044676,0.1250107,0.991759,0.9995588,0.013219038,0.026598984,0.0043409774,0.9814454,-0.19169286,-0.0848311,0.1913651,0.9778461,0.9963859,0.012016709,0.084087804,10.059433,0.1268158,0.28115845,9.802323,0.12963448,0.26084694,-0.02557373,0.014526367,-0.022827148,-39.179993,2.0996094,19.67926,0,0.0,0.0,0.0,0.0
0.830076646,-0.009861913,0.99204755,-0.12547737,-0.028227417,0.12515728,0.99173534,0.99955285,0.013322308,0.026768645,0.0039841253,0.98170143,-0.19038485,-0.083714776,0.19004549,0.9781996,0.9964818,0.012040757,0.08294009,10.023529,0.08015442,0.3146515,9.802265,0.13064721,0.26251075,-0.035202026,0.012390137,-0.01991272,-39.179993,2.0996094,19.67926,0,0.0,0.0,0.0,0.0
0.838377428,-0.010121936,0.99284405,-0.11898823,-0.028363205,0.11866138,0.9925295,0.9995464,0.01342121,0.026959157,0.0032979688,0.9821922,-0.1878501,-0.08155336,0.18748954,0.9788752,0.9966636,0.012091507,0.08071941,10.036697,0.09690857,0.2632141,9.802202,0.13161711,0.26437902,-0.032287598,0.020187378,-0.026031494,-38.819885,1.9195557,19.319153,0,0.0,0.0,0.0,0.0
0.846678209,-0.010311423,0.9927969,-0.1193643,-0.02855404,0.11902962,0.9924799,0.999539,0.013642215,0.027121002,0.002626529,0.98270506,-0.185159,-0.079483084,0.18477899,0.97956073,0.9968328,0.012144164,0.07859376,10.064209,0.1603241,0.28833008,9.80213,0.13378443,0.26596618,-0.031066895,4.8828125E-4,-0.021743774,-38.819885,1.9195557,19.319153,0,0.0,0.0,0.0,0.0
0.85497899,-0.010888902,0.9944849,-0.10431351,-0.028486721,0.10396883,0.9941726,0.99953485,0.013796995,0.027197504,0.0023018047,0.98294973,-0.18386008,-0.07848161,0.18347104,0.97988725,0.99691296,0.012174126,0.0775658,10.053452,0.12921143,0.28833008,9.802089,0.1353023,0.26671642,-0.017181396,-0.0077667236,-0.013198853,-38.938904,1.6189575,19.499207,0,0.0,0.0,0.0,0.0
0.863279771,-0.010522939,0.99298537,-0.11776851,-0.028547954,0.11742868,0.9926709,0.999537,0.013807865,0.027112002,0.0016279416,0.9835279,-0.18074939,-0.07654125,0.18034194,0.98062134,0.9970651,0.012238391,0.07557405,10.00798,0.062210083,0.24645996,9.802111,0.13540891,0.26587793,-0.014724731,-0.008987427,-0.007858276,-38.819885,1.8585205,19.1391,0,0.0,0.0,0.0,0.0
0.871580553,-0.010535884,0.99298203,-0.11779443,-0.028421517,0.117456,0.9926712,0.9995405,0.013806567,0.026984558,0.0010314072,0.98397845,-0.17828462,-0.07467037,0.17786278,0.9812182,0.9972077,0.012300543,0.073657475,10.041473,0.09451294,0.2368927,9.802144,0.13539617,0.2646281,-0.015808105,-0.011581421,-8.239746E-4,-38.819885,1.8585205,19.1391,0,0.0,0.0,0.0,0.0
0.879881334,-0.010488474,0.9929939,-0.11769942,-0.028280513,0.117364235,0.99268615,0.999545,0.013740362,0.026851404,7.4508134E-4,0.98419464,-0.1770886,-0.073759474,0.17666037,0.98150426,0.99727577,0.012330662,0.0727253,10.041473,0.09451294,0.2368927,9.802188,0.13474692,0.26332232,-0.015808105,-0.01020813,0.00970459,-38.819885,1.8585205,19.1391,0,0.0,0.0,0.0,0.0
0.888182115,-0.010378534,0.9930562,-0.11718266,-0.028135017,0.11685257,0.99275064,0.9995502,0.013600233,0.026726892,1.9720383E-4,0.9846107,-0.17476225,-0.07198438,0.17432287,0.9820539,0.9974057,0.012386488,0.07091096,10.04985,0.08135986,0.22970581,9.802239,0.13337272,0.2621013,-0.013977051,-0.00944519,0.0048217773,-38.938904,1.8585205,19.198608,0,0.0,0.0,0.0,0.0
0.896482896,-0.010252312,0.99308735,-0.116929665,-0.02800179,0.11660483,0.99278367,0.9995553,0.013452565,0.026612751,-6.392412E-5,0.98481226,-0.17362279,-0.071119525,0.17317866,0.9823193,0.9974678,0.012410764,0.07002831,10.04985,0.08135986,0.22970581,9.802289,0.1319246,0.26098195,-0.016418457,-0.008377075,0.0074157715,-38.938904,1.8585205,19.198608,0,0.0,0.0,0.0,0.0
0.904783678,-0.010136384,0.99277055,-0.119598515,-0.027914736,0.119277105,0.9924685,0.99955887,0.013398604,0.026503893,-5.606152E-4,0.98520136,-0.17139989,-0.069434285,0.1709479,0.98283046,0.99758637,0.012452018,0.06831092,10.036697,0.17108154,0.24287415,9.802324,0.13139541,0.2599144,-0.022369385,-0.0024108887,0.0075683594,-39.239502,1.9195557,19.259644,0,0.0,0.0,0.0,0.0
0.913084459,-0.009698454,0.9911868,-0.13211536,-0.028014438,0.13180038,0.9908802,0.9995604,0.013311147,0.026489286,-0.0010218378,0.9855524,-0.16936772,-0.06780947,0.16890967,0.98329616,0.9976978,0.012489503,0.066657186,10.015152,0.112457275,0.2644043,9.80234,0.13053776,0.25977117,-0.023284912,0.009796143,-0.0014343262,-38.879395,2.218628,19.499207,0,0.0,0.0,0.0,0.0
0.92138524,-0.009638348,0.9912032,-0.13199738,-0.02806209,0.1316834,0.99089444,0.99955964,0.013254709,0.026546024,-0.0012245607,0.98567873,-0.16862957,-0.06702033,0.16816965,0.9834771,0.9977509,0.012505936,0.06585458,10.015152,0.112457275,0.2644043,9.802332,0.12998429,0.26032758,-0.023284912,0.013153076,0.0017700195,-38.879395,2.218628,19.499207,0,0.0,0.0,0.0,0.0
0.929686021,-0.009621372,0.9912078,-0.13196404,-0.028200572,0.13164867,0.9908952,0.99955595,0.013255234,0.026685989,-0.0016122684,0.9859231,-0.16719154,-0.06549015,0.16672872,0.9838255,0.99785197,0.012535588,0.06429944,10.023529,0.1268158,0.3014984,9.802296,0.12998945,0.26170015,-0.026489258,0.006439209,-0.0077056885,-38.879395,2.218628,19.499207,0,0.0,0.0,0.0,0.0
0.937986803,-0.009801051,0.9919892,-0.12594208,-0.028249437,0.12562318,0.99167573,0.99955285,0.013277258,0.026791897,-0.0019795923,0.98615605,-0.16580825,-0.06402492,0.16534339,0.9841557,0.9979464,0.012564085,0.06281125,10.033112,0.13400269,0.2907257,9.802265,0.13020542,0.26273876,-0.019927979,0.0067443848,-0.009384155,-38.819885,2.0996094,19.558716,0,0.0,0.0,0.0,0.0
0.946287584,-0.009848064,0.99197704,-0.1260341,-0.028331276,0.12571281,0.99166214,0.9995501,0.013336658,0.026865948,-0.0021640658,0.9862883,-0.16501717,-0.06331574,0.1645513,0.9843343,0.99799126,0.012578349,0.06209148,10.033112,0.13400269,0.2907257,9.802238,0.13078794,0.26346496,-0.02053833,0.006286621,-0.011520386,-38.819885,2.0996094,19.558716,0,0.0,0.0,0.0,0.0
0.954588365,-0.009814915,0.9920768,-0.1252489,-0.028369231,0.12492825,0.99176013,0.9995493,0.0132872565,0.026918296,-0.0025203684,0.9865426,-0.16348507,-0.061942227,0.16301763,0.98467684,0.9980765,0.012608377,0.06069778,10.036697,0.033493042,0.29312134,9.802231,0.13030347,0.2639783,-0.019470215,-0.0010528564,-0.013809204,-38.938904,2.0385742,19.198608,0,0.0,0.0,0.0,0.0
0.962889146,-0.009430675,0.99090385,-0.13424122,-0.028430257,0.13392723,0.9905833,0.9995513,0.01315838,0.026908625,-0.0028581955,0.98678964,-0.16198185,-0.060623586,0.16151358,0.9850067,0.9981566,0.012635262,0.05936109,10.016357,-0.034698486,0.279953,9.80225,0.12903963,0.26388347,-0.018859863,-0.0066986084,-0.010757446,-38.879395,2.279663,19.558716,0,0.0,0.0,0.0,0.0
0.971189928,-0.009314,0.99093586,-0.13401301,-0.028400015,0.13370262,0.9906146,0.99955326,0.013032554,0.026897283,-0.0030072052,0.9868794,-0.16143097,-0.059983645,0.160963,0.985136,0.99819475,0.012645724,0.05871257,10.016357,-0.034698486,0.279953,9.802269,0.1278057,0.26377225,-0.020690918,0.0033874512,-0.015945435,-38.879395,2.279663,19.558716,0,0.0,0.0,0.0,0.0
0.979490709,-0.009413084,0.9909087,-0.1342068,-0.028382143,0.13389392,0.9905892,0.99955285,0.013133576,0.026863754,-0.0032900032,0.98705435,-0.16035236,-0.058740135,0.1598856,0.9853863,0.9982678,0.012661044,0.057453677,10.016357,0.124420166,0.23091125,9.802265,0.12879638,0.26344344,-0.0284729,0.011474609,-0.016860962,-38.879395,2.279663,19.558716,0,0.0,0.0,0.0,0.0
0.98779149,-0.009037026,0.9889317,-0.14809586,-0.028625214,0.14778537,0.9886051,0.9995493,0.013173326,0.026972841,-0.0035627792,0.9872199,-0.15932389,-0.057544407,0.1588585,0.98562294,0.99833655,0.012679755,0.056243006,10.055832,0.07298279,0.27757263,9.802231,0.1291862,0.26451322,-0.027557373,0.019119263,-0.016708374,-38.938904,2.519226,19.198608,0,0.0,0.0,0.0,0.0
0.996092271,-0.009057247,0.9889255,-0.14813606,-0.02877145,0.1478231,0.98859525,0.999545,0.01321604,0.027113952,-0.0036786264,0.9872554,-0.1591014,-0.056967653,0.15863721,0.9856921,0.9983692,0.012689626,0.055658054,10.055832,0.07298279,0.27757263,9.802188,0.12960508,0.26589704,-0.017181396,0.008575439,-0.014724731,-38.938904,2.519226,19.198608,0,0.0,0.0,0.0,0.0
1.004393053,-0.008879411,0.9879369,-0.15460186,-0.02894937,0.15428919,0.9876015,0.99954146,0.013244947,0.027230157,-0.0039034123,0.9873238,-0.15867099,-0.055853885,0.15820923,0.9858246,0.9984313,0.012710471,0.054528315,10.047455,0.09211731,0.2524414,9.802154,0.12988856,0.26703662,-0.013809204,0.01789856,-0.0066375732,-39.179993,2.6992798,19.499207,0,0.0,0.0,0.0,0.0
1.012693834,-0.008838936,0.987647,-0.15644579,-0.029044459,0.15613231,0.98730904,0.999539,0.0132706445,0.02730563,-0.004104561,0.9873484,-0.15851288,-0.05478995,0.15805405,0.9859092,0.99848944,0.012731637,0.05344802,10.073776,0.10887146,0.2416687,9.80213,0.13014057,0.26777676,-0.016113281,0.01927185,-6.713867E-4,-38.99994,2.758789,19.619751,0,0.0,0.0,0.0,0.0
1.020994615,-0.008793742,0.9876613,-0.15635797,-0.029141149,0.1560445,0.98732007,0.99953663,0.01323869,0.027409371,-0.0042002546,0.9873544,-0.15847296,-0.05427552,0.15801567,0.98594385,0.99851716,0.012742417,0.05292547,10.073776,0.10887146,0.2416687,9.802106,0.1298272,0.26879412,-0.019317627,0.016815186,0.005432129,-38.99994,2.758789,19.619751,0,0.0,0.0,0.0,0.0
1.029295396,-0.008708058,0.9876884,-0.15619147,-0.029292164,0.15587841,0.9873419,0.999533,0.013173017,0.027574133,-0.004384117,0.9873666,-0.15839171,-0.053281095,0.1579376,0.98601055,0.99856997,0.01276207,0.051915556,10.041473,0.16870117,0.27876282,9.80207,0.12918316,0.27040985,-0.0234375,0.0039978027,0.017044067,-38.99994,2.758789,19.619751,0,0.0,0.0,0.0,0.0
1.037596178,-0.008146481,0.98517853,-0.17133872,-0.029443113,0.17103378,0.9848251,0.9995332,0.013067604,0.027613398,-0.004557303,0.9873794,-0.158307,-0.05233188,0.15785623,0.9860744,0.9986194,0.012778343,0.05095202,10.04866,0.15434265,0.3098755,9.802073,0.12814942,0.27079493,-0.02923584,-0.002105713,0.031692505,-38.879395,3.0593872,19.439697,0,0.0,0.0,0.0,0.0
1.045896959,-0.007961201,0.98524266,-0.17097825,-0.029446367,0.17067854,0.9848867,0.99953467,0.012875568,0.02765301,-0.0046231076,0.9873371,-0.15856856,-0.051873345,0.15811999,0.9860564,0.998643,0.012784127,0.050485473,10.04866,0.15434265,0.3098755,9.802087,0.1262662,0.2711834,-0.03213501,-0.0036468506,0.026504517,-38.879395,3.0593872,19.439697,0,0.0,0.0,0.0,0.0
1.05419774,-0.00808927,0.9870197,-0.1603954,-0.029272117,0.16009818,0.9866669,0.9995387,0.012676529,0.027597077,-0.0047444543,0.9872572,-0.15906185,-0.050984,0.15861794,0.9860228,0.9986882,0.012787748,0.049581762,10.043869,0.13877869,0.275177,9.802127,0.124314286,0.2706349,-0.032592773,-0.009750366,0.014129639,-38.99994,2.8198242,19.319153,0,0.0,0.0,0.0,0.0
1.062498521,-0.007993561,0.987051,-0.16020675,-0.029165074,0.15991358,0.98669994,0.99954265,0.012559692,0.027509142,-0.0048107468,0.9872525,-0.15908924,-0.050549816,0.15864761,0.98604035,0.99871,0.012785523,0.04914222,10.043869,0.13877869,0.275177,9.802165,0.123168506,0.26977253,-0.028625488,-0.011276245,0.006958008,-38.99994,2.8198242,19.319153,0,0.0,0.0,0.0,0.0
1.070799303,-0.0076255444,0.9853063,-0.17062607,-0.029122522,0.17033982,0.98495495,0.99954677,0.012479879,0.027395673,-0.004935779,0.98724455,-0.15913472,-0.049703363,0.15869777,0.98607534,0.9987519,0.012776581,0.048286077,10.011566,0.10887146,0.23928833,9.802206,0.122385815,0.2686598,-0.028320313,6.4086914E-4,-0.004196167,-39.29901,2.999878,19.07959,0,0.0,0.0,0.0,0.0
1.079100084,-0.0075454675,0.9853347,-0.17046557,-0.029089097,0.17018197,0.9849831,0.99954826,0.012390848,0.027378395,-0.0050330698,0.9871704,-0.15959093,-0.04888758,0.15915923,0.9860418,0.99879164,0.012764831,0.04745931,9.990036,0.039474487,0.2596283,9.80222,0.12151271,0.26849034,-0.024505615,0.008270264,-0.016403198,-39.29901,2.999878,19.07959,0,0.0,0.0,0.0,0.0
1.087400865,-0.0077329623,0.98647124,-0.16375236,-0.029082121,0.16346613,0.9861203,0.9995471,0.012387895,0.027424594,-0.0050789863,0.9871349,-0.15980896,-0.048491273,0.1593799,0.9860257,0.99881077,0.012757351,0.04705794,9.990036,0.039474487,0.2596283,9.802209,0.12148376,0.2689434,-0.018249512,0.011627197,-0.020996094,-39.239502,2.8793335,19.198608,0,0.0,0.0,0.0,0.0
1.095701646,-0.0078120516,0.9864444,-0.16390999,-0.029193375,0.16362013,0.9860914,0.9995432,0.01248848,0.02751943,-0.005181099,0.98710895,-0.15996592,-0.047722463,0.15954173,0.986037,0.9988472,0.0127427215,0.046280663,10.018753,0.071777344,0.26560974,9.802171,0.122470155,0.2698734,-0.026489258,0.013305664,-0.02709961,-39.239502,2.8793335,19.198608,0,0.0,0.0,0.0,0.0
1.104002428,-0.008024637,0.9871014,-0.15989527,-0.029291438,0.15959977,0.9867472,0.9995387,0.0126018515,0.027632888,-0.00528242,0.98708296,-0.16012284,-0.04698858,0.15970318,0.98604614,0.99888146,0.012732654,0.045538004,10.021133,0.056228638,0.26560974,9.802127,0.123581946,0.27098608,-0.025268555,0.020645142,-0.029083252,-39.59961,2.758789,19.018555,0,0.0,0.0,0.0,0.0
1.112303209,-0.008118307,0.9870698,-0.16008572,-0.029430114,0.1597858,0.986713,0.9995339,0.012721779,0.027752383,-0.0053373366,0.9870833,-0.1601187,-0.046634685,0.15970108,0.98606324,0.99889773,0.012730038,0.04517995,10.021133,0.056228638,0.26560974,9.802079,0.124758035,0.2721579,-0.011688232,0.013916016,-0.023742676,-39.59961,2.758789,19.018555,0,0.0,0.0,0.0,0.0
1.12060399,-0.008132972,0.98637915,-0.16428672,-0.029618977,0.16398244,0.98601854,0.99952817,0.012885264,0.027881874,-0.0054474426,0.9870828,-0.16011849,-0.045953568,0.15970461,0.98609465,0.9989287,0.01272971,0.04449,10.046265,0.10169983,0.2715912,9.802023,0.12636128,0.27342778,-0.019012451,0.01637268,-0.022827148,-39.779663,2.8198242,18.899536,0,0.0,0.0,0.0,0.0
1.128904771,-0.0081796525,0.9863627,-0.16438252,-0.029763123,0.16407503,0.98599863,0.99952346,0.012957665,0.028015161,-0.0055511408,0.9870553,-0.16028441,-0.045306377,0.15987404,0.98609716,0.9989577,0.012735869,0.04383241,10.019943,0.06939697,0.28833008,9.801977,0.12707129,0.27473488,-0.015960693,0.012084961,-0.005722046,-39.779663,2.8198242,18.899536,0,0.0,0.0,0.0,0.0
1.137205553,-0.008222937,0.98670787,-0.16229539,-0.029860193,0.1619862,0.986341,0.99952024,0.012956794,0.02813129,-0.0056024143,0.9870416,-0.16036679,-0.04499546,0.15995803,0.9860978,0.99897146,0.012740305,0.043516237,10.019943,0.06939697,0.28833008,9.801946,0.12706275,0.27587372,-0.011993408,0.012390137,-0.004348755,-39.59961,2.758789,18.778992,0,0.0,0.0,0.0,0.0
1.145506334,-0.00822935,0.98670566,-0.1623086,-0.029980358,0.16199766,0.9863355,0.99951655,0.012982971,0.028248657,-0.00570502,0.98702854,-0.16044399,-0.044396125,0.16003838,0.98611194,0.99899775,0.012748878,0.042907216,10.072586,0.124420166,0.29910278,9.801909,0.12731946,0.2770247,-0.019012451,0.0068969727,-0.0019073486,-39.59961,2.758789,18.778992,0,0.0,0.0,0.0,0.0
1.153807115,-0.008155626,0.9864826,-0.16366307,-0.030062009,0.16335265,0.9861096,0.9995147,0.01296238,0.028323403,-0.0058039105,0.9870158,-0.16051874,-0.043825217,0.16011615,0.9861248,0.99902236,0.012758149,0.042326882,10.060623,0.105285645,0.29431152,9.801891,0.12711753,0.2777577,-0.01260376,-0.0050201416,0.005584717,-39.538574,2.758789,18.598938,0,0.0,0.0,0.0,0.0
1.162107896,-0.008098462,0.98650265,-0.16354452,-0.03004369,0.163236,0.98612946,0.9995158,0.012899613,0.028316222,-0.005850072,0.98700523,-0.16058192,-0.043549884,0.16018085,0.98612654,0.9990341,0.012762235,0.04204689,10.060623,0.105285645,0.29431152,9.801902,0.12650199,0.27768728,-0.014892578,-0.016616821,0.008483887,-39.538574,2.758789,18.598938,0,0.0,0.0,0.0,0.0
1.170408678,-0.008118635,0.9869054,-0.16109611,-0.029927667,0.16078945,0.986535,0.9995191,0.012830547,0.028230382,-0.005937534,0.98698545,-0.1606998,-0.04301495,0.16030179,0.98613036,0.99905676,0.012767676,0.041503336,10.040283,0.124420166,0.28115845,9.801934,0.12582469,0.27684548,-0.016723633,-0.008224487,0.00894165,-39.65912,2.758789,18.899536,0,0.0,0.0,0.0,0.0
1.178709459,-0.008086693,0.9869163,-0.16103068,-0.029790107,0.1607267,0.9865493,0.99952346,0.012775042,0.028100593,-0.006023658,0.98698235,-0.16071603,-0.042496923,0.16032109,0.98614967,0.99907845,0.012770165,0.040977992,10.010376,0.13160706,0.2368927,9.801977,0.12528037,0.2755727,-0.022216797,-0.0037994385,0.0019226074,-39.65912,2.758789,18.899536,0,0.0,0.0,0.0,0.0
1.18701024,-0.008505927,0.9891457,-0.14669108,-0.029576985,0.14638335,0.98878556,0.9995263,0.012749221,0.028010827,-0.0060648336,0.98698103,-0.16072246,-0.042242825,0.16032909,0.98615927,0.99908894,0.012770263,0.040720496,10.010376,0.13160706,0.2368927,9.802005,0.12502715,0.2746924,-0.026489258,0.0012512207,-0.0023498535,-39.89868,2.4597168,18.899536,0,0.0,0.0,0.0,0.0
1.195311021,-0.008473678,0.98915595,-0.14662434,-0.029539498,0.14631799,0.9887964,0.99952763,0.012709953,0.02797932,-0.006168296,0.9870705,-0.16016808,-0.041742556,0.15977736,0.98627007,0.9991093,0.012769431,0.04021729,10.018753,0.100494385,0.25723267,9.802018,0.12464206,0.2743834,-0.031066895,0.0027770996,-0.0014343262,-39.89868,2.4597168,18.899536,0,0.0,0.0,0.0,0.0
1.203611803,-0.0087931,0.9907535,-0.1353892,-0.029407416,0.13507965,0.9903982,0.9995288,0.012690118,0.027947731,-0.006265917,0.9871565,-0.15963306,-0.0412604,0.15924501,0.9863765,0.9991288,0.012767076,0.039732657,10.003189,0.10887146,0.2416687,9.80203,0.12444755,0.27407363,-0.035964966,0.0027770996,-0.0012817383,-40.078735,2.218628,18.838501,0,0.0,0.0,0.0,0.0
1.211912584,-0.0087820655,0.99075675,-0.13536611,-0.029381348,0.13505723,0.99040216,0.9995297,0.012675015,0.027923685,-0.006322108,0.98723423,-0.15914938,-0.04102437,0.15876251,0.9864641,0.9991381,0.012765536,0.039496947,10.003189,0.10887146,0.2416687,9.802038,0.12429944,0.2738378,-0.025726318,0.0046081543,-0.0064849854,-40.078735,2.218628,18.838501,0,0.0,0.0,0.0,0.0
1.220213365,-0.008304521,0.9890203,-0.14754644,-0.029534262,0.14724457,0.98865914,0.9995293,0.0125680175,0.027987188,-0.006430068,0.9873846,-0.15820983,-0.04056532,0.15782532,0.98663354,0.99915624,0.012761951,0.039038744,10.023529,0.013153076,0.29312134,9.802034,0.12325015,0.27446055,-0.026031494,0.0073547363,-0.009994507,-40.019226,2.519226,19.1391,0,0.0,0.0,0.0,0.0
1.228514146,-0.008252378,0.9890366,-0.14743958,-0.029599555,0.14713839,0.9886729,0.99952775,0.012523048,0.028060803,-0.006508774,0.9874515,-0.15778843,-0.040129345,0.15740673,0.98671824,0.9991733,0.012754272,0.038601257,10.057037,0.035888672,0.28953552,9.802019,0.12280915,0.2751825,-0.03337097,0.0099487305,-0.011062622,-40.019226,2.519226,19.1391,0,0.0,0.0,0.0,0.0
1.236814928,-0.008018909,0.988156,-0.15324283,-0.029717468,0.15294456,0.98778784,0.9995262,0.012474969,0.028139045,-0.006545797,0.9874842,-0.15758187,-0.03991906,0.15720157,0.9867594,0.99918145,0.012749647,0.03839043,10.057037,0.035888672,0.28953552,9.802004,0.12233766,0.27594978,-0.028625488,0.005065918,-0.0090789795,-39.959717,2.5787354,18.719482,0,0.0,0.0,0.0,0.0
1.245115709,-0.007974284,0.9881708,-0.15314959,-0.029794045,0.15285167,0.9877998,0.99952424,0.012439944,0.028222725,-0.006605829,0.9875112,-0.15741032,-0.03951533,0.15703303,0.98680246,0.9991971,0.01273877,0.0379845,10.042679,0.053833008,0.30867004,9.801985,0.121994175,0.27677038,-0.028778076,-2.746582E-4,-6.1035156E-5,-39.959717,2.5787354,18.719482,0,0.0,0.0,0.0,0.0
1.25341649,-0.0081857545,0.9889979,-0.14770286,-0.02980254,0.1474009,0.98862773,0.9995223,0.0124945855,0.028268063,-0.006661599,0.9875376,-0.15724193,-0.039130628,0.15686753,0.9868441,0.9992119,0.012726936,0.037597977,10.041473,0.14476013,0.31704712,9.801966,0.12253003,0.277215,-0.03276062,-0.007461548,-0.0060272217,-39.89868,2.519226,19.07959,0,0.0,0.0,0.0,0.0
1.261717271,-0.008225478,0.98898536,-0.14778428,-0.029816395,0.147481,0.9886153,0.99952155,0.012538229,0.028274879,-0.0066938316,0.9875678,-0.15705132,-0.038944393,0.15667824,0.9868816,0.99921894,0.012722288,0.037411448,10.041473,0.14476013,0.31704712,9.801958,0.12295803,0.27728185,-0.034744263,-0.0050201416,-0.0022125244,-39.89868,2.519226,19.07959,0,0.0,0.0,0.0,0.0
1.270018053,-0.008420125,0.9899851,-0.14092045,-0.029679185,0.14061594,0.9896193,0.99952406,0.012515122,0.028197948,-0.006757715,0.98762554,-0.15668496,-0.03858347,0.15631434,0.98695344,0.99923253,0.012715,0.037049692,10.04985,0.098098755,0.2679901,9.801983,0.122731425,0.2765274,-0.031219482,-0.015090942,-0.0014343262,-40.25879,2.3391724,18.838501,0,0.0,0.0,0.0,0.0
1.278318834,-0.008340122,0.9900097,-0.14075252,-0.029664204,0.14045052,0.9896433,0.9995251,0.012429057,0.028196473,-0.006828891,0.9877237,-0.15606175,-0.03823181,0.1556934,0.9870653,0.9992455,0.012707084,0.036699247,10.053452,0.062210083,0.34336853,9.801993,0.121887416,0.27651295,-0.026641846,-0.015396118,0.0029907227,-40.25879,2.3391724,18.838501,0,0.0,0.0,0.0,0.0
1.286619615,-0.008444706,0.99094504,-0.1340019,-0.029554788,0.13370079,0.99058086,0.99952745,0.0123255635,0.02815811,-0.0068616825,0.9877717,-0.1557561,-0.03806092,0.15538892,0.98711985,0.9992519,0.0127015235,0.03652927,10.053452,0.062210083,0.34336853,9.802016,0.12087249,0.27613673,-0.027404785,-0.021362305,0.008331299,-40.499878,2.218628,18.959045,0,0.0,0.0,0.0,0.0
1.294920396,-0.008339728,0.9909758,-0.13378124,-0.029429253,0.1334847,0.9906138,0.99953204,0.012198531,0.028050452,-0.0069314237,0.9879064,-0.15489642,-0.037724998,0.15453154,0.9872673,0.9992641,0.012686636,0.036197644,10.019943,0.06939697,0.3134613,9.802061,0.11962673,0.27508098,-0.030914307,-0.017227173,0.0077209473,-40.499878,2.218628,18.959045,0,0.0,0.0,0.0,0.0
1.303221178,-0.008193547,0.9903075,-0.1386501,-0.029191839,0.13835879,0.9899518,0.9995402,0.012158669,0.02777525,-0.006993866,0.98803645,-0.15406182,-0.037397306,0.15369937,0.9874097,0.99927604,0.012667308,0.035874948,10.003189,0.14237976,0.19262695,9.802141,0.119235806,0.27238217,-0.034118652,-0.008682251,-0.002822876,-40.13977,2.3391724,19.07959,0,0.0,0.0,0.0,0.0
1.311521959,-0.008222665,0.9902988,-0.1387103,-0.028971601,0.13842084,0.9899496,0.9995464,0.0121586835,0.027552359,-0.0070203473,0.9880842,-0.15375404,-0.037233483,0.15339291,0.9874636,0.99928194,0.012657136,0.035712946,10.003189,0.14237976,0.19262695,9.802201,0.11923595,0.27019632,-0.041915894,-0.005630493,-0.008163452,-40.13977,2.3391724,19.07959,0,0.0,0.0,0.0,0.0
1.31982274,-0.007590034,0.98704535,-0.16026205,-0.0290154,0.15998179,0.98669344,0.9995501,0.012139103,0.027425246,-0.0070726853,0.9881762,-0.15315916,-0.03690698,0.15280068,0.9875676,0.9992937,0.012637397,0.03538989,10.010376,0.08255005,0.21534729,9.802238,0.11904394,0.2689498,-0.03627014,0.006286621,-0.006942749,-39.959717,2.8198242,19.259644,0,0.0,0.0,0.0,0.0
1.328123521,-0.0076210313,0.98703486,-0.16032483,-0.028914556,0.16004494,0.9866861,0.99955285,0.012155287,0.02731997,-0.0070910207,0.9881324,-0.15344067,-0.036594145,0.15308532,0.9875352,0.999305,0.0126176635,0.03507433,10.045074,0.09451294,0.18544006,9.802265,0.11920265,0.2679174,-0.037643433,0.008422852,-0.008468628,-39.959717,2.8198242,19.259644,0,0.0,0.0,0.0,0.0
1.336424303,-0.007121904,0.98397446,-0.17816702,-0.028994078,0.17789343,0.9836225,0.9995542,0.012171054,0.027262494,-0.0071005705,0.98811096,-0.1535784,-0.036440462,0.15322456,0.9875193,0.9993106,0.012608416,0.034919236,10.045074,0.09451294,0.18544006,9.8022785,0.11935727,0.26735374,-0.035202026,0.0154418945,-0.008468628,-39.538574,3.2989502,19.799805,0,0.0,0.0,0.0,0.0
1.344725084,-0.00712274,0.9839742,-0.17816867,-0.029052902,0.17789434,0.9836206,0.9995524,0.01218239,0.02732021,-0.0070972997,0.98803425,-0.15407105,-0.0362914,0.15371893,0.9874479,0.99931604,0.012599669,0.03476616,10.010376,0.07537842,0.24885559,9.802261,0.11946844,0.26791975,-0.033813477,0.009796143,-0.015029907,-39.538574,3.2989502,19.799805,0,0.0,0.0,0.0,0.0
1.353025865,-0.007106979,0.9839799,-0.17813814,-0.029168332,0.17786285,0.98362297,0.99954927,0.0121865785,0.027436981,-0.0070914873,0.9878848,-0.155027,-0.036004424,0.15467812,0.9873087,0.9993265,0.012583144,0.03447132,10.0247345,0.061019897,0.27278137,9.80223,0.11950951,0.26906487,-0.027404785,0.022323608,-0.008621216,-39.538574,3.2989502,19.799805,0,0.0,0.0,0.0,0.0
1.361326646,-0.007094443,0.98471516,-0.174028,-0.029281273,0.17375317,0.98435384,0.99954605,0.0120792035,0.027601032,-0.0070859375,0.9877405,-0.15594375,-0.035733312,0.15559794,0.987174,0.99933624,0.01256744,0.034192685,10.0295105,0.0011901855,0.2763672,9.802198,0.11845652,0.27067366,-0.03213501,0.020339966,-0.002960205,-39.89868,3.1799316,19.619751,0,0.0,0.0,0.0,0.0
1.369627428,-0.0074679083,0.98736066,-0.15831323,-0.029377306,0.15803269,0.9869967,0.9995405,0.012021619,0.027825825,-0.00708377,0.9876833,-0.15630588,-0.035604134,0.15596157,0.9871213,0.9993409,0.012557675,0.034060813,10.02832,0.0657959,0.31106567,9.802144,0.11789181,0.27287814,-0.025421143,0.019119263,5.493164E-4,-40.078735,2.9388428,20.219421,0,0.0,0.0,0.0,0.0
1.377928209,-0.0074294377,0.98737293,-0.15823875,-0.029555958,0.15795717,0.98700356,0.99953556,0.01200978,0.02800922,-0.007098472,0.98767066,-0.1563852,-0.035357706,0.15604344,0.9871172,0.99934953,0.012536446,0.033814102,10.045074,0.0993042,0.3062744,9.802095,0.11777571,0.27467662,-0.022369385,0.01637268,-0.0077056885,-40.078735,2.9388428,20.219421,0,0.0,0.0,0.0,0.0
1.38622899,-0.0071149035,0.986234,-0.16520256,-0.029741328,0.16492495,0.9858576,0.9995323,0.011927625,0.028158484,-0.007111166,0.9876589,-0.15645865,-0.035127893,0.1561193,0.98711336,0.9993575,0.01251559,0.033584185,10.031906,0.029907227,0.31225586,9.802063,0.11697004,0.2761404,-0.010147095,0.0017089844,-0.010604858,-39.839172,3.0593872,19.979858,0,0.0,0.0,0.0,0.0
1.394529771,-0.0070649544,0.98625064,-0.16510549,-0.02985299,0.164828,0.9858705,0.9995293,0.011894023,0.028278027,-0.0071102814,0.98763114,-0.15663363,-0.035020247,0.15629557,0.9870893,0.9993613,0.012503831,0.03347578,10.033112,0.044265747,0.3409729,9.802034,0.11664052,0.27731273,-0.0011444092,-0.0033416748,-0.011367798,-39.839172,3.0593872,19.979858,0,0.0,0.0,0.0,0.0
1.402830553,-0.0070413044,0.98625845,-0.16505954,-0.029891199,0.16478229,0.9858769,0.99952835,0.011875687,0.028320165,-0.0071067675,0.98757786,-0.15696944,-0.034815688,0.15663385,0.98704296,0.9993685,0.012479682,0.033270042,10.033112,0.044265747,0.3409729,9.802025,0.11646071,0.27772596,0.011383057,-0.011581421,-0.011062622,-39.839172,3.0593872,19.979858,0,0.0,0.0,0.0,0.0
1.411131334,-0.007430336,0.9882159,-0.15288615,-0.02971403,0.15260465,0.98784053,0.9995308,0.01188285,0.02822997,-0.0071026217,0.9875269,-0.15728989,-0.03462071,0.15695672,0.9869985,0.9993753,0.012455764,0.033074077,10.018753,0.04547119,0.28234863,9.80205,0.11653096,0.27684146,0.019317627,-0.011276245,-0.026794434,-39.779663,2.8198242,20.159912,0,0.0,0.0,0.0,0.0
1.419432115,-0.0070270603,0.9853107,-0.17062677,-0.02972299,0.17034979,0.9849353,0.9995335,0.011992737,0.028089322,-0.0071096015,0.9875409,-0.15720175,-0.034522627,0.15686962,0.9870158,0.9993787,0.012444306,0.03297723,10.042679,0.06819153,0.2524414,9.802075,0.11760858,0.27546215,0.01184082,-0.009292603,-0.027862549,-39.65912,3.239441,20.339966,0,0.0,0.0,0.0,0.0
1.427732896,-0.007200516,0.98525244,-0.17095569,-0.029667458,0.17067438,0.98488075,0.9995339,0.0121634705,0.02800099,-0.0071038115,0.98745614,-0.15773371,-0.03433259,0.15740387,0.9869373,0.99938524,0.012426425,0.03278376,10.036697,0.088531494,0.2763672,9.802079,0.1192829,0.27459592,0.009246826,-0.008834839,-0.023895264,-39.65912,3.239441,20.339966,0,0.0,0.0,0.0,0.0
1.436033678,-0.007818472,0.9873441,-0.15840028,-0.029524524,0.15810813,0.9869804,0.9995335,0.012393368,0.027914697,-0.00710524,0.9873723,-0.15825781,-0.034147676,0.15792993,0.98685974,0.99939156,0.012416012,0.032594338,10.0295105,0.119644165,0.24765015,9.802075,0.12153743,0.27374968,0.0023651123,0.002166748,-0.033355713,-39.718628,2.9388428,20.27893,0,0.0,0.0,0.0,0.0
1.444334459,-0.008149011,0.98723966,-0.15903254,-0.029493423,0.15873134,0.98688114,0.99953175,0.01273252,0.027823577,-0.0071194815,0.9873717,-0.15826066,-0.034055278,0.15793346,0.9868623,0.9993946,0.012415559,0.032500815,10.063019,0.1758728,0.21176147,9.802058,0.124863364,0.2728561,0.0023651123,0.0017089844,-0.033355713,-39.718628,2.9388428,20.27893,0,0.0,0.0,0.0,0.0
1.45263524,-0.008383554,0.9871654,-0.15948115,-0.029524293,0.15917286,0.9868092,0.99952894,0.012981537,0.027810926,-0.007160124,0.9873665,-0.15829127,-0.033874553,0.15796497,0.9868635,0.99940044,0.01242811,0.03231555,10.036697,0.12083435,0.2536316,9.802031,0.12730539,0.27273202,0.0017547607,0.0039978027,-0.024810791,-39.718628,2.9388428,20.27893,0,0.0,0.0,0.0,0.0
1.460936021,-0.009212519,0.9903024,-0.13862327,-0.029365703,0.13830143,0.9899548,0.9995263,0.013190746,0.02780682,-0.007208371,0.98735857,-0.15833846,-0.033702247,0.15801272,0.98686177,0.999406,0.012450027,0.03213719,10.036697,0.12083435,0.2536316,9.802005,0.12935704,0.27269176,0.004501343,0.008728027,-0.020828247,-39.839172,2.4597168,20.219421,0,0.0,0.0,0.0,0.0
1.469236803,-0.009642918,0.99153566,-0.12947606,-0.029318526,0.12914605,0.99119204,0.9995236,0.01335403,0.02782502,-0.007250096,0.98742133,-0.15794487,-0.033616293,0.15761909,0.9869276,0.99940854,0.012464841,0.03205069,10.036697,0.025131226,0.2632141,9.801978,0.1309583,0.27287024,-0.008773804,0.010406494,-0.015945435,-40.13977,2.218628,19.979858,0,0.0,0.0,0.0,0.0
1.477537584,-0.009606067,0.99154544,-0.12940311,-0.029373221,0.12907344,0.9911998,0.9995223,0.013322521,0.027885001,-0.007349401,0.9875998,-0.15682015,-0.0334483,0.15649384,0.98711234,0.99941343,0.012500053,0.031883404,10.051056,0.11366272,0.2715912,9.801967,0.13064931,0.27345848,-0.013366699,0.011932373,-0.004501343,-40.13977,2.218628,19.979858,0,0.0,0.0,0.0,0.0
1.485838365,-0.009674077,0.9918546,-0.12700786,-0.029449105,0.1266761,0.991507,0.99951947,0.013332182,0.027983753,-0.0074429056,0.9877705,-0.15573697,-0.033288985,0.15541022,0.987289,0.9994181,0.0125326235,0.031725176,10.041473,0.11126709,0.27876282,9.801938,0.13074404,0.27442688,-0.005264282,0.014221191,-0.0014343262,-40.13977,2.1591187,19.918823,0,0.0,0.0,0.0,0.0
1.494139146,-0.009712929,0.9918443,-0.12708503,-0.029603817,0.1267501,0.9914928,0.9995145,0.013392501,0.02813126,-0.0074896356,0.9878604,-0.1551637,-0.033213217,0.1548367,0.9873816,0.9994202,0.012548614,0.03165035,10.057037,0.17228699,0.31225586,9.801889,0.13133557,0.27587342,-0.005874634,0.0078125,-0.0034332275,-40.13977,2.1591187,19.918823,0,0.0,0.0,0.0,0.0
1.502439928,-0.009773507,0.9918282,-0.12720536,-0.029753026,0.12686665,0.9914734,0.99950945,0.013474917,0.02826996,-0.0075814356,0.9880333,-0.15405436,-0.033072174,0.15372674,0.98755974,0.9994242,0.012582033,0.031510938,10.057037,0.17228699,0.31225586,9.80184,0.1321438,0.2772336,-0.006790161,-0.0050201416,-0.0011291504,-40.13977,2.1591187,19.918823,0,0.0,0.0,0.0,0.0
1.510740709,-0.009478778,0.99012786,-0.13984591,-0.029946433,0.13950838,0.9897679,0.99950653,0.013569678,0.028328432,-0.0076269736,0.9881163,-0.1535185,-0.033006743,0.15319055,0.98764527,0.999426,0.01259989,0.03144612,10.041473,0.18304443,0.3409729,9.801811,0.13307309,0.27780703,-0.0011444092,-0.008071899,-0.007095337,-39.779663,2.3986816,19.67926,0,0.0,0.0,0.0,0.0
1.51904149,-0.01012112,0.9927435,-0.11982475,-0.029684914,0.119479775,0.9923928,0.999508,0.013601112,0.028260235,-0.0077018766,0.9881996,-0.15297785,-0.032886434,0.15264931,0.9877331,0.99942946,0.012638294,0.031322673,10.0247345,0.12083435,0.2715912,9.801826,0.13338135,0.27713823,-0.007095337,-0.0036468506,-0.0048065186,-40.438843,1.9195557,19.319153,0,0.0,0.0,0.0,0.0
1.527342271,-0.010135758,0.9927397,-0.11985502,-0.029625673,0.119510435,0.9923909,0.9995097,0.013609418,0.028199252,-0.007801529,0.9884007,-0.15166835,-0.03276219,0.1513389,0.9879389,0.99943274,0.012676421,0.031201495,10.017548,0.12083435,0.2679901,9.801842,0.1334628,0.2765402,-0.017181396,-0.0048675537,0.0022277832,-40.438843,1.9195557,19.319153,0,0.0,0.0,0.0,0.0
1.535643053,-0.010057358,0.99276006,-0.11969294,-0.029586174,0.11935115,0.9924112,0.9995116,0.01352229,0.028171612,-0.007850092,0.98849744,-0.15103364,-0.032700617,0.15070374,0.988038,0.9994344,0.0126950815,0.03114144,10.017548,0.071777344,0.27278137,9.801861,0.13260837,0.27626914,-0.017181396,0.0039978027,-0.0038909912,-40.438843,1.9195557,19.319153,0,0.0,0.0,0.0,0.0
1.543943834,-0.009672766,0.99195635,-0.12620997,-0.02971666,0.12587498,0.9916009,0.99951154,0.013342061,0.02826007,-0.007941045,0.9886851,-0.14979547,-0.032579493,0.14946485,0.98823017,0.99943763,0.01272784,0.031023953,10.013962,-0.010772705,0.31106567,9.80186,0.13084093,0.27713662,-0.031829834,0.013458252,-0.004501343,-40.67993,2.0996094,19.619751,0,0.0,0.0,0.0,0.0
1.552244615,-0.009541845,0.9919917,-0.12594232,-0.029812263,0.12560986,0.99163175,0.99951,0.01321662,0.028374966,-0.008012103,0.9888253,-0.1488632,-0.032467436,0.14853224,0.9883744,0.9994407,0.012752164,0.030914571,10.061813,0.020339966,0.29551697,9.801845,0.12961078,0.27826336,-0.039016724,0.0099487305,-0.005264282,-40.67993,2.0996094,19.619751,0,0.0,0.0,0.0,0.0
1.560545396,-0.009858854,0.9935043,-0.113367185,-0.029796423,0.11303046,0.99314463,0.9995073,0.013169203,0.028488522,-0.00804385,0.98889387,-0.14840554,-0.032414902,0.14807448,0.9884448,0.99944216,0.012761453,0.030863812,10.046265,0.0765686,0.31225586,9.801819,0.12914577,0.27937698,-0.03489685,0.0010986328,-0.0046539307,-40.859985,1.7990112,19.319153,0,0.0,0.0,0.0,0.0
1.568846178,-0.009518217,0.9923434,-0.123141654,-0.02990732,0.122809626,0.9919794,0.9995073,0.013124714,0.028509406,-0.00811903,0.9891,-0.14702141,-0.032312874,0.14668997,0.9886546,0.99944484,0.0127776,0.030769682,10.003189,0.07058716,0.2907257,9.801819,0.12870948,0.2795818,-0.041610718,-0.0053253174,-0.0075531006,-41.279602,1.979065,19.1391,0,0.0,0.0,0.0,0.0
1.577146959,-0.009485461,0.9923524,-0.12307193,-0.029875176,0.12274129,0.99198896,0.9995086,0.013086268,0.028482445,-0.008176557,0.9892394,-0.14607736,-0.03221847,0.14574577,0.9887973,0.9994474,0.012791346,0.03068008,10.003189,0.07058716,0.2907257,9.801831,0.12833245,0.27931738,-0.044052124,-0.0027160645,-0.0019073486,-41.279602,1.979065,19.1391,0,0.0,0.0,0.0,0.0
1.58544774,-0.009398716,0.99237615,-0.12288729,-0.029815406,0.122559965,0.9920132,0.99951124,0.012987583,0.02843619,-0.008203754,0.98930687,-0.14561805,-0.032172028,0.14528643,0.98886645,0.9994487,0.012797245,0.030636115,10.039093,0.039474487,0.279953,9.801857,0.12736468,0.27886376,-0.03993225,-0.0039520264,-0.0038909912,-41.279602,1.979065,19.1391,0,0.0,0.0,0.0,0.0
1.593748521,-0.009166869,0.9915103,-0.12970504,-0.02980288,0.12938195,0.99114686,0.99951375,0.012951297,0.028363831,-0.008253037,0.98943835,-0.14471935,-0.03207947,0.14438783,0.98900104,0.9994513,0.012804782,0.03054902,10.036697,0.102890015,0.25004578,9.801882,0.12700884,0.27815416,-0.041763306,-0.0030212402,0.0043640137,-41.159058,2.0996094,18.959045,0,0.0,0.0,0.0,0.0
1.602049303,-0.00915254,0.9915144,-0.12967439,-0.029708505,0.12935296,0.9911535,0.99951667,0.012924004,0.0282725,-0.0082905125,0.98952466,-0.14412542,-0.031989627,0.14379413,0.98909044,0.99945384,0.012810584,0.030462397,10.067795,0.13519287,0.23210144,9.80191,0.12674119,0.27725852,-0.043136597,-0.004714966,0.010925293,-41.159058,2.0996094,18.959045,0,0.0,0.0,0.0,0.0
1.610350084,-0.009482308,0.99321187,-0.1159318,-0.029533712,0.11560827,0.99285567,0.9995188,0.0128384605,0.028237004,-0.008308377,0.98956656,-0.14383669,-0.031944256,0.1435056,0.9891338,0.99945515,0.012812853,0.030418672,10.061813,0.12083435,0.2679901,9.801931,0.1259023,0.27691042,-0.04359436,1.8310547E-4,0.008331299,-41.159058,1.7990112,18.778992,0,0.0,0.0,0.0,0.0
1.618650865,-0.009157765,0.9921334,-0.12484979,-0.029641604,0.12453082,0.9917729,0.99951863,0.012783171,0.028268002,-0.008380957,0.98980266,-0.14219858,-0.03180377,0.14186779,0.9893746,0.99945897,0.012814358,0.03029047,10.058228,0.15194702,0.30508423,9.801929,0.12536009,0.2772144,-0.04573059,-0.006088257,0.016571045,-40.79895,1.979065,18.719482,0,0.0,0.0,0.0,0.0
1.626951646,-0.009027345,0.9921698,-0.12456939,-0.029582351,0.124254964,0.9918092,0.99952155,0.01263846,0.028229024,-0.008397201,0.9898523,-0.14185207,-0.031760767,0.14152147,0.9894256,0.9994603,0.012813734,0.030250082,10.02832,0.10169983,0.25602722,9.801958,0.12394095,0.27683216,-0.034439087,-0.006088257,0.016571045,-40.79895,1.979065,18.719482,0,0.0,0.0,0.0,0.0
1.635252428,-0.008870007,0.9922137,-0.12423113,-0.029491255,0.12392241,0.99185365,0.9995257,0.012461478,0.028162431,-0.008410534,0.98990154,-0.14150685,-0.031717237,0.14117655,0.9894762,0.9994615,0.012810229,0.030209573,10.02832,0.10169983,0.25602722,9.801999,0.122205354,0.2761791,-0.034439087,-0.0039520264,0.019165039,-40.79895,1.979065,18.719482,0,0.0,0.0,0.0,0.0
1.643553209,-0.008754682,0.9924812,-0.12208358,-0.029391859,0.121780105,0.99212176,0.9995296,0.012273975,0.028104722,-0.008430165,0.9899988,-0.14082345,-0.031629156,0.140494,0.98957616,0.9994641,0.012796419,0.03012844,10.02832,0.10169983,0.25602722,9.802037,0.12036657,0.2756132,-0.039474487,0.002319336,0.013671875,-40.919495,1.9195557,18.539429,0,0.0,0.0,0.0,0.0
1.65185399,-0.00856487,0.9925336,-0.12167008,-0.029393572,0.12137208,0.99217176,0.9995312,0.012074141,0.028134575,-0.008437444,0.990052,-0.14044908,-0.031584512,0.14012015,0.9896306,0.9994655,0.01278597,0.030088056,10.017548,0.0657959,0.29193115,9.802053,0.118406884,0.27590597,-0.038864136,0.00491333,0.0058898926,-40.919495,1.9195557,18.539429,0,0.0,0.0,0.0,0.0
1.660154771,-0.00823878,0.9919011,-0.1267453,-0.029447004,0.12645398,0.99153537,0.9995324,0.011901311,0.028166689,-0.008443991,0.990157,-0.13970631,-0.031497803,0.1393786,0.98973817,0.9994682,0.012757781,0.030010859,10.02713,0.08973694,0.29193115,9.802065,0.11671199,0.27622086,-0.03794861,9.460449E-4,0.005279541,-40.73944,2.0996094,19.07959,0,0.0,0.0,0.0,0.0
1.668455553,-0.0076233256,0.99009526,-0.14018989,-0.029533166,0.13990988,0.98972374,0.9995348,0.011685237,0.028174073,-0.008436859,0.99022925,-0.13919346,-0.031416398,0.13886721,0.98981255,0.99947083,0.012723866,0.029937835,10.003189,0.0,0.275177,9.802088,0.11459304,0.27629328,-0.03276062,0.0029296875,-0.001739502,-40.438843,2.3391724,18.719482,0,0.0,0.0,0.0,0.0
1.676756334,-0.007460989,0.9901452,-0.13984543,-0.029507075,0.13957043,0.9897724,0.9995367,0.011511111,0.028174957,-0.008420549,0.99022657,-0.13921331,-0.03137877,0.13888802,0.9898108,0.9994721,0.012703094,0.029902576,10.003189,0.0,0.275177,9.802107,0.11288544,0.27630195,-0.031066895,6.4086914E-4,-0.005569458,-40.438843,2.3391724,18.719482,0,0.0,0.0,0.0,0.0
1.685057115,-0.007443344,0.9901506,-0.13980798,-0.029554993,0.13953294,0.9897762,0.99953544,0.01149927,0.028225306,-0.008382514,0.9902234,-0.13923834,-0.031304594,0.13891512,0.9898094,0.99947476,0.012655891,0.029834084,10.034302,0.0657959,0.3026886,9.802094,0.11276932,0.27679572,-0.024353027,-0.00440979,-0.011672974,-40.438843,2.3391724,18.719482,0,0.0,0.0,0.0,0.0
1.693357896,-0.0073009473,0.98879945,-0.14907159,-0.02961635,0.14879635,0.98842424,0.99953467,0.011631389,0.028198276,-0.008345274,0.9902206,-0.13926077,-0.03123543,0.13893953,0.9898082,0.99947727,0.012610089,0.029770477,10.042679,0.13519287,0.28115845,9.802087,0.11406497,0.27653062,-0.012741089,-0.01020813,-0.019454956,-40.319824,2.5787354,19.07959,0,0.0,0.0,0.0,0.0
1.701658678,-0.0074623614,0.9887479,-0.14940573,-0.029564302,0.14912641,0.9883761,0.99953496,0.011792694,0.028118802,-0.008324064,0.9901931,-0.13945709,-0.03120322,0.1391368,0.98978144,0.9994784,0.012590515,0.02973903,10.042679,0.13519287,0.28115845,9.80209,0.11564683,0.27575126,-0.008773804,-0.008834839,-0.018539429,-40.319824,2.5787354,19.07959,0,0.0,0.0,0.0,0.0
1.709959459,-0.0077982596,0.9900552,-0.14046296,-0.029424936,0.14017922,0.9896888,0.99953663,0.011850965,0.028039157,-0.008289287,0.9901378,-0.13985138,-0.031138662,0.13953277,0.9897277,0.9994807,0.012558922,0.029674942,10.051056,0.051452637,0.2524414,9.802106,0.11621827,0.2749702,-0.008010864,-0.00730896,-0.014724731,-40.19928,2.3391724,18.719482,0,0.0,0.0,0.0,0.0
1.71826024,-0.008118436,0.99127865,-0.13153264,-0.029261135,0.13124515,0.99091804,0.99953884,0.011893497,0.02794043,-0.008269824,0.9901346,-0.13987549,-0.031070663,0.13955832,0.98972625,0.999483,0.012530887,0.029610015,10.011566,0.090927124,0.22732544,9.802128,0.11663537,0.27400202,-0.011383057,0.0073547363,-0.015792847,-40.618896,2.1591187,18.778992,0,0.0,0.0,0.0,0.0
1.726561021,-0.00820976,0.991252,-0.1317271,-0.029224645,0.13143742,0.9908936,0.99953914,0.011984677,0.027889919,-0.008267085,0.99015814,-0.13970873,-0.031034464,0.13939214,0.98975086,0.9994841,0.012518139,0.029576657,10.011566,0.090927124,0.22732544,9.802131,0.117529534,0.27350667,-0.009231567,0.014984131,-0.016860962,-40.618896,2.1591187,18.778992,0,0.0,0.0,0.0,0.0
1.734861803,-0.008326575,0.991218,-0.13197586,-0.029335959,0.13168149,0.99085796,0.99953496,0.012122092,0.027981872,-0.008265386,0.9902027,-0.13939263,-0.03096258,0.13907713,0.98979735,0.9994864,0.012497013,0.029509706,10.035492,0.124420166,0.2715912,9.80209,0.11887711,0.27440843,-0.014419556,0.0140686035,-0.01625061,-40.618896,2.1591187,18.778992,0,0.0,0.0,0.0,0.0
1.743162584,-0.008131617,0.98987514,-0.1417077,-0.02951733,0.14141302,0.9895105,0.99953115,0.012229152,0.028068554,-0.008268246,0.990244,-0.13909918,-0.030898253,0.13878451,0.98984045,0.99948835,0.012482166,0.029449303,10.061813,0.0993042,0.2644043,9.8020525,0.11992702,0.27525848,-0.007858276,0.013000488,-0.01625061,-40.499878,2.3986816,19.07959,0,0.0,0.0,0.0,0.0
1.751463365,-0.008221074,0.98984766,-0.14189413,-0.02960552,0.14159578,0.9894817,0.9995279,0.012335453,0.02814089,-0.008265445,0.99023664,-0.13915133,-0.030870613,0.13883707,0.98983395,0.99948925,0.0124771055,0.029421661,10.061813,0.0993042,0.2644043,9.80202,0.120969474,0.27596787,-0.0066375732,0.009490967,-0.017166138,-40.499878,2.3986816,19.07959,0,0.0,0.0,0.0,0.0
1.759764146,-0.008619979,0.9913982,-0.13059607,-0.029610265,0.13029058,0.9910337,0.99952435,0.012409672,0.02823246,-0.008263543,0.9902214,-0.13925987,-0.030820597,0.13894626,0.9898202,0.9994908,0.012471495,0.029371025,10.016357,0.08375549,0.28355408,9.801986,0.121697314,0.27686587,-0.01411438,0.0113220215,-0.011520386,-40.73944,2.1591187,19.07959,0,0.0,0.0,0.0,0.0
1.768064928,-0.008529763,0.9908808,-0.13447082,-0.029723188,0.13416505,0.990513,0.99952173,0.012445745,0.028307742,-0.008278045,0.9902695,-0.13891688,-0.030772792,0.13860358,0.9898698,0.99949217,0.012469047,0.029325988,10.02713,0.07298279,0.28355408,9.801961,0.122051075,0.27760413,-0.011077881,0.0058288574,-0.011367798,-40.67993,2.279663,19.378662,0,0.0,0.0,0.0,0.0
1.776365709,-0.008544214,0.9908766,-0.13450065,-0.02978027,0.13419373,0.99050736,0.9995199,0.0124685755,0.028361997,-0.008283172,0.9902819,-0.13882798,-0.030751804,0.1385148,0.98988277,0.99949276,0.012468581,0.029305615,10.02713,0.07298279,0.28355408,9.801943,0.122274965,0.2781362,-0.0066375732,0.0039978027,-0.01411438,-40.67993,2.279663,19.378662,0,0.0,0.0,0.0,0.0
1.78466649,-0.008620431,0.9908546,-0.13465808,-0.0298376,0.13434824,0.99048483,0.99951756,0.01255628,0.028406585,-0.0082936585,0.99030584,-0.13865666,-0.03071344,0.13834374,0.9899079,0.99949384,0.012468581,0.029268323,10.031906,0.11605835,0.2763672,9.80192,0.12313505,0.27857345,-0.0049591064,0.014526367,-0.014266968,-40.67993,2.279663,19.378662,0,0.0,0.0,0.0,0.0
1.792967271,-0.008679162,0.9906299,-0.13629776,-0.029954348,0.13598417,0.99025804,0.99951357,0.01267732,0.028493444,-0.008306745,0.9903279,-0.13849823,-0.030678727,0.13818543,0.98993117,0.9994948,0.012472055,0.029234124,10.041473,0.12802124,0.26560974,9.80188,0.12432204,0.27942523,-0.0118255615,0.03163147,-0.022827148,-40.73944,2.218628,18.719482,0,0.0,0.0,0.0,0.0
1.801268053,-0.00880672,0.9905913,-0.13657078,-0.030150525,0.13625093,0.99021554,0.99950653,0.01283823,0.028666917,-0.00831422,0.990334,-0.13845423,-0.03066429,0.13814138,0.9899377,0.99949515,0.012476159,0.029219348,10.041473,0.12802124,0.26560974,9.801811,0.12590003,0.28112644,-0.01550293,0.02796936,-0.024353027,-40.73944,2.218628,18.719482,0,0.0,0.0,0.0,0.0
1.809568834,-0.009251676,0.99260205,-0.121060446,-0.030285627,0.12073194,0.9922231,0.9994985,0.012846118,0.028944602,-0.008333762,0.99034417,-0.13837975,-0.030643925,0.13806663,0.98994875,0.9994956,0.012490497,0.029197419,10.051056,0.0047912598,0.31944275,9.801732,0.12597738,0.2838496,-0.01411438,0.026290894,-0.018997192,-40.559387,1.9195557,18.838501,0,0.0,0.0,0.0,0.0
1.817869615,-0.009209995,0.9926132,-0.12097184,-0.030541176,0.120641306,0.99222624,0.9994911,0.012833021,0.02920447,-0.008352211,0.99039227,-0.13803378,-0.030637031,0.13772035,0.9899972,0.99949574,0.01249761,0.029192412,10.051056,0.0047912598,0.31944275,9.801659,0.12584893,0.286398,-0.012298584,0.026290894,-0.01701355,-40.559387,1.9195557,18.838501,0,0.0,0.0,0.0,0.0
1.826170396,-0.009184223,0.9924316,-0.12245507,-0.030754535,0.12212196,0.9920385,0.9994848,0.01287715,0.029400175,-0.008386187,0.9904858,-0.13735896,-0.030633619,0.13704485,0.99009097,0.9994955,0.012510892,0.029192884,10.022339,0.08734131,0.2644043,9.801598,0.12628171,0.28831723,-0.029388428,0.03239441,-0.0038909912,-40.559387,1.9195557,18.598938,0,0.0,0.0,0.0,0.0
1.834471178,-0.009144381,0.99244255,-0.12236931,-0.031083804,0.12203317,0.9920392,0.99947494,0.012875288,0.029732969,-0.008417682,0.99056715,-0.1367693,-0.03063874,0.13645443,0.99017245,0.9994951,0.0125253955,0.0292011,10.052246,0.112457275,0.35055542,9.801501,0.12626344,0.29158083,-0.037490845,0.025375366,2.4414063E-4,-40.559387,1.9195557,18.598938,0,0.0,0.0,0.0,0.0
1.842771959,-0.009287397,0.99329704,-0.11521617,-0.03128945,0.11487605,0.99288696,0.9994672,0.012826385,0.030012818,-0.008432074,0.99060667,-0.13648155,-0.030647747,0.13616627,0.99021184,0.9994947,0.012532393,0.029211702,10.052246,0.112457275,0.35055542,9.801425,0.12578388,0.2943252,-0.042373657,0.011779785,0.0058898926,-40.559387,1.7990112,18.778992,0,0.0,0.0,0.0,0.0
1.85107274,-0.009232445,0.99331105,-0.115098834,-0.03139021,0.114759125,0.9928972,0.9994646,0.012779846,0.030120742,-0.008465327,0.99072194,-0.13564071,-0.030673668,0.13532446,0.99032646,0.99949366,0.012544036,0.02924351,10.055832,0.13400269,0.32781982,9.801399,0.12532748,0.29538357,-0.031677246,-0.009902954,0.0071105957,-40.559387,1.7990112,18.778992,0,0.0,0.0,0.0,0.0
1.859373521,-0.008875429,0.9922332,-0.12407426,-0.031380832,0.12374165,0.9918181,0.999468,0.012696365,0.030038847,-0.008495076,0.99083257,-0.13482831,-0.030702323,0.13451116,0.9904363,0.9994925,0.012553373,0.029278178,10.055832,0.12322998,0.27757263,9.801434,0.124508806,0.29458046,-0.03213501,-0.011886597,0.0155181885,-40.438843,1.979065,18.719482,0,0.0,0.0,0.0,0.0
1.867674303,-0.008782844,0.99225867,-0.12387695,-0.031244228,0.12354893,0.99184644,0.9994732,0.012581673,0.029917248,-0.008502538,0.9908617,-0.13461338,-0.030715857,0.13429593,0.9904651,0.999492,0.012556233,0.02929331,10.055832,0.12322998,0.27757263,9.801484,0.12338407,0.29338798,-0.028015137,-0.011886597,0.01612854,-40.438843,1.979065,18.719482,0,0.0,0.0,0.0,0.0
1.875975084,-0.008580029,0.9923262,-0.12334872,-0.031077052,0.12302905,0.99191624,0.9994801,0.012343987,0.029782984,-0.008513393,0.99091923,-0.13418843,-0.030736897,0.13387057,0.990522,0.9994913,0.01255724,0.029318092,10.016357,0.037094116,0.2632141,9.801552,0.12105316,0.2920713,-0.03276062,-0.0079193115,0.009246826,-40.19928,1.9195557,18.23883,0,0.0,0.0,0.0,0.0
1.884275865,-0.008461809,0.9923593,-0.123091646,-0.031022217,0.12277627,0.9919494,0.9994828,0.012212261,0.029746274,-0.008515883,0.9909773,-0.13375935,-0.03075027,0.13344142,0.9905796,0.99949086,0.012548795,0.029336445,10.057037,0.08135986,0.2979126,9.8015785,0.11976137,0.2917113,-0.025878906,0.006134033,-0.0022125244,-40.19928,1.9195557,18.23883,0,0.0,0.0,0.0,0.0
1.892576646,-0.007940918,0.99046284,-0.13755076,-0.031154498,0.13724327,0.9900473,0.99948305,0.01214721,0.029767537,-0.008514734,0.991006,-0.13354608,-0.030755686,0.13322818,0.99060804,0.9994907,0.012542065,0.029344667,10.057037,0.08135986,0.2979126,9.80158,0.11912344,0.29191983,-0.030456543,0.0027770996,-0.010299683,-40.25879,2.218628,18.299866,0,0.0,0.0,0.0,0.0
1.900877428,-0.007929415,0.99046654,-0.13752589,-0.031145332,0.13721886,0.9900511,0.9994834,0.012133813,0.029760338,-0.008492058,0.99098486,-0.13370484,-0.03077162,0.13338736,0.9905862,0.99949044,0.012526429,0.029361473,10.013962,0.0657959,0.27038574,9.801584,0.11899207,0.29184923,-0.024658203,0.011779785,-0.013504028,-40.25879,2.218628,18.299866,0,0.0,0.0,0.0,0.0
1.909178209,-0.0077384664,0.9894056,-0.14497194,-0.031286653,0.14466575,0.98898584,0.9994805,0.01218892,0.029835695,-0.008469844,0.9909646,-0.13385601,-0.03078643,0.13353895,0.99056524,0.99949014,0.012510883,0.029377209,10.047455,0.08494568,0.28833008,9.801556,0.11953247,0.29258823,-0.02557373,0.029800415,-0.015335083,-40.379333,2.3391724,18.119812,0,0.0,0.0,0.0,0.0
1.91747899,-0.0077760257,0.9893931,-0.14505404,-0.031481117,0.14474429,0.9889681,0.99947405,0.012256705,0.030021667,-0.008455313,0.9909346,-0.13407859,-0.030796563,0.13376173,0.99053484,0.9994899,0.012504443,0.029386383,10.047455,0.08494568,0.28833008,9.801493,0.12019722,0.294412,-0.03152466,0.029800415,-0.014877319,-40.379333,2.3391724,18.119812,0,0.0,0.0,0.0,0.0
1.925779771,-0.007985588,0.99045616,-0.13759628,-0.031648476,0.1372814,0.99002635,0.9994672,0.012260657,0.030250156,-0.008428698,0.9908759,-0.13451365,-0.030823756,0.13419706,0.9904752,0.9994893,0.012494632,0.029411409,10.009171,0.057434082,0.3014984,9.801425,0.12023597,0.2966527,-0.034591675,0.025222778,-0.0074005127,-40.13977,2.218628,18.299866,0,0.0,0.0,0.0,0.0
1.934080553,-0.0079411045,0.9904699,-0.13750036,-0.031873196,0.13718411,0.99003255,0.99946034,0.012244528,0.030480048,-0.008411244,0.99085945,-0.13463573,-0.03085649,0.1343192,0.99045753,0.9994884,0.012485367,0.029444654,10.039093,0.06819153,0.324234,9.801358,0.120077804,0.29890716,-0.041152954,0.01651001,3.9672852E-4,-40.13977,2.218628,18.299866,0,0.0,0.0,0.0,0.0
1.942381334,-0.0076350705,0.9894785,-0.144478,-0.032103702,0.14416519,0.9890327,0.9994554,0.012189614,0.030665215,-0.008401891,0.9908517,-0.13469315,-0.030876875,0.1343766,0.99044913,0.9994879,0.01248055,0.029465389,10.039093,0.06819153,0.324234,9.80131,0.119539276,0.30072305,-0.03489685,0.0113220215,-3.6621094E-4,-39.959717,2.3986816,18.539429,0,0.0,0.0,0.0,0.0
1.950682115,-0.007556812,0.98950326,-0.1443125,-0.032181747,0.14400122,0.989054,0.9994535,0.012118326,0.030755756,-0.008371979,0.9907992,-0.13508107,-0.0309256,0.13476464,0.99039495,0.9994867,0.012469029,0.029512813,10.04985,0.062210083,0.3146515,9.8012905,0.11884018,0.30161095,-0.044509888,-0.0066986084,-0.0075531006,-39.959717,2.3986816,18.539429,0,0.0,0.0,0.0,0.0
1.958982896,-0.0077181687,0.99029386,-0.13877563,-0.032108285,0.13846278,0.9898471,0.9994546,0.012095653,0.030727953,-0.008340147,0.99074954,-0.13544694,-0.030975455,0.13513069,0.99034345,0.9994854,0.012455141,0.029561907,10.033112,0.057434082,0.2763672,9.801302,0.11861784,0.3013383,-0.027557373,-0.011581421,-0.008621216,-39.779663,2.279663,18.47992,0,0.0,0.0,0.0,0.0
1.967283678,-0.007709439,0.99029654,-0.13875717,-0.031985626,0.13844608,0.98985344,0.9994586,0.012069447,0.030607907,-0.008327777,0.9907405,-0.13551353,-0.030998183,0.13519731,0.9903337,0.9994848,0.012447951,0.029585263,10.033112,0.057434082,0.2763672,9.801341,0.11836085,0.30016103,-0.014419556,-0.013717651,-0.011062622,-39.779663,2.279663,18.47992,0,0.0,0.0,0.0,0.0
1.975584459,-0.007289862,0.9882991,-0.15235429,-0.03201145,0.1520496,0.9878543,0.9994609,0.0120784035,0.030528463,-0.008303395,0.99072313,-0.13564198,-0.031037495,0.13532595,0.99031496,0.99948376,0.012432962,0.029625896,10.018753,0.06341553,0.32661438,9.801363,0.118448675,0.29938197,-0.009384155,-0.0149383545,-0.014266968,-39.59961,2.6397705,19.018555,0,0.0,0.0,0.0,0.0
1.98388524,-0.0074267667,0.98825496,-0.15263323,-0.031925492,0.15232532,0.98781466,0.9994627,0.01220916,0.030419243,-0.008263864,0.99063253,-0.13630448,-0.03107643,0.13598886,0.9902229,0.99948287,0.012418922,0.029661529,10.042679,0.11366272,0.29670715,9.801381,0.119730964,0.29831088,-0.008010864,0.003540039,-0.029083252,-39.59961,2.6397705,19.018555,0,0.0,0.0,0.0,0.0
1.992186021,-0.0074489876,0.98740053,-0.15806559,-0.03196366,0.15775408,0.98696095,0.99946123,0.012404215,0.030385826,-0.008247378,0.9905876,-0.13663144,-0.031093575,0.13631597,0.9901773,0.99948245,0.012414727,0.02967666,10.042679,0.11366272,0.29670715,9.801367,0.1216438,0.29798317,-0.005569458,0.0067443848,-0.031066895,-39.419556,2.6992798,18.719482,0,0.0,0.0,0.0,0.0
2.000486803,-0.00762029,0.9873428,-0.15841798,-0.032016084,0.15810047,0.9869039,0.9994583,0.012592416,0.030406073,-0.008216424,0.99047023,-0.13748148,-0.03112832,0.13716616,0.9900588,0.9994816,0.012414311,0.029704662,10.015152,0.090927124,0.28115845,9.801338,0.123489425,0.2981817,-0.012435913,0.016983032,-0.027252197,-39.419556,2.6992798,18.719482,0,0.0,0.0,0.0,0.0
2.008787584,-0.007933574,0.9884798,-0.1511451,-0.03204839,0.15082087,0.98804146,0.9994548,0.012682657,0.030482633,-0.008193454,0.99035484,-0.1383117,-0.031163784,0.13799627,0.9899423,0.9994807,0.012421364,0.02973254,10.02832,0.046661377,0.2715912,9.801304,0.124374375,0.29893252,-0.022369385,0.01927185,-0.012435913,-39.89868,2.5787354,18.959045,0,0.0,0.0,0.0,0.0
2.017088365,-0.007938823,0.988478,-0.1511559,-0.03216731,0.15082999,0.9880361,0.9994509,0.012706126,0.030599272,-0.008188467,0.99031895,-0.13856864,-0.0311815,0.13825303,0.9899059,0.99948025,0.012426591,0.029747551,10.02832,0.046661377,0.2715912,9.801266,0.12460453,0.30007637,-0.031677246,0.015594482,-0.0118255615,-39.89868,2.5787354,18.959045,0,0.0,0.0,0.0,0.0
2.025389146,-0.008000208,0.98853654,-0.15076959,-0.03225417,0.15044086,0.98809266,0.99944764,0.012767895,0.030680867,-0.008179037,0.99024916,-0.13906746,-0.031220546,0.13875143,0.989835,0.99947906,0.012437659,0.029781265,10.04866,0.12562561,0.26200867,9.801233,0.12521029,0.30087653,-0.017028809,0.01651001,0.002380371,-39.779663,2.5787354,19.018555,0,0.0,0.0,0.0,0.0
2.033689928,-0.008030544,0.9885269,-0.15083173,-0.032418013,0.15049994,0.9880784,0.99944216,0.012824471,0.030837478,-0.008172405,0.990184,-0.13953114,-0.031261466,0.1392146,0.9897687,0.99947786,0.012450738,0.029816886,10.058228,0.16989136,0.32781982,9.80118,0.1257651,0.30241236,-0.028320313,0.018035889,0.00390625,-39.779663,2.5787354,19.018555,0,0.0,0.0,0.0,0.0
2.041990709,-0.008091965,0.9887957,-0.14905585,-0.032565244,0.14872108,0.9883429,0.99943686,0.012851674,0.030996924,-0.008169824,0.9901521,-0.13975725,-0.03128455,0.1394404,0.98973614,0.99947715,0.012458213,0.029837256,10.058228,0.16989136,0.32781982,9.801127,0.12603188,0.303976,-0.021911621,0.016204834,-0.0026550293,-39.65912,2.5787354,19.259644,0,0.0,0.0,0.0,0.0
2.05029149,-0.008141515,0.98878014,-0.14915581,-0.03281088,0.14881627,0.98832035,0.9994284,0.012940358,0.031231161,-0.008167172,0.9901,-0.14012584,-0.031335298,0.13980828,0.9896827,0.9994756,0.012473794,0.029883241,10.04866,0.19381714,0.37088013,9.801044,0.12690157,0.30627307,-0.031219482,0.021560669,-3.6621094E-4,-39.65912,2.5787354,19.259644,0,0.0,0.0,0.0,0.0
2.058592271,-0.008337948,0.98929775,-0.14567262,-0.033021104,0.14532582,0.9888326,0.9994198,0.013055105,0.031455982,-0.008166673,0.9900493,-0.14048368,-0.03139356,0.14016527,0.9896302,0.99947375,0.01249227,0.029936492,10.041473,0.13998413,0.34457397,9.800961,0.12802684,0.30847782,-0.02923584,0.01361084,0.0019226074,-39.65912,2.519226,19.378662,0,0.0,0.0,0.0,0.0
2.066893053,-0.008313042,0.9893053,-0.14562263,-0.03319831,0.14527433,0.98883426,0.99941415,0.013054646,0.031635586,-0.008170264,0.9900345,-0.14058748,-0.031426076,0.14026852,0.98961467,0.9994727,0.012503527,0.02996687,10.041473,0.13998413,0.34457397,9.800905,0.12802234,0.31023914,-0.027557373,0.0015563965,0.0020751953,-39.65912,2.519226,19.378662,0,0.0,0.0,0.0,0.0
2.075193834,-0.0079260105,0.98807,-0.15380116,-0.033274025,0.15346022,0.9875944,0.99941486,0.012945267,0.03166074,-0.008176267,0.99000615,-0.14078699,-0.03149613,0.14046688,0.98958427,0.9994705,0.012525351,0.03003287,10.025925,0.057434082,0.30867004,9.800912,0.12694971,0.3104858,-0.026184082,-0.014633179,-0.0031280518,-39.538574,2.6992798,19.378662,0,0.0,0.0,0.0,0.0
2.083494615,-0.007866105,0.98808914,-0.15368159,-0.033105727,0.15334477,0.9876181,0.9994209,0.012856447,0.031505182,-0.00816724,0.9899327,-0.1413028,-0.031566422,0.14098185,0.9895088,0.99946827,0.01254198,0.030097201,9.993622,0.056228638,0.25602722,9.800971,0.12607868,0.30896032,-0.02267456,-0.018753052,-0.0032653809,-39.538574,2.6992798,19.378662,0,0.0,0.0,0.0,0.0
2.091795396,-0.007430873,0.98621696,-0.16529027,-0.032979824,0.1649632,0.9857482,0.9994284,0.012776213,0.031299442,-0.008161589,0.9898974,-0.14155057,-0.03159719,0.14122932,0.9894725,0.9994674,0.012548268,0.030125318,9.993622,0.056228638,0.25602722,9.801044,0.12529185,0.30694267,-0.026031494,-0.011276245,-0.002960205,-39.59961,2.999878,19.67926,0,0.0,0.0,0.0,0.0
2.100096178,-0.007435666,0.98621535,-0.16529965,-0.032804735,0.16497467,0.9857521,0.9994341,0.0127523355,0.031125838,-0.008147584,0.98982936,-0.14202623,-0.031624988,0.14170484,0.98940367,0.9994666,0.012552827,0.030148787,10.010376,0.08734131,0.26560974,9.801101,0.1250577,0.3052402,-0.033981323,-0.009597778,-0.008773804,-39.59961,2.999878,19.67926,0,0.0,0.0,0.0,0.0
2.108396959,-0.0074801156,0.98620033,-0.16538683,-0.03266094,0.16506226,0.9857421,0.99943846,0.012775156,0.030975549,-0.008120364,0.9896967,-0.14294943,-0.031672023,0.14262787,0.98926955,0.99946535,0.012560726,0.030187506,10.023529,0.09211731,0.24287415,9.801144,0.12528148,0.30376637,-0.031219482,0.0026245117,-0.017166138,-39.59961,2.999878,19.67926,0,0.0,0.0,0.0,0.0
2.11669774,-0.0077293427,0.9874316,-0.15785803,-0.032593947,0.15753007,0.9869761,0.99943876,0.012773893,0.030966686,-0.008095803,0.98956794,-0.14383955,-0.03171131,0.14351784,0.9891395,0.99946433,0.012569219,0.030218603,10.02832,0.033493042,0.28953552,9.8011465,0.1252691,0.30367947,-0.02130127,0.003540039,-0.01914978,-39.65912,2.758789,19.198608,0,0.0,0.0,0.0,0.0
2.124998521,-0.00793146,0.9883546,-0.15196136,-0.032562274,0.15163025,0.98790073,0.99943817,0.012783702,0.030980427,-0.008088697,0.98952717,-0.14412016,-0.031729046,0.14379834,0.98909825,0.9994638,0.012573311,0.030233612,10.017548,0.021530151,0.28355408,9.801141,0.1253653,0.3038142,-0.019317627,0.0038452148,-0.01991272,-39.538574,2.6992798,19.619751,0,0.0,0.0,0.0,0.0
2.133299303,-0.007973088,0.9883417,-0.15204348,-0.032626886,0.15171023,0.98788637,0.9994358,0.012837209,0.03103691,-0.0080827195,0.9894819,-0.14443076,-0.031762023,0.14410855,0.989052,0.9994628,0.012581643,0.030263158,10.077377,0.07298279,0.31944275,9.801117,0.12589002,0.3043681,-0.011520386,0.007507324,-0.011062622,-39.538574,2.6992798,19.619751,0,0.0,0.0,0.0,0.0
2.141600084,-0.007852366,0.98780316,-0.15550977,-0.032726925,0.1551774,0.98734444,0.9994335,0.012842345,0.03110925,-0.008078608,0.9894379,-0.14473243,-0.031796362,0.14440979,0.98900706,0.99946177,0.0125917625,0.030293893,10.077377,0.06819153,0.32183838,9.801095,0.12594038,0.30507752,-0.01260376,3.3569336E-4,-0.0061798096,-39.118958,2.758789,19.499207,1,0.0,0.0,0.0,0.0
2.149900865,-0.007894545,0.9877898,-0.1555925,-0.032818384,0.1552576,0.98732877,0.9994301,0.012900804,0.031191977,-0.008074266,0.9894063,-0.14494821,-0.031814996,0.1446254,0.9889748,0.9994612,0.012596774,0.030310214,10.065414,0.13040161,0.3481598,9.801062,0.12651367,0.3058888,-0.011383057,0.0018615723,-0.0046539307,-39.118958,2.758789,19.499207,1,0.0,0.0,0.0,0.0
2.158201646,-0.007910322,0.98778474,-0.15562344,-0.032873448,0.1552873,0.9873221,0.99942815,0.012925915,0.031243518,-0.008067547,0.9893444,-0.14536998,-0.03185472,0.14504665,0.9889119,0.99946,0.012608813,0.03034512,10.065414,0.13040161,0.3481598,9.801043,0.12675993,0.30639425,-0.008163452,-5.79834E-4,-6.713867E-4,-39.118958,2.758789,19.499207,1,0.0,0.0,0.0,0.0
2.166502428,-0.008204796,0.98955905,-0.14389426,-0.032771636,0.1435557,0.98909944,0.99942917,0.012831011,0.031251624,-0.008061737,0.98928475,-0.14577629,-0.031894863,0.14545245,0.988851,0.9994588,0.01262137,0.0303805,10.041473,0.08375549,0.3361969,9.801052,0.12582923,0.30647373,-0.01687622,-0.003189087,0.01473999,-39.179993,2.519226,19.558716,1,0.0,0.0,0.0,0.0
2.174803209,-0.008621398,0.99213547,-0.12487157,-0.032531098,0.12453183,0.9916822,0.9994335,0.012611898,0.031201616,-0.00806457,0.98929024,-0.14573859,-0.03191237,0.14541447,0.988856,0.9994582,0.012625563,0.030397894,10.047455,0.046661377,0.3014984,9.801095,0.123680465,0.30598333,-0.014419556,-0.002105713,0.019332886,-39.05945,2.0996094,19.378662,1,0.0,0.0,0.0,0.0
2.18310399,-0.00828281,0.9922229,-0.12419859,-0.032488346,0.12387026,0.9917665,0.9994378,0.012249619,0.031209681,-0.008075415,0.9893515,-0.14532174,-0.031924844,0.14499733,0.9889169,0.99945766,0.012625289,0.03041398,10.047455,0.046661377,0.3014984,9.801137,0.12012773,0.30606243,-0.021759033,-0.004562378,0.025741577,-39.05945,2.0996094,19.378662,1,0.0,0.0,0.0,0.0
2.191404771,-0.007865767,0.99184066,-0.12724112,-0.032471634,0.1269246,0.9913807,0.9994417,0.011929697,0.031208325,-0.008086826,0.9895328,-0.14408118,-0.031957973,0.14375652,0.98909694,0.99945647,0.012603197,0.03046093,10.021133,0.034698486,0.3409729,9.801175,0.116990365,0.30604914,-0.029541016,-0.011276245,0.01612854,-39.29901,2.1591187,19.259644,1,0.0,0.0,0.0,0.0
2.199705553,-0.007645521,0.9918991,-0.12679826,-0.03234653,0.12649028,0.9914403,0.99944746,0.011681561,0.03111741,-0.008082217,0.98958176,-0.14374483,-0.03196803,0.14342035,0.98914546,0.9994562,0.012589727,0.030475827,10.005585,0.056228638,0.30029297,9.801232,0.11455699,0.30515757,-0.037338257,-0.014785767,0.013366699,-39.29901,2.1591187,19.259644,1,0.0,0.0,0.0,0.0
2.208006334,-0.007497434,0.9919382,-0.12650046,-0.032172054,0.12619925,0.9914831,0.99945426,0.01150336,0.030966522,-0.008064656,0.9896791,-0.14307451,-0.031982426,0.14275068,0.98924184,0.9994559,0.012553764,0.030501101,10.00798,0.059814453,0.26919556,9.801298,0.11280943,0.30367786,-0.041610718,-0.0066986084,0.0028381348,-39.29901,2.1591187,19.259644,1,0.0,0.0,0.0,0.0
2.216307115,-0.007592705,0.9926623,-0.12068156,-0.03200601,0.12038196,0.99221164,0.9994588,0.0113961045,0.03085713,-0.008042025,0.9897738,-0.14241889,-0.03198945,0.14209595,0.9893358,0.99945587,0.012512167,0.030519584,10.00798,0.059814453,0.26919556,9.801343,0.11175761,0.3026051,-0.049240112,-0.0054779053,-0.009231567,-39.59961,2.0385742,19.259644,1,0.0,0.0,0.0,0.0
2.224607896,-0.008287919,0.9951291,-0.098230876,-0.031801753,0.09792226,0.9946858,0.99945986,0.01136779,0.030835278,-0.008033007,0.9898362,-0.1419848,-0.031989373,0.14166234,0.98939806,0.9994559,0.012489846,0.030526264,10.016357,0.0657959,0.30747986,9.801353,0.111479945,0.30239078,-0.046798706,0.0017089844,-0.013046265,-39.59961,1.5594482,19.1391,1,0.0,0.0,0.0,0.0
2.232908678,-0.008435327,0.99509805,-0.098533355,-0.031796653,0.09822012,0.99465674,0.9994588,0.011523284,0.030812263,-0.008043122,0.9900825,-0.14025676,-0.031981237,0.13993485,0.9896441,0.99945617,0.012445413,0.030538552,10.057037,0.15792847,0.29193115,9.801343,0.11300482,0.3021651,-0.04222107,-0.004562378,-0.016098022,-39.59961,1.5594482,19.1391,1,0.0,0.0,0.0,0.0
2.241209459,-0.009057058,0.9964137,-0.08412908,-0.03166274,0.08380458,0.995979,0.99945754,0.011684397,0.030790167,-0.008058676,0.99031436,-0.13860872,-0.0319735,0.13828717,0.98987585,0.9994562,0.012408896,0.030549409,10.063019,0.14237976,0.2979126,9.801331,0.114584796,0.3019484,-0.027862549,0.0010986328,-0.018692017,-39.839172,1.2588501,19.198608,1,0.0,0.0,0.0,0.0
2.24951024,-0.009195515,0.99638826,-0.08441472,-0.031673636,0.0840857,0.995955,0.999456,0.011832042,0.03078603,-0.008078732,0.99046564,-0.13752276,-0.03196738,0.13720115,0.99002725,0.9994563,0.012394406,0.030554181,10.04985,0.12802124,0.3134613,9.801315,0.11603269,0.30190784,-0.030303955,0.0029296875,-0.015182495,-39.839172,1.2588501,19.198608,1,0.0,0.0,0.0,0.0
2.257811021,-0.009308921,0.9963673,-0.084648676,-0.03165642,0.084316276,0.995936,0.9994555,0.011950767,0.030756537,-0.008123068,0.9907542,-0.13542615,-0.03195641,0.13510425,0.990316,0.9994563,0.012372137,0.030563481,10.045074,0.11605835,0.26919556,9.801311,0.11719699,0.3016186,-0.027252197,0.002166748,-0.0104522705,-39.839172,1.2588501,19.198608,1,0.0,0.0,0.0,0.0
2.266111803,-0.00916063,0.9957846,-0.0912643,-0.031678494,0.09093332,0.995353,0.9994561,0.012009176,0.030711947,-0.008146852,0.9908919,-0.13441366,-0.031950854,0.13409154,0.9904538,0.9994563,0.01236371,0.030567417,10.045074,0.11605835,0.26919556,9.801316,0.11776979,0.30118132,-0.021911621,-0.004562378,7.019043E-4,-40.13977,1.3793945,19.07959,1,0.0,0.0,0.0,0.0
2.274412584,-0.00903613,0.9954945,-0.0943883,-0.031698942,0.09405954,0.9950619,0.99945664,0.011983518,0.030706188,-0.00818713,0.9911212,-0.13270932,-0.031940605,0.13238686,0.9906833,0.9994563,0.012349671,0.030573143,10.042679,0.10887146,0.3014984,9.801322,0.117518164,0.30112484,-0.022216797,0.008575439,0.002532959,-40.13977,1.4389038,19.018555,1,0.0,0.0,0.0,0.0
2.282713365,-0.008856546,0.99553156,-0.094012074,-0.03176057,0.09368827,0.9950948,0.9994563,0.0117989825,0.0307889,-0.008220868,0.9913225,-0.1311951,-0.03193136,0.13087238,0.9908849,0.9994563,0.012335171,0.03057839,10.025925,0.020339966,0.31585693,9.801318,0.11570849,0.30193597,-0.03504944,0.01637268,0.0075683594,-40.13977,1.4389038,19.018555,1,0.0,0.0,0.0,0.0
2.291014146,-0.00858696,0.9955873,-0.09344732,-0.03187589,0.09313074,0.99514353,0.9994549,0.011523972,0.030935517,-0.008233596,0.9914203,-0.13045308,-0.031927936,0.13013035,0.9909827,0.9994563,0.012324448,0.030582562,10.057037,-0.026321411,0.3397827,9.801305,0.11301156,0.30337378,-0.03504944,0.007659912,0.011688232,-40.13977,1.4389038,19.018555,1,0.0,0.0,0.0,0.0
2.299314928,-0.008138354,0.9948385,-0.101144135,-0.0319725,0.100836895,0.9943891,0.99945563,0.011326521,0.03098683,-0.0082474295,0.9916115,-0.12899089,-0.031925626,0.1286684,0.9911736,0.9994562,0.01229275,0.030596633,10.035492,0.050247192,0.29193115,9.801312,0.11107524,0.30387703,-0.037338257,0.0058288574,0.013824463,-39.959717,1.6189575,19.1391,1,0.0,0.0,0.0,0.0
2.307615709,-0.007950726,0.9948794,-0.100755855,-0.031988524,0.10045442,0.9944273,0.9994566,0.011129449,0.031026036,-0.00824295,0.99175406,-0.12788996,-0.03192682,0.12756808,0.9913158,0.9994562,0.012254488,0.030612018,10.041473,0.06939697,0.32183838,9.801321,0.10914262,0.30426148,-0.02999878,-0.012954712,0.018859863,-39.959717,1.6189575,19.1391,1,0.0,0.0,0.0,0.0
2.31591649,-0.007250582,0.99315244,-0.11660026,-0.032065097,0.11631245,0.9926949,0.9994595,0.010936415,0.031002197,-0.008237012,0.9918239,-0.12734811,-0.03192773,0.12702663,0.9913854,0.9994563,0.012231987,0.030620366,10.041473,0.06939697,0.32183838,9.80135,0.107249595,0.3040277,-0.025421143,-0.004562378,0.0101623535,-40.019226,1.9195557,18.838501,1,0.0,0.0,0.0,0.0
2.324217271,-0.007314256,0.9939396,-0.109683916,-0.031874295,0.10939938,0.99348664,0.9994651,0.010762713,0.030880949,-0.008197869,0.9918787,-0.12692285,-0.031932723,0.1266027,0.99143934,0.9994564,0.012180683,0.030635515,10.004395,0.0382843,0.25842285,9.801405,0.10554616,0.30283865,-0.022979736,-0.006088257,-0.0019073486,-39.839172,1.7990112,18.959045,1,0.0,0.0,0.0,0.0
2.332518053,-0.00723167,0.9939591,-0.109512225,-0.031773433,0.10923139,0.9935084,0.9994689,0.010664305,0.030791568,-0.008162883,0.99196607,-0.1262409,-0.031929597,0.12592217,0.9915262,0.9994568,0.012124533,0.03064519,10.00798,0.06819153,0.25842285,9.801442,0.1045811,0.30196214,-0.02267456,0.006591797,-0.009231567,-39.839172,1.7990112,18.959045,1,0.0,0.0,0.0,0.0
2.340818834,-0.00725591,0.99395347,-0.10956263,-0.03175094,0.109281264,0.9935037,0.99946946,0.01068749,0.030766018,-0.008144297,0.9920087,-0.1259067,-0.031926025,0.12558874,0.99156857,0.9994571,0.012095328,0.03064806,10.022339,0.07896423,0.2679901,9.801447,0.104808465,0.30171156,-0.017028809,0.008422852,-0.015029907,-39.839172,1.7990112,18.959045,1,0.0,0.0,0.0,0.0
2.349119615,-0.007268381,0.9936849,-0.11197044,-0.031793587,0.111687146,0.9932346,0.999468,0.010779151,0.030781025,-0.008109193,0.9920908,-0.12525998,-0.031918366,0.124943465,0.9916503,0.9994576,0.0120395785,0.030652726,10.017548,0.08494568,0.2871399,9.801434,0.10570736,0.30185875,-0.007247925,0.01071167,-0.02420044,-39.839172,1.8585205,19.07959,1,0.0,0.0,0.0,0.0
2.357420396,-0.0073893205,0.9936559,-0.11222014,-0.031937923,0.111931436,0.99320257,0.99946254,0.0109231705,0.030908208,-0.008075927,0.9921573,-0.124734215,-0.03191295,0.12441902,0.99171644,0.9994581,0.011989666,0.030657869,10.043869,0.08255005,0.33499146,9.80138,0.107119724,0.303106,-0.0037384033,0.011474609,-0.026794434,-39.839172,1.8585205,19.07959,1,0.0,0.0,0.0,0.0
2.365721178,-0.007242349,0.9924646,-0.12231738,-0.03213213,0.12202644,0.9920066,0.99945736,0.011114777,0.031006245,-0.008062176,0.9921888,-0.124484144,-0.031913236,0.12416948,0.9917477,0.99945813,0.011968336,0.030662877,10.047455,0.09690857,0.31585693,9.801329,0.10899873,0.3040674,0.0012969971,0.0073547363,-0.028015137,-39.839172,2.0385742,18.899536,1,0.0,0.0,0.0,0.0
2.374021959,-0.0072990227,0.99193156,-0.1265642,-0.032240838,0.12626833,0.99147207,0.9994535,0.011317315,0.03105907,-0.008029712,0.99219984,-0.12439822,-0.03192171,0.12408449,0.99175805,0.99945813,0.0119345365,0.030676356,10.02832,0.119644165,0.32302856,9.8012905,0.110984944,0.30458543,0.0060424805,-0.006088257,-0.016708374,-39.479065,2.1591187,19.198608,1,0.0,0.0,0.0,0.0
2.38232274,-0.0074384287,0.9918944,-0.1268467,-0.032256134,0.1265462,0.9914362,0.999452,0.011466311,0.031053374,-0.008000804,0.99218935,-0.12448402,-0.03193439,0.12417099,0.9917468,0.99945796,0.011910094,0.030691495,10.02832,0.119644165,0.32302856,9.801276,0.11244611,0.30452958,0.012908936,-0.0037994385,-0.013504028,-39.479065,2.1591187,19.198608,1,0.0,0.0,0.0,0.0
2.390623521,-0.0073735816,0.9919117,-0.12671527,-0.0324367,0.12641478,0.991447,0.9994466,0.011420741,0.03124221,-0.007989581,0.9921835,-0.124531336,-0.031940766,0.124218546,0.99174064,0.9994579,0.0119012175,0.030698648,9.984055,0.008377075,0.45942688,9.801223,0.11199921,0.30638143,0.012908936,0.0056762695,-0.0048065186,-39.479065,2.1591187,19.198608,1,0.0,0.0,0.0,0.0
2.398924303,-0.0068911286,0.9904379,-0.13778701,-0.032404568,0.13749674,0.989972,0.99945104,0.0112869525,0.031147202,-0.007965234,0.99217284,-0.124617934,-0.031960383,0.12430563,0.9917291,0.9994574,0.011882192,0.030720102,10.09053,-0.026321411,0.24406433,9.801267,0.110687196,0.30544972,0.027877808,-0.008682251,-0.005569458,-39.118958,2.3986816,19.198608,1,0.0,0.0,0.0,0.0
2.407225084,-0.006927611,0.9904275,-0.13786004,-0.03230833,0.1375697,0.9899651,0.99945396,0.01131212,0.03104603,-0.007922918,0.99210745,-0.12513976,-0.0319783,0.12482831,0.9916629,0.9994572,0.011858621,0.030736908,10.052246,0.09690857,0.26560974,9.801295,0.110934004,0.30445755,0.02696228,-0.00440979,-6.713867E-4,-39.118958,2.3986816,19.198608,1,0.0,0.0,0.0,0.0
2.415525865,-0.0074772523,0.9925065,-0.12196237,-0.032035932,0.12166541,0.992054,0.99945873,0.0113250185,0.03088615,-0.007903077,0.99207544,-0.12539448,-0.03198512,0.12508343,0.99163055,0.9994571,0.01184769,0.030743107,10.02832,0.098098755,0.23449707,9.801342,0.11106049,0.30288967,0.022216797,-0.0030212402,-0.0019073486,-39.35852,2.0996094,19.499207,1,0.0,0.0,0.0,0.0
2.423826646,-0.007546945,0.9926965,-0.12040276,-0.031890534,0.120106,0.9922487,0.9994628,0.011328153,0.030751184,-0.007886216,0.9920928,-0.12525854,-0.03198701,0.12494804,0.99164754,0.99945724,0.011826993,0.030748717,10.042679,0.022735596,0.29312134,9.801382,0.11109124,0.3015661,0.008331299,-0.0011901855,-0.005264282,-39.118958,2.0385742,19.259644,1,0.0,0.0,0.0,0.0
2.432127428,-0.0074685705,0.992716,-0.12024562,-0.031857003,0.11995174,0.99226844,0.9994646,0.011241494,0.030729093,-0.007879431,0.9921051,-0.12516141,-0.031985115,0.1248512,0.9916598,0.99945736,0.011817017,0.030748839,10.042679,0.022735596,0.29312134,9.801399,0.1102414,0.30134946,-0.0035858154,0.007659912,-0.005722046,-39.118958,2.0385742,19.259644,1,0.0,0.0,0.0,0.0
2.440428209,-0.0074788895,0.99271345,-0.12026631,-0.03190523,0.11997155,0.9922645,0.9994629,0.011258162,0.030775499,-0.00786317,0.99212974,-0.12496683,-0.031980023,0.124657266,0.9916843,0.9994576,0.011794225,0.030748133,10.00798,0.08973694,0.28234863,9.801383,0.11040485,0.30180454,-0.013046265,0.018035889,-0.0066375732,-39.118958,2.0385742,19.259644,1,0.0,0.0,0.0,0.0
2.44872899,-0.007731568,0.9934463,-0.11403771,-0.03202541,0.11373662,0.99299467,0.9994572,0.011329511,0.030936169,-0.00784795,0.9921533,-0.1247807,-0.03197709,0.124471724,0.99170774,0.9994578,0.011772998,0.03074933,10.037888,0.13279724,0.32063293,9.801327,0.111104555,0.3033802,-0.021148682,0.019729614,-0.008010864,-39.179993,1.9195557,19.378662,1,0.0,0.0,0.0,0.0
2.457029771,-0.0077862297,0.99343336,-0.11414695,-0.0321987,0.11384214,0.99297684,0.9994511,0.011406929,0.031100862,-0.007845593,0.9921803,-0.12456601,-0.031978074,0.12425719,0.9917346,0.9994578,0.011764128,0.030753145,10.037888,0.13279724,0.32063293,9.801268,0.11186377,0.30499527,-0.024810791,0.01574707,-0.009384155,-39.179993,1.9195557,19.378662,1,0.0,0.0,0.0,0.0
2.465330553,-0.007422794,0.9919845,-0.1261416,-0.032489166,0.12583922,0.9915185,0.9994445,0.011458073,0.03129467,-0.007843146,0.992232,-0.124153666,-0.03198666,0.12384501,0.9917859,0.99945754,0.011749983,0.030766854,10.052246,0.1040802,0.3672943,9.801203,0.11236531,0.30689588,-0.02267456,0.0043029785,-0.01121521,-38.938904,2.218628,19.73877,1,0.0,0.0,0.0,0.0
2.473631334,-0.0073974053,0.991676,-0.1285462,-0.0326395,0.12824178,0.99120575,0.99943984,0.011528034,0.03141915,-0.00782653,0.9922223,-0.12423234,-0.032006662,0.12392391,0.99177545,0.99945706,0.011738422,0.030787827,10.039093,0.09451294,0.36849976,9.801156,0.113051385,0.3081166,-0.013809204,-0.012039185,-0.018234253,-38.459778,2.279663,19.799805,1,0.0,0.0,0.0,0.0
2.481932115,-0.0075027063,0.991649,-0.12874763,-0.03268886,0.12843922,0.99117845,0.9994374,0.011645135,0.031452235,-0.007817997,0.9922115,-0.12431873,-0.03201935,0.124010384,0.9917641,0.9994567,0.011734215,0.030800458,10.039093,0.09451294,0.36849976,9.801133,0.11419976,0.30844107,-0.0023651123,-0.009902954,-0.022979736,-38.459778,2.279663,19.799805,1,0.0,0.0,0.0,0.0
2.490232896,-0.0076144426,0.99162036,-0.12896137,-0.03260339,0.12865035,0.9911539,0.99943936,0.011751663,0.031350587,-0.0078056315,0.99218965,-0.12449415,-0.032045834,0.1241858,0.99174136,0.999456,0.011730687,0.030826196,10.02713,0.062210083,0.28953552,9.801152,0.11524445,0.30744424,-0.0075531006,0.0053710938,-0.028930664,-38.459778,2.279663,19.799805,1,0.0,0.0,0.0,0.0
2.498533678,-0.007527533,0.9909553,-0.13398066,-0.03261324,0.13366988,0.990489,0.99943966,0.011825483,0.031312063,-0.0077945385,0.9921567,-0.12475689,-0.032078553,0.12444837,0.9917074,0.999455,0.011731922,0.030856932,10.021133,0.01675415,0.29193115,9.801155,0.11596838,0.30706644,-0.018859863,3.3569336E-4,-0.01838684,-38.21869,2.4597168,20.339966,1,0.0,0.0,0.0,0.0
2.506834459,-0.007588384,0.99093974,-0.1340931,-0.03261605,0.13378035,0.9904742,0.9994392,0.011889685,0.031305358,-0.0077945385,0.9921567,-0.12475689,-0.032078553,0.12444837,0.9917074,0.999455,0.011731922,0.030856932,10.021133,0.01675415,0.29193115,9.80115,0.11659798,0.3070007,-0.018859863,3.3569336E-4,-0.01838684,-38.21869,2.4597168,20.339966,1,0.0,0.0,0.0,0.0
2.51513524,-0.007625057,0.990837,-0.13484782,-0.03265955,0.13453303,0.99037063,0.9994374,0.011955703,0.031334467,-0.007786543,0.9921102,-0.12512676,-0.032099966,0.12481808,0.9916603,0.9994544,0.01173817,0.030874802,10.040283,0.053833008,0.32901,9.801133,0.11724539,0.30728617,-0.029846191,-0.0033416748,-0.012741089,-38.459778,2.3986816,19.799805,1,0.0,0.0,0.0,0.0
2.523436021,-0.007965954,0.9919609,-0.12629384,-0.032567844,0.12597348,0.9914989,0.9994378,0.012011353,0.03130253,-0.0077803214,0.99206156,-0.12551206,-0.03212227,0.12520313,0.991611,0.99945366,0.011746785,0.030893147,10.061813,0.08973694,0.29670715,9.801137,0.11779114,0.30697298,-0.034439087,0.00491333,-0.0060272217,-38.578796,2.218628,19.859314,1,0.0,0.0,0.0,0.0
2.531736803,-0.007980605,0.9919571,-0.12632188,-0.032546483,0.12600131,0.991496,0.9994384,0.012024071,0.031279154,-0.0077840537,0.9920595,-0.12552767,-0.03213109,0.1252185,0.99160874,0.99945337,0.011752076,0.030901248,10.061813,0.08973694,0.29670715,9.801143,0.11791586,0.3067437,-0.031677246,-0.004562378,-0.0074005127,-38.578796,2.218628,19.859314,1,0.0,0.0,0.0,0.0
2.540037584,-0.007984805,0.9919561,-0.12632993,-0.032492273,0.12600987,0.9914966,0.99944,0.012021654,0.031224748,-0.007791858,0.99205554,-0.12555918,-0.03214746,0.12524958,0.9916043,0.99945277,0.011762848,0.030916136,10.033112,0.09451294,0.28953552,9.801159,0.11789216,0.3062102,-0.030456543,-0.0041046143,-0.0032653809,-38.578796,2.218628,19.859314,1,0.0,0.0,0.0,0.0
2.548338365,-0.0075977365,0.9899655,-0.14110497,-0.032518655,0.14078979,0.98950523,0.99944216,0.012106543,0.03112266,-0.007799505,0.9920516,-0.12558962,-0.032161154,0.1252796,0.9916001,0.9994523,0.011773096,0.030928405,10.012772,0.16749573,0.2763672,9.80118,0.11872464,0.30520904,-0.03489685,-0.0051727295,-6.713867E-4,-38.339233,2.519226,19.73877,1,0.0,0.0,0.0,0.0
2.556639146,-0.0076790834,0.9899427,-0.14126006,-0.032434504,0.1409433,0.98948616,0.9994443,0.012180046,0.031025987,-0.0077955564,0.99201226,-0.12590016,-0.03216833,0.12559004,0.9915606,0.9994521,0.011779765,0.030932335,10.012772,0.16749573,0.2763672,9.801201,0.11944545,0.304261,-0.027862549,-0.007156372,-0.0019073486,-38.339233,2.519226,19.73877,1,0.0,0.0,0.0,0.0
2.564939928,-0.008300117,0.99214417,-0.124823384,-0.032191925,0.12449786,0.99169743,0.9994472,0.012249512,0.030905688,-0.0077910568,0.99193484,-0.12650894,-0.032178886,0.12619855,0.9914829,0.9994518,0.011795617,0.030936142,10.02713,0.16749573,0.26200867,9.8012295,0.12012668,0.30308127,-0.021759033,-0.0018005371,-0.0032653809,-38.75885,2.1591187,19.73877,1,0.0,0.0,0.0,0.0
2.573240709,-0.008394943,0.9921204,-0.12500697,-0.032122836,0.1246793,0.99167705,0.9994487,0.012340649,0.030823043,-0.0078012357,0.99193907,-0.12647527,-0.032179177,0.12616459,0.99148726,0.9994517,0.011804695,0.030935543,10.02713,0.16749573,0.26200867,9.801244,0.12102043,0.3022708,-0.0118255615,0.006591797,-0.008621216,-38.75885,2.1591187,19.73877,1,0.0,0.0,0.0,0.0
2.58154149,-0.008493609,0.99228543,-0.12368252,-0.032111406,0.123352535,0.9918431,0.9994482,0.012395948,0.030815974,-0.007824742,0.9919463,-0.12641715,-0.032177016,0.12610579,0.9914948,0.9994516,0.011825918,0.030931126,10.010376,0.10169983,0.2536316,9.801239,0.12156273,0.30220148,-0.01411438,0.015594482,-0.019302368,-38.69934,2.1591187,19.979858,1,0.0,0.0,0.0,0.0
2.589842271,-0.008523233,0.9922781,-0.12373909,-0.032243002,0.12340652,0.9918321,0.99944365,0.0124433385,0.030942207,-0.007851232,0.99195987,-0.12630896,-0.03217451,0.12599684,0.9915088,0.99945146,0.011848493,0.030926589,10.037888,0.053833008,0.3062744,9.801194,0.12202747,0.3034394,-0.013504028,0.026290894,-0.025726318,-38.69934,2.1591187,19.979858,1,0.0,0.0,0.0,0.0
2.598143053,-0.008099677,0.99034053,-0.13842006,-0.032534175,0.13809034,0.98988515,0.9994378,0.012521133,0.03110142,-0.0078646615,0.9919663,-0.12625755,-0.03217595,0.12594503,0.9915153,0.9994513,0.011860389,0.030926943,10.037888,0.053833008,0.3062744,9.801137,0.12279037,0.30500075,0.0025177002,0.018203735,-0.020217896,-38.63983,2.4597168,19.859314,1,0.0,0.0,0.0,0.0
2.606443834,-0.008133439,0.9903312,-0.1384846,-0.03273991,0.1381512,0.9898698,0.9994308,0.01258502,0.03129971,-0.007874098,0.9919048,-0.12673958,-0.03219004,0.12642638,0.9914535,0.9994508,0.011886555,0.030933963,10.053452,0.044265747,0.35533142,9.801068,0.123416886,0.30694532,3.8146973E-4,0.011169434,-0.018844604,-38.63983,2.4597168,19.859314,1,0.0,0.0,0.0,0.0
2.614744615,-0.008019104,0.9897655,-0.14247781,-0.032862008,0.14214459,0.9893002,0.9994277,0.012615409,0.03138581,-0.007884592,0.99184513,-0.1272049,-0.032211654,0.1268909,0.9913935,0.99944997,0.011914213,0.030948486,10.034302,0.034698486,0.30867004,9.801038,0.1237149,0.30778965,0.0034332275,0.01071167,-0.013961792,-38.819885,2.5787354,20.098877,1,0.0,0.0,0.0,0.0
2.623045396,-0.008010028,0.989768,-0.1424606,-0.032946113,0.1421266,0.9893001,0.99942505,0.012617846,0.031470574,-0.007887467,0.99180585,-0.12751065,-0.032224488,0.12719628,0.991354,0.99944955,0.011928237,0.03095718,10.034302,0.034698486,0.30867004,9.801012,0.1237388,0.30862093,0.0029754639,0.013305664,-0.01335144,-38.819885,2.5787354,20.098877,1,0.0,0.0,0.0,0.0
2.631346178,-0.008372956,0.9914115,-0.13051057,-0.03288679,0.13017152,0.9909458,0.999424,0.01258922,0.03151442,-0.007892679,0.99172944,-0.12810323,-0.032253005,0.1277881,0.9912769,0.9994486,0.011955545,0.030977663,10.047455,0.034698486,0.28833008,9.801002,0.12345808,0.3090509,-0.0074005127,0.007965088,-0.0104522705,-39.35852,2.218628,19.378662,1,0.0,0.0,0.0,0.0
2.639646959,-0.008382629,0.9914089,-0.13052993,-0.033003557,0.13018908,0.9909396,0.99942,0.012614632,0.031628698,-0.007911768,0.991717,-0.12819846,-0.032277994,0.12788239,0.9912639,0.99944764,0.011980639,0.030998861,10.04985,0.100494385,0.36012268,9.800962,0.12370729,0.31017157,-0.010604858,0.0026245117,-2.1362305E-4,-39.35852,2.218628,19.378662,1,0.0,0.0,0.0,0.0
2.64794774,-0.008150971,0.99058175,-0.1366794,-0.033145748,0.13634118,0.99010724,0.9994173,0.012600676,0.031722263,-0.007921215,0.99171084,-0.12824506,-0.03229251,0.12792848,0.9912575,0.99944705,0.011993319,0.031011485,10.04985,0.100494385,0.36012268,9.800936,0.12357043,0.31108913,-0.01411438,0.004760742,-0.0026550293,-39.479065,2.3986816,19.73877,1,0.0,0.0,0.0,0.0
2.656248521,-0.008144874,0.99058354,-0.13666742,-0.033194702,0.1363288,0.9901074,0.99941576,0.012600933,0.03177174,-0.0079305675,0.9916675,-0.12857924,-0.032326262,0.12826182,0.9912134,0.9994459,0.01201737,0.031039713,10.047455,0.1268158,0.33021545,9.8009205,0.123572946,0.31157437,-0.014587402,-4.272461E-4,9.1552734E-5,-39.479065,2.3986816,19.73877,1,0.0,0.0,0.0,0.0
2.664549303,-0.008081676,0.9904694,-0.13749592,-0.033192985,0.13715892,0.9899928,0.9994163,0.0125647,0.031768158,-0.007939316,0.99162585,-0.12889981,-0.032360498,0.12858157,0.9911708,0.9994448,0.01204048,0.031068657,10.040283,0.105285645,0.31825256,9.800926,0.12321762,0.3115392,-0.012130737,-0.010971069,-0.0016021729,-39.479065,2.4597168,20.039368,1,0.0,0.0,0.0,0.0
2.672850084,-0.0080689,0.9904729,-0.13747117,-0.033117775,0.13713554,0.9899986,0.9994189,0.012540938,0.031695727,-0.007942306,0.99160343,-0.12907179,-0.032377046,0.12875319,0.99114794,0.9994442,0.012050965,0.031082593,10.040283,0.105285645,0.31825256,9.800952,0.122984596,0.3108289,-0.008010864,-0.0149383545,-0.004043579,-39.479065,2.4597168,20.039368,1,0.0,0.0,0.0,0.0
2.681150865,-0.008062715,0.990422,-0.13783813,-0.03304315,0.13750343,0.98995,0.99942136,0.012536289,0.031618007,-0.007947547,0.99156004,-0.12940447,-0.032406308,0.1290852,0.9911039,0.99944323,0.012070366,0.031106891,10.035492,0.112457275,0.33140564,9.800976,0.122939005,0.31006673,8.392334E-4,-0.009140015,-0.0051116943,-39.419556,2.4597168,19.979858,1,0.0,0.0,0.0,0.0
2.689451646,-0.008063256,0.9904219,-0.13783918,-0.032918457,0.13750604,0.9899538,0.9994255,0.012519701,0.03149441,-0.007952301,0.9915163,-0.12973872,-0.032431453,0.12941884,0.9910595,0.99944234,0.0120888185,0.031127138,10.016357,0.093322754,0.28474426,9.801016,0.12277633,0.30885464,5.340576E-4,-0.009140015,-0.009689331,-39.419556,2.4597168,19.979858,1,0.0,0.0,0.0,0.0
2.697752428,-0.0074461354,0.98749524,-0.1574727,-0.032972857,0.15714897,0.9870243,0.9994285,0.012541843,0.03139039,-0.007954588,0.9914951,-0.12990078,-0.03244119,0.12958063,0.9910381,0.999442,0.012097436,0.03113452,10.016357,0.093322754,0.28474426,9.801046,0.12299347,0.3078346,-0.0017547607,-0.0028839111,-0.01335144,-39.118958,2.9388428,20.27893,1,0.0,0.0,0.0,0.0
2.706053209,-0.007465432,0.9874893,-0.15750907,-0.032908667,0.15718554,0.9870207,0.99943054,0.012551951,0.0313235,-0.007934908,0.99135137,-0.1309946,-0.032462288,0.13067432,0.9908938,0.9994415,0.012115035,0.031144643,10.018753,0.059814453,0.28355408,9.801065,0.12309259,0.30717862,0.0029754639,0.006591797,-0.017623901,-39.118958,2.9388428,20.27893,1,0.0,0.0,0.0,0.0
