Time,Rot1,Rot2,Rot3,Rot4,Rot5,Rot6,Rot7,Rot8,Rot9,FRot1,FRot2,FRot3,FRot4,FRot5,FRot6,FRot7,FRot8,FRot9,AccX,AccY,AccZ,GravX,GravY,GravZ,GyroX,GyroY,GyroZ,MagX,MagY,MagZ,Imid
0.0,0.0,0.0,0.0,0.0,0.0,0.0,0.0,0.0,0.0,1.0,0.0,0.0,0.0,1.0,0.0,0.0,0.0,1.0,10.042679,0.17347717,-0.20578003,9.802689,0.19081314,-0.20315284,0.0,0.0,0.0,0.0,0.0,0.0,0,0.0,0.0,0.0,0.0
0.008300782,-0.026337134,0.9131854,-0.40669253,0.011421388,0.40708196,0.9133202,0.99958783,0.019409243,-0.021151217,1.0,0.0,0.0,0.0,1.0,0.0,0.0,0.0,1.0,10.042679,0.17347717,-0.20578003,9.8026085,0.19033965,-0.20742258,3.0517578E-5,-0.04827881,3.9672852E-4,-30.659485,10.258484,25.019836,0,0.0,0.0,0.0,0.0
0.016601563,-0.02653029,0.91309154,-0.40689075,0.011844134,0.40729257,0.913221,0.9995778,0.019408746,-0.021620367,0.99697405,0.04558177,-0.062969014,-0.04553961,0.9989603,0.0021053017,0.06299951,7.686535E-4,0.99801326,10.059433,0.1986084,-0.27876282,9.80251,0.19033478,-0.21202338,-0.0018005371,-0.033309937,-0.004333496,-30.659485,10.258484,25.019836,0,0.0,0.0,0.0,0.0
0.024902344,-0.026895085,0.90632784,-0.42171836,0.011777479,0.42212898,0.9064592,0.9995689,0.01941252,-0.022027453,0.9883928,0.0892613,-0.12293154,-0.088765435,0.9960071,0.009515674,0.12329007,0.0015068483,0.99236953,10.059433,0.18304443,-0.29431152,9.802423,0.19037178,-0.21601553,0.002319336,-0.013916016,-0.0049438477,-30.419922,10.739136,25.019836,0,0.0,0.0,0.0,0.0
0.033203125,-0.02702969,0.9062611,-0.42185336,0.012028383,0.42227188,0.9063894,0.99956226,0.019425213,-0.022314735,0.9822838,0.1100674,-0.15167002,-0.10906448,0.99392235,0.014941536,0.1523928,0.0018649853,0.98831826,10.059433,0.18304443,-0.29431152,9.802358,0.19049628,-0.21883279,0.0056762695,-0.016204834,3.9672852E-4,-30.419922,10.739136,25.019836,0,0.0,0.0,0.0,0.0
0.041503907,-0.02697512,0.91052234,-0.41257918,0.01241343,0.41300264,0.9106453,0.99955904,0.019443244,-0.0224435,0.96683866,0.15028785,-0.20648623,-0.14751379,0.988639,0.028856056,0.20847704,0.0025604162,0.9780239,10.058228,0.20219421,-0.2536316,9.802326,0.1906731,-0.22009555,0.0027770996,-0.0015411377,-0.0038757324,-30.659485,10.319519,24.778748,0,0.0,0.0,0.0,0.0
0.049804688,-0.026965054,0.9105273,-0.4125688,0.012378662,0.41299137,0.91065085,0.9995597,0.019448698,-0.022407442,0.9475768,0.18908015,-0.25757885,-0.1833208,0.9819564,0.046424244,0.26170906,0.0032290213,0.9651414,10.08934,0.19023132,-0.1758728,9.802332,0.19072656,-0.21974194,-8.8500977E-4,-0.005218506,-0.005554199,-30.659485,10.319519,24.778748,0,0.0,0.0,0.0,0.0
0.058105469,-0.026853004,0.9146856,-0.40327302,0.0126295425,0.40369675,0.9148057,0.99955964,0.019472128,-0.022392532,0.9367334,0.2077947,-0.2816944,-0.20003659,0.978166,0.056361552,0.28725553,0.003553437,0.95784736,10.08934,0.19023132,-0.1758728,9.802332,0.19095635,-0.21959573,0.002166748,-0.023834229,-3.6621094E-4,-31.13861,9.719849,24.119568,0,0.0,0.0,0.0,0.0
0.06640625,-0.026862914,0.9146806,-0.40328377,0.012644819,0.403708,0.9148005,0.99955916,0.019474758,-0.022410743,0.9129037,0.2442771,-0.32700992,-0.23142111,0.9696964,0.078314,0.33623067,0.0041838605,0.9417704,10.088135,0.18664551,-0.0657959,9.802327,0.19098213,-0.21977432,-0.0018005371,-0.07926941,-0.0034179688,-31.13861,9.719849,24.119568,0,0.0,0.0,0.0,0.0
0.074707032,-0.027003372,0.91514623,-0.40221658,0.013076894,0.40265226,0.9152596,0.9995498,0.019455351,-0.02284024,0.8867837,0.27899218,-0.36848086,-0.2595461,0.9602815,0.10244702,0.38242725,0.004789422,0.92397326,10.080963,0.17347717,-0.112457275,9.802236,0.19079183,-0.22398624,0.015914917,-0.123565674,8.544922E-4,-31.259155,9.599304,23.939514,0,0.0,0.0,0.0,0.0
0.083007813,-0.027283443,0.9150025,-0.40252465,0.013768355,0.40298036,0.91510516,0.99953294,0.019425115,-0.023592768,0.8730171,0.2957254,-0.3877985,-0.27241746,0.95525944,0.11518712,0.40451193,0.0050827605,0.9145186,10.080963,0.17347717,-0.112457275,9.80207,0.19049531,-0.23136602,0.0128479,-0.14097595,0.0059051514,-31.259155,9.599304,23.939514,0,0.0,0.0,0.0,0.0
0.091308594,-0.027460657,0.9211499,-0.38823816,0.0151913185,0.38872433,0.92122895,0.9995074,0.0193997,-0.024668105,0.8443735,0.32791892,-0.42367736,-0.29576966,0.944689,0.1417147,0.44671428,0.005650756,0.8946588,10.063019,0.19381714,-0.16630554,9.80182,0.19024608,-0.24191147,0.006286621,-0.1934967,0.00819397,-31.079102,9.239197,24.119568,0,0.0,0.0,0.0,0.0
0.099609375,-0.027905172,0.9209303,-0.38872686,0.01640875,0.38924792,0.92098683,0.9994759,0.019321775,-0.025973348,0.8143989,0.3590573,-0.45588636,-0.31654415,0.93329495,0.16958876,0.4863685,0.0061952514,0.87373185,10.047455,0.24047852,-0.24406433,9.801511,0.1894819,-0.25471154,0.009185791,-0.20800781,0.006210327,-31.079102,9.239197,24.119568,0,0.0,0.0,0.0,0.0
0.107910157,-0.028533392,0.9211878,-0.38807067,0.017935442,0.38863805,0.9212159,0.9994319,0.019325193,-0.027611071,0.7990984,0.3740103,-0.4706996,-0.32578534,0.927402,0.18381871,0.5052779,0.0064578,0.86293256,10.047455,0.24047852,-0.24406433,9.80108,0.18951543,-0.27077213,0.011489868,-0.20327759,0.0014648438,-31.199646,9.118652,23.939514,0,0.0,0.0,0.0,0.0
0.116210938,-0.029214382,0.92084694,-0.38882834,0.019318573,0.38944185,0.9208484,0.9993864,0.01939041,-0.02916675,0.7680628,0.40276974,-0.4978515,-0.34210938,0.9152748,0.21268092,0.5413324,0.006967383,0.84077984,10.036697,0.2679901,-0.21534729,9.800633,0.19015497,-0.28602812,0.03378296,-0.17211914,0.0046691895,-31.199646,9.118652,23.939514,0,0.0,0.0,0.0,0.0
0.124511719,-0.030146942,0.9150921,-0.40211657,0.020331103,0.40277758,0.91507214,0.9993387,0.019411152,-0.030747341,0.7367351,0.42998976,-0.52185255,-0.3556462,0.9028029,0.24179046,0.57509744,0.007459367,0.81805086,9.98645,0.19023132,-0.707077,9.800165,0.19035839,-0.30152842,0.051330566,-0.11302185,-0.004638672,-31.199646,9.359741,23.638916,0,0.0,0.0,0.0,0.0
0.1328125,-0.030826423,0.9147368,-0.40287265,0.021850064,0.40358457,0.91468143,0.9992859,0.019393563,-0.032428127,0.72114253,0.44279492,-0.5328097,-0.3612234,0.8965899,0.25621137,0.59116083,0.007698419,0.80651695,9.98645,0.19023132,-0.707077,9.799647,0.19018589,-0.31801128,0.05897522,-0.060653687,-0.0064697266,-31.199646,9.359741,23.638916,0,0.0,0.0,0.0,0.0
0.141113282,-0.03072931,0.92336255,-0.38269734,0.023550898,0.38344073,0.9232651,0.99925023,0.019358438,-0.033528887,0.6900489,0.4673527,-0.5526427,-0.37054083,0.88403326,0.28492925,0.621717,0.008161576,0.7831994,9.979263,0.14596558,-0.7549286,9.799298,0.18984143,-0.3288061,0.03668213,0.05923462,-0.003112793,-32.27997,8.399963,22.859192,0,0.0,0.0,0.0,0.0
0.149414063,-0.030851189,0.9232971,-0.38284543,0.02392572,0.38360018,0.9231893,0.9992376,0.019321634,-0.03392507,0.658922,0.49135935,-0.5695505,-0.37818035,0.87091446,0.31382746,0.6502318,0.008605001,0.7596871,10.015152,0.12562561,-0.67836,9.799173,0.1894805,-0.3326913,0.036071777,0.11039734,-0.0011291504,-32.27997,8.399963,22.859192,0,0.0,0.0,0.0,0.0
0.157714844,-0.030459128,0.9267744,-0.37438127,0.024011951,0.37512544,0.926663,0.9992476,0.019235725,-0.03367966,0.6435306,0.5028693,-0.57705355,-0.38118592,0.8643175,0.3281046,0.6637512,0.008819346,0.74790144,10.015152,0.12562561,-0.67836,9.799272,0.18863802,-0.33028466,0.026748657,0.15513611,-0.0011291504,-32.398987,8.338928,23.278809,0,0.0,0.0,0.0,0.0
0.166015625,-0.030038565,0.92699283,-0.3738742,0.023049684,0.3745859,0.9269056,0.9992829,0.019225234,-0.032618918,0.61305934,0.5252576,-0.5901379,-0.38592178,0.8508932,0.356434,0.68936396,0.00923186,0.72435635,10.02713,0.1758728,-0.42591858,9.799618,0.18853515,-0.3198823,0.016677856,0.21133423,-0.0093688965,-32.398987,8.338928,23.278809,0,0.0,0.0,0.0,0.0
0.174316407,-0.029529093,0.92699254,-0.37391576,0.021711979,0.37458548,0.92693824,0.99932814,0.01925319,-0.031188007,0.58330536,0.54644156,-0.600963,-0.3888129,0.83744186,0.3840776,0.7131475,0.009627622,0.7009479,10.035492,0.17826843,-0.49771118,9.800061,0.1888093,-0.30584988,0.038360596,0.28050232,-0.007385254,-32.57904,8.279419,23.098755,0,0.0,0.0,0.0,0.0
0.182617188,-0.028857186,0.9273446,-0.3730943,0.02000821,0.3737108,0.92732954,0.9993833,0.019295167,-0.029338745,0.5687417,0.55659366,-0.6055876,-0.3896245,0.8307268,0.3975999,0.7243795,0.009820145,0.68933153,10.035492,0.17826843,-0.49771118,9.800602,0.18922096,-0.2877148,0.038208008,0.31837463,-0.0064697266,-32.57904,8.279419,23.098755,0,0.0,0.0,0.0,0.0
0.190917969,-0.028094135,0.9263981,-0.37549612,0.01783044,0.37604907,0.92642826,0.9994463,0.019331936,-0.027082859,0.54028946,0.5760866,-0.6133609,-0.39012015,0.8173251,0.4240117,0.7455827,0.010195377,0.6663351,10.04985,0.18304443,-0.47737122,9.80122,0.18958153,-0.26559213,0.031021118,0.3544159,-0.008758545,-32.27997,8.578491,23.579407,0,0.0,0.0,0.0,0.0
0.19921875,-0.027033787,0.92693746,-0.3742407,0.015234078,0.37471604,0.9270144,0.9995184,0.019359501,-0.024251034,0.51284623,0.5944236,-0.61939436,-0.38917175,0.80408275,0.44943994,0.765202,0.010557206,0.6437037,10.0785675,0.16870117,-0.28115845,9.801928,0.18985185,-0.23782142,0.0110321045,0.38267517,-0.01411438,-32.27997,8.578491,23.579407,0,0.0,0.0,0.0,0.0
0.207519532,-0.025979964,0.92676663,-0.37473807,0.012435222,0.3751352,0.92688674,0.99958515,0.019420533,-0.021270549,0.4995067,0.6032319,-0.6217752,-0.3882546,0.7974937,0.4618033,0.77443624,0.010733264,0.63256097,10.0785675,0.16870117,-0.28115845,9.802582,0.19045037,-0.20859283,0.009033203,0.34968567,-0.020523071,-31.91986,8.639526,23.579407,0,0.0,0.0,0.0,0.0
0.215820313,-0.025054676,0.92722934,-0.37365505,0.009926128,0.3739847,0.92738175,0.99963677,0.019526301,-0.018573862,0.4864523,0.6117859,-0.6237645,-0.3870646,0.7909482,0.47390082,0.7832912,0.0109070195,0.62155926,10.165909,0.2524414,0.6077728,9.803088,0.1914876,-0.18214737,0.028427124,0.2756195,-0.02128601,-31.91986,8.639526,23.579407,0,0.0,0.0,0.0,0.0
0.224121094,-0.024331983,0.92758924,-0.37280858,0.0075678565,0.3730792,0.92776865,0.9996753,0.01975309,-0.016097618,0.4611362,0.6282188,-0.62665343,-0.38394582,0.7779554,0.4973641,0.7999619,0.011248361,0.59994537,10.069,0.2715912,0.21894836,9.803466,0.19371164,-0.1578637,0.079589844,0.12413025,-0.008300781,-31.91986,8.639526,23.579407,0,0.0,0.0,0.0,0.0
0.232421875,-0.023858327,0.9303903,-0.3657933,0.006390141,0.36603191,0.9305804,0.99969494,0.019864619,-0.014678232,0.43687066,0.6437708,-0.62825406,-0.3799228,0.76513064,0.5198401,0.81535435,0.011585169,0.57884634,10.067795,0.2368927,0.16151428,9.8036585,0.19480537,-0.1439443,0.08937073,0.016174316,-6.713867E-4,-32.099915,8.399963,23.458862,0,0.0,0.0,0.0,0.0
0.240722657,-0.023695176,0.92875296,-0.36994117,0.0056393202,0.37016335,0.92894953,0.9997033,0.019925406,-0.014008622,0.42507735,0.65133554,-0.628547,-0.37766525,0.7586989,0.5307966,0.82260454,0.011750767,0.56849253,10.04985,0.27038574,0.28953552,9.8037405,0.19540149,-0.13737765,0.096084595,-0.042175293,0.0026855469,-31.91986,8.338928,22.979736,0,0.0,0.0,0.0,0.0
0.249023438,-0.023783803,0.9287082,-0.37004802,0.0061424416,0.3702815,0.92889935,0.9996982,0.019819759,-0.014511237,0.40233624,0.66569877,-0.628467,-0.37250218,0.7461229,0.5518539,0.8362821,0.012074501,0.5481665,10.060623,0.14596558,-0.22732544,9.803691,0.19436544,-0.14230663,0.09501648,-0.08035278,0.003753662,-31.91986,8.338928,22.979736,0,0.0,0.0,0.0,0.0
0.257324219,-0.023852998,0.9357269,-0.35191768,0.0074402285,0.35217425,0.93590474,0.99968773,0.01970579,-0.015362436,0.38059488,0.6792609,-0.6274967,-0.3666355,0.73379236,0.5719503,0.8489558,0.0123812305,0.5283188,10.060623,0.14596558,-0.22732544,9.803588,0.19324778,-0.15065403,0.06355286,-0.10676575,0.00390625,-32.458496,7.8598022,23.098755,0,0.0,0.0,0.0,0.0
0.265625,-0.024096245,0.9356074,-0.35221887,0.008388844,0.352498,0.93577486,0.9996744,0.019593956,-0.016342545,0.36994773,0.6860399,-0.6264885,-0.36360884,0.727456,0.5818904,0.85494286,0.01252773,0.5185709,10.069,0.19502258,-0.07777405,9.803457,0.19215107,-0.16026562,0.06355286,-0.115615845,0.00390625,-32.458496,7.8598022,23.098755,0,0.0,0.0,0.0,0.0
0.273925782,-0.024375925,0.9354698,-0.35256505,0.009304419,0.35286683,0.93562734,0.99965954,0.019526366,-0.017305458,0.34939054,0.6990151,-0.62394243,-0.3571003,0.7149922,0.60105366,0.8662596,0.012807568,0.49943,10.052246,0.17347717,-0.117248535,9.803311,0.19148824,-0.16970858,0.06187439,-0.14204407,0.0013122559,-32.458496,7.8598022,23.098755,0,0.0,0.0,0.0,0.0
0.282226563,-0.024912529,0.9284625,-0.37058976,0.010245008,0.37092248,0.92860734,0.9996372,0.019337263,-0.018752724,0.3298041,0.7112524,-0.6207651,-0.3500724,0.7028151,0.6192739,0.8767432,0.013073645,0.48078114,10.051056,0.08255005,-0.4247284,9.803092,0.18963377,-0.1839014,0.056381226,-0.101119995,0.0019226074,-31.91986,8.459473,23.339844,0,0.0,0.0,0.0,0.0
0.290527344,-0.025197173,0.9289006,-0.36947083,0.011488423,0.3698328,0.9290272,0.99961644,0.019164223,-0.019990347,0.32049215,0.716842,-0.61921114,-0.34625727,0.6971108,0.6278077,0.88169765,0.013198922,0.47163028,10.042679,0.15911865,-0.35414124,9.802889,0.18793684,-0.19603834,0.044921875,-0.078201294,-0.004333496,-32.159424,8.21991,22.859192,0,0.0,0.0,0.0,0.0
0.298828125,-0.02539878,0.92879707,-0.3697173,0.012161227,0.3700963,0.9289138,0.9996034,0.01909706,-0.020695306,0.30251893,0.72758895,-0.6157082,-0.33836877,0.68588173,0.6442614,0.89106053,0.013435158,0.4536856,10.042679,0.13877869,-0.24526978,9.802761,0.1872782,-0.20295164,0.026443481,-0.052856445,-0.0026550293,-32.159424,8.21991,22.859192,0,0.0,0.0,0.0,0.0
0.307128907,-0.025678027,0.9250302,-0.37902486,0.012395307,0.37941536,0.92514336,0.9995934,0.019057728,-0.02120867,0.28543437,0.73773724,-0.6117768,-0.33019525,0.67494977,0.659859,0.89972126,0.013659379,0.4362512,10.042679,0.14955139,-0.23928833,9.802663,0.18689248,-0.20798601,0.020492554,-0.040634155,-0.0015869141,-31.91986,8.578491,23.098755,0,0.0,0.0,0.0,0.0
0.315429688,-0.0258322,0.92495066,-0.37920842,0.012760539,0.3796092,0.92505896,0.99958485,0.019057404,-0.021609008,0.27727985,0.74246603,-0.6098033,-0.325967,0.6697422,0.66722625,0.9038039,0.01376735,0.42772546,10.057037,0.18424988,-0.24287415,9.802579,0.1868893,-0.21191199,0.011795044,-0.03163147,0.0019226074,-31.91986,8.578491,23.098755,0,0.0,0.0,0.0,0.0
0.323730469,-0.02593733,0.92489636,-0.3793335,0.013058322,0.37974223,0.9250001,0.99957824,0.019038575,-0.021927094,0.26159066,0.7515311,-0.60561645,-0.3173885,0.65954953,0.6813655,0.9115014,0.013976844,0.41105932,10.057037,0.18424988,-0.24287415,9.802514,0.18670465,-0.21503134,0.0058288574,-0.03315735,0.004058838,-31.91986,8.578491,23.098755,0,0.0,0.0,0.0,0.0
0.33203125,-0.026019165,0.9252099,-0.37856272,0.013316885,0.3789781,0.9253098,0.9995727,0.019034512,-0.022181606,0.24670431,0.7601019,-0.60115063,-0.30869555,0.64964926,0.6947395,0.91860986,0.014177297,0.39491132,10.053452,0.2033844,-0.23210144,9.80246,0.1866648,-0.21752726,0.0020141602,-0.011016846,0.003753662,-31.91986,8.578491,23.15979,0,0.0,0.0,0.0,0.0
0.340332032,-0.02611984,0.923655,-0.382334,0.0133429775,0.38275257,0.9237546,0.9995698,0.019026846,-0.022321742,0.23954564,0.7642229,-0.5988166,-0.30432454,0.6447942,0.70116115,0.9219569,0.014274444,0.38702944,10.053452,0.2033844,-0.23210144,9.802431,0.18658963,-0.21890152,0.0039978027,0.009750366,0.001159668,-31.91986,8.758545,23.339844,0,0.0,0.0,0.0,0.0
0.348632813,-0.026144978,0.92364204,-0.3823635,0.0134032145,0.38278374,0.92374074,0.9995683,0.019026283,-0.022387644,0.22583784,0.77202797,-0.59411293,-0.29551643,0.635424,0.7133768,0.9282604,0.014462648,0.3716497,10.035492,0.1878357,-0.2907257,9.802417,0.1865841,-0.2195478,0.002319336,0.037399292,-0.001739502,-31.91986,8.758545,23.339844,0,0.0,0.0,0.0,0.0
0.356933594,-0.026261285,0.9163313,-0.39955893,0.012558001,0.39996764,0.9164432,0.9995762,0.019049315,-0.022010952,0.21284918,0.77941495,-0.58924323,-0.28670806,0.62633693,0.7249142,0.9340737,0.014643374,0.3567798,10.046265,0.19262695,-0.18304443,9.802494,0.18680997,-0.2158537,0.011627197,0.05052185,-0.0067749023,-31.799316,9.239197,23.278809,0,0.0,0.0,0.0,0.0
0.365234375,-0.026106913,0.91641337,-0.39938062,0.012123125,0.39977765,0.9165319,0.9995856,0.01908608,-0.021546757,0.20672417,0.7827271,-0.5870293,-0.2822433,0.62219065,0.73021746,0.93680507,0.014731496,0.34954134,10.08934,0.19740295,-0.16630554,9.802587,0.1871705,-0.2113015,0.010726929,0.042434692,0.0031433105,-31.799316,9.239197,23.278809,0,0.0,0.0,0.0,0.0
0.373535157,-0.02593868,0.9165029,-0.39918637,0.011729488,0.39957225,0.9166267,0.9995947,0.019093834,-0.021114483,0.19496395,0.7890962,-0.5825086,-0.27338696,0.6140889,0.74037445,0.94193876,0.014903942,0.3354538,10.063019,0.18664551,-0.20578003,9.802676,0.18724656,-0.20706238,4.8828125E-4,0.035720825,0.0014648438,-31.799316,9.239197,23.278809,0,0.0,0.0,0.0,0.0
0.381835938,-0.025685987,0.9202095,-0.39058244,0.011662774,0.39096063,0.92033356,0.9996021,0.0190844,-0.020774405,0.18932083,0.792158,-0.58020973,-0.2690003,0.610132,0.74523675,0.9443498,0.014987743,0.32860145,10.063019,0.18664551,-0.20578003,9.802748,0.18715404,-0.20372732,-0.004852295,0.042129517,-0.004180908,-32.099915,9.239197,23.878479,0,0.0,0.0,0.0,0.0
0.390136719,-0.025519399,0.92094105,-0.38886544,0.01135086,0.38923404,0.921069,0.99960995,0.019091172,-0.020386491,0.17839329,0.79826623,-0.5752798,-0.26038396,0.6021142,0.75475734,0.94888145,0.015149977,0.31526887,10.069,0.17826843,-0.1603241,9.802825,0.18722044,-0.19992319,0.0046081543,0.032348633,-0.0018920898,-31.678772,9.1796875,23.81897,0,0.0,0.0,0.0,0.0
0.3984375,-0.025430482,0.9209861,-0.38876453,0.011086222,0.38912618,0.92111766,0.9996151,0.019114537,-0.020105923,0.1680368,0.8041003,-0.57025117,-0.25190434,0.59429663,0.76377726,0.95305187,0.015306053,0.30242005,10.060623,0.17706299,-0.19502258,9.8028755,0.18744959,-0.19717175,0.0056762695,0.019989014,-0.0038757324,-31.678772,9.1796875,23.81897,0,0.0,0.0,0.0,0.0
0.406738282,-0.02533133,0.9210363,-0.388652,0.010865612,0.38900745,0.9211704,0.99962,0.019111533,-0.0198617,0.16307001,0.8069039,-0.56772727,-0.24771614,0.5904824,0.7680933,0.9550104,0.015382225,0.2961731,10.043869,0.1603241,-0.16989136,9.802924,0.18742011,-0.19477674,3.3569336E-4,0.02319336,-0.0028076172,-31.678772,9.1796875,23.81897,0,0.0,0.0,0.0,0.0
0.415039063,-0.025186902,0.9246229,-0.3800503,0.0108903665,0.38040212,0.9247571,0.9996235,0.01915288,-0.01965063,0.15354091,0.8122954,-0.5626735,-0.23945023,0.5830395,0.77635586,0.9586912,0.015529911,0.28402475,10.043869,0.1986084,-0.19621277,9.802958,0.18782559,-0.19270685,6.4086914E-4,0.032806396,-0.0020446777,-31.3797,9.059143,24.119568,0,0.0,0.0,0.0,0.0
0.423339844,-0.025116596,0.92465705,-0.37997165,0.010674445,0.38031796,0.9247942,0.99962753,0.019171696,-0.019422494,0.14443995,0.8176213,-0.55734414,-0.23139225,0.57554305,0.7843519,0.96207833,0.015673384,0.27232262,10.063019,0.20698547,-0.12802124,9.802998,0.18801011,-0.19046961,-0.0039367676,0.017547607,0.002532959,-31.3797,9.059143,24.119568,0,0.0,0.0,0.0,0.0
0.431640625,-0.024935769,0.9277518,-0.3723637,0.010626096,0.37270448,0.92788917,0.9996326,0.019180862,-0.019152055,0.14007743,0.8201808,-0.5546908,-0.22742255,0.57188785,0.7881772,0.96366864,0.015743352,0.26663616,10.063019,0.20698547,-0.12802124,9.803047,0.18810001,-0.1878175,-0.0010375977,0.015701294,-0.0012817383,-31.619263,8.758545,23.939514,0,0.0,0.0,0.0,0.0
0.439941407,-0.024817882,0.9302244,-0.36615083,0.0106147025,0.3664882,0.93036205,0.9996356,0.019203037,-0.018969519,0.131642,0.82528424,-0.5491596,-0.21965161,0.56449425,0.79567546,0.96665585,0.01587948,0.25558618,10.057037,0.20817566,-0.17228699,9.803077,0.18831746,-0.18602744,-0.0014953613,0.021362305,0.0010070801,-31.678772,8.459473,23.638916,0,0.0,0.0,0.0,0.0
0.448242188,-0.024740802,0.9302619,-0.3660609,0.010387727,0.36639243,0.9304023,0.99963987,0.01921636,-0.018728152,0.123613685,0.8302705,-0.54348,-0.21207598,0.5571305,0.8028881,0.9694036,0.016011098,0.2449494,10.064209,0.19979858,-0.1483612,9.803119,0.18844813,-0.18366043,-0.0068359375,0.024414063,-0.0012817383,-31.678772,8.459473,23.638916,0,0.0,0.0,0.0,0.0
0.456542969,-0.024661059,0.9303006,-0.3659679,0.010167936,0.3662937,0.93044364,0.99964416,0.01922459,-0.01849243,0.11976827,0.8326667,-0.54066795,-0.20835151,0.5535412,0.80633855,0.9706931,0.016075205,0.23978402,10.051056,0.1878357,-0.15074158,9.803161,0.18852884,-0.1813488,-0.0068359375,0.018920898,-0.0047912598,-31.678772,8.459473,23.638916,0,0.0,0.0,0.0,0.0
0.46484375,-0.024498027,0.93325573,-0.35837618,0.010155808,0.35869756,0.9333985,0.9996483,0.019226823,-0.01826535,0.1123992,0.83727396,-0.5351062,-0.20103306,0.5465435,0.8129427,0.9731146,0.016199926,0.2297508,10.051056,0.1878357,-0.15074158,9.803201,0.18855073,-0.1791219,-0.0031738281,-0.015136719,-0.0012817383,-31.799316,8.21991,23.579407,0,0.0,0.0,0.0,0.0
0.473144532,-0.02453208,0.93323946,-0.35841647,0.01022509,0.35873985,0.9333817,0.9996468,0.019232951,-0.018343091,0.105376214,0.84181774,-0.5293759,-0.19392397,0.5395152,0.81933933,0.97534066,0.016319793,0.2201007,10.065414,0.18902588,-0.1878357,9.803186,0.18861082,-0.17988427,0.0078125,-0.022003174,-3.6621094E-4,-31.799316,8.21991,23.579407,0,0.0,0.0,0.0,0.0
0.481445313,-0.024610579,0.9328302,-0.3594748,0.010349341,0.35980222,0.93297124,0.99964356,0.019240635,-0.018509118,0.10201081,0.844,-0.5265528,-0.1904304,0.5360931,0.8223992,0.97638625,0.016378058,0.21541056,10.065414,0.18902588,-0.1878357,9.803154,0.18868616,-0.18151243,0.0078125,-0.017730713,-0.0054016113,-31.97937,8.21991,23.519897,0,0.0,0.0,0.0,0.0
0.489746094,-0.024595426,0.9362475,-0.3504792,0.01074366,0.35081252,0.9363841,0.99963975,0.019265335,-0.018687109,0.095564395,0.84817076,-0.5210314,-0.18356104,0.5294661,0.82823366,0.97835207,0.016491417,0.20628922,10.054642,0.1758728,-0.22013855,9.803117,0.1889284,-0.18325792,-0.0016479492,-0.035446167,-0.0014343262,-32.27997,7.978821,23.579407,0,0.0,0.0,0.0,0.0
0.498046875,-0.02469398,0.9362003,-0.35059813,0.011020713,0.35093868,0.9363335,0.99963427,0.01925796,-0.01898367,0.08940084,0.8523266,-0.5153124,-0.17689386,0.5227464,0.8339333,0.98016125,0.016601268,0.19750531,10.054642,0.1758728,-0.22013855,9.803063,0.1888561,-0.18616621,3.3569336E-4,-0.031021118,0.00390625,-32.27997,7.978821,23.579407,0,0.0,0.0,0.0,0.0
0.506347657,-0.024792068,0.9361534,-0.35071653,0.0113455765,0.35106522,0.93628216,0.9996282,0.019233292,-0.019324835,0.08644625,0.8543218,-0.51250494,-0.17361881,0.51947755,0.8366598,0.9810115,0.016654402,0.1932332,10.061813,0.19023132,-0.25483704,9.803004,0.18861417,-0.1895119,-0.0028686523,-0.014373779,0.0045166016,-32.27997,7.978821,23.579407,0,0.0,0.0,0.0,0.0
0.514648438,-0.024911765,0.9335043,-0.35769996,0.011273966,0.35805058,0.93363416,0.9996261,0.019225778,-0.019443966,0.0807786,0.8581548,-0.5069962,-0.16718528,0.51311743,0.8418786,0.98261076,0.016756527,0.18491976,10.060623,0.19381714,-0.21176147,9.802983,0.18854047,-0.19068018,-0.0051574707,0.014953613,-0.0035705566,-32.27997,8.21991,23.699951,0,0.0,0.0,0.0,0.0
0.522949219,-0.024911499,0.9335043,-0.3576996,0.0112314345,0.35804942,0.93363506,0.9996266,0.019240769,-0.019404141,0.07808691,0.8599208,-0.50441927,-0.16401981,0.51015085,0.8443007,0.98336154,0.016805913,0.18088014,10.060623,0.19381714,-0.21176147,9.802988,0.18868749,-0.19028963,-7.324219E-4,0.015258789,3.9672852E-4,-32.27997,8.21991,23.699951,0,0.0,0.0,0.0,0.0
0.531249563,-0.024957748,0.9305367,-0.3653473,0.010857264,0.3656919,0.9306727,0.99962956,0.019260822,-0.019229926,0.07292572,0.86331797,-0.4993634,-0.15782438,0.5043771,0.84893763,0.98477066,0.016902339,0.17303471,10.077377,0.18544006,-0.17347717,9.803018,0.18888414,-0.18858117,0.0029296875,0.023345947,-0.0066223145,-32.398987,8.459473,23.75946,0,0.0,0.0,0.0,0.0
0.539550345,-0.024893593,0.9322185,-0.36103874,0.010772433,0.36137983,0.93235636,0.999632,0.019320436,-0.019038303,0.068097934,0.86638236,-0.49471635,-0.15179116,0.49909192,0.8531511,0.98606396,0.016995735,0.1654963,10.065414,0.19740295,-0.17347717,9.803041,0.18946876,-0.18670197,3.0517578E-5,0.012954712,-0.0021972656,-32.63855,8.399963,23.939514,0,0.0,0.0,0.0,0.0
0.547851126,-0.024881328,0.93222445,-0.3610241,0.010607626,0.36136177,0.9323653,0.99963415,0.01936888,-0.018879851,0.06576939,0.867903,-0.4923604,-0.14885244,0.49644127,0.8552128,0.9866698,0.017042229,0.16184011,10.065414,0.19740295,-0.17347717,9.803062,0.18994382,-0.1851481,0.0067443848,0.012191772,-0.005706787,-32.63855,8.399963,23.939514,0,0.0,0.0,0.0,0.0
0.556151907,-0.024852587,0.93223846,-0.36098984,0.01043204,0.36132354,0.93238205,0.99963665,0.019406248,-0.018704977,0.061302844,0.8708308,-0.4877456,-0.14311434,0.49128428,0.85916126,0.9878058,0.017134368,0.15474549,10.067795,0.17468262,-0.12322998,9.803087,0.19031028,-0.18343316,0.0024719238,5.950928E-4,-0.0023498535,-32.63855,8.399963,23.939514,0,0.0,0.0,0.0,0.0
0.564452688,-0.024856588,0.93159413,-0.36264932,0.010341603,0.36298162,0.9317389,0.99963754,0.019409476,-0.018656662,0.057078257,0.8736145,-0.48325956,-0.13755861,0.48631373,0.8628885,0.9888476,0.017224336,0.14793113,10.040283,0.18304443,-0.17228699,9.803096,0.19034193,-0.18295935,0.0073547363,-0.0058288574,0.001159668,-32.218933,8.459473,23.939514,0,0.0,0.0,0.0,0.0
0.57275347,-0.0248493,0.9315977,-0.36264074,0.010364564,0.3629733,0.9317419,0.9996374,0.01939452,-0.018675236,0.05505683,0.87493736,-0.481096,-0.13484475,0.4839281,0.86465627,0.9893359,0.01726804,0.14462425,10.040283,0.18304443,-0.17228699,9.803095,0.19019528,-0.1831415,0.00491333,-0.011169434,-0.0014343262,-32.218933,8.459473,23.939514,0,0.0,0.0,0.0,0.0
0.581054251,-0.024825752,0.9315874,-0.3626687,0.010360632,0.36300078,0.9317312,0.99963814,0.01937345,-0.0186636,0.05117628,0.87748575,-0.47686446,-0.12954521,0.47928867,0.868044,0.99025196,0.01735225,0.13820228,10.045074,0.1758728,-0.112457275,9.803102,0.18998866,-0.1830274,0.009185791,-0.018951416,-0.0015869141,-32.27997,8.459473,23.939514,0,0.0,0.0,0.0,0.0
0.589355032,-0.024851967,0.9310123,-0.3641409,0.010378808,0.36447406,0.93115574,0.99963725,0.0193617,-0.018720694,0.04750271,0.8799096,-0.47276077,-0.124415405,0.47482142,0.8712437,0.9910925,0.017432291,0.13202961,10.069,0.1986084,-0.12083435,9.803093,0.18987343,-0.1835873,0.007659912,-0.03300476,-0.003112793,-32.57904,8.399963,23.699951,0,0.0,0.0,0.0,0.0
0.597655813,-0.024931232,0.93097293,-0.36423597,0.010513948,0.36457324,0.9311153,0.99963385,0.019384293,-0.018877462,0.045742996,0.88106203,-0.47078368,-0.121910825,0.47267798,0.8727619,0.9914864,0.01747088,0.1290327,10.069,0.1986084,-0.12083435,9.80306,0.19009498,-0.18512467,-0.0011901855,-0.040023804,-9.765625E-4,-32.57904,8.399963,23.699951,0,0.0,0.0,0.0,0.0
0.605956595,-0.02504072,0.93091863,-0.36436722,0.010812125,0.3647124,0.93105745,0.99962795,0.019374764,-0.019197868,0.042359512,0.88328147,-0.4669255,-0.11702009,0.46851453,0.8756714,0.99222577,0.017546652,0.12320773,10.055832,0.20458984,-0.16390991,9.803001,0.19000153,-0.18826678,-0.0042419434,-0.053009033,0.010177612,-32.57904,8.399963,23.699951,0,0.0,0.0,0.0,0.0
0.614257376,-0.02513759,0.9300653,-0.36653325,0.011145806,0.36688706,0.9301987,0.99962187,0.019297646,-0.019588985,0.03914824,0.88539183,-0.463194,-0.112280495,0.46451142,0.8784203,0.9929051,0.017619047,0.11759704,10.055832,0.18304443,-0.17826843,9.802942,0.18924527,-0.19210231,-0.007446289,-0.042007446,-0.0012817383,-32.57904,8.459473,23.699951,0,0.0,0.0,0.0,0.0
0.622558157,-0.025236644,0.9300159,-0.36665183,0.011489829,0.36701426,0.93014437,0.9996155,0.019260956,-0.019947931,0.037608746,0.88638735,-0.46141422,-0.10996125,0.4626077,0.87971735,0.9932241,0.01765262,0.11486636,10.055832,0.18304443,-0.17826843,9.802879,0.18888547,-0.19562238,-0.006072998,-0.048736572,-0.002960205,-32.57904,8.459473,23.699951,0,0.0,0.0,0.0,0.0
0.630858938,-0.025321022,0.9306504,-0.36503235,0.011815393,0.36540252,0.93077457,0.99960953,0.019255163,-0.020248367,0.03464508,0.8883048,-0.4579457,-0.10542809,0.45891252,0.8822041,0.99382323,0.01771631,0.10955135,10.033112,0.20100403,-0.3254242,9.802821,0.18882865,-0.19856866,0.0038452148,-0.031784058,0.0026855469,-32.458496,8.459473,23.81897,0,0.0,0.0,0.0,0.0
0.63915972,-0.025649542,0.92469984,-0.37983182,0.011764655,0.38020974,0.92482543,0.9996018,0.019252758,-0.020630982,0.031821713,0.8901632,-0.45452937,-0.1010416,0.45529503,0.8845886,0.9943732,0.01777725,0.10443178,10.031906,0.17108154,-0.3744812,9.802745,0.18880507,-0.20232083,0.0017089844,0.022735596,-8.239746E-4,-32.099915,8.81958,23.638916,0,0.0,0.0,0.0,0.0
0.647460501,-0.0256763,0.92468625,-0.37986305,0.011921435,0.38024455,0.92480904,0.9995992,0.019217167,-0.020786863,0.030493148,0.8909144,-0.45314652,-0.09888884,0.4538221,0.8855882,0.9946312,0.01780676,0.10193995,10.031906,0.17108154,-0.3744812,9.80272,0.18845603,-0.2038495,-0.002105713,0.053131104,3.9672852E-4,-32.099915,8.81958,23.638916,0,0.0,0.0,0.0,0.0
0.655761282,-0.025568532,0.924741,-0.37973717,0.0116775185,0.38011172,0.9248669,0.9996049,0.0192131,-0.020517578,0.027933815,0.8923645,-0.4504501,-0.09469204,0.45096177,0.887506,0.9951146,0.01786261,0.09709689,10.033112,0.16270447,-0.3912201,9.802775,0.18841615,-0.20120871,0.007965088,0.1247406,-0.012130737,-32.099915,8.81958,23.638916,0,0.0,0.0,0.0,0.0
0.664062063,-0.02543768,0.9214637,-0.3876306,0.010808645,0.38798693,0.9216015,0.999618,0.019253641,-0.019829262,0.025505198,0.8937511,-0.44783753,-0.09065437,0.4482053,0.88932204,0.99555576,0.017916093,0.09245401,10.047455,0.18544006,-0.3098755,9.802903,0.18881372,-0.19445862,0.0026245117,0.15345764,-0.007385254,-31.739807,9.118652,23.75946,0,0.0,0.0,0.0,0.0
0.672362845,-0.025094585,0.9216378,-0.3872391,0.009818016,0.38756964,0.92178816,0.9996369,0.019329973,-0.018774552,0.024356682,0.8943443,-0.44671583,-0.08869869,0.4470194,0.89011586,0.9957607,0.017942844,0.09021508,10.047455,0.18544006,-0.3098755,9.803089,0.18956228,-0.18411547,0.010559082,0.17559814,-0.015487671,-31.739807,9.118652,23.75946,0,0.0,0.0,0.0,0.0
0.680663626,-0.024819657,0.9153089,-0.40198702,0.00812777,0.40228233,0.9154795,0.9996588,0.01945463,-0.017423932,0.02215697,0.8954989,-0.44451207,-0.084933355,0.44469988,0.89164364,0.9961403,0.017997775,0.08591092,10.063019,0.20578003,-0.22851563,9.803305,0.19078475,-0.17087041,0.0041503906,0.20857239,-0.01991272,-31.858826,9.359741,23.278809,0,0.0,0.0,0.0,0.0
0.688964407,-0.024347503,0.9155607,-0.40144214,0.006677158,0.40170115,0.9157465,0.99968123,0.019615645,-0.015893763,0.021133274,0.89591444,-0.44372365,-0.08312089,0.4438607,0.89223236,0.9963154,0.018026913,0.08384944,10.063019,0.20578003,-0.22851563,9.803524,0.19236377,-0.15586457,0.016525269,0.20857239,-0.019607544,-31.858826,9.359741,23.278809,0,0.0,0.0,0.0,0.0
0.697265188,-0.023743922,0.9179108,-0.39607587,0.0051283427,0.3962942,0.91810936,0.99970496,0.019768301,-0.014116938,0.019175475,0.8967297,-0.44216305,-0.07965519,0.44220883,0.893368,0.99663806,0.018089827,0.07990874,10.057037,0.19621277,-0.1268158,9.803757,0.19386081,-0.13843988,0.011795044,0.21072388,-0.015487671,-32.159424,9.239197,23.339844,0,0.0,0.0,0.0,0.0
0.70556597,-0.023111759,0.91824526,-0.39533725,0.003310942,0.39551103,0.9184553,0.9997274,0.019918177,-0.012181211,0.017314803,0.8976125,-0.44044518,-0.07638882,0.44041127,0.8945405,0.99692774,0.018156296,0.0761932,10.069,0.21176147,0.04307556,9.803977,0.1953306,-0.11945688,0.005065918,0.1862793,-0.015335083,-32.159424,9.239197,23.339844,0,0.0,0.0,0.0,0.0
0.713866751,-0.022535391,0.9202222,-0.3907468,0.0017573489,0.39088196,0.9204391,0.99974453,0.020055778,-0.010425829,0.01642998,0.8980469,-0.43959293,-0.07483775,0.43952352,0.89510804,0.9970604,0.018191535,0.07442917,10.069,0.21176147,0.04307556,9.804145,0.19668001,-0.10224246,0.0038452148,0.16841125,-0.016098022,-32.339478,9.118652,23.339844,0,0.0,0.0,0.0,0.0
0.722167532,-0.022029106,0.9204881,-0.39014918,3.2256916E-4,0.3902504,0.9207088,0.9997573,0.02015654,-0.008893788,0.0147329755,0.89897436,-0.43775338,-0.07189038,0.43762022,0.8962814,0.9973037,0.018265363,0.07107505,10.055832,0.19262695,0.03111267,9.80427,0.19766814,-0.08721827,0.0029296875,0.13726807,-0.007843018,-32.339478,9.118652,23.339844,0,0.0,0.0,0.0,0.0
0.730468313,-0.021563899,0.91897905,-0.3937163,-0.001026779,0.39378726,0.91920096,0.9997669,0.020225815,-0.0075480007,0.013135796,0.8998731,-0.43595392,-0.06910904,0.43576598,0.8974029,0.99752265,0.018340254,0.0679135,10.04866,0.21057129,0.100494385,9.804364,0.1983475,-0.0740206,0.006134033,0.09100342,3.9672852E-4,-32.398987,9.239197,23.339844,0,0.0,0.0,0.0,0.0
0.738769095,-0.02117955,0.919182,-0.3932631,-0.0019772514,0.39331204,0.9194029,0.9997737,0.02025012,-0.0065127183,0.0123808645,0.9002743,-0.4351471,-0.06778129,0.43493512,0.89790714,0.9976234,0.018377967,0.06640662,10.04866,0.21057129,0.100494385,9.804431,0.19858584,-0.06386795,0.007965088,0.06625366,-0.0035705566,-32.398987,9.239197,23.339844,0,0.0,0.0,0.0,0.0
0.747069876,-0.0209347,0.9195054,-0.39251918,-0.0026385211,0.39255303,0.9197255,0.9997774,0.02028985,-0.0057918457,0.010938402,0.9010591,-0.43355834,-0.06523795,0.43330362,0.8988837,0.9978098,0.018452106,0.0635229,10.066605,0.20936584,0.049057007,9.804467,0.19897546,-0.056798603,0.0059814453,0.050827026,-0.006011963,-32.159424,9.1796875,23.2193,0,0.0,0.0,0.0,0.0
0.755370657,-0.020811664,0.91957015,-0.39237434,-0.0030395323,0.3923993,0.9197899,0.99977875,0.020334993,-0.0053714192,0.009570546,0.90182424,-0.43199703,-0.06281685,0.43170574,0.89982456,0.99797916,0.01852488,0.06078142,10.072586,0.19621277,-0.059814453,9.804481,0.19941816,-0.05267563,0.003540039,0.044418335,-0.005706787,-32.159424,9.1796875,23.2193,0,0.0,0.0,0.0,0.0
0.763671438,-0.020692522,0.91930395,-0.3930039,-0.003414841,0.39302078,0.9195232,0.99978,0.020369299,-0.004993314,0.008912761,0.9021958,-0.43123463,-0.061648693,0.43092716,0.90027845,0.99805814,0.018561082,0.059459943,10.072586,0.19621277,-0.059814453,9.804493,0.1997546,-0.04896768,0.008575439,0.055114746,-0.001739502,-32.03888,9.1796875,23.15979,0,0.0,0.0,0.0,0.0
0.77197222,-0.02058193,0.919362,-0.39287394,-0.0037618368,0.39288318,0.9195807,0.9997811,0.020404674,-0.004627805,0.0076489,0.9029032,-0.42977583,-0.059392415,0.42943987,0.9011404,0.9982054,0.01863269,0.05691034,10.08934,0.20458984,-0.13877869,9.804503,0.20010151,-0.045383267,0.010253906,0.08946228,-0.0040283203,-32.03888,9.1796875,23.15979,0,0.0,0.0,0.0,0.0
0.780273001,-0.020477753,0.92600274,-0.37696102,-0.0038798144,0.37696365,0.92621994,0.99978274,0.020429442,-0.0041266493,0.006446691,0.9035829,-0.42836493,-0.057235166,0.42800495,0.9019623,0.9983399,0.018702865,0.05447593,10.061813,0.19381714,-0.18066406,9.80452,0.20034438,-0.040468607,0.011489868,0.1381836,-0.0107421875,-32.339478,8.639526,22.979736,0,0.0,0.0,0.0,0.0
0.788573782,-0.020239169,0.9261257,-0.37667152,-0.004592125,0.3766586,0.92634064,0.9997846,0.02047809,-0.0033703726,0.0058504716,0.90405905,-0.4273675,-0.056198645,0.42699668,0.9025051,0.9984025,0.018737396,0.05330503,10.061813,0.19381714,-0.18066406,9.804538,0.20082147,-0.033052064,0.002166748,0.13284302,-0.011520386,-32.339478,8.639526,22.979736,0,0.0,0.0,0.0,0.0
0.796874563,-0.019782603,0.9234181,-0.38328537,-0.0059028235,0.38324586,0.92362756,0.9997869,0.020534223,-0.0021308265,0.004710464,0.90498537,-0.4254165,-0.054211564,0.4250267,0.9035559,0.99851835,0.018806329,0.05106275,10.061813,0.20458984,0.086135864,9.804561,0.20137194,-0.02089627,0.006439209,0.12657166,-0.0011291504,-32.63855,8.639526,22.499084,0,0.0,0.0,0.0,0.0
0.805175345,-0.019368129,0.9236408,-0.38276964,-0.0069931946,0.38270694,0.9238434,0.999788,0.020569896,-9.53117E-4,0.0036572497,0.9057516,-0.4237932,-0.052342743,0.42338848,0.9044349,0.9986225,0.018874755,0.04895796,10.059433,0.21176147,0.0765686,9.804571,0.20172179,-0.009346885,0.002319336,0.12931824,-0.010131836,-32.63855,8.639526,22.499084,0,0.0,0.0,0.0,0.0
0.813476126,-0.019140495,0.93132603,-0.36368334,-0.0076890364,0.3636021,0.93152267,0.9997872,0.020626176,2.0147586E-4,0.0031575132,0.90612704,-0.4229938,-0.051456485,0.42258275,0.9048624,0.99867016,0.018908659,0.047960423,10.059433,0.21176147,0.0765686,9.8045635,0.2022737,0.0019758034,0.004760742,0.1209259,-0.0066223145,-32.87964,8.039856,22.31903,0,0.0,0.0,0.0,0.0
0.821776907,-0.018795656,0.9315059,-0.36324012,-0.008784363,0.36313644,0.9316945,0.99978477,0.020702645,0.0013572985,0.002169028,0.90719664,-0.4207013,-0.049778484,0.42027867,0.9060286,0.9987579,0.018976672,0.04607047,10.046265,0.22851563,0.15434265,9.80454,0.2030236,0.013310551,0.010253906,0.08595276,-0.0035705566,-32.87964,8.039856,22.31903,0,0.0,0.0,0.0,0.0
0.830077688,-0.018450007,0.9293442,-0.36875325,-0.009772968,0.36863077,0.9295244,0.99978197,0.020753548,0.0022812104,0.0012431387,0.90822655,-0.418477,-0.048205115,0.41804525,0.9071463,0.9988367,0.019045023,0.044300854,10.047455,0.22253418,0.14955139,9.804512,0.20352279,0.022371031,0.013015747,0.059539795,-0.003112793,-32.63855,8.279419,22.499084,0,0.0,0.0,0.0,0.0
0.83837847,-0.01823755,0.9294545,-0.36848566,-0.01042969,0.36835003,0.92962855,0.9997792,0.02079734,0.0029761198,8.0921315E-4,0.90867484,-0.41750377,-0.047457445,0.41706836,0.90763533,0.99887294,0.019079192,0.043460883,10.047455,0.22253418,0.14955139,9.804485,0.20395224,0.029185764,0.022323608,0.034347534,0.0029907227,-32.63855,8.279419,22.499084,0,0.0,0.0,0.0,0.0
0.846679251,-0.01792599,0.9247522,-0.38014752,-0.011061945,0.38000187,0.92491955,0.9997781,0.020785268,0.003417647,-1.8853694E-5,0.9095467,-0.41560173,-0.046029888,0.41516042,0.9085829,0.99894005,0.019147232,0.041858505,10.084549,0.20578003,0.088531494,9.804474,0.20383385,0.03351567,0.0015563965,0.04777527,-0.0025024414,-32.699585,8.639526,22.558594,0,0.0,0.0,0.0,0.0
0.854980032,-0.01773824,0.9248519,-0.37991357,-0.01151036,0.37975928,0.9250137,0.9997764,0.020781057,0.0039091166,-7.7852234E-4,0.9101745,-0.4142243,-0.044671934,0.4137793,0.90928054,0.9990014,0.019212099,0.04033712,10.071396,0.20698547,0.12921143,9.804458,0.20379256,0.03833534,0.014389038,0.051132202,-0.0028076172,-32.699585,8.639526,22.558594,0,0.0,0.0,0.0,0.0
0.863280813,-0.017522248,0.92389554,-0.3822435,-0.012065453,0.38207898,0.924051,0.9997737,0.02080339,0.0044523356,-0.0011416506,0.9104804,-0.41355065,-0.044021234,0.41310424,0.9096191,0.9990299,0.019243479,0.03960885,10.071396,0.20698547,0.12921143,9.804431,0.20401157,0.0436625,0.011795044,0.048080444,-0.0049438477,-32.339478,8.81958,22.799683,0,0.0,0.0,0.0,0.0
0.871581595,-0.01739229,0.9239633,-0.38208544,-0.012499245,0.38191247,0.9241139,0.9997706,0.020848239,0.0049065114,-0.0018311944,0.91103154,-0.41233262,-0.04277722,0.41188452,0.9102315,0.9990829,0.019305253,0.038217157,10.059433,0.21655273,0.09451294,9.8044,0.20445138,0.04811644,0.0055236816,0.03892517,-6.713867E-4,-32.339478,8.81958,22.799683,0,0.0,0.0,0.0,0.0
0.879882376,-0.017131995,0.9204479,-0.3904896,-0.0130229015,0.39030838,0.92059207,0.99976844,0.020856887,0.0053001414,-0.0024847528,0.9115623,-0.4111545,-0.041597977,0.4107057,0.9108186,0.9991314,0.019366356,0.036898643,10.042679,0.1986084,0.088531494,9.804379,0.2045362,0.051976632,0.0038452148,0.04319763,-0.0011291504,-32.57904,8.938599,22.499084,0,0.0,0.0,0.0,0.0
0.888183157,-0.016981497,0.9205294,-0.3903041,-0.013373343,0.39011633,0.9206685,0.99976635,0.020853998,0.0056857956,-0.0027900953,0.9117444,-0.41074848,-0.04103318,0.41029975,0.91102713,0.9991539,0.019396167,0.036266997,10.042679,0.1986084,0.088531494,9.804359,0.20450789,0.05575861,7.9345703E-4,0.045181274,-0.005554199,-32.57904,8.938599,22.499084,0,0.0,0.0,0.0,0.0
0.896483938,-0.016878987,0.92125696,-0.3885882,-0.013660984,0.3883948,0.92139184,0.99976426,0.020860657,0.006029566,-0.003375169,0.91210085,-0.40995213,-0.03995017,0.40950418,0.91143316,0.999196,0.019453896,0.035056435,10.07019,0.2033844,0.025131226,9.8043375,0.20457315,0.059129838,0.0124053955,0.06762695,0.0045166016,-32.87964,8.938599,22.619629,0,0.0,0.0,0.0,0.0
0.90478472,-0.016692612,0.92135775,-0.38835716,-0.014055897,0.38815662,0.9214862,0.9997618,0.02084072,0.0064711594,-0.003932882,0.91247267,-0.40911883,-0.038921215,0.40867233,0.9118509,0.99923456,0.019509604,0.033907283,10.065414,0.21176147,0.039474487,9.804315,0.20437764,0.063460395,0.010726929,0.08198547,8.544922E-4,-32.87964,8.938599,22.619629,0,0.0,0.0,0.0,0.0
0.913085501,-0.01622852,0.9154647,-0.40207082,-0.0148346415,0.40185905,0.9155813,0.99975824,0.020823106,0.007059014,-0.0041989386,0.9126548,-0.40870962,-0.038429648,0.40826404,0.9120546,0.9992525,0.019536229,0.033358727,10.065414,0.21176147,0.039474487,9.804279,0.20420492,0.06922528,0.015609741,0.099853516,-0.0014343262,-32.87964,9.298706,22.499084,0,0.0,0.0,0.0,0.0
0.921386282,-0.015901906,0.91564703,-0.40166888,-0.0156235425,0.4014431,0.91575086,0.9997515,0.020837668,0.007921939,-0.004681642,0.9127669,-0.40845397,-0.03749887,0.4080109,0.9122066,0.9992857,0.019587187,0.032317564,10.08934,0.22253418,0.1531372,9.804213,0.20434771,0.07768768,0.008117676,0.0925293,0.0026855469,-32.87964,9.298706,22.499084,0,0.0,0.0,0.0,0.0
0.929687063,-0.015619727,0.92003006,-0.39153633,-0.0163958,0.39129573,0.92011887,0.9997435,0.020791555,0.008972696,-0.0051319255,0.91288185,-0.4081916,-0.036636118,0.4077513,0.91235775,0.9993155,0.019636707,0.031351898,10.058228,0.18902588,0.36012268,9.804135,0.20389551,0.087992094,0.008117676,0.0066986084,-8.239746E-4,-32.87964,9.118652,22.738647,0,0.0,0.0,0.0,0.0
0.937987845,-0.0153262345,0.9201885,-0.39117542,-0.017000634,0.390925,0.9202655,0.999738,0.020754436,0.00965238,-0.0053487727,0.91302764,-0.40786248,-0.0362351,0.4074235,0.9125202,0.999329,0.019659804,0.030904436,10.058228,0.18902588,0.36012268,9.804081,0.20353149,0.09465752,0.0024719238,-0.039718628,0.0032958984,-32.87964,9.118652,22.738647,0,0.0,0.0,0.0,0.0
0.946288626,-0.015001953,0.914482,-0.4043484,-0.017333567,0.40409526,0.9145526,0.9997372,0.020728877,0.009789015,-0.0057570264,0.91331697,-0.40720886,-0.035480335,0.40677264,0.9128402,0.99935377,0.019703152,0.03006299,10.04866,0.20458984,0.40318298,9.804073,0.20328084,0.095997445,0.002166748,-0.14860535,-0.0014343262,-32.57904,9.599304,22.918701,0,0.0,0.0,0.0,0.0
0.954589407,-0.015236529,0.9143542,-0.40462834,-0.01672603,0.40438557,0.9144355,0.99974394,0.02070065,0.009132085,-0.0061252182,0.9133633,-0.4070996,-0.03476291,0.4066667,0.912915,0.99937683,0.01974377,0.029260246,10.04985,0.20817566,0.34336853,9.804139,0.20300403,0.08955517,0.0044555664,-0.23626709,0.008651733,-32.57904,9.599304,22.918701,0,0.0,0.0,0.0,0.0
0.962890188,-0.015578541,0.91024417,-0.4137787,-0.015670393,0.4135558,0.9103438,0.9997558,0.020665903,0.007821289,-0.006308336,0.91338307,-0.40705225,-0.034402758,0.40662113,0.9129489,0.9993881,0.019762907,0.028857792,10.04985,0.20817566,0.34336853,9.8042555,0.20266329,0.07670064,0.006439209,-0.27337646,-0.0012817383,-32.27997,9.838867,22.859192,0,0.0,0.0,0.0,0.0
0.97119097,-0.01636268,0.90981126,-0.41469964,-0.013895392,0.41450822,0.9099395,0.99976957,0.020651463,0.005859719,-0.0066700783,0.9132598,-0.40732297,-0.03365845,0.40689617,0.91285414,0.9994111,0.019798666,0.02802488,10.043869,0.21296692,0.19142151,9.804391,0.2025217,0.05746422,0.006591797,-0.26512146,0.005584717,-32.27997,9.838867,22.859192,0,0.0,0.0,0.0,0.0
0.979491751,-0.017385796,0.90924406,-0.41590026,-0.011588968,0.41575193,0.9094042,0.99978167,0.02063057,0.0033090233,-0.006860718,0.91319144,-0.40747312,-0.03326172,0.40704882,0.9128006,0.99942315,0.019815724,0.027581671,10.041473,0.20458984,-0.16270447,9.804509,0.20231679,0.032450434,0.005065918,-0.26512146,0.005584717,-32.27997,9.838867,22.859192,0,0.0,0.0,0.0,0.0
0.987792532,-0.01835749,0.9141414,-0.40497956,-0.00939542,0.4048722,0.91432494,0.99978733,0.020589665,0.001156305,-0.007269674,0.91303676,-0.40781248,-0.032400005,0.40739405,0.9126775,0.99944854,0.019847995,0.026620774,10.065414,0.2033844,-0.12802124,9.804565,0.20191565,0.011339479,4.8828125E-4,-0.17074585,0.010025024,-32.27997,9.47876,22.859192,0,0.0,0.0,0.0,0.0
0.996093313,-0.018991541,0.9147804,-0.40350482,-0.007832063,0.4034291,0.9149774,0.99978894,0.020537106,-4.971233E-4,-0.0074927555,0.91305894,-0.40775877,-0.03194062,0.40734363,0.91271627,0.99946165,0.019862829,0.026111543,10.063019,0.20817566,-0.21655273,9.804581,0.20140022,-0.004875114,0.0032348633,-0.13546753,0.006210327,-32.27997,9.359741,22.738647,0,0.0,0.0,0.0,0.0
1.004394095,-0.019418849,0.9145462,-0.40401503,-0.0066140154,0.40396488,0.9147506,0.99978954,0.020435564,-0.0017957098,-0.007952178,0.9131275,-0.40759665,-0.030988086,0.40718874,0.91281825,0.9994881,0.019889532,0.025058033,10.047455,0.17706299,-0.19502258,9.804586,0.20040444,-0.017609898,0.006134033,-0.0965271,0.006958008,-32.27997,9.359741,22.738647,0,0.0,0.0,0.0,0.0
1.012694876,-0.01983647,0.9233415,-0.38346687,-0.0052682366,0.3834405,0.9235505,0.99978936,0.020340176,-0.0027417233,-0.008409717,0.91318387,-0.407461,-0.030024622,0.4070611,0.91290736,0.9995138,0.019911155,0.02399473,10.047455,0.17706299,-0.19502258,9.8045845,0.199469,-0.026887123,0.006591797,-0.04109192,0.005279541,-32.27997,8.999634,23.339844,0,0.0,0.0,0.0,0.0
1.020995657,-0.020011295,0.92325175,-0.38367403,-0.0047198893,0.38365933,0.92346257,0.9997886,0.020290582,-0.0033198744,-0.008650697,0.913393,-0.40698695,-0.029535357,0.4065912,0.91313267,0.9995263,0.019919736,0.02346009,10.058228,0.19262695,-0.1531372,9.804577,0.19898264,-0.032556847,0.0024719238,-0.014984131,-0.003112793,-32.27997,8.999634,23.339844,0,0.0,0.0,0.0,0.0
1.029296438,-0.020135147,0.9231881,-0.38382077,-0.0044437917,0.3838122,0.9234005,0.9997874,0.020298423,-0.0036256588,-0.009124097,0.9137943,-0.40607482,-0.028563611,0.4056878,0.9135653,0.99955034,0.019934421,0.022399731,10.046265,0.19381714,-0.022735596,9.804565,0.19905953,-0.035555568,0.0059814453,-0.0055236816,-0.008758545,-32.27997,8.999634,23.339844,0,0.0,0.0,0.0,0.0
1.03759722,-0.020191824,0.9220682,-0.38650045,-0.0044248113,0.38649306,0.9222817,0.9997863,0.02033274,-0.0037240218,-0.009581895,0.91417617,-0.40520382,-0.027618717,0.40482587,0.9139766,0.9995726,0.019948836,0.021369373,10.057037,0.19381714,-0.07298279,9.804555,0.19939607,-0.03652018,-0.001953125,-7.7819824E-4,-0.0018920898,-32.339478,8.999634,23.15979,0,0.0,0.0,0.0,0.0
1.045898001,-0.020235423,0.9236427,-0.38272017,-0.004235712,0.3827159,0.9238564,0.99978626,0.020315718,-0.0038321347,-0.009803215,0.91433764,-0.40483406,-0.027158992,0.4044607,0.91415197,0.99958307,0.019956514,0.020867474,10.066605,0.17108154,-0.122039795,9.804554,0.19922914,-0.037580404,-0.006225586,0.01953125,-0.0028076172,-32.27997,8.938599,23.278809,0,0.0,0.0,0.0,0.0
1.054198782,-0.020162081,0.92368037,-0.382633,-0.0043253554,0.38262662,0.92389286,0.99978733,0.020282628,-0.0037193033,-0.010236889,0.9147158,-0.403968,-0.026260793,0.4036039,0.91455686,0.99960274,0.019970737,0.019889515,10.074982,0.19262695,-0.122039795,9.804564,0.19890463,-0.036473908,0.0056762695,0.06213379,-0.0011291504,-32.27997,8.938599,23.278809,0,0.0,0.0,0.0,0.0
1.062499563,-0.020059513,0.92591363,-0.37720218,-0.00457731,0.37718907,0.9261249,0.9997883,0.020304188,-0.0033280367,-0.010648931,0.91507995,-0.4031319,-0.025400866,0.4027771,0.91494554,0.9996207,0.01998309,0.018954678,10.074982,0.20698547,-0.09451294,9.804574,0.19911607,-0.032636892,0.016983032,0.07511902,-0.006164551,-32.339478,8.758545,23.2193,0,0.0,0.0,0.0,0.0
1.070800345,-0.019896775,0.9259967,-0.37700692,-0.005084358,0.376983,0.92620635,0.9997892,0.020345356,-0.0027926469,-0.010848384,0.9153036,-0.40261853,-0.024989609,0.40226832,0.91518074,0.9996289,0.019989511,0.018509118,10.065414,0.2033844,-0.11126709,9.804583,0.1995198,-0.02738651,0.016830444,0.09970093,-0.0054016113,-32.339478,8.758545,23.2193,0,0.0,0.0,0.0,0.0
1.079101126,-0.019648252,0.92612344,-0.37670854,-0.0057469006,0.37667042,0.9263295,0.99979043,0.020365661,-0.0020785755,-0.011227276,0.91574013,-0.40161416,-0.02421099,0.40127274,0.91563857,0.99964386,0.020003602,0.017665775,10.065414,0.2033844,-0.11126709,9.804595,0.19971892,-0.020383863,0.0078125,0.12275696,-0.0020446777,-32.339478,8.758545,23.2193,0,0.0,0.0,0.0,0.0
1.087401907,-0.019289395,0.92559576,-0.37802163,-0.006761267,0.37796256,0.92579615,0.9997911,0.020413954,-0.0010324692,-0.011579324,0.9161638,-0.4006367,-0.02348846,0.40030378,0.9160814,0.99965703,0.02001794,0.01688403,10.046265,0.24047852,0.009567261,9.804602,0.2001925,-0.010125064,0.00491333,0.12260437,3.9672852E-4,-32.398987,8.758545,23.098755,0,0.0,0.0,0.0,0.0
1.095702688,-0.018899724,0.9251809,-0.37905547,-0.0077478876,0.3789763,0.925374,0.9997914,0.020426193,5.6502663E-6,-0.011741428,0.9163578,-0.40018815,-0.023157552,0.3998592,0.91628397,0.9996629,0.02002586,0.016525688,10.057037,0.21176147,0.0059814453,9.804604,0.20031251,5.5410183E-5,-7.324219E-4,0.117263794,-0.002960205,-32.759094,8.81958,23.15979,0,0.0,0.0,0.0,0.0
1.10400347,-0.01856876,0.9253525,-0.37865266,-0.008649574,0.37855512,0.92553824,0.99979013,0.020461282,9.746073E-4,-0.012038119,0.91671616,-0.3993577,-0.022553422,0.3990361,0.91665787,0.9996731,0.020041717,0.015871441,10.061813,0.18544006,0.08255005,9.804592,0.20065664,0.009557633,0.0058288574,0.11299133,-0.0064697266,-32.759094,8.81958,23.15979,0,0.0,0.0,0.0,0.0
1.112304251,-0.018052889,0.9220151,-0.38673282,-0.009904162,0.38661197,0.92218924,0.999788,0.020478448,0.0021523228,-0.012308383,0.9170668,-0.3985436,-0.022008311,0.39822876,0.91702205,0.999682,0.02005833,0.01528154,10.054642,0.18185425,0.2524414,9.804571,0.20082498,0.021107078,0.008270264,0.08351135,-0.0066223145,-32.63855,8.999634,22.979736,0,0.0,0.0,0.0,0.0
1.120605032,-0.017656857,0.9222242,-0.38625225,-0.010879977,0.38611236,0.9223876,0.9997849,0.020488879,0.0032162478,-0.012426252,0.9171672,-0.3983088,-0.02176769,0.39799705,0.9171284,0.9996858,0.020066733,0.015019001,10.067795,0.17826843,0.31704712,9.804541,0.20092727,0.031540617,0.008270264,0.039382935,-0.002960205,-32.63855,8.999634,22.979736,0,0.0,0.0,0.0,0.0
1.128905813,-0.017375542,0.9223725,-0.38591075,-0.011442699,0.38576028,0.9225281,0.9997835,0.020445284,0.0038516365,-0.012638729,0.9173704,-0.39783388,-0.021339087,0.39752758,0.91734207,0.9996924,0.02008345,0.014551603,10.08934,0.1531372,0.29910278,9.804527,0.20049974,0.037771653,-0.003479004,-0.044006348,-0.001739502,-32.63855,8.999634,22.979736,0,0.0,0.0,0.0,0.0
1.137206595,-0.017375328,0.9248827,-0.37985516,-0.011337075,0.37970585,0.92503774,0.99978477,0.020379284,0.0038879514,-0.012735907,0.91747195,-0.39759657,-0.021142412,0.39729285,0.9174483,0.99969536,0.020090686,0.014337686,10.08934,0.1531372,0.29910278,9.80454,0.19985251,0.03812778,0.0018615723,-0.09118652,0.001159668,-32.759094,8.699036,22.679138,0,0.0,0.0,0.0,0.0
1.145507376,-0.017414842,0.92156494,-0.38783357,-0.010962313,0.3876931,0.9217234,0.9997883,0.020303218,0.003350869,-0.012926605,0.9177718,-0.39689767,-0.020757567,0.39659902,0.9177572,0.99970096,0.020102117,0.013924032,10.02832,0.20698547,0.3481598,9.804574,0.19910656,0.0328608,-0.0018005371,-0.18067932,-0.0011291504,-32.51953,8.879089,22.558594,0,0.0,0.0,0.0,0.0
1.153808157,-0.017875506,0.9213174,-0.3884002,-0.009667264,0.38828483,0.92148864,0.9997934,0.020226844,0.0019658303,-0.01310789,0.9179236,-0.39654055,-0.020371472,0.39624718,0.91791785,0.9997065,0.020110082,0.013505491,10.084549,0.15672302,0.06341553,9.804625,0.19835758,0.01927821,-0.010055542,-0.22434998,0.004211426,-32.51953,8.879089,22.558594,0,0.0,0.0,0.0,0.0
1.162108938,-0.016921503,0.9218293,-0.38722646,-0.0068486794,0.38716596,0.92198455,0.99983335,0.018253354,-2.3811597E-4,-0.0132050915,0.9179922,-0.39637852,-0.020158155,0.39608812,0.91799116,0.99970955,0.020112418,0.013274649,10.086945,-1.2035828,-0.31944275,9.8050165,0.17900428,-0.0023351202,-0.007446289,-0.21565247,0.006958008,-32.51953,8.879089,22.558594,0,0.0,0.0,0.0,0.0
1.17040972,-0.015829558,0.9252136,-0.37911642,-0.0049601924,0.37908658,0.9253479,0.9998624,0.016528338,-0.0014115353,-0.013357265,0.91814584,-0.3960174,-0.019632392,0.39573556,0.9181546,0.999718,0.020038802,0.012739453,10.059433,-1.0384827,0.110076904,9.805301,0.16208763,-0.013842433,-0.0879364,-0.009033203,0.0020751953,-32.458496,8.639526,22.439575,0,0.0,0.0,0.0,0.0
1.178710501,-0.014520202,0.92601,-0.37721953,-0.004470484,0.37719542,0.92612284,0.99988455,0.015133846,-0.0013372405,-0.013465246,0.91843164,-0.39535046,-0.019053083,0.39507887,0.9184496,0.9997278,0.019899795,0.012179121,10.095322,-0.83270264,0.3098755,9.805518,0.14841233,-0.01311385,-0.12840271,0.012191772,-2.1362305E-4,-32.159424,8.758545,22.738647,0,0.0,0.0,0.0,0.0
1.187011282,-0.013051405,0.9267587,-0.37543055,-0.00447666,0.37540463,0.9268503,0.9999048,0.0137773715,-7.507739E-4,-0.013491873,0.9185868,-0.3949889,-0.018761862,0.39472276,0.9186087,0.999733,0.01980448,0.011908851,10.095322,-0.83270264,0.3098755,9.805717,0.13510987,-0.0073625776,-0.1374054,0.021057129,-0.0012817383,-32.159424,8.758545,22.738647,0,0.0,0.0,0.0,0.0
1.195312063,-0.011120286,0.92830855,-0.3716444,-0.004193738,0.37162077,0.92837507,0.9999293,0.011882375,-2.3944631E-4,-0.013485825,0.9189187,-0.3942163,-0.018195752,0.39396134,0.91894686,0.99974346,0.019565819,0.0114075225,10.046265,-1.2322998,0.20219421,9.805957,0.1165263,-0.0023481662,-0.1531372,0.032806396,0.005126953,-32.699585,8.639526,22.558594,0,0.0,0.0,0.0,0.0
1.203612845,-0.009159341,0.9293105,-0.3691857,-0.0039770994,0.36916438,0.92935556,0.9999501,0.009980573,3.1465755E-4,-0.0134050585,0.91930187,-0.3933248,-0.017638959,0.39308152,0.9193344,0.9997545,0.019261573,0.010946245,10.071396,-1.779068,0.2644043,9.806161,0.09787599,0.0030857367,-0.14015198,0.028533936,0.008041382,-32.699585,8.639526,22.558594,0,0.0,0.0,0.0,0.0
1.211913626,-0.006477805,0.9306643,-0.36581713,-0.003601198,0.36580074,0.93068635,0.9999726,0.0073461835,9.819206E-4,-0.013327066,0.9195088,-0.39284337,-0.017363569,0.39260617,0.9195428,0.9997604,0.019075967,0.010733666,10.04985,-2.2588196,0.33499146,9.806381,0.07204145,0.009629352,-0.14015198,0.052963257,-0.0014343262,-32.699585,8.639526,22.558594,0,0.0,0.0,0.0,0.0
1.220214407,-0.0031797127,0.93573886,-0.35267928,-0.0032515316,0.35266954,0.9357423,0.9999897,0.0041221394,0.0019211968,-0.013071049,0.91996765,-0.3917762,-0.016810903,0.39155212,0.9200023,0.9997732,0.018611507,0.010347491,10.072586,-2.5507507,0.19740295,9.806549,0.04042438,0.018840505,-0.025009155,0.08137512,-0.002960205,-32.57904,8.459473,22.738647,0,0.0,0.0,0.0,0.0
1.228515188,4.694448E-4,0.93746054,-0.3480914,-0.0028799747,0.34809124,0.9374563,0.9999957,5.6241034E-4,0.0028632719,-0.012700932,0.92062676,-0.39023715,-0.016258173,0.3900269,0.92065996,0.9997871,0.018037783,0.010014004,10.063019,-2.6201477,0.13519287,9.806608,0.005515361,0.028079106,0.011795044,0.1158905,9.1552734E-5,-32.57904,8.459473,22.738647,0,0.0,0.0,0.0,0.0
1.23681597,0.0012650609,0.93921536,-0.34332618,-0.0035700921,0.3433285,0.9392085,0.9999928,3.755017E-5,0.0037874167,-0.012449436,0.9209847,-0.3893997,-0.015978906,0.38919693,0.921016,0.9997948,0.017688312,0.009871045,10.063019,-2.6201477,0.13519287,9.80658,3.682414E-4,0.03714187,0.049972534,0.1322174,-0.0035705566,-32.57904,8.399963,22.859192,0,0.0,0.0,0.0,0.0
1.245116751,0.002191476,0.93821436,-0.3460478,-0.004506439,0.34605438,0.93820363,0.9999874,-4.966077E-4,0.0049863756,-0.01192975,0.921755,-0.38758928,-0.01546168,0.38740048,0.9217819,0.9998093,0.016989408,0.00963029,10.094116,-3.2434692,0.12802124,9.806527,-0.0048700576,0.04889964,0.11807251,0.18399048,-6.713867E-4,-32.27997,8.639526,23.2193,0,0.0,0.0,0.0,0.0
1.253417532,0.0033320952,0.93872464,-0.3446519,-0.005641508,0.34466597,0.93870836,0.9999785,-0.0011835092,0.0064442824,-0.011389235,0.922447,-0.38595575,-0.015003821,0.3857797,0.9224689,0.99982256,0.016297027,0.009446493,10.094116,-3.2434692,0.12802124,9.806439,-0.011606261,0.06319682,0.24726868,0.19224548,0.010787964,-32.27997,8.639526,23.2193,0,0.0,0.0,0.0,0.0
1.261718313,0.0045433054,0.9392629,-0.34316838,-0.0068965326,0.34319317,0.9392395,0.99996585,-0.0019005797,0.008036888,-0.011102978,0.92279303,-0.38513607,-0.014803821,0.3849659,0.9228121,0.99982876,0.015947446,0.009386594,10.077377,-3.357132,0.100494385,9.806315,-0.01863832,0.07881495,0.30255127,0.19422913,0.007873535,-32.27997,8.639526,23.2193,0,0.0,0.0,0.0,0.0
1.270019095,0.005873185,0.93761057,-0.34763753,-0.008133355,0.3476768,0.93757915,0.9999497,-0.0026791166,0.00966789,-0.010497073,0.92348635,-0.38348758,-0.014463805,0.38332835,0.92349887,0.99984026,0.015240724,0.009333301,10.055832,-3.5389862,0.2715912,9.806157,-0.02627316,0.09480962,0.39723206,0.16551208,0.0010070801,-32.458496,8.879089,23.399353,0,0.0,0.0,0.0,0.0
1.278319876,0.007057928,0.9381366,-0.34619367,-0.009208858,0.3462486,0.9380977,0.9999327,-0.0034329765,0.011082963,-0.009858279,0.9240773,-0.3820786,-0.014188941,0.38192943,0.92408264,0.99985075,0.014531154,0.009346511,10.058228,-3.3547363,0.39601135,9.80599,-0.033666,0.108686745,0.48365784,0.07067871,0.011856079,-32.458496,8.879089,23.399353,0,0.0,0.0,0.0,0.0
1.286620657,0.007987632,0.9397584,-0.34174588,-0.009820679,0.341814,0.9397162,0.99991983,-0.004149932,0.011959352,-0.009523826,0.9243747,-0.38136685,-0.014076477,0.3812224,0.92437625,0.9998556,0.014171898,0.009381243,10.04985,-3.2015991,0.34457397,9.805864,-0.04069693,0.117281176,0.50579834,0.030517578,0.0098724365,-32.57904,8.699036,23.15979,0,0.0,0.0,0.0,0.0
1.294921438,0.008734817,0.94121236,-0.33770227,-0.009957008,0.3377803,0.94117224,0.99991226,-0.004858463,0.01232211,-0.008837464,0.9250214,-0.37981224,-0.013879536,0.379677,0.92501503,0.9998646,0.013446405,0.0094834855,10.112076,-3.3595276,0.1483612,9.80579,-0.04764525,0.12083863,0.502594,0.013259888,0.017807007,-32.699585,8.699036,23.399353,0,0.0,0.0,0.0,0.0
1.30322222,0.009470039,0.94153094,-0.33679327,-0.009811617,0.33687964,0.94149655,0.999907,-0.005611523,0.012428206,-0.008489659,0.92536664,-0.37897822,-0.013785407,0.3788476,0.9253564,0.9998689,0.013080331,0.009540269,10.112076,-3.3595276,0.1483612,9.805738,-0.055030245,0.12187907,0.50427246,-0.0113220215,0.011856079,-32.699585,8.699036,23.399353,0,0.0,0.0,0.0,0.0
1.311523001,0.010187192,0.94184035,-0.33590612,-0.009609548,0.33600026,0.9418129,0.99990195,-0.006366523,0.01247356,-0.00778558,0.92604864,-0.37732387,-0.013597045,0.3772024,0.92603105,0.9998773,0.012340179,0.0096547855,10.039093,-2.9539337,0.049057007,9.805689,-0.062434264,0.12232384,0.48091125,0.026855469,0.019180298,-32.699585,8.699036,23.399353,0,0.0,0.0,0.0,0.0
1.319823782,0.010860129,0.94280493,-0.3331681,-0.009550832,0.33327034,0.94278294,0.9998954,-0.007056712,0.012623929,-0.0070809335,0.9267146,-0.3756993,-0.013408599,0.37558696,0.9266902,0.999885,0.011599433,0.009766437,10.1479645,-2.8450623,-0.041870117,9.805625,-0.06920271,0.12379847,0.41096497,-0.11424255,0.005279541,-33.1192,8.459473,22.859192,0,0.0,0.0,0.0,0.0
1.328124563,0.011340944,0.9430173,-0.33255008,-0.009027243,0.33265448,0.9430055,0.999895,-0.007692564,0.0122854635,-0.0067257714,0.9270582,-0.37485704,-0.013315293,0.37474927,0.92703056,0.9998887,0.011226328,0.009823574,10.1479645,-2.8450623,-0.041870117,9.80562,-0.07543828,0.12047924,0.37982178,-0.11424255,-0.0034179688,-33.1192,8.459473,22.859192,0,0.0,0.0,0.0,0.0
1.336425345,0.011469851,0.9405276,-0.33952352,-0.0076100025,0.33961815,0.9405327,0.9999053,-0.0082039945,0.011052787,-0.006018091,0.9277325,-0.3731973,-0.013114233,0.37309873,0.92769897,0.9998959,0.010477172,0.009921157,10.125229,-2.5184479,0.095718384,9.805721,-0.08045371,0.10839082,0.35079956,-0.16708374,0.0060424805,-32.63855,8.758545,23.15979,0,0.0,0.0,0.0,0.0
1.344726126,0.011587153,0.93781394,-0.34694517,-0.006058814,0.34702796,0.93783534,0.9999145,-0.008764763,0.009703104,-0.0053333514,0.92826813,-0.37187344,-0.012872256,0.37178418,0.92823,0.99990296,0.009737426,0.00996605,10.125229,-2.5184479,0.095718384,9.805812,-0.08595297,0.09515495,0.26651,-0.13409424,0.006515503,-32.57904,9.059143,23.399353,0,0.0,0.0,0.0,0.0
1.353026907,0.011855122,0.93793154,-0.3466176,-0.005099898,0.3466942,0.9379643,0.99991673,-0.009351968,0.008893458,-0.004998569,0.92846864,-0.3713773,-0.012727165,0.37129277,0.92842865,0.99990654,0.009367394,0.00996084,10.057037,-2.6656036,0.3409729,9.805833,-0.09171147,0.08721503,0.23168945,0.051589966,0.0020751953,-32.57904,9.059143,23.399353,0,0.0,0.0,0.0,0.0
1.361327688,0.012377207,0.9381605,-0.34597933,-0.0048401384,0.346058,0.93820065,0.99991167,-0.009937716,0.008824059,-0.0043389546,0.9288618,-0.37040108,-0.012408238,0.37032604,0.928819,0.99991363,0.008626127,0.00991871,10.162323,-3.0939178,0.3397827,9.805784,-0.0974557,0.08653446,0.18359375,-0.011474609,0.005279541,-32.57904,9.059143,23.399353,0,0.0,0.0,0.0,0.0
1.36962847,0.013338754,0.93409044,-0.35678726,-0.0049907146,0.35687673,0.9341381,0.99989855,-0.010679614,0.0094220685,-0.0036846641,0.92924815,-0.36943784,-0.012091919,0.36937192,0.929203,0.9999201,0.007891013,0.009875382,10.074982,-3.6311035,0.4857483,9.8056555,-0.10473124,0.092398934,0.16511536,0.26400757,0.02330017,-32.339478,9.239197,22.979736,0,0.0,0.0,0.0,0.0
1.377929251,0.014615944,0.9346677,-0.3552219,-0.0060249823,0.3553357,0.93471926,0.999875,-0.011521599,0.010824924,-0.0033460893,0.9293497,-0.3691854,-0.011945419,0.36912397,0.9293034,0.99992305,0.0075196065,0.009866351,10.074982,-3.6311035,0.4857483,9.805425,-0.11298829,0.106156245,0.20129395,0.15116882,0.0034484863,-32.339478,9.239197,22.979736,0,0.0,0.0,0.0,0.0
1.386230032,0.015947482,0.93236536,-0.36116567,-0.0069135334,0.3613058,0.93242174,0.9998489,-0.012372848,0.0122078555,-0.0026381598,0.9295706,-0.36863467,-0.011700895,0.36858204,0.9295216,0.99992806,0.006765582,0.009904429,10.107285,-3.1298065,0.39601135,9.805169,-0.1213362,0.11971818,0.3479004,0.04319763,0.0074310303,-32.398987,9.47876,23.039246,0,0.0,0.0,0.0,0.0
1.394530813,0.016840823,0.9276484,-0.37307468,-0.007064652,0.37322867,0.92771244,0.9998332,-0.012987797,0.012838992,-0.0019035672,0.9296888,-0.36834085,-0.0115058515,0.36829677,0.9296371,0.999932,0.006007702,0.009995785,10.054642,-2.6883392,0.275177,9.805015,-0.12736678,0.12590751,0.43296814,0.076187134,0.010482788,-32.27997,9.779358,22.859192,0,0.0,0.0,0.0,0.0
1.402831595,0.017524973,0.92796886,-0.3722456,-0.0072966632,0.37241158,0.9280391,0.9998198,-0.013547706,0.013297576,-0.0015281711,0.92965156,-0.3684367,-0.011419073,0.36839688,0.92959845,0.9999336,0.005627791,0.010052785,10.054642,-2.6883392,0.275177,9.804883,-0.13285762,0.13040468,0.45005798,0.030670166,0.01399231,-32.27997,9.779358,22.859192,0,0.0,0.0,0.0,0.0
1.411132376,0.018095484,0.92823505,-0.37155387,-0.0075943335,0.3717316,0.9283092,0.9998074,-0.013976499,0.013775989,-7.729293E-4,0.9295918,-0.36858985,-0.011259043,0.3685585,0.9295363,0.9999363,0.0048684347,0.010181444,10.144379,-1.8652039,0.21057129,9.804762,-0.13706264,0.13509631,0.42242432,0.07633972,0.026046753,-32.27997,9.779358,22.859192,0,0.0,0.0,0.0,0.0
1.419433157,0.018832289,0.92122597,-0.38857192,-0.0074646864,0.38875955,0.921309,0.9997948,-0.01444979,0.014197894,-2.5249552E-5,0.92954457,-0.36870977,-0.01111632,0.36868674,0.9294873,0.9999382,0.004122165,0.010323806,10.023529,-2.3066864,0.21894836,9.804638,-0.14170404,0.13923378,0.3439331,0.025177002,0.028503418,-32.339478,10.379028,23.039246,0,0.0,0.0,0.0,0.0
1.427733938,0.019531341,0.92156106,-0.38774166,-0.00763867,0.38794184,0.9216521,0.99978,-0.015039274,0.014616528,3.5342784E-4,0.9293856,-0.36911014,-0.01105136,0.36909124,0.9293274,0.99993885,0.0037507187,0.010401421,10.023529,-2.3066864,0.21894836,9.804493,-0.1474849,0.14333917,0.32911682,0.07695007,0.012771606,-32.339478,10.379028,23.039246,0,0.0,0.0,0.0,0.0
1.43603472,0.020428669,0.916799,-0.3988262,-0.007606847,0.39904046,0.9169019,0.9997624,-0.015697272,0.015125814,0.0011154322,0.9290893,-0.36985376,-0.010931043,0.3698432,0.9290299,0.9999396,0.0030066173,0.01056845,10.072586,-2.4682007,-0.28833008,9.80432,-0.15393765,0.14833356,0.33843994,0.073898315,0.009567261,-32.159424,10.739136,23.039246,0,0.0,0.0,0.0,0.0
1.444335501,0.02113238,0.91714054,-0.39800313,-0.007843064,0.39823186,0.91725117,0.9997459,-0.016262138,0.015608781,0.0015035977,0.9288557,-0.37043864,-0.010876467,0.37043232,0.9287958,0.99993974,0.0026325283,0.01065965,10.072586,-2.4682007,-0.28833008,9.804158,-0.1594771,0.15306985,0.34713745,0.034347534,0.02696228,-32.159424,10.739136,23.039246,0,0.0,0.0,0.0,0.0
1.452636282,0.021940796,0.9161309,-0.4002783,-0.007918661,0.40052137,0.91625315,0.9997279,-0.016933655,0.016042288,0.0022841454,0.9284141,-0.37154004,-0.010778831,0.3715423,0.9283534,0.99993926,0.0018842735,0.010855875,10.186249,-2.7337952,-0.21534729,9.803982,-0.16606243,0.15732111,0.2753601,0.10122681,0.01979065,-32.03888,10.85968,23.098755,0,0.0,0.0,0.0,0.0
1.460937063,0.022979368,0.9166312,-0.39907297,-0.0083344905,0.39934012,0.916765,0.99970114,-0.017740607,0.016816236,0.0030656161,0.92795134,-0.37268877,-0.010688835,0.37269965,0.9278905,0.9999382,0.001139053,0.011061273,10.054642,-3.2159576,-0.35055542,9.8037195,-0.17397593,0.16491094,0.26834106,0.15559387,0.009414673,-32.03888,10.85968,23.098755,0,0.0,0.0,0.0,0.0
1.469237845,0.024063125,0.91286385,-0.40755436,-0.008742746,0.40784895,0.9130075,0.9996722,-0.018406669,0.017795056,0.0034650853,0.9277357,-0.3732217,-0.010652957,0.37323698,0.9276749,0.99993724,7.614417E-4,0.011176425,10.054642,-3.2159576,-0.35055542,9.803435,-0.18050776,0.1745099,0.30255127,0.078933716,0.0084991455,-32.099915,11.158752,23.098755,0,0.0,0.0,0.0,0.0
1.477538626,0.024773229,0.91321033,-0.40673488,-0.0090469755,0.4070479,0.9133621,0.99965215,-0.018947206,0.01834568,0.0042830384,0.927178,-0.3745965,-0.0106066745,0.374621,0.92711735,0.99993455,2.344139E-6,0.011438792,10.091736,-2.7900238,-0.25004578,9.803239,-0.18580863,0.17990966,0.32331848,-0.0126953125,-0.0050964355,-32.099915,11.158752,23.098755,0,0.0,0.0,0.0,0.0
1.485839407,0.025226956,0.9076509,-0.41896725,-0.008482626,0.41927993,0.90781754,0.9996458,-0.019347528,0.018276418,0.00509606,0.92665297,-0.37588325,-0.010572091,0.37591702,0.92659295,0.9999311,-7.481022E-4,0.011712356,10.003189,-2.5363922,-0.050247192,9.803177,-0.18973444,0.17923044,0.26589966,-0.05758667,-0.006164551,-32.159424,11.279297,22.499084,0,0.0,0.0,0.0,0.0
1.494140188,0.02545185,0.9077662,-0.41870362,-0.00799311,0.41901067,0.9079461,0.99964404,-0.019762164,0.017920472,0.0055001345,0.92629623,-0.3767559,-0.010548776,0.37679437,0.92623687,0.9999292,-0.0011201143,0.011843711,10.003189,-2.5363922,-0.050247192,9.80316,-0.19380063,0.1757398,0.24130249,-0.022476196,0.017807007,-32.159424,11.279297,22.499084,0,0.0,0.0,0.0,0.0
1.50244097,0.025927277,0.9034358,-0.42793852,-0.0073181093,0.4282425,0.9036342,0.99963707,-0.020297075,0.017714605,0.0062938677,0.9256056,-0.37843713,-0.010482293,0.3784849,0.92554814,0.99992526,-0.001858389,0.012084602,10.04985,-2.4095764,-0.057434082,9.803091,-0.19904631,0.17372094,0.20083618,-0.0072021484,-0.0076904297,-32.339478,11.698914,22.738647,0,0.0,0.0,0.0,0.0
1.510741751,0.026240597,0.90359825,-0.4275765,-0.006975404,0.42787892,0.9038092,0.99963135,-0.020733971,0.01753076,0.007076575,0.9247853,-0.38042355,-0.010397123,0.38048056,0.9247305,0.9999209,-0.002588614,0.012307606,10.003189,-2.3653107,0.26919556,9.803035,-0.2033308,0.17191803,0.1906128,-0.18037415,-0.030136108,-32.339478,11.698914,22.738647,0,0.0,0.0,0.0,0.0
1.519042532,0.026011633,0.9039411,-0.42686507,-0.006229141,0.4271478,0.90416026,0.9996422,-0.020859685,0.01674159,0.00746271,0.92438877,-0.38137883,-0.010347976,0.3814404,0.92433554,0.99991864,-0.002951549,0.012412132,10.003189,-2.3653107,0.26919556,9.803142,-0.20456363,0.16417892,0.26223755,-0.14250183,-0.027694702,-32.218933,11.579895,22.558594,0,0.0,0.0,0.0,0.0
1.527343313,0.025899567,0.9038829,-0.42699528,-0.0052380105,0.42725542,0.9041159,0.9996509,-0.021179602,0.015800277,0.008204006,0.92362833,-0.38320166,-0.010219894,0.383272,0.923579,0.99991417,-0.0036607662,0.012583749,10.134796,-3.3846436,0.15194702,9.803226,-0.20770095,0.15494779,0.27841187,-0.011169434,-0.07229614,-32.218933,11.579895,22.558594,0,0.0,0.0,0.0,0.0
1.535644095,0.025762033,0.9076573,-0.4189206,-0.00515694,0.41917476,0.90789086,0.99965477,-0.021228768,0.015479529,0.008912869,0.9228921,-0.38495547,-0.010054803,0.385034,0.9228476,0.99990976,-0.0043545677,0.012711257,9.888336,-2.752945,0.275177,9.803265,-0.2081831,0.15180233,0.30056763,-0.080963135,-0.01335144,-32.159424,11.51886,22.979736,0,0.0,0.0,0.0,0.0
1.543944876,0.025769692,0.9076612,-0.41891184,-0.0047714356,0.41915792,0.9079008,0.9996565,-0.021397512,0.015132416,0.009253129,0.9226025,-0.38564098,-0.009969099,0.3857234,0.92256063,0.9999075,-0.0046920795,0.012766665,9.888336,-2.752945,0.275177,9.803282,-0.20983793,0.14839831,0.28193665,-0.080963135,-0.01335144,-32.159424,11.51886,22.979736,0,0.0,0.0,0.0,0.0
1.552245657,0.02569166,0.9058558,-0.42280647,-0.0040845983,0.42303768,0.90610296,0.99966156,-0.021552293,0.014568596,0.0099139,0.9220391,-0.38696995,-0.00978622,0.3870599,0.9220026,0.99990296,-0.005353669,0.01286055,10.061813,-1.7874451,0.08255005,9.803331,-0.21135579,0.14286913,0.19091797,-0.07728577,-0.023422241,-32.099915,11.579895,22.859192,0,0.0,0.0,0.0,0.0
1.560546438,0.02564615,0.9058326,-0.42285863,-0.003774832,0.42308247,0.90608317,0.9996639,-0.021641329,0.014269805,0.010546556,0.9214297,-0.3884019,-0.00958389,0.38849875,0.92139935,0.99989843,-0.0059951893,0.0129282065,9.998413,-1.9728851,0.09211731,9.803354,-0.21222894,0.13993898,-0.036468506,0.037704468,0.0059051514,-32.099915,11.579895,22.859192,0,0.0,0.0,0.0,0.0
1.56884722,0.02589666,0.90248835,-0.4299351,-0.0033925194,0.43015617,0.90274805,0.9996588,-0.021919599,0.014201318,0.0108525595,0.92113286,-0.38909698,-0.009478911,0.38919717,0.92110574,0.99989617,-0.006308139,0.012955121,9.998413,-1.9728851,0.09211731,9.803305,-0.21495783,0.13926736,-0.15481567,-0.08065796,-0.01121521,-32.099915,11.639404,22.499084,0,0.0,0.0,0.0,0.0
1.577148001,0.0260073,0.9025461,-0.42980713,-0.0032124445,0.4300258,0.9028109,0.99965656,-0.022098944,0.014083189,0.011457855,0.9204339,-0.39073032,-0.009263567,0.39083692,0.9204133,0.99989146,-0.006926406,0.013004653,9.96611,-2.219345,0.33380127,9.803282,-0.2167166,0.1381089,-0.31822205,-0.073776245,-0.0690918,-32.099915,11.639404,22.499084,0,0.0,0.0,0.0,0.0
1.585448782,0.025964914,0.9007214,-0.43362066,-0.0030317921,0.43383586,0.90098685,0.9996583,-0.022079397,0.01399531,0.01204312,0.9197617,-0.3922925,-0.009047698,0.39240512,0.91974807,0.9998866,-0.0075272913,0.013047508,10.158722,-2.1296082,0.47737122,9.803299,-0.21652493,0.13724712,-0.38861084,0.0790863,-0.042663574,-32.339478,11.878967,22.738647,0,0.0,0.0,0.0,0.0
1.593749563,0.026180306,0.9008342,-0.43337327,-0.003313439,0.43359768,0.90110046,0.99965173,-0.02215513,0.014336579,0.0123264585,0.9194013,-0.3931275,-0.0089397915,0.39324299,0.9193911,0.99988407,-0.007818359,0.01306655,10.158722,-2.1296082,0.47737122,9.803235,-0.21726762,0.14059381,-0.43702698,0.09390259,-0.032592773,-32.339478,11.878967,22.738647,0,0.0,0.0,0.0,0.0
1.602050345,0.02675806,0.89978117,-0.43552014,-0.0038360609,0.43576536,0.9000521,0.99963456,-0.022412965,0.0151118515,0.012883627,0.9187038,-0.394737,-0.008740122,0.39485815,0.9187005,0.9998788,-0.008386144,0.01311679,10.009171,-2.732605,0.61135864,9.803066,-0.2197961,0.14819664,-0.39335632,0.09527588,-0.06602478,-32.27997,11.878967,22.558594,0,0.0,0.0,0.0,0.0
1.610351126,0.027015042,0.8999168,-0.43522385,-0.0045465315,0.43548888,0.9001826,0.9996247,-0.022339713,0.015856251,0.013440468,0.917993,-0.39636862,-0.008569417,0.39649564,0.9179966,0.9998729,-0.008941657,0.013195752,9.8524475,-2.6452637,0.8949127,9.80297,-0.21907775,0.1554967,-0.31469727,0.017242432,-0.049224854,-32.27997,11.878967,22.558594,0,0.0,0.0,0.0,0.0
1.618651907,0.02705258,0.9040093,-0.4266562,-0.00524492,0.4269349,0.90426725,0.99962026,-0.022224983,0.016291145,0.0137149,0.91764957,-0.39715388,-0.008500295,0.39728385,0.91765636,0.99986976,-0.009209641,0.013249,9.8524475,-2.6452637,0.8949127,9.802926,-0.21795264,0.15976156,-0.25056458,0.03387451,8.544922E-4,-32.458496,11.759949,22.859192,0,0.0,0.0,0.0,0.0
1.626952688,0.027409345,0.90419286,-0.42624408,-0.0052413344,0.42652842,0.904459,0.99961054,-0.02255654,0.01643004,0.0142466,0.9171308,-0.3983317,-0.008387712,0.39846775,0.91714394,0.9998633,-0.009725093,0.013369439,10.07019,-2.0733795,0.7130585,9.802831,-0.22120409,0.16112366,-0.31072998,0.04472351,0.039031982,-32.458496,11.759949,22.859192,0,0.0,0.0,0.0,0.0
1.63525347,0.027901737,0.9053878,-0.42366776,-0.00529892,0.42396075,0.905665,0.9995966,-0.023024647,0.01662682,0.014771121,0.91663784,-0.3994458,-0.008278461,0.3995878,0.91665757,0.99985665,-0.010233263,0.01349071,10.425522,-1.0695953,0.604187,9.802694,-0.22579466,0.16305341,-0.32188416,0.041366577,0.033691406,-32.51953,11.698914,22.859192,0,0.0,0.0,0.0,0.0
1.643554251,0.028498221,0.90569293,-0.42297536,-0.0053354697,0.42327905,0.9059837,0.9995796,-0.023562148,0.016894996,0.015035147,0.9164207,-0.39993382,-0.0082257455,0.40007883,0.9164438,0.99985313,-0.010489114,0.013553487,10.425522,-1.0695953,0.604187,9.802527,-0.23106575,0.16568331,-0.38845825,-0.061401367,0.051101685,-32.51953,11.698914,22.859192,0,0.0,0.0,0.0,0.0
1.651855032,0.029175771,0.90103775,-0.43275812,-0.004631846,0.43305963,0.90135324,0.9995635,-0.024293212,0.01680832,0.015570845,0.91601014,-0.40085286,-0.008124342,0.40100414,0.9160403,0.9998458,-0.0110068545,0.013685953,9.893127,-1.5960083,0.77049255,9.80237,-0.23823503,0.16483332,-0.46542358,-0.03956604,0.059188843,-32.398987,11.999512,22.799683,0,0.0,0.0,0.0,0.0
1.660155813,0.029487353,0.9011994,-0.43240044,-0.0041221417,0.43269452,0.9015312,0.99955666,-0.024801353,0.016473887,0.016113661,0.9154418,-0.40212765,-0.0080041215,0.40228507,0.9154795,0.9998381,-0.011533047,0.0138095915,10.119247,-0.049057007,0.14476013,9.802302,-0.2432182,0.16155365,-0.47886658,0.060913086,0.0692749,-32.398987,11.999512,22.799683,0,0.0,0.0,0.0,0.0
1.668456595,0.030027974,0.9020014,-0.43068767,-0.0039864266,0.4309866,0.9023495,0.9995411,-0.025378823,0.016537417,0.016383417,0.9151685,-0.4027383,-0.007935247,0.40289867,0.91521025,0.9998343,-0.0117984405,0.013862945,10.119247,-0.049057007,0.14476013,9.80215,-0.24888124,0.16217665,-0.5205536,0.046554565,0.08836365,-32.339478,11.819458,22.499084,0,0.0,0.0,0.0,0.0
1.676757376,0.030548869,0.902273,-0.43008164,-0.004090597,0.43039173,0.902633,0.99952495,-0.025815126,0.016838815,0.016927984,0.9146669,-0.40385386,-0.0077949744,0.4040202,0.9147169,0.9998263,-0.012336281,0.013969052,10.080963,1.0624084,-0.32183838,9.801991,-0.2531599,0.16513237,-0.68045044,0.15696716,0.04055786,-32.339478,11.819458,22.499084,0,0.0,0.0,0.0,0.0
1.685058157,0.03142384,0.9022948,-0.42997274,-0.004618643,0.43031168,0.9026685,0.99949545,-0.026379421,0.017689424,0.01747112,0.9141938,-0.40490043,-0.007663392,0.40507278,0.91425234,0.99981797,-0.012870102,0.014082901,10.124039,-0.037094116,0.20100403,9.8017025,-0.25869375,0.173474,-0.83987427,0.22216797,0.06452942,-32.339478,11.819458,22.439575,0,0.0,0.0,0.0,0.0
1.693358938,0.032468442,0.90283793,-0.42875332,-0.005673467,0.42913905,0.9032206,0.99945664,-0.02689365,0.0190557,0.017751649,0.91396433,-0.405406,-0.0076100733,0.40558165,0.9140271,0.99981344,-0.01314032,0.014155079,10.124039,-0.037094116,0.20100403,9.801322,-0.2637366,0.18687259,-0.8517914,0.18353271,0.07141113,-32.339478,11.819458,22.439575,0,0.0,0.0,0.0,0.0
1.70165972,0.033582598,0.90369123,-0.4268659,-0.0068333494,0.42730445,0.90408206,0.9994126,-0.027444495,0.020525228,0.018336095,0.91353863,-0.40633842,-0.0075479536,0.40652168,0.9136099,0.99980336,-0.013685016,0.014349368,10.433899,0.04547119,0.61135864,9.800889,-0.26913854,0.20128372,-0.8502655,0.13391113,0.016586304,-32.339478,11.999512,22.859192,0,0.0,0.0,0.0,0.0
1.709960501,0.034381237,0.9040943,-0.42594767,-0.007966206,0.426434,0.9044835,0.999377,-0.027704075,0.02186353,0.018940229,0.913161,-0.40715873,-0.007532771,0.40735054,0.91324085,0.9997922,-0.014229957,0.014593946,9.92543,0.64367676,1.1820526,9.800541,-0.27168417,0.214408,-0.7949829,0.17895508,0.034454346,-32.339478,11.999512,22.859192,0,0.0,0.0,0.0,0.0
1.718261282,0.03513335,0.9034092,-0.4273378,-0.009110943,0.42787355,0.90379274,0.9993411,-0.027859814,0.02326354,0.019248793,0.9129852,-0.4075382,-0.007547778,0.40773478,0.9130691,0.9997862,-0.014499472,0.014739413,9.92543,0.64367676,1.1820526,9.800188,-0.27321145,0.2281374,-0.78108215,0.25180054,0.01399231,-32.03888,12.059021,22.859192,0,0.0,0.0,0.0,0.0
1.726562063,0.03564541,0.9036646,-0.4267548,-0.011134975,0.42735878,0.90401345,0.99930245,-0.027472032,0.025295665,0.019876303,0.9126176,-0.4083307,-0.0076229502,0.4085378,0.91270953,0.9997734,-0.015028607,0.01507706,10.25444,2.7804565,1.0612183,9.799809,-0.2694086,0.24806574,-0.94799805,0.30020142,-0.02708435,-32.03888,12.059021,22.859192,0,0.0,0.0,0.0,0.0
1.734862845,0.036173236,0.9039273,-0.42615366,-0.013656897,0.4268401,0.90422404,0.99925226,-0.026888775,0.027785027,0.02019019,0.9124438,-0.40870357,-0.0076995576,0.40891668,0.9125392,0.99976647,-0.015277505,0.01528152,10.104889,1.680954,1.701294,9.799317,-0.2636888,0.27247804,-0.9716644,0.30020142,-0.02708435,-32.03888,12.059021,22.859192,0,0.0,0.0,0.0,0.0
1.743163626,0.03716989,0.9100863,-0.41274866,-0.017368898,0.41356006,0.9103112,0.999158,-0.026667174,0.031179173,0.020818517,0.9121156,-0.40940407,-0.007947257,0.40963086,0.9122167,0.9997516,-0.01573736,0.015776724,9.9062805,0.70947266,1.606781,9.798393,-0.26151565,0.30576324,-0.98327637,0.5300293,-0.03213501,-32.099915,11.759949,23.039246,0,0.0,0.0,0.0,0.0
1.751464407,0.03866122,0.9134721,-0.40506047,-0.021976966,0.40604278,0.9135898,0.9990107,-0.026418494,0.035773452,0.021144848,0.9120763,-0.40947503,-0.008137049,0.40971002,0.9121796,0.9997433,-0.015955979,0.016084865,10.0247345,1.6773682,0.98106384,9.796948,-0.25907692,0.35081774,-0.9646454,0.6500702,-0.04724121,-32.218933,11.579895,23.039246,0,0.0,0.0,0.0,0.0
1.759765188,0.040335942,0.9142602,-0.4031146,-0.026804626,0.40428784,0.91423905,0.9988266,-0.026071355,0.04081373,0.021840993,0.9121337,-0.40931043,-0.008682595,0.40956572,0.91223925,0.99972373,-0.016370336,0.016865011,10.009171,1.2191467,0.79322815,9.795143,-0.25567266,0.40024596,-1.0087738,0.65556335,-0.0385437,-32.218933,11.579895,23.039246,0,0.0,0.0,0.0,0.0
1.76806597,0.04153697,0.9237845,-0.3806531,-0.033006765,0.38204268,0.9235551,0.99859166,-0.025797551,0.046360034,0.022577839,0.9122201,-0.40907773,-0.009396284,0.4093576,0.91232556,0.9997009,-0.016754532,0.01781389,10.009171,1.2191467,0.79322815,9.792839,-0.25298756,0.45463663,-1.0388489,0.7691803,-0.04006958,-32.57904,10.85968,22.799683,0,0.0,0.0,0.0,0.0
1.776366751,0.04353337,0.92468727,-0.37823036,-0.038801745,0.37986857,0.9242262,0.99829817,-0.025558686,0.052416444,0.02297077,0.91246015,-0.40852025,-0.009857259,0.40881497,0.91256404,0.9996875,-0.016935408,0.01838515,10.005585,0.40438843,0.45703125,9.789961,-0.2506451,0.51402974,-1.0307617,0.7901001,-0.048614502,-32.57904,10.85968,22.799683,0,0.0,0.0,0.0,0.0
1.784667532,0.045779835,0.9256916,-0.3754987,-0.04474728,0.37741578,0.92496216,0.9979488,-0.02554207,0.058700215,0.02381983,0.912963,-0.40734664,-0.0109784305,0.40767655,0.9130604,0.99965596,-0.017276919,0.019733688,10.034302,0.20219421,0.39601135,9.786535,-0.25048214,0.5756525,-0.7870331,0.8204956,-0.022506714,-32.57904,10.85968,22.799683,0,0.0,0.0,0.0,0.0
1.792968313,0.04696167,0.934574,-0.35265553,-0.051985506,0.35485324,0.93347555,0.99754304,-0.025504597,0.06524881,0.024731938,0.9134871,-0.40611535,-0.012287682,0.40648672,0.913574,0.9996186,-0.017604243,0.021277843,10.236496,0.879364,-0.33499146,9.782556,-0.25011465,0.63987225,-0.549881,0.7164917,-0.018539429,-32.939148,10.258484,22.799683,0,0.0,0.0,0.0,0.0
1.801269095,0.04922087,0.9323913,-0.35808352,-0.057483144,0.36056828,0.9309598,0.99713236,-0.025238888,0.071344264,0.025219385,0.91393745,-0.4050706,-0.0130562,0.40546605,0.91401684,0.9995967,-0.01776226,0.022158155,10.013962,2.1308136,0.21534729,9.778528,-0.24750896,0.69964826,-0.47703552,0.56103516,0.009414673,-33.17871,10.438538,22.619629,0,0.0,0.0,0.0,0.0
1.809569876,0.050334536,0.9328727,-0.35667214,-0.0610888,0.3593319,0.9312083,0.9968624,-0.02508326,0.075074874,0.026251797,0.91471064,-0.40325582,-0.014769761,0.40370572,0.91476965,0.99954623,-0.018058356,0.024108058,10.205383,1.7539368,0.3625183,9.775881,-0.24598277,0.736233,-0.30844116,0.11390686,0.017654419,-33.17871,10.438538,22.619629,0,0.0,0.0,0.0,0.0
1.817870657,0.049789254,0.9383143,-0.3421802,-0.06314096,0.34487692,0.93652177,0.99676186,-0.025023138,0.07641723,0.02729012,0.915471,-0.40145734,-0.016558874,0.4019658,0.9155049,0.9994904,-0.01833656,0.026128866,10.205383,1.3363953,0.56829834,9.774895,-0.24539317,0.74939704,-0.11114502,-0.0027618408,0.004211426,-33.358765,10.018921,22.619629,0,0.0,0.0,0.0,0.0
1.826171438,0.049624275,0.9382454,-0.34239298,-0.063398026,0.3450831,0.9364284,0.99675375,-0.02476254,0.076607406,0.027795596,0.9159627,-0.4002996,-0.017461862,0.40083814,0.9159825,0.9994611,-0.018470302,0.027135948,9.972092,1.9860382,0.9523468,9.774816,-0.24283756,0.75126207,0.02659607,-0.024917603,0.025604248,-33.358765,10.018921,22.619629,0,0.0,0.0,0.0,0.0
1.83447222,0.049182683,0.93806076,-0.3429624,-0.0626985,0.34560043,0.9362849,0.9968199,-0.02454577,0.07581255,0.028763684,0.9169093,-0.39805785,-0.019228091,0.39865646,0.9168987,0.9994013,-0.018719492,0.029097244,9.972092,1.9860382,0.9523468,9.775464,-0.24071178,0.74346715,0.23886108,-0.23182678,0.061172485,-33.358765,10.018921,22.619629,0,0.0,0.0,0.0,0.0
1.842773001,0.04805333,0.9364826,-0.34740633,-0.060295887,0.34989348,0.93484694,0.99702317,-0.02397534,0.0732796,0.029665647,0.91780496,-0.3959217,-0.020902613,0.39657903,0.91776264,0.99934125,-0.018950224,0.030949295,10.346558,3.549759,0.8925171,9.777457,-0.23511778,0.7186274,0.2703247,-0.5430603,0.013687134,-33.4198,9.838867,21.899414,0,0.0,0.0,0.0,0.0
1.851073782,0.045970164,0.9384012,-0.342476,-0.057073634,0.3447457,0.9369593,0.997311,-0.023525827,0.06940599,0.030071834,0.91820174,-0.39497003,-0.021671338,0.39565477,0.91814363,0.9993128,-0.019050732,0.031796724,9.827316,2.1152496,1.3375854,9.78028,-0.23070955,0.6806402,0.27903748,-0.5522156,0.026046753,-33.47931,9.719849,22.138977,0,0.0,0.0,0.0,0.0
1.859374563,0.04418355,0.9376225,-0.34483588,-0.05319668,0.34689134,0.93639535,0.99760604,-0.023029149,0.0652053,0.030773764,0.91905487,-0.39292642,-0.023037711,0.39366034,0.91896725,0.99926084,-0.019227955,0.03328733,9.930206,2.0697937,1.483551,9.783174,-0.22583881,0.63944554,0.39509583,-0.50930786,0.020706177,-33.47931,9.719849,22.138977,0,0.0,0.0,0.0,0.0
1.867675345,0.042346,0.9372414,-0.34610027,-0.050069567,0.3479665,0.93616897,0.9978476,-0.022313923,0.06166226,0.031361334,0.91983503,-0.39104983,-0.024204547,0.39182648,0.91972065,0.999215,-0.019378487,0.03455239,10.04985,3.1417694,1.6797638,9.7855425,-0.21882483,0.6047002,0.43510437,-0.45661926,0.0048217773,-33.95996,9.599304,21.839905,0,0.0,0.0,0.0,0.0
1.875976126,0.040653948,0.93646723,-0.34839106,-0.04730942,0.35009235,0.9355197,0.9980526,-0.021550389,0.05853636,0.03160434,0.9202034,-0.39016244,-0.024710797,0.3909575,0.9200769,0.9991949,-0.019437198,0.035094917,9.878769,2.9934235,1.6031952,9.787553,-0.21133713,0.5740456,0.45739746,-0.37171936,0.025604248,-33.95996,9.599304,21.839905,0,0.0,0.0,0.0,0.0
1.884276907,0.038876712,0.9356455,-0.3507934,-0.04495864,0.35234112,0.93479115,0.9982321,-0.020570414,0.05576322,0.031999458,0.9208816,-0.3885267,-0.025589172,0.3893532,0.920733,0.99916023,-0.01952088,0.036023688,10.030716,4.1443634,1.2861481,9.789312,-0.20172684,0.5468503,0.43998718,-0.20007324,0.025604248,-33.95996,9.599304,21.839905,0,0.0,0.0,0.0,0.0
1.892577688,0.03791664,0.93173283,-0.36115962,-0.043384418,0.36261365,0.93092924,0.9983387,-0.019629009,0.05417178,0.032151666,0.92119133,-0.38777924,-0.025970604,0.3886188,0.9210325,0.9991455,-0.019541873,0.03641864,10.030716,4.1443634,1.2861481,9.790359,-0.19249482,0.5312437,0.4277649,-0.106155396,0.01612854,-33.898926,9.658813,21.359253,0,0.0,0.0,0.0,0.0
1.90087847,0.03687342,0.9294354,-0.3671381,-0.04235653,0.36851138,0.9286578,0.99842185,-0.018692093,0.052955925,0.032398157,0.9216227,-0.38673246,-0.026653513,0.38759464,0.92144454,0.9991196,-0.019545324,0.037121836,10.100098,3.8847504,0.5635071,9.791174,-0.18330681,0.51932025,0.30239868,-0.20281982,-0.0026550293,-33.53882,9.838867,21.539307,0,0.0,0.0,0.0,0.0
1.909179251,0.035765167,0.9288934,-0.36861622,-0.04144192,0.36991346,0.9281415,0.9985006,-0.017918972,0.051725145,0.03258758,0.9219396,-0.38596043,-0.027271781,0.38684195,0.9217427,0.9990967,-0.019511536,0.037749175,9.871582,2.8343048,1.1174469,9.791945,-0.17572507,0.50725037,0.19473267,-0.10447693,0.008956909,-33.53882,9.838867,21.539307,0,0.0,0.0,0.0,0.0
1.917480032,0.03488087,0.9284587,-0.36979455,-0.040858068,0.3710352,0.92771965,0.99855596,-0.017250577,0.050877046,0.032656178,0.9220817,-0.38561493,-0.027554048,0.38650468,0.9218757,0.99908674,-0.019479685,0.03802885,10.11087,1.9226379,1.0181427,9.792489,-0.16917038,0.4989334,0.21427917,-0.06645203,0.02268982,-33.53882,9.838867,21.539307,0,0.0,0.0,0.0,0.0
1.925780813,0.034831967,0.92504495,-0.37825724,-0.040407598,0.379481,0.92431676,0.998576,-0.016911304,0.050596915,0.032752644,0.9223392,-0.3849903,-0.028079443,0.3858941,0.9221156,0.9990689,-0.019391414,0.038537823,9.991226,1.9034882,0.99780273,9.7926855,-0.16584323,0.49618626,0.34851074,0.021972656,0.033233643,-33.47931,10.018921,21.418762,0,0.0,0.0,0.0,0.0
1.934081595,0.03463693,0.9249464,-0.37851602,-0.040740125,0.3797352,0.9241977,0.9985692,-0.016590577,0.050835297,0.03283827,0.9224474,-0.38472387,-0.028567173,0.38564047,0.92220676,0.9990523,-0.019293202,0.03901548,10.000809,3.616745,0.7573242,9.792619,-0.16269799,0.49852398,0.47862244,0.050369263,0.032470703,-33.47931,10.018921,21.418762,0,0.0,0.0,0.0,0.0
1.942382376,0.033447787,0.93100697,-0.3634657,-0.041825335,0.3646545,0.9302031,0.9985649,-0.015911158,0.05113656,0.03287578,0.9224978,-0.38459975,-0.028810441,0.38552254,0.9222485,0.9990441,-0.019239152,0.039251927,10.000809,3.616745,0.7573242,9.792577,-0.15603517,0.5014784,0.47862244,-0.02720642,0.04147339,-33.47931,9.658813,21.659851,0,0.0,0.0,0.0,0.0
1.950683157,0.033374704,0.9243202,-0.38015562,-0.041127995,0.3813155,0.9235296,0.9985963,-0.015187489,0.050741725,0.032909222,0.9228439,-0.38376582,-0.029324867,0.38470003,0.9225757,0.999028,-0.019107368,0.03972245,10.08934,3.8117676,0.6903229,9.792885,-0.14893839,0.49760634,0.48594666,-0.14524841,0.03994751,-33.4198,10.139465,21.71936,0,0.0,0.0,0.0,0.0
1.958983938,0.032321148,0.9237912,-0.3815298,-0.04047291,0.38262585,0.92301637,0.9986577,-0.014391331,0.04975543,0.032929286,0.9229028,-0.38362232,-0.029792204,0.3845663,0.9226165,0.99901354,-0.018952148,0.040158805,10.009171,4.2029877,0.80877686,9.793488,-0.14113076,0.48793414,0.518631,-0.14570618,0.040100098,-33.4198,10.139465,21.71936,0,0.0,0.0,0.0,0.0
1.96728472,0.031112436,0.9231808,-0.38310468,-0.039355054,0.3841245,0.92244226,0.99874085,-0.0136223165,0.04828288,0.03291755,0.9229209,-0.38358,-0.030005848,0.3845276,0.9226257,0.9990075,-0.018860936,0.040350728,10.000809,4.150345,0.42352295,9.794302,-0.1335893,0.47349334,0.518631,-0.28237915,0.038879395,-33.4198,10.139465,21.71936,0,0.0,0.0,0.0,0.0
1.975585501,0.029583158,0.9247678,-0.37938038,-0.037765395,0.38030958,0.92408794,0.9988487,-0.013009989,0.046174973,0.032846242,0.92293155,-0.3835603,-0.030376205,0.38451192,0.9226202,0.9989987,-0.018653495,0.040664926,10.163513,3.4085693,0.35772705,9.79536,-0.12758441,0.45282182,0.52153015,-0.3381195,0.044677734,-33.358765,10.198975,22.259521,0,0.0,0.0,0.0,0.0
1.983886282,0.02798219,0.9239789,-0.3814182,-0.03561406,0.3822469,0.9233737,0.99897385,-0.012254167,0.043602746,0.03271832,0.92300516,-0.38339388,-0.030669512,0.3843458,0.92267954,0.9989939,-0.018430024,0.040883265,10.018753,3.9720917,0.4175415,9.796587,-0.12017233,0.4275969,0.5835266,-0.3775177,0.01826477,-33.358765,10.198975,22.259521,0,0.0,0.0,0.0,0.0
1.992187063,0.026427723,0.9194623,-0.39228883,-0.032778323,0.39301193,0.91894895,0.9991132,-0.011427161,0.040524844,0.032623813,0.92302513,-0.38335413,-0.030768616,0.38430402,0.9226938,0.998994,-0.018306512,0.040937666,10.018753,3.9720917,0.4175415,9.797954,-0.11206217,0.39741296,0.6595764,-0.45783997,0.030029297,-33.358765,10.379028,22.079468,0,0.0,0.0,0.0,0.0
2.000487845,0.024851283,0.91235065,-0.4086549,-0.029162705,0.4092688,0.9119477,0.9992657,-0.010745589,0.036777463,0.032377735,0.92288643,-0.38370875,-0.030845994,0.38464984,0.92254704,0.9989996,-0.018034106,0.04092144,10.077377,3.1872406,0.1603241,9.799449,-0.105378225,0.3606637,0.6574402,-0.44348145,0.03643799,-32.939148,10.679626,21.839905,0,0.0,0.0,0.0,0.0
2.008788626,0.02280812,0.91125864,-0.4112024,-0.025936408,0.41171032,0.91094553,0.99940336,-0.010111845,0.033025116,0.032081082,0.92248267,-0.38470307,-0.030771159,0.3856303,0.9221401,0.99901146,-0.017745497,0.040757302,10.077377,3.1872406,0.1603241,9.800799,-0.09916333,0.32386574,0.68203735,-0.42807007,0.022842407,-32.939148,10.679626,21.839905,0,0.0,0.0,0.0,0.0
2.017089407,0.020882536,0.9102198,-0.41359863,-0.023046333,0.41401717,0.9099773,0.9995163,-0.0094707,0.029622957,0.0318982,0.92226607,-0.3852374,-0.030669086,0.3861552,0.9219239,0.99902046,-0.017592832,0.04060271,9.958923,4.718643,-0.38404846,9.801907,-0.092875846,0.29050198,0.6469116,-0.37965393,0.019332886,-32.939148,10.679626,21.839905,0,0.0,0.0,0.0,0.0
2.025390188,0.018843723,0.9068644,-0.42100102,-0.020275827,0.42133582,0.9066781,0.99961686,-0.008549046,0.026326962,0.031470615,0.92180634,-0.38637114,-0.030354131,0.38726577,0.9214683,0.9990437,-0.017271213,0.040168125,10.144379,4.3980103,-0.85783386,9.802893,-0.0838375,0.2581793,0.43998718,-0.31155396,0.018875122,-32.818604,11.099243,22.439575,0,0.0,0.0,0.0,0.0
2.03369097,0.017055556,0.90590334,-0.42314088,-0.018256428,0.42341405,0.9057523,0.99968785,-0.0077230693,0.023760121,0.030984621,0.92124027,-0.38775817,-0.029936664,0.38862574,0.9209093,0.9990715,-0.016925838,0.039620277,10.138382,4.0618134,-0.76690674,9.803589,-0.07573744,0.2330072,0.24742126,-0.12600708,0.0071258545,-32.818604,11.099243,22.439575,0,0.0,0.0,0.0,0.0
2.041991751,0.016038029,0.8993192,-0.4369986,-0.01700657,0.43723693,0.89918554,0.9997267,-0.006989316,0.022306753,0.030714668,0.9209473,-0.38847485,-0.029692443,0.38932738,0.9206207,0.9990871,-0.016741795,0.039303236,9.993622,3.6466675,-0.44386292,9.80397,-0.06854178,0.21875453,0.1683197,-0.045532227,0.008041382,-32.57904,11.338806,22.138977,0,0.0,0.0,0.0,0.0
2.050292532,0.015143695,0.8987987,-0.43809992,-0.01684325,0.4383173,0.8986625,0.99974346,-0.0062300446,0.021776436,0.030158307,0.9201407,-0.39042497,-0.029159792,0.39124632,0.91982394,0.99911976,-0.016355623,0.038630437,10.106079,3.8105774,-0.45942688,9.804134,-0.061095867,0.21355389,0.10432434,0.052825928,0.002380371,-32.63855,11.399841,22.259521,0,0.0,0.0,0.0,0.0
2.058593313,0.014535432,0.89845854,-0.43881756,-0.017402455,0.43902475,0.8983063,0.99974287,-0.0054207672,0.022016801,0.029870266,0.9197387,-0.39139295,-0.028897792,0.39219862,0.9194265,0.999136,-0.016153125,0.038293496,10.106079,3.8105774,-0.45942688,9.804129,-0.05315957,0.21591106,0.074401855,0.1368103,-0.0012817383,-32.63855,11.399841,22.259521,0,0.0,0.0,0.0,0.0
2.066894095,0.014326382,0.8983415,-0.43906415,-0.018565364,0.4392725,0.898162,0.999725,-0.0047160266,0.022971222,0.0292851,0.91894406,-0.3932991,-0.028411694,0.39407414,0.91863936,0.9991672,-0.015728151,0.03764926,10.040283,3.3379822,-0.2979126,9.803953,-0.046248425,0.22527073,0.063705444,0.19010925,0.0075683594,-32.63855,11.399841,22.259521,0,0.0,0.0,0.0,0.0
2.075194876,0.014776541,0.8879288,-0.4597434,-0.019632015,0.4599626,0.8877211,0.99969804,-0.0040917587,0.02422849,0.028710987,0.9181732,-0.39513743,-0.0279927,0.3958839,0.9178738,0.9991957,-0.015292099,0.037068363,10.001999,3.1322021,-0.088531494,9.80369,-0.04012645,0.23760036,0.11502075,0.14916992,0.010025024,-32.27997,11.938477,22.019958,0,0.0,0.0,0.0,0.0
2.083495657,0.014772758,0.8879267,-0.45974782,-0.02090031,0.45997176,0.8876877,0.9996725,-0.0035047233,0.02535299,0.028443323,0.9176143,-0.39645308,-0.027805127,0.3971864,0.9173167,0.99920857,-0.015068106,0.03681168,10.001999,3.1322021,-0.088531494,9.803438,-0.034369595,0.2486279,0.11502075,0.10366821,0.014755249,-32.27997,11.938477,22.019958,0,0.0,0.0,0.0,0.0
2.091796438,0.014812744,0.88599324,-0.46346143,-0.021771511,0.46368816,0.88573086,0.9996532,-0.003029848,0.026157908,0.027919069,0.91652435,-0.39900327,-0.027493555,0.39971194,0.9162284,0.999232,-0.014610224,0.036358096,10.012772,2.7361908,-0.11605835,9.803249,-0.029712658,0.25652146,0.12768555,0.08091736,0.01109314,-32.03888,12.179565,22.259521,0,0.0,0.0,0.0,0.0
2.10009722,0.014824338,0.8775787,-0.47920358,-0.022234289,0.47942707,0.87730014,0.9996429,-0.002350644,0.026619522,0.027414247,0.9154044,-0.40160096,-0.027229385,0.4022867,0.91510874,0.9992532,-0.01415167,0.03595428,10.04985,3.6011963,-0.20936584,9.803148,-0.023051944,0.26104835,0.12173462,-0.0015411377,0.0060424805,-31.799316,12.658691,22.198486,0,0.0,0.0,0.0,0.0
2.108398001,0.014252505,0.87724453,-0.47983214,-0.02264536,0.48004097,0.87695366,0.99964195,-0.0016328146,0.026707305,0.027169935,0.9147146,-0.40318617,-0.027106669,0.40386093,0.91441876,0.9992633,-0.013915664,0.03576774,10.04985,3.6011963,-0.20936584,9.80314,-0.016012443,0.26190922,0.10203552,-0.008270264,0.0098724365,-31.799316,12.658691,22.198486,0,0.0,0.0,0.0,0.0
2.116698782,0.013516115,0.8768132,-0.48064107,-0.022833617,0.48083025,0.8765162,0.99964786,-8.723201E-4,0.026519777,0.026671074,0.91335726,-0.40628457,-0.026885118,0.4069375,0.91306025,0.99928266,-0.013429291,0.03540918,10.095322,3.9110718,-0.29910278,9.803197,-0.008554538,0.26007017,-0.010665894,-0.016815186,0.0049743652,-31.799316,12.658691,22.198486,0,0.0,0.0,0.0,0.0
2.124999563,0.012856419,0.87656426,-0.48111328,-0.02299636,0.48128495,0.87626255,0.9996528,-2.0174329E-4,0.026345383,0.02616126,0.9120295,-0.4092893,-0.026680317,0.4099206,0.9117309,0.9993016,-0.012932062,0.035057276,10.08934,3.5162506,-0.03111267,9.803246,-0.0019784258,0.25835997,-0.12535095,-0.017425537,-0.0028076172,-31.739807,12.419128,21.77887,0,0.0,0.0,0.0,0.0
2.133300345,0.0121509945,0.8761417,-0.48190042,-0.023130745,0.4820533,0.87583643,0.9996586,5.044311E-4,0.026123237,0.025900222,0.9113778,-0.410755,-0.026584357,0.4113755,0.9110782,0.99931103,-0.012677469,0.03488311,10.08934,3.5162506,-0.03111267,9.803302,0.004946779,0.25618145,-0.17985535,-0.034835815,-0.0079956055,-31.739807,12.419128,21.77887,0,0.0,0.0,0.0,0.0
2.141601126,0.011387481,0.8753793,-0.48330265,-0.023094682,0.48343527,0.87507534,0.99966836,0.0011968164,0.025721716,0.025364928,0.91009235,-0.41362843,-0.026403595,0.4142271,0.9097905,0.9993295,-0.012155493,0.03453655,10.04866,3.2183533,0.19502258,9.803398,0.01173676,0.25224388,-0.3116455,-0.078048706,-0.010437012,-31.97937,12.539673,21.958923,0,0.0,0.0,0.0,0.0
2.149901907,0.010646222,0.87437946,-0.4851259,-0.022770146,0.4852396,0.87408465,0.99968404,0.0017406868,0.025075719,0.02482002,0.9088234,-0.4164421,-0.02622861,0.41701904,0.9085192,0.9993478,-0.011626768,0.034187596,10.037888,2.548355,0.14356995,9.803552,0.017070306,0.2459088,-0.3912201,-0.07316589,-0.005554199,-31.97937,12.539673,21.899414,0,0.0,0.0,0.0,0.0
2.158202688,0.009936028,0.8739488,-0.48591638,-0.02248023,0.4860128,0.87366253,0.9996979,0.0022427766,0.024475608,0.024541218,0.90818757,-0.4178434,-0.026136845,0.41840932,0.90788245,0.99935716,-0.011359432,0.03400543,10.037888,2.548355,0.14356995,9.803687,0.021994123,0.2400237,-0.43519592,-0.034072876,-0.0064697266,-31.97937,12.539673,21.899414,0,0.0,0.0,0.0,0.0
2.16650347,0.0093695205,0.8736044,-0.4865465,-0.022377085,0.48662916,0.87332195,0.9997057,0.0027048835,0.024108203,0.023972485,0.9069329,-0.4205925,-0.025947385,0.42113614,0.9066262,0.9993759,-0.010820808,0.033628218,10.034302,2.4502563,-0.24287415,9.803763,0.026525844,0.23642069,-0.47917175,0.06549072,-0.004486084,-31.97937,12.539673,21.899414,0,0.0,0.0,0.0,0.0
2.174804251,0.009108394,0.87266934,-0.48822647,-0.022756087,0.48830116,0.87237823,0.9996995,0.0031641596,0.024306184,0.023403322,0.90570843,-0.42325482,-0.02576264,0.42377657,0.90540034,0.9993941,-0.010285213,0.03325122,10.071396,2.3066864,-0.1651001,9.803703,0.031029806,0.23836224,-0.6184387,0.10656738,-0.014419556,-31.97937,12.719727,22.138977,0,0.0,0.0,0.0,0.0
2.183105032,0.009052474,0.8726356,-0.48828784,-0.023568243,0.48835838,0.87232476,0.99968123,0.0036113893,0.024987342,0.02312136,0.90509534,-0.42457962,-0.025681062,0.4250907,0.9047864,0.9994027,-0.0100162355,0.033072483,10.071396,2.3066864,-0.1651001,9.803524,0.03541563,0.24504212,-0.6463928,0.10656738,-0.014724731,-31.97937,12.719727,22.138977,0,0.0,0.0,0.0,0.0
2.191405813,0.009333935,0.872146,-0.4891568,-0.02462696,0.48923022,0.871807,0.9996531,0.0039090537,0.026044743,0.02256925,0.90389913,-0.42714977,-0.025557056,0.42764065,0.90358746,0.99941856,-0.009476602,0.03275253,10.059433,1.5553284,0.32661438,9.803248,0.038334724,0.25541168,-0.65097046,0.16474915,-0.009979248,-31.799316,12.95929,22.499084,0,0.0,0.0,0.0,0.0
2.199706595,0.009722415,0.8723754,-0.48873988,-0.025909817,0.48881868,0.87200063,0.99961704,0.0041852067,0.027355585,0.022305401,0.9033078,-0.42841285,-0.025519192,0.42889428,0.9029942,0.9994255,-0.009208898,0.032618344,10.059433,1.5553284,0.32661438,9.802895,0.04104286,0.26826665,-0.62516785,0.16749573,-0.011520386,-31.799316,12.95929,22.499084,0,0.0,0.0,0.0,0.0
2.208007376,0.010130663,0.87468606,-0.484584,-0.027436903,0.48466957,0.8742669,0.9995722,0.0044385795,0.0289087,0.02180534,0.90216327,-0.4308434,-0.025500031,0.43130752,0.90184456,0.999437,-0.008678508,0.032409996,10.047455,1.4775696,0.45344543,9.802455,0.0435276,0.2834975,-0.4968872,0.21408081,-0.012741089,-31.799316,12.89978,22.619629,0,0.0,0.0,0.0,0.0
2.216308157,0.010740544,0.87504125,-0.48392916,-0.02915356,0.48402536,0.87456816,0.99951726,0.00471492,0.030709263,0.021337973,0.9011394,-0.43300414,-0.025548164,0.43345279,0.9008141,0.99944586,-0.008159085,0.03227146,10.0785675,1.4907227,0.38046265,9.801916,0.046237573,0.301155,-0.3829651,0.25012207,-0.01121521,-31.799316,12.89978,22.619629,0,0.0,0.0,0.0,0.0
2.224608938,0.011308093,0.8779532,-0.47861314,-0.03118882,0.47872052,0.8774132,0.9994495,0.005005507,0.032795735,0.021121651,0.9006472,-0.43403742,-0.025607442,0.43447918,0.9003178,0.9994489,-0.007901612,0.03224019,10.0785675,1.4907227,0.38046265,9.801251,0.049087256,0.3216163,-0.33883667,0.27973938,-0.009979248,-31.799316,12.838745,22.799683,0,0.0,0.0,0.0,0.0
2.23290972,0.012250021,0.8784908,-0.47760218,-0.03349366,0.4777305,0.8778678,0.9993639,0.005242747,0.03527608,0.020722035,0.89979345,-0.43582386,-0.025808608,0.4362536,0.8994536,0.9994521,-0.0073905005,0.032262478,10.053452,1.2131653,0.39482117,9.800411,0.05141378,0.34594017,-0.24110413,0.36663818,-0.010284424,-31.799316,12.838745,22.799683,0,0.0,0.0,0.0,0.0
2.241210501,0.013088119,0.8836544,-0.46795678,-0.036424726,0.4681076,0.8829205,0.9992507,0.0054894285,0.03831352,0.020372406,0.89898944,-0.43749616,-0.026096601,0.43791604,0.898637,0.9994518,-0.0068902336,0.032381974,10.046265,1.1856384,0.32781982,9.799302,0.053832904,0.37572727,-0.12319946,0.4463501,-0.0105896,-31.91986,12.419128,22.558594,0,0.0,0.0,0.0,0.0
2.249511282,0.014449996,0.88442683,-0.466455,-0.03973989,0.4666431,0.8835523,0.9991055,0.005769544,0.041890018,0.020219699,0.89869416,-0.43810946,-0.02629798,0.4385255,0.89833385,0.9994496,-0.0066426448,0.0325007,10.046265,1.1856384,0.32781982,9.797878,0.0565799,0.41080076,-0.0879364,0.4756775,-0.014877319,-31.91986,12.419128,22.558594,0,0.0,0.0,0.0,0.0
2.257812063,0.015940309,0.8857035,-0.46397746,-0.043431032,0.4642118,0.8846587,0.99892926,0.0060492884,0.0458667,0.019974714,0.89814866,-0.43923792,-0.02682271,0.43964887,0.8977691,0.9994406,-0.00615113,0.032872643,10.0785675,1.0420685,0.4510498,9.796149,0.05932325,0.44979867,-0.033569336,0.5017853,-0.0105896,-31.97937,12.298584,22.37854,0,0.0,0.0,0.0,0.0
2.266112845,0.0176468,0.8866684,-0.4620691,-0.04721583,0.46236452,0.88543206,0.9987289,0.006191931,0.050024033,0.019797146,0.8976713,-0.44022086,-0.027475657,0.44062933,0.89726853,0.9994264,-0.005668,0.03338731,10.040283,0.33738708,0.7429657,9.794184,0.060722098,0.49056816,-0.007598877,0.44863892,-0.013809204,-31.97937,12.298584,22.37854,0,0.0,0.0,0.0,0.0
2.274413626,0.019285,0.886952,-0.46145865,-0.05074093,0.46181798,0.885522,0.9985256,0.0063375463,0.053910937,0.019744545,0.89745766,-0.4406585,-0.027869353,0.44106722,0.89704126,0.9994166,-0.0054308036,0.033720236,10.040283,0.33738708,0.7429657,9.7921915,0.0621501,0.5286857,0.008880615,0.41810608,-0.0069274902,-31.498718,12.359619,22.439575,0,0.0,0.0,0.0,0.0
2.282714407,0.020684764,0.88772094,-0.45991728,-0.053842448,0.46033722,0.88610995,0.9983352,0.006434097,0.057319023,0.019705746,0.8970532,-0.441483,-0.0287746,0.44189465,0.8966054,0.9993917,-0.004964781,0.034520213,10.035492,0.16390991,0.9403839,9.790324,0.06309694,0.5621076,0.009506226,0.31669617,-0.008148193,-31.498718,12.359619,22.439575,0,0.0,0.0,0.0,0.0
2.291015188,0.021586776,0.89060813,-0.45425904,-0.056575626,0.45472503,0.8888332,0.99816495,0.0065129437,0.060202755,0.019724414,0.89669317,-0.442213,-0.029768081,0.4426297,0.89621025,0.9993622,-0.0045133885,0.035423446,10.013962,0.1268158,1.0648041,9.788654,0.06387016,0.59038734,0.011932373,0.24752808,-0.0066223145,-31.559753,12.11853,22.259521,0,0.0,0.0,0.0,0.0
2.29931597,0.02248349,0.8910977,-0.4532542,-0.058649015,0.45376357,0.88918996,0.99802536,0.006590816,0.062464193,0.019754404,0.89657414,-0.44245288,-0.030304939,0.44287285,0.89607215,0.9993454,-0.0042928634,0.035919312,10.013962,0.1268158,1.0648041,9.787286,0.06463383,0.6125645,0.010421753,0.17008972,-0.0063171387,-31.559753,12.11853,22.259521,0,0.0,0.0,0.0,0.0
2.307616751,0.02338194,0.88864404,-0.45800126,-0.05978868,0.4585495,0.88665545,0.9979372,0.006651567,0.06385262,0.01984909,0.8963619,-0.44287857,-0.0314292,0.44330633,0.89581907,0.9993089,-0.0038618718,0.036971167,10.037888,0.14117432,1.1353912,9.786421,0.06522959,0.62618035,0.014541626,0.0077667236,-6.1035156E-5,-31.498718,12.239075,22.138977,0,0.0,0.0,0.0,0.0
2.315917532,0.023468915,0.88869184,-0.45790395,-0.060034912,0.4584563,0.8866869,0.99792033,0.0066806413,0.06411201,0.019970296,0.89606297,-0.4434775,-0.032555025,0.44391352,0.89547807,0.9992704,-0.0034455403,0.038036436,10.030716,0.13519287,0.9068756,9.786256,0.06551471,0.62872404,-0.0036315918,-0.11897278,-5.187988E-4,-31.498718,12.239075,22.138977,0,0.0,0.0,0.0,0.0
2.324218313,0.023467269,0.8861338,-0.4628349,-0.05929819,0.46338105,0.88417286,0.9979644,0.006696149,0.06342042,0.020031359,0.8959188,-0.44376603,-0.03310599,0.44420606,0.8953128,0.9992511,-0.003243017,0.038558334,10.030716,0.13519287,0.9068756,9.786688,0.06566679,0.62194186,0.0014038086,-0.1586914,9.1552734E-5,-31.91986,11.938477,21.238708,0,0.0,0.0,0.0,0.0
2.332519095,0.02289031,0.8857951,-0.46351168,-0.05812532,0.46402806,0.8839115,0.9980469,0.0067087538,0.06210887,0.02014561,0.8955408,-0.44452316,-0.034146167,0.44497028,0.8948941,0.9992138,-0.0028494257,0.039543483,10.030716,0.11126709,0.8494568,9.787497,0.0657904,0.60907996,0.0014038086,-0.23886108,-0.0018920898,-31.91986,11.938477,21.238708,0,0.0,0.0,0.0,0.0
2.340819876,0.021585016,0.88915795,-0.45709094,-0.056644097,0.45755076,0.8873775,0.99816114,0.0067374445,0.060241792,0.020234428,0.89516413,-0.44527715,-0.035098035,0.44572985,0.8944792,0.999179,-0.0024709215,0.04043759,10.0295105,0.14356995,0.8063812,9.788617,0.06607176,0.5907702,-0.0031738281,-0.30863953,-9.765625E-4,-32.159424,11.698914,21.238708,0,0.0,0.0,0.0,0.0
2.349120657,0.020557625,0.8885529,-0.45831326,-0.054539412,0.4587242,0.8869033,0.99829996,0.0067635146,0.05789144,0.020255728,0.8950463,-0.44551307,-0.03552944,0.44596744,0.8943438,0.9991633,-0.0022867536,0.040833887,10.0295105,0.14356995,0.8063812,9.789978,0.066327415,0.56772107,0.0029296875,-0.3343048,0.0019226074,-32.159424,11.698914,21.238708,0,0.0,0.0,0.0,0.0
2.357421438,0.019558875,0.8861728,-0.4629419,-0.05200782,0.46330538,0.8846712,0.9984551,0.0067734257,0.05514965,0.020257192,0.8947939,-0.44601956,-0.03628268,0.44647515,0.89406013,0.99913627,-0.0019283622,0.041509856,10.045074,0.14715576,0.7429657,9.7915,0.066424616,0.5408333,-0.0039367676,-0.378891,8.544922E-4,-32.099915,11.459351,20.579529,0,0.0,0.0,0.0,0.0
2.36572222,0.01822995,0.88535446,-0.46455908,-0.049266424,0.4648673,0.8840086,0.99861926,0.0067717345,0.052092757,0.020217994,0.8944599,-0.44669086,-0.03690482,0.44714537,0.89369965,0.9991142,-0.0015837702,0.04205026,10.054642,0.14596558,0.6508484,9.79311,0.06640803,0.51085544,-1.2207031E-4,-0.39019775,0.0016174316,-32.099915,11.459351,20.579529,0,0.0,0.0,0.0,0.0
2.374023001,0.016291337,0.88997656,-0.45571527,-0.046625774,0.45595613,0.8887801,0.99877954,0.006768661,0.048923977,0.020173293,0.89428186,-0.44704923,-0.03715116,0.44750193,0.89351094,0.999106,-0.0014166593,0.0422512,10.073776,0.11366272,0.5024872,9.794682,0.06637789,0.47978035,0.0033874512,-0.37553406,0.0031433105,-32.218933,11.219788,20.759583,0,0.0,0.0,0.0,0.0
2.382323782,0.014976883,0.88917506,-0.45732212,-0.043858748,0.45751745,0.88811845,0.9989255,0.006756327,0.045850284,0.020016085,0.8941141,-0.44739178,-0.03752503,0.44783798,0.89332694,0.9990952,-0.0010925191,0.04251562,10.052246,0.15194702,0.31944275,9.796112,0.06625693,0.44963765,-2.746582E-4,-0.31246948,5.493164E-4,-32.218933,11.219788,20.759583,0,0.0,0.0,0.0,0.0
2.390624563,0.013948176,0.8866129,-0.46230188,-0.041310444,0.46246308,0.88567567,0.999049,0.006744335,0.043076888,0.019813892,0.89392155,-0.4477854,-0.037773784,0.44822288,0.89312345,0.9990899,-7.817033E-4,0.04264784,10.042679,0.11843872,0.1878357,9.797324,0.06613933,0.42243996,-0.0025634766,-0.25106812,-0.0040283203,-31.91986,11.639404,21.359253,0,0.0,0.0,0.0,0.0
2.398925345,0.012876553,0.8859744,-0.46355537,-0.03918812,0.4636848,0.8851332,0.9991489,0.006768399,0.040690333,0.019695418,0.8937781,-0.4480768,-0.037842553,0.448509,0.8929768,0.9990896,-6.3118164E-4,0.042656418,10.042679,0.11843872,0.1878357,9.798304,0.06637532,0.39903587,0.0020141602,-0.25106812,-0.0040283203,-31.91986,11.639404,21.359253,0,0.0,0.0,0.0,0.0
2.407226126,0.012111235,0.8834464,-0.46837574,-0.037332796,0.46848303,0.8826834,0.9992295,0.006795388,0.03865543,0.019424487,0.8934749,-0.44869283,-0.037891228,0.44911298,0.8926711,0.99909306,-3.3815653E-4,0.04257865,10.088135,0.07058716,0.13877869,9.799094,0.06664,0.37908027,-0.011886597,-0.16403198,-0.0021972656,-31.799316,11.759949,21.359253,0,0.0,0.0,0.0,0.0
2.415526907,0.011403009,0.8830206,-0.46919566,-0.035979893,0.46928465,0.8823136,0.9992875,0.0068205786,0.037122246,0.019135222,0.89308673,-0.44947737,-0.037862603,0.4498845,0.8922838,0.99909973,-5.5666373E-5,0.042423226,10.054642,0.046661377,0.18902588,9.799663,0.06688703,0.36404487,-0.0289917,-0.08569336,-0.011520386,-31.799316,11.759949,21.359253,0,0.0,0.0,0.0,0.0
2.423827688,0.01082509,0.88425535,-0.46687818,-0.035186287,0.4669532,0.88358164,0.9993221,0.0068628574,0.036168475,0.018981356,0.89289,-0.44987464,-0.03782145,0.45027488,0.8920886,0.9991042,8.1859456E-5,0.042317223,10.054642,0.046661377,0.18902588,9.800003,0.067301646,0.3546916,-0.04135132,-0.06477356,-0.0064697266,-31.858826,11.698914,21.418762,0,0.0,0.0,0.0,0.0
2.43212847,0.010522225,0.88407356,-0.46722937,-0.034651276,0.46729696,0.8834211,0.99934405,0.0068945363,0.03555128,0.018660288,0.8925548,-0.4505527,-0.03771112,0.4509388,0.89175785,0.99911445,3.5038887E-4,0.04207389,10.069,0.04547119,0.3517456,9.800218,0.067612305,0.34863895,-0.06410217,-0.057891846,0.0022277832,-31.858826,11.698914,21.418762,0,0.0,0.0,0.0,0.0
2.440429251,0.010093781,0.8868924,-0.4618659,-0.03427771,0.46192488,0.8862565,0.9993614,0.0068860264,0.035063207,0.018340165,0.89222544,-0.45121765,-0.037584037,0.4515898,0.8914337,0.9991252,6.095389E-4,0.04181567,10.054642,0.0765686,0.279953,9.800387,0.06752885,0.3438526,-0.07434082,-0.02659607,-0.006164551,-32.03888,11.51886,21.418762,0,0.0,0.0,0.0,0.0
2.448730032,0.009954297,0.8868087,-0.46202952,-0.033989236,0.4620855,0.88618386,0.99937266,0.0068826927,0.034741685,0.018175995,0.8921203,-0.4514322,-0.037515946,0.45179734,0.89133143,0.99913067,7.350696E-4,0.0416806,10.054642,0.0765686,0.279953,9.800498,0.06749616,0.34069955,-0.07723999,-0.0078125,-0.0023498535,-32.03888,11.51886,21.418762,0,0.0,0.0,0.0,0.0
2.457030813,0.009481455,0.8920795,-0.45177913,-0.03402755,0.4518256,0.8914571,0.9993759,0.0069206273,0.03463924,0.017851984,0.8919128,-0.45185488,-0.037372526,0.45220634,0.89113003,0.99914193,9.785173E-4,0.041405816,10.092926,0.19502258,0.4019928,9.8005295,0.06786817,0.33969492,-0.05555725,0.0018157959,-0.0037231445,-31.858826,11.459351,21.958923,0,0.0,0.0,0.0,0.0
2.465331595,0.009431724,0.8920509,-0.45183638,-0.034047533,0.451881,0.8914283,0.99937576,0.006976208,0.034634154,0.017520538,0.89192,-0.45185375,-0.037240215,0.45219168,0.891143,0.9991528,0.0012138266,0.04113793,10.101303,0.30029297,0.41156006,9.800528,0.06841323,0.339645,-0.028671265,-0.01727295,-0.0037231445,-31.858826,11.459351,21.958923,0,0.0,0.0,0.0,0.0
2.473632376,0.009388635,0.8915749,-0.45277596,-0.034024104,0.45281857,0.8909533,0.99937695,0.0070404615,0.034586385,0.017358758,0.8919229,-0.45185417,-0.037176397,0.4521855,0.89114875,0.9991579,0.0013290752,0.041007858,10.101303,0.30029297,0.41156006,9.80054,0.069043346,0.3391766,-0.030975342,-0.008422852,-0.008453369,-31.739807,11.698914,22.37854,0,0.0,0.0,0.0,0.0
2.481933157,0.009281631,0.89151484,-0.45289633,-0.033991933,0.45293537,0.890895,0.999379,0.007125863,0.03450829,0.017043257,0.89190966,-0.4518924,-0.037051287,0.45221102,0.8911411,0.99916804,0.0015552479,0.040753547,10.072586,0.32661438,0.29910278,9.80056,0.06988084,0.33841074,-0.0037841797,-1.5258789E-5,-0.0018920898,-31.739807,11.698914,22.37854,0,0.0,0.0,0.0,0.0
2.490233938,0.008826938,0.8965026,-0.4429503,-0.034108512,0.44297972,0.8958825,0.99937916,0.0072004767,0.034488533,0.016735988,0.8918945,-0.4519338,-0.036929764,0.45224008,0.89113134,0.99917775,0.0017758461,0.04050614,10.07019,0.29910278,0.3146515,9.800562,0.07061256,0.33821696,4.8828125E-4,0.007156372,-0.007843018,-31.97937,11.579895,22.799683,0,0.0,0.0,0.0,0.0
2.49853472,0.00878021,0.89647716,-0.44300294,-0.034147076,0.44303045,0.895856,0.99937826,0.0072614504,0.034501977,0.016577257,0.89198786,-0.45175532,-0.036874928,0.45205542,0.8912273,0.99918234,0.0018843396,0.040385827,10.067795,0.19502258,0.3397827,9.800553,0.0712105,0.3383488,-2.746582E-4,-0.006286621,-0.007232666,-31.97937,11.579895,22.799683,0,0.0,0.0,0.0,0.0
2.506835501,0.008878606,0.89416337,-0.44765282,-0.034111355,0.44768074,0.8935425,0.99937856,0.0073366305,0.034475904,0.016420778,0.8920788,-0.45158145,-0.03682185,0.4518755,0.89132077,0.99918693,0.0019918827,0.040268138,10.041473,0.1483612,0.45224,9.800556,0.07194777,0.33809313,6.4086914E-4,-0.02230835,-0.008148193,-31.799316,11.759949,22.859192,0,0.0,0.0,0.0,0.0
2.515136282,0.008744583,0.8940902,-0.44780162,-0.03398573,0.44782576,0.89347464,0.99938405,0.0074058017,0.034302358,0.01612168,0.89216214,-0.4514274,-0.036715865,0.4517098,0.8914091,0.9991957,0.0022035365,0.040038828,10.074982,0.10647583,0.49890137,9.80061,0.07262611,0.33639124,-0.004852295,-0.047821045,-0.0067749023,-31.799316,11.759949,22.859192,0,0.0,0.0,0.0,0.0
2.523437063,0.008453825,0.89490724,-0.4461722,-0.033636887,0.44619012,0.8943058,0.9993983,0.0074475384,0.033873904,0.015829172,0.8922393,-0.45128536,-0.036609024,0.45155644,0.8914912,0.9992043,0.0024095483,0.039811775,10.074982,0.10647583,0.49890137,9.80075,0.073035404,0.33218953,-0.008666992,-0.1073761,-0.0015869141,-31.91986,11.51886,22.499084,0,0.0,0.0,0.0,0.0
2.531737845,0.008097659,0.89470905,-0.44657603,-0.032931242,0.446587,0.8941339,0.99942476,0.0074659106,0.03308019,0.015681379,0.89229316,-0.45118397,-0.036550514,0.45144942,0.89154774,0.99920875,0.002510309,0.039693125,10.060623,0.107681274,0.49771118,9.801009,0.073215574,0.32440585,-0.0056152344,-0.137146,-0.0021972656,-31.91986,11.51886,22.499084,0,0.0,0.0,0.0,0.0
2.540038626,0.00757504,0.8944177,-0.44716835,-0.031882435,0.44716984,0.8938806,0.9994629,0.007485635,0.031903546,0.015380303,0.89238983,-0.45100325,-0.036408637,0.45125732,0.89165086,0.99921864,0.0027065524,0.039431173,10.057037,0.1651001,0.4283142,9.801383,0.073409006,0.31286693,-0.003326416,-0.17671204,0.0020751953,-31.91986,11.51886,22.499084,0,0.0,0.0,0.0,0.0
2.548339407,0.006666154,0.8981961,-0.4395444,-0.03066334,0.4395311,0.8977038,0.99950755,0.0074936673,0.030471675,0.015070485,0.89247084,-0.4508534,-0.03623075,0.4510959,0.8917398,0.99922985,0.002895806,0.03913312,10.069,0.15553284,0.2596283,9.801821,0.07348777,0.29882506,0.0024719238,-0.16616821,-6.713867E-4,-32.159424,11.219788,22.439575,0,0.0,0.0,0.0,0.0
2.556640188,0.0059801205,0.8987647,-0.4383904,-0.02941632,0.43836662,0.89831465,0.9995493,0.007523804,0.029059839,0.014901008,0.89258695,-0.45062903,-0.036121484,0.45086542,0.8918607,0.9992363,0.002987764,0.038959913,10.054642,0.18664551,0.1758728,9.802231,0.073783316,0.28497967,4.8828125E-4,-0.14768982,-0.004486084,-31.858826,11.039734,22.198486,0,0.0,0.0,0.0,0.0
2.56494097,0.00541779,0.8984506,-0.43904123,-0.028374145,0.43900904,0.8980346,0.9995827,0.007592058,0.027871225,0.014544305,0.8928353,-0.45014837,-0.03586077,0.45037213,0.8921205,0.99925095,0.0031673927,0.03856811,10.04985,0.15194702,0.21176147,9.802558,0.07445265,0.27332336,0.010421753,-0.10890198,-0.009216309,-31.858826,11.039734,22.198486,0,0.0,0.0,0.0,0.0
2.573241751,0.004914499,0.89906883,-0.43777972,-0.027586518,0.4377403,0.8986781,0.9996073,0.0076602655,0.026953453,0.014179302,0.89306074,-0.44971257,-0.035568565,0.4499236,0.8923585,0.9992666,0.0033426108,0.038144495,10.04985,0.15194702,0.23808289,9.802799,0.075121544,0.2643231,0.01637268,-0.07713318,-0.0012817383,-31.619263,11.099243,22.439575,0,0.0,0.0,0.0,0.0
2.581542532,0.0045950045,0.8988935,-0.43814316,-0.026975889,0.43809974,0.8985215,0.9996255,0.0076905917,0.02626152,0.013991884,0.89318275,-0.44947618,-0.03541131,0.44968084,0.8924871,0.99927485,0.0034289649,0.03792065,10.043869,0.105285645,0.22970581,9.802978,0.07541894,0.25753754,0.019882202,-0.056365967,-0.0012817383,-31.619263,11.099243,22.439575,0,0.0,0.0,0.0,0.0
2.589843313,0.004395817,0.89876556,-0.4384075,-0.026563283,0.43836197,0.89840585,0.9996374,0.007696314,0.025801122,0.013615686,0.893412,-0.4490319,-0.035081837,0.44922385,0.8927302,0.99929166,0.003597727,0.037459023,10.043869,0.105285645,0.22970581,9.803095,0.07547506,0.25302258,0.032546997,-0.036972046,0.0032958984,-31.3797,11.099243,22.439575,0,0.0,0.0,0.0,0.0
2.598144095,0.004279971,0.8987023,-0.43853822,-0.026325403,0.43849152,0.8983497,0.9996443,0.0076997844,0.025535433,0.013246803,0.89362675,-0.44861537,-0.03474888,0.44879517,0.8929588,0.9993082,0.0037600324,0.036997627,10.055832,0.12802124,0.19740295,9.803162,0.07550909,0.25041705,0.029800415,-0.003692627,-6.1035156E-5,-31.3797,11.099243,22.439575,0,0.0,0.0,0.0,0.0
2.606444876,0.004469152,0.8945169,-0.4470118,-0.026200438,0.4469675,0.8941663,0.99964666,0.00771574,0.0254343,0.013065598,0.8937295,-0.44841585,-0.034582414,0.44858974,0.8930685,0.9993164,0.003838828,0.036768414,10.09053,0.13639832,0.1878357,9.803185,0.07566556,0.24942529,0.02659607,0.0065460205,-2.1362305E-4,-31.13861,11.099243,21.899414,0,0.0,0.0,0.0,0.0
2.614745657,0.0044578747,0.89451057,-0.44702467,-0.02623502,0.44697985,0.8941593,0.9996459,0.0077416506,0.025460081,0.012724666,0.893761,-0.448363,-0.034251098,0.44852576,0.89311343,0.99933225,0.0039923545,0.036319632,10.054642,0.1651001,0.1878357,9.803178,0.07591966,0.2496781,0.029800415,0.019073486,-0.0021972656,-31.13861,11.099243,21.899414,0,0.0,0.0,0.0,0.0
2.623046438,0.0044068834,0.8954838,-0.44507235,-0.026369154,0.445026,0.89512944,0.9996426,0.0077914507,0.025574327,0.01239679,0.89379096,-0.4483124,-0.033934142,0.44846466,0.8931562,0.99934715,0.004140828,0.03588955,10.071396,0.17108154,0.20458984,9.803144,0.07640803,0.25079846,0.028274536,0.018920898,-0.0028076172,-31.259155,10.919189,21.659851,0,0.0,0.0,0.0,0.0
2.63134722,0.004434626,0.8954995,-0.44504026,-0.026539277,0.4449933,0.8951406,0.99963796,0.007841434,0.025739292,0.012236472,0.89382505,-0.44824883,-0.033783495,0.448396,0.8931963,0.99935424,0.0042138402,0.035683323,10.080963,0.15553284,0.25125122,9.8031,0.0768982,0.25241622,0.030578613,0.022888184,-0.0018920898,-31.259155,10.919189,21.659851,0,0.0,0.0,0.0,0.0
2.639648001,0.0044588395,0.8955134,-0.44501233,-0.026709707,0.44496462,0.89514977,0.99963325,0.007894819,0.025902923,0.011926519,0.8938918,-0.44812405,-0.033497754,0.44826156,0.8932746,0.99936765,0.004357494,0.035289567,10.04985,0.15074158,0.20817566,9.803054,0.077421725,0.2540209,0.019577026,0.021209717,-0.004486084,-31.259155,10.919189,21.659851,0,0.0,0.0,0.0,0.0
2.647948782,0.004852244,0.8892304,-0.45743388,-0.026816964,0.45739046,0.8888615,0.9996286,0.007954015,0.02606583,0.011776725,0.8939245,-0.44806284,-0.033362597,0.4481957,0.8933127,0.999374,0.0044282414,0.03510192,10.04985,0.15074158,0.20817566,9.803007,0.078002244,0.25561845,0.01927185,0.019836426,-0.004180908,-31.199646,11.219788,21.479797,0,0.0,0.0,0.0,0.0
2.656249563,0.0044738078,0.8964726,-0.44307682,-0.027112352,0.4430271,0.89609826,0.9996224,0.008003882,0.026287494,0.011505122,0.89374065,-0.4484366,-0.033100642,0.4485609,0.8931391,0.9993858,0.0045678634,0.034744136,10.04866,0.11843872,0.16630554,9.802947,0.07849127,0.25779226,0.015304565,0.0460968,-0.008605957,-31.079102,10.919189,21.77887,0,0.0,0.0,0.0,0.0
2.664550345,0.0045849397,0.89653486,-0.4429494,-0.027478786,0.44289973,0.89614993,0.99961185,0.00806292,0.02666636,0.011225287,0.89384955,-0.44822642,-0.032865092,0.44834226,0.89325756,0.99939674,0.0047039306,0.03440922,10.065414,0.12083435,0.27038574,9.802844,0.07907023,0.26150766,0.019577026,0.07052612,-0.0018920898,-31.079102,10.919189,21.77887,0,0.0,0.0,0.0,0.0
2.672851126,0.0047760503,0.89664197,-0.44273046,-0.027980171,0.44268197,0.89624196,0.9995971,0.008107178,0.02720247,0.011091888,0.8939037,-0.4481218,-0.032758217,0.44823366,0.89331603,0.99940175,0.0047711106,0.034254447,10.041473,0.11843872,0.22732544,9.802699,0.07950426,0.26676512,0.030410767,0.07191467,-5.187988E-4,-31.079102,10.919189,21.77887,0,0.0,0.0,0.0,0.0
2.681151907,0.0048059328,0.89866275,-0.43861386,-0.028507268,0.43856376,0.8982478,0.999582,0.008186766,0.027726129,0.01084071,0.894013,-0.44790983,-0.03257055,0.44801417,0.893433,0.9994106,0.00490322,0.033975285,10.072586,0.13519287,0.22253418,9.802551,0.08028475,0.27190045,0.020492554,0.06991577,-0.007232666,-31.199646,10.679626,21.539307,0,0.0,0.0,0.0,0.0
2.689452688,0.0048148157,0.8986678,-0.43860355,-0.028862871,0.43855077,0.89824283,0.99957174,0.008334484,0.028049672,0.0106001105,0.8941992,-0.44754383,-0.03241198,0.44764102,0.89362574,0.9994183,0.00503325,0.03372781,10.069,0.1531372,0.10887146,9.802451,0.081733376,0.27507335,0.006439209,0.06213379,-0.0063171387,-31.199646,10.679626,21.539307,0,0.0,0.0,0.0,0.0
2.69775347,0.0050939643,0.8949083,-0.44622108,-0.02924202,0.44616935,0.89447075,0.9995594,0.008492002,0.028441697,0.0104837045,0.89428955,-0.4473659,-0.03234212,0.44745967,0.8937191,0.9994219,0.0050992756,0.03361426,10.069,0.1531372,0.10887146,9.80233,0.083278105,0.2789178,0.006439209,0.10748291,-0.009063721,-31.3797,10.978699,21.659851,0,0.0,0.0,0.0,0.0
2.706054251,0.004840167,0.902107,-0.4314851,-0.03012387,0.43142587,0.9016453,0.9995345,0.008633889,0.029263131,0.01027012,0.8943142,-0.44732144,-0.03221965,0.4474087,0.893749,0.99942803,0.005233629,0.03340943,10.025925,0.14237976,0.2715912,9.802085,0.08466953,0.2869733,-0.0025634766,0.10290527,-0.0052490234,-31.439209,10.499573,21.598816,0,0.0,0.0,0.0,0.0
2.714355032,0.0050259633,0.9022112,-0.43126532,-0.030814538,0.4312057,0.9017274,0.9995125,0.008757193,0.029968442,0.010053651,0.89462847,-0.44669768,-0.03214013,0.44677854,0.8940671,0.9994328,0.005368281,0.03324523,10.077377,0.1375885,0.65563965,9.801869,0.08587872,0.29389003,0.010559082,0.04624939,-0.0034179688,-31.439209,10.499573,21.598816,0,0.0,0.0,0.0,0.0
2.722655813,0.0052141435,0.9023165,-0.43104258,-0.03151497,0.4309826,0.9018097,0.99948967,0.008882128,0.030683681,0.009952636,0.89478284,-0.44639057,-0.032115225,0.44646844,0.89422286,0.9994346,0.00543606,0.03317969,10.077377,0.15792847,0.57547,9.801645,0.08710392,0.30090412,0.010559082,-0.0032196045,-0.0020446777,-31.439209,10.499573,21.598816,0,0.0,0.0,0.0,0.0
