Time,Rot1,Rot2,Rot3,Rot4,Rot5,Rot6,Rot7,Rot8,Rot9,FRot1,FRot2,FRot3,FRot4,FRot5,FRot6,FRot7,FRot8,FRot9,AccX,AccY,AccZ,GravX,GravY,GravZ,GyroX,GyroY,GyroZ,MagX,MagY,MagZ,Imid
0.0,0.0,0.0,0.0,0.0,0.0,0.0,0.0,0.0,0.0,1.0,0.0,0.0,0.0,1.0,0.0,0.0,0.0,1.0,10.074982,0.1758728,-0.055038452,9.804731,0.19375083,0.00932039,0.0,0.0,0.0,0.0,0.0,0.0,0,0.0,0.0,0.0,0.0
0.008300781,0.0,0.0,0.0,0.0,0.0,0.0,0.0,0.0,0.0,1.0,0.0,0.0,0.0,1.0,0.0,0.0,0.0,1.0,10.074982,0.1758728,-0.055038452,9.804731,0.1937393,0.009981314,0.0014038086,0.036636353,-0.0035705566,0.0,0.0,0.0,0,0.0,0.0,0.0,0.0
0.016601562,-0.017816804,0.9238712,-0.3822887,-0.008780057,0.38219002,0.92404205,0.99980265,0.019819992,0.0013022358,1.0,0.0,0.0,0.0,1.0,0.0,0.0,0.0,1.0,10.063019,0.20578003,0.0047912598,9.804715,0.19436772,0.012770571,-0.0028686523,0.049301147,-0.005554199,-32.818604,8.999634,23.278809,0,0.0,0.0,0.0,0.0
0.024902344,-0.017743936,0.92390895,-0.38220057,-0.009117708,0.3820953,0.9240778,0.9998009,0.019881573,0.0016440573,0.99922943,0.023568792,-0.031385314,-0.023569623,0.9997222,3.4357925E-4,0.031384688,3.9642543E-4,0.9995073,10.063019,0.20578003,0.0047912598,9.804698,0.19497164,0.016122695,0.008728027,0.044570923,-0.0069274902,-32.818604,8.999634,23.278809,0,0.0,0.0,0.0,0.0
0.033203125,-0.017619768,0.92418075,-0.38154894,-0.0095001515,0.38143623,0.92434645,0.99979967,0.01991154,0.0020590394,0.9933464,0.06925661,-0.092013516,-0.06906934,0.99759823,0.005221969,0.092154175,0.0011680882,0.9957441,10.076172,0.19142151,0.037094116,9.804686,0.19526552,0.020192279,0.0038452148,0.04914856,-0.0018920898,-32.998657,8.758545,22.738647,0,0.0,0.0,0.0,0.0
0.041503906,-0.017511215,0.92423856,-0.3814137,-0.009870976,0.3812938,0.9244012,0.99979794,0.019952316,0.0024462184,0.9822903,0.11302793,-0.14943331,-0.11203127,0.99358994,0.01509821,0.15018196,0.0019103793,0.98865646,10.052246,0.21057129,0.01675415,9.804668,0.19566537,0.023989208,0.0033874512,0.044265747,-0.004333496,-32.998657,8.758545,22.738647,0,0.0,0.0,0.0,0.0
0.049804687,-0.017638573,0.93293136,-0.3596218,-0.009811744,0.35949892,0.93309385,0.9997963,0.019986965,0.0028126352,0.9750497,0.1341888,-0.17683715,-0.13244356,0.99095315,0.021690894,0.17814802,0.0022712434,0.9840011,10.052246,0.21057129,0.01675415,9.804652,0.19600517,0.027582528,-5.79834E-4,0.044265747,-0.0011291504,-33.47931,8.039856,22.499084,0,0.0,0.0,0.0,0.0
0.058105469,-0.017526262,0.93298995,-0.35947558,-0.010086887,0.3593475,0.93314934,0.9997955,0.019980606,0.0031129448,0.9574203,0.17598148,-0.22886015,-0.17186077,0.984389,0.037976265,0.23197053,0.0029728354,0.9727183,10.092926,0.18424988,-0.062210083,9.804645,0.19594282,0.03052756,-0.0018005371,0.0708313,-0.0032653809,-33.47931,8.039856,22.499084,0,0.0,0.0,0.0,0.0
0.06640625,-0.017173346,0.9280902,-0.37195912,-0.010839427,0.3718193,0.9282418,0.9997937,0.019972844,0.0036745842,0.93629324,0.21582957,-0.27707833,-0.20801581,0.9764242,0.05766386,0.2829916,0.0036463914,0.95911545,10.052246,0.17945862,-0.007171631,9.804627,0.19586669,0.036035363,0.0078125,0.10839844,-0.004180908,-33.358765,8.279419,22.198486,0,0.0,0.0,0.0,0.0
0.074707031,-0.016894288,0.92824084,-0.37159595,-0.011544956,0.3714431,0.92838395,0.9997906,0.019974446,0.0044412315,0.92467934,0.23477297,-0.29974964,-0.22459027,0.97204214,0.06850797,0.3074531,0.0039729443,0.95155495,10.052246,0.17945862,-0.007171631,9.804597,0.19588241,0.043553602,1.8310547E-4,0.115737915,-0.0037231445,-33.358765,8.279419,22.198486,0,0.0,0.0,0.0,0.0
0.083007812,-0.016602967,0.9294002,-0.36869985,-0.012384005,0.36853123,0.9295328,0.9997854,0.019998983,0.0053909863,0.89961815,0.27128637,-0.34218553,-0.25526175,0.9624877,0.09197261,0.35430026,0.0046066493,0.9351204,10.063019,0.1878357,0.037094116,9.804545,0.19612302,0.052867513,0.006439209,0.1259613,-0.004333496,-33.4198,8.399963,22.679138,0,0.0,0.0,0.0,0.0
0.091308594,-0.016215293,0.92960364,-0.368204,-0.013396198,0.36801735,0.92972237,0.99977875,0.020008253,0.006485645,0.8725276,0.30610856,-0.3807796,-0.28274322,0.9519823,0.117413595,0.39843673,0.0052162292,0.917181,10.069,0.1878357,0.13040161,9.804481,0.19621395,0.063602455,0.008880615,0.11053467,-0.0035705566,-33.4198,8.399963,22.679138,0,0.0,0.0,0.0,0.0
0.099609375,-0.015914503,0.93147653,-0.36345324,-0.014236159,0.36325136,0.9315825,0.9997721,0.019999849,0.0074796826,0.85838675,0.32286638,-0.39865953,-0.2952749,0.94642854,0.13071272,0.41950548,0.0055120913,0.90773606,10.069,0.1878357,0.13040161,9.804415,0.19613153,0.07335063,0.012710571,0.090530396,-6.1035156E-5,-33.53882,8.1588745,22.37854,0,0.0,0.0,0.0,0.0
0.107910156,-0.015587182,0.93164885,-0.36302558,-0.015026213,0.3628104,0.9317418,0.9997655,0.019978125,0.008343962,0.82913357,0.3552809,-0.43163985,-0.31813458,0.9347397,0.15827812,0.45970413,0.006085848,0.8880513,10.04866,0.17706299,0.24047852,9.804351,0.19591849,0.081826314,0.008880615,0.017089844,-5.187988E-4,-33.53882,8.1588745,22.37854,0,0.0,0.0,0.0,0.0
0.116210937,-0.015639069,0.93639493,-0.35059938,-0.015168217,0.3503797,0.9364848,0.9997626,0.019963719,0.00872383,0.79898477,0.38603216,-0.46108848,-0.3379379,0.9224615,0.186716,0.49741474,0.006636021,0.86748755,10.055832,0.19142151,0.24645996,9.804322,0.19577721,0.085551545,0.004760742,-0.055145264,0.0036010742,-33.779907,7.8598022,22.499084,0,0.0,0.0,0.0,0.0
0.124511719,-0.015651,0.93638885,-0.35061517,-0.015049165,0.35039783,0.9364801,0.99976426,0.019933315,0.0086077945,0.7835949,0.40104142,-0.47449422,-0.34694287,0.9160339,0.2012772,0.5153733,0.006902594,0.85693794,10.055832,0.19142151,0.24645996,9.804338,0.19547905,0.08441363,0.008575439,-0.08630371,0.0032958984,-33.779907,7.8598022,22.499084,0,0.0,0.0,0.0,0.0
0.1328125,-0.0160231,0.9411863,-0.3375077,-0.014333246,0.33730012,0.94128793,0.99976885,0.019919934,0.0080856625,0.7525519,0.4298559,-0.49888825,-0.3628065,0.902867,0.23065686,0.54957896,0.007418647,0.8354088,10.061813,0.19740295,0.23330688,9.804383,0.19534782,0.079293266,0.007965088,-0.13272095,-0.0018920898,-34.13849,7.3791504,22.198486,0,0.0,0.0,0.0,0.0
0.141113281,-0.01631703,0.94103694,-0.33791006,-0.013425105,0.33771837,0.94115144,0.9997767,0.019893276,0.007122959,0.72117645,0.45761454,-0.5200898,-0.3763555,0.88911545,0.2604424,0.58160216,0.007913732,0.8134349,10.035492,0.17347717,0.122039795,9.804461,0.19508639,0.06985237,0.0039978027,-0.17059326,0.0028381348,-34.13849,7.3791504,22.198486,0,0.0,0.0,0.0,0.0
0.149414062,-0.016572805,0.9380229,-0.34617665,-0.012423756,0.34600428,0.93815064,0.9997855,0.019848602,0.0059195063,0.7055156,0.47091436,-0.52961046,-0.3821425,0.88214123,0.27530694,0.5968372,0.00815334,0.80232084,10.035492,0.17347717,0.122039795,9.804546,0.1946483,0.05805053,3.0517578E-5,-0.18052673,0.0046691895,-34.199524,7.499695,21.958923,0,0.0,0.0,0.0,0.0
0.157714844,-0.017118284,0.9377355,-0.34692806,-0.010730093,0.34678662,0.9378826,0.99979585,0.019777516,0.004125597,0.67450917,0.49611238,-0.54672647,-0.3916364,0.86821556,0.30466816,0.62582606,0.008616504,0.77991503,10.088135,0.17347717,-0.19621277,9.804648,0.19395117,0.040458288,-0.0036315918,-0.17501831,0.005126953,-34.199524,7.499695,21.958923,0,0.0,0.0,0.0,0.0
0.166015625,-0.01751216,0.9349936,-0.35423195,-0.009304954,0.35411856,0.93515426,0.99980336,0.019672683,0.0024986924,0.64390373,0.51989704,-0.5613332,-0.3988362,0.8541809,0.3336236,0.65293,0.009058509,0.7573641,10.018753,0.14955139,-0.21057129,9.804722,0.19292311,0.024503803,-0.0054626465,-0.06401062,5.493164E-4,-34.259033,7.8598022,22.439575,0,0.0,0.0,0.0,0.0
0.174316406,-0.017827038,0.93482745,-0.3546545,-0.008251232,0.35456124,0.93499637,0.99980706,0.019594552,0.0013927027,0.6288559,0.5311594,-0.56781155,-0.4015425,0.8472212,0.3478216,0.66581064,0.009270806,0.7460631,10.018753,0.14955139,-0.21057129,9.804758,0.19215691,0.013657749,0.0026245117,-0.034225464,-0.0052490234,-34.259033,7.8598022,22.439575,0,0.0,0.0,0.0,0.0
0.182617187,-0.017873647,0.9314959,-0.36331245,-0.007948572,0.36322665,0.931667,0.9998087,0.0195401,9.118774E-4,0.5992443,0.5527298,-0.57913387,-0.40549624,0.83330435,0.37573487,0.6902746,0.009679652,0.72348267,10.040283,0.15074158,-0.06700134,9.804774,0.19162293,0.0089424625,0.0046081543,-0.020935059,-2.1362305E-4,-34.01947,8.099365,22.439575,0,0.0,0.0,0.0,0.0
0.190917969,-0.01793869,0.93146116,-0.36339855,-0.00782785,0.36331505,0.93163353,0.99980843,0.019556912,7.739419E-4,0.5705297,0.5728016,-0.58855265,-0.40747657,0.8196322,0.40269822,0.7130629,0.01007015,0.7010277,10.074982,0.19979858,0.026321411,9.804771,0.1917878,0.007589778,-5.79834E-4,0.016479492,7.019043E-4,-34.01947,8.099365,22.439575,0,0.0,0.0,0.0,0.0
0.19921875,-0.017989933,0.93376184,-0.35744238,-0.00776662,0.35735893,0.93393475,0.999808,0.019577544,8.233108E-4,0.5564814,0.58241487,-0.59255505,-0.40787244,0.812827,0.41587546,0.72385675,0.010259897,0.68987405,10.074982,0.19979858,0.026321411,9.804768,0.19199014,0.008073921,0.0078125,0.008987427,-0.007232666,-34.07898,7.978821,22.558594,0,0.0,0.0,0.0,0.0
0.207519531,-0.017978333,0.93376803,-0.35742703,-0.007896895,0.35734102,0.9339406,0.9998072,0.019613257,9.494718E-4,0.5289458,0.60103863,-0.5991401,-0.4077185,0.7991492,0.44173077,0.74429965,0.010628898,0.6677612,10.051056,0.1986084,0.039474487,9.804759,0.19234034,0.009311138,7.9345703E-4,0.005630493,-0.0049438477,-34.07898,7.978821,22.558594,0,0.0,0.0,0.0,0.0
0.215820312,-0.01806977,0.9360251,-0.3514693,-0.0077823168,0.3513844,0.93619907,0.99980646,0.019652143,9.350091E-4,0.502345,0.6186233,-0.60411483,-0.40624037,0.785611,0.46667358,0.76329434,0.010984699,0.64595747,10.058228,0.19502258,-0.06341553,9.804751,0.19272168,0.009169307,0.0041503906,0.032958984,-0.004180908,-33.95996,7.6797485,22.198486,0,0.0,0.0,0.0,0.0
0.224121094,-0.018068522,0.9360257,-0.35146755,-0.007872205,0.35138085,0.9361995,0.99980575,0.019682568,0.0010196529,0.48935494,0.62714267,-0.60598993,-0.40511373,0.7788245,0.47886878,0.7722789,0.0111580575,0.6351857,10.058228,0.19502258,-0.06341553,9.804745,0.19302005,0.0099993795,0.006286621,0.034484863,-0.004180908,-33.95996,7.6797485,22.198486,0,0.0,0.0,0.0,0.0
0.232421875,-0.017991783,0.9357025,-0.35233095,-0.008183766,0.35223836,0.9358745,0.9998046,0.019721445,0.0013201747,0.46412244,0.6434604,-0.6087274,-0.40203875,0.765393,0.50253195,0.7892751,0.011495648,0.61393213,10.061813,0.20458984,0.034698486,9.804734,0.1934013,0.012946491,-0.002105713,0.03526306,-0.0023498535,-33.839417,7.798767,22.439575,0,0.0,0.0,0.0,0.0
0.240722656,-0.017891476,0.93575454,-0.35219777,-0.008436585,0.35210028,0.9359242,0.9998043,0.019716414,0.0015949784,0.43991986,0.65883416,-0.61025256,-0.39796966,0.75219536,0.5251879,0.8050408,0.011821408,0.5931017,10.054642,0.17826843,0.011962891,9.804731,0.19335197,0.015641395,0.003540039,0.019073486,-0.0021972656,-33.839417,7.798767,22.439575,0,0.0,0.0,0.0,0.0
0.249023437,-0.017907701,0.94000655,-0.34068584,-0.008418103,0.34058666,0.94017535,0.9998042,0.01970431,0.0018139484,0.42820126,0.66619617,-0.610595,-0.39561066,0.7456803,0.53614646,0.8124874,0.011979317,0.5828556,10.054642,0.17826843,0.011962891,9.804729,0.19323327,0.017788757,-0.0018005371,0.018310547,8.544922E-4,-33.839417,7.3791504,22.138977,0,0.0,0.0,0.0,0.0
0.257324219,-0.01781103,0.9400561,-0.3405546,-0.008550458,0.34045294,0.9402227,0.9998048,0.01965823,0.0019740919,0.40534067,0.68065315,-0.6102542,-0.39051166,0.7325028,0.5576202,0.8265589,0.012285244,0.5627162,10.059433,0.15074158,0.01675415,9.804736,0.19278139,0.01935923,9.460449E-4,0.014953613,-0.0035705566,-33.839417,7.3791504,22.138977,0,0.0,0.0,0.0,0.0
0.265625,-0.017574409,0.9336015,-0.35788184,-0.00899849,0.35777494,0.93376446,0.99980503,0.019630753,0.0021133213,0.38350344,0.6942965,-0.60899717,-0.38470387,0.7195792,0.57810783,0.83959997,0.012577229,0.54305965,10.072586,0.15792847,0.020339966,9.804738,0.19251193,0.020724604,-0.0025634766,0.014480591,-0.001739502,-33.299255,7.8598022,22.138977,0,0.0,0.0,0.0,0.0
0.273925781,-0.017504096,0.9336383,-0.35778916,-0.009101494,0.35768038,0.9337997,0.9998054,0.019601736,0.0022366322,0.37310672,0.7005623,-0.6082794,-0.38142893,0.7134779,0.58775955,0.84575605,0.012718307,0.5334181,10.072586,0.15792847,0.020339966,9.804742,0.19222736,0.021933869,-7.324219E-4,0.018310547,-0.005554199,-33.299255,7.8598022,22.138977,0,0.0,0.0,0.0,0.0
0.282226562,-0.017510192,0.9369298,-0.34907863,-0.009126234,0.34896782,0.9370902,0.99980503,0.019594403,0.0024401473,0.35304597,0.7125699,-0.60630256,-0.374505,0.70148087,0.6063585,0.8573824,0.012990905,0.51451594,10.065414,0.17108154,0.08135986,9.804738,0.19215547,0.02392967,-1.2207031E-4,-0.0021514893,-0.0015869141,-33.239746,7.739258,22.439575,0,0.0,0.0,0.0,0.0
0.290527344,-0.017492201,0.93693894,-0.3490551,-0.009245055,0.348942,0.93709874,0.99980426,0.019618953,0.0025582868,0.33380994,0.72416306,-0.6034557,-0.36727676,0.68950146,0.62425596,0.8681467,0.013252415,0.4961307,10.060623,0.1986084,0.08494568,9.80473,0.19239621,0.025088223,0.0046081543,-0.0099487305,-0.0034179688,-33.239746,7.739258,22.439575,0,0.0,0.0,0.0,0.0
0.298828125,-0.017499821,0.93665165,-0.34982482,-0.009277945,0.3497112,0.93681157,0.99980384,0.019639691,0.0025703197,0.32454726,0.72971433,-0.60181904,-0.36352047,0.6836212,0.63286245,0.87322503,0.013379751,0.48713347,10.060623,0.1986084,0.08494568,9.804726,0.19259956,0.025206225,-0.0025634766,-0.014526367,-0.005554199,-33.1192,7.739258,22.37854,0,0.0,0.0,0.0,0.0
0.307128906,-0.017553415,0.9366246,-0.34989476,-0.009193354,0.3497827,0.9367858,0.99980366,0.019660495,0.0024708407,0.30672395,0.7403276,-0.59819347,-0.35575658,0.6721081,0.64939046,0.8828123,0.013627657,0.4695281,10.082153,0.20817566,0.07417297,9.804725,0.19280359,0.02423067,0.0055236816,-0.04385376,0.0032958984,-33.1192,7.739258,22.37854,0,0.0,0.0,0.0,0.0
0.315429687,-0.017625807,0.9337248,-0.35755742,-0.008939024,0.3574515,0.93388885,0.9998046,0.019656759,0.002046217,0.2897938,0.7503476,-0.59413636,-0.34772497,0.66089803,0.66505724,0.8916877,0.013866569,0.45243874,10.023529,0.21057129,-0.08734131,9.804734,0.19276695,0.020066535,3.3569336E-4,-0.011779785,0.0019226074,-33.239746,7.9193115,22.31903,0,0.0,0.0,0.0,0.0
0.323730469,-0.017747283,0.9336618,-0.35771596,-0.008609014,0.35761634,0.93382895,0.9998054,0.019652508,0.0016911887,0.28170577,0.75503933,-0.592079,-0.34357738,0.65553045,0.6724838,0.8958775,0.013982377,0.44408113,10.023529,0.21057129,-0.08734131,9.804742,0.19272527,0.016584896,-0.0028686523,-0.0044403076,-6.713867E-4,-33.239746,7.9193115,22.31903,0,0.0,0.0,0.0,0.0
0.33203125,-0.017746301,0.9350401,-0.3540976,-0.008503417,0.3539994,0.935207,0.99980634,0.019607503,0.0016688559,0.27382407,0.7595976,-0.5899422,-0.3393837,0.65024054,0.6797102,0.8999106,0.014095784,0.43584654,10.069,0.17228699,0.04067993,9.804751,0.19228393,0.016365886,-0.0043945313,0.004562378,0.0014648438,-33.239746,7.798767,22.259521,0,0.0,0.0,0.0,0.0
0.340332031,-0.017690372,0.93506896,-0.35402417,-0.008554213,0.3539251,0.93523467,0.99980694,0.019573044,0.0017377136,0.25862208,0.7684347,-0.58533984,-0.33093947,0.63976806,0.6936684,0.90752065,0.014314058,0.41976354,10.069,0.17228699,0.04067993,9.804756,0.19194598,0.017041149,4.8828125E-4,0.008682251,-8.239746E-4,-33.239746,7.798767,22.259521,0,0.0,0.0,0.0,0.0
0.348632812,-0.017471422,0.928904,-0.36990827,-0.008934174,0.36980495,0.9290665,0.9998074,0.019536935,0.0018379721,0.24421349,0.776788,-0.5804827,-0.32240358,0.62959474,0.70687085,0.91455764,0.014522322,0.40419477,10.060623,0.16630554,0.050247192,9.804762,0.19159189,0.01802435,0.0015563965,1.373291E-4,-0.003112793,-32.998657,8.338928,22.499084,0,0.0,0.0,0.0,0.0
0.356933594,-0.017443504,0.92891866,-0.36987275,-0.008975341,0.36976862,0.9290805,0.99980754,0.019526154,0.0018873009,0.23740558,0.7805784,-0.57821786,-0.31803423,0.6248868,0.7130012,0.91787404,0.014622618,0.39660227,10.054642,0.17945862,0.034698486,9.804763,0.19148616,0.018508099,0.0024719238,0.0027313232,-0.0012817383,-32.998657,8.338928,22.499084,0,0.0,0.0,0.0,0.0
0.365234375,-0.017399995,0.9289414,-0.36981738,-0.009003937,0.3697128,0.9291023,0.999808,0.01949619,0.001931131,0.2243267,0.78785276,-0.57355523,-0.30929604,0.6156854,0.72475344,0.92412853,0.014816806,0.3817944,10.074982,0.17945862,0.011962891,9.804768,0.19119231,0.018937927,-1.2207031E-4,0.004257202,0.0045166016,-32.998657,8.338928,22.499084,0,0.0,0.0,0.0,0.0
0.373535156,-0.017421952,0.93099046,-0.36462757,-0.008973484,0.36452264,0.9311513,0.99980795,0.019494452,0.0020035326,0.2119363,0.79473835,-0.5687477,-0.30058423,0.6067667,0.7358555,0.92990977,0.015002117,0.3674817,10.063019,0.20698547,0.04307556,9.804767,0.19117527,0.019647943,0.0012512207,0.012802124,-0.0037231445,-32.87964,8.21991,22.558594,0,0.0,0.0,0.0,0.0
0.381835937,-0.017274873,0.9247418,-0.3802027,-0.00940592,0.3800923,0.9249006,0.99980646,0.019553697,0.002132002,0.20595646,0.79810923,-0.56621873,-0.2962709,0.6023238,0.74123526,0.93263364,0.015091966,0.360509,10.063019,0.22851563,0.059814453,9.804752,0.19175626,0.020907799,-1.2207031E-4,0.011734009,-0.0040283203,-32.699585,8.639526,22.499084,0,0.0,0.0,0.0,0.0
0.390136719,-0.017290449,0.9247336,-0.38022214,-0.009546101,0.38010898,0.9248924,0.9998049,0.019621445,0.0022553457,0.19466887,0.8041843,-0.5615974,-0.28756773,0.59418386,0.751166,0.93776804,0.015268657,0.34692657,10.063019,0.22851563,0.059814453,9.804737,0.19242065,0.022117388,0.002319336,-6.2561035E-4,-0.0028076172,-32.699585,8.639526,22.499084,0,0.0,0.0,0.0,0.0
0.3984375,-0.017466418,0.93113816,-0.364248,-0.009272086,0.36413708,0.93129915,0.99980444,0.019643802,0.0022734227,0.18397689,0.8099402,-0.5569106,-0.2789716,0.5863092,0.7605369,0.9425112,0.015441034,0.3338177,10.055832,0.1986084,0.021530151,9.804732,0.1926399,0.022294661,0.0053710938,0.008071899,-0.008148193,-32.818604,8.279419,22.738647,0,0.0,0.0,0.0,0.0
0.406738281,-0.017505724,0.93111813,-0.36429742,-0.009259456,0.36418664,0.93127996,0.99980384,0.019675925,0.002246296,0.17874987,0.8129048,-0.55428725,-0.2747797,0.5821897,0.76521325,0.9447458,0.015525091,0.32743606,10.064209,0.18424988,-0.026321411,9.804728,0.19295493,0.022028642,0.0024719238,0.013259888,-0.01121521,-32.818604,8.279419,22.738647,0,0.0,0.0,0.0,0.0
0.415039062,-0.01754512,0.9310979,-0.36434695,-0.009309227,0.36423513,0.93126047,0.99980277,0.019730868,0.0022772518,0.16871816,0.8185961,-0.54903054,-0.2664797,0.57415515,0.7741669,0.94895875,0.01568947,0.31500968,10.066605,0.15553284,0.032302856,9.804715,0.19349371,0.02233221,-0.008529663,0.013717651,-0.0054016113,-32.818604,8.279419,22.738647,0,0.0,0.0,0.0,0.0
0.423339844,-0.017480688,0.929205,-0.36915088,-0.00947167,0.36903682,0.9293664,0.9998023,0.01974244,0.0023501066,0.159226,0.8239863,-0.5437773,-0.25830743,0.5663881,0.78261214,0.95285064,0.015849516,0.30302548,10.031906,0.17468262,-0.011962891,9.804711,0.19360721,0.023046674,-5.79834E-4,0.017547607,-0.005554199,-33.059692,8.459473,22.859192,0,0.0,0.0,0.0,0.0
0.431640625,-0.017452477,0.93026173,-0.3664815,-0.009481614,0.3663669,0.9304223,0.99980277,0.019713005,0.0024263733,0.15470044,0.8265161,-0.5412383,-0.25425828,0.5626877,0.78659725,0.9546835,0.015927374,0.2971966,10.065414,0.15672302,-0.023925781,9.804716,0.19331855,0.023794595,-0.004852295,0.021820068,-0.004486084,-32.998657,8.338928,22.738647,0,0.0,0.0,0.0,0.0
0.439941406,-0.017382726,0.9302976,-0.36639345,-0.009598642,0.36627662,0.9304564,0.99980277,0.01969075,0.0025627066,0.14598976,0.83144075,-0.53609073,-0.24629246,0.55538076,0.7942872,0.9581373,0.01607729,0.2858575,10.0785675,0.18185425,0.071777344,9.804716,0.1931003,0.025131566,-0.008224487,0.03265381,-0.004638672,-32.998657,8.338928,22.738647,0,0.0,0.0,0.0,0.0
0.448242187,-0.01734402,0.9321842,-0.3615684,-0.009779611,0.36144736,0.9323412,0.9998018,0.019706545,0.0028474485,0.13775077,0.83611166,-0.53098214,-0.23848894,0.54831946,0.8015416,0.96132606,0.016220385,0.2749348,10.0785675,0.18185425,0.071777344,9.804707,0.1932552,0.02792393,-0.0039367676,0.008529663,-0.0038757324,-32.57904,8.399963,23.2193,0,0.0,0.0,0.0,0.0
0.456542969,-0.017330987,0.9321906,-0.36155242,-0.009962967,0.36142775,0.93234676,0.99980015,0.019760627,0.0030234845,0.1337776,0.83841217,-0.528364,-0.23466763,0.5447932,0.8050661,0.9628264,0.01629011,0.26962933,10.063019,0.2141571,0.062210083,9.80469,0.19378556,0.029650254,-0.0016479492,0.0053253174,0.0016174316,-32.57904,8.399963,23.2193,0,0.0,0.0,0.0,0.0
0.46484375,-0.017337352,0.93218756,-0.36156026,-0.009992393,0.36143503,0.93234384,0.9997998,0.019777223,0.0030484584,0.12615708,0.8428341,-0.5231779,-0.22715674,0.53792274,0.81181216,0.96565217,0.016427547,0.2593182,10.080963,0.19262695,0.0023956299,9.804687,0.19394831,0.029895166,0.00491333,0.008224487,-0.006011963,-32.57904,8.399963,23.2193,0,0.0,0.0,0.0,0.0
0.473144531,-0.017336074,0.93176746,-0.3626418,-0.010050751,0.3625156,0.9319236,0.9997992,0.019800715,0.0030803652,0.11894863,0.84702766,-0.51806885,-0.2198182,0.53129077,0.8181749,0.96826196,0.016560199,0.2493884,10.046265,0.19381714,-0.010772705,9.804681,0.19417869,0.030208064,-2.746582E-4,0.017089844,-0.0035705566,-32.27997,8.459473,23.278809,0,0.0,0.0,0.0,0.0
0.481445312,-0.017376104,0.9327101,-0.36020818,-0.009940608,0.36008358,0.932867,0.99979955,0.019790282,0.003014856,0.11549672,0.84903073,-0.5155651,-0.21621281,0.52808183,0.82120746,0.9694908,0.01662501,0.24456303,10.066605,0.17228699,-0.124420166,9.804685,0.19407637,0.029565638,-2.746582E-4,0.03312683,-0.0035705566,-32.218933,8.459473,23.458862,0,0.0,0.0,0.0,0.0
0.489746094,-0.0172782,0.93275726,-0.36009076,-0.010140675,0.3599625,0.9329116,0.99979925,0.019770598,0.0032392838,0.10885063,0.8529367,-0.5105395,-0.20914565,0.52174556,0.8270669,0.9718074,0.016750354,0.23518032,10.052246,0.16630554,-0.034698486,9.804682,0.19388334,0.031766523,0.0056762695,0.071746826,-0.0018920898,-32.218933,8.459473,23.458862,0,0.0,0.0,0.0,0.0
0.498046875,-0.017101357,0.93284243,-0.3598786,-0.010552648,0.35974282,0.93299186,0.9997981,0.019753098,0.0036918686,0.105665386,0.8548156,-0.5080601,-0.20568325,0.5186595,0.82987154,0.97289735,0.016810762,0.2306256,10.052246,0.16630554,-0.034698486,9.80467,0.19371173,0.036204863,0.009033203,0.082595825,-0.0049438477,-32.218933,8.459473,23.458862,0,0.0,0.0,0.0,0.0
0.506347656,-0.016771507,0.9289354,-0.3698618,-0.01129289,0.36971426,0.9290769,0.99979556,0.019758826,0.0042897,0.09956138,0.8584344,-0.5031679,-0.19891019,0.512644,0.83524305,0.97494733,0.016927281,0.22179088,10.067795,0.1758728,-0.047851563,9.804646,0.1937679,0.04206759,0.011932373,0.11268616,-0.002960205,-32.218933,8.639526,23.15979,0,0.0,0.0,0.0,0.0
0.514648437,-0.01648295,0.929079,-0.36951393,-0.012047789,0.36935273,0.92921114,0.9997915,0.019767966,0.005105325,0.09387889,0.8616549,-0.498736,-0.19229941,0.5072085,0.84009546,0.97683555,0.01703941,0.2133119,10.07019,0.16870117,-0.04307556,9.804606,0.19385754,0.05006614,0.005065918,0.14428711,-0.0063171387,-32.218933,8.639526,23.15979,0,0.0,0.0,0.0,0.0
0.522949219,-0.01616506,0.9321962,-0.36159232,-0.013096412,0.36141112,0.9323146,0.9997835,0.019806484,0.0063661914,0.09115791,0.86320853,-0.49654943,-0.1890792,0.5045581,0.84241927,0.9777215,0.017093984,0.20920925,10.059433,0.19979858,0.1531372,9.804527,0.19423525,0.06243101,0.008575439,0.13742065,-0.003112793,-31.91986,8.639526,23.699951,0,0.0,0.0,0.0,0.0
0.53125,-0.01563663,0.9293628,-0.36883634,-0.014397756,0.3686339,0.9294631,0.99977404,0.019844087,0.007616548,0.08336838,0.86788905,-0.48971254,-0.17980509,0.49645844,0.8492344,0.98016316,0.017253501,0.1974398,10.063019,0.19023132,0.06341553,9.804434,0.19460401,0.074692816,0.0029296875,0.13711548,-0.007385254,-31.97937,8.938599,23.878479,0,0.0,0.0,0.0,0.0
0.539550781,-0.01527278,0.9295364,-0.36841404,-0.015418398,0.36819425,0.929621,0.99976444,0.019878251,0.008708611,0.080949634,0.8692945,-0.48762092,-0.17681284,0.49399146,0.8512988,0.98091,0.017305315,0.19369088,10.076172,0.19023132,0.20936584,9.80434,0.19493906,0.0854023,0.0027770996,0.12458801,-0.0023498535,-31.97937,8.938599,23.878479,0,0.0,0.0,0.0,0.0
0.547851562,-0.014877473,0.9297245,-0.36795503,-0.016509384,0.36771718,0.92979103,0.999753,0.019907653,0.009878476,0.07860365,0.87066966,-0.48554686,-0.17388582,0.49156183,0.85330576,0.98162377,0.017356774,0.19003567,10.041473,0.20100403,0.23928833,9.804228,0.1952274,0.09687476,0.003692627,0.09786987,-0.004638672,-31.97937,8.938599,23.878479,0,0.0,0.0,0.0,0.0
0.556152344,-0.014442031,0.9269008,-0.37502846,-0.017439237,0.37477705,0.92695093,0.99974364,0.019927265,0.0107519,0.07411457,0.8733286,-0.48146048,-0.16820782,0.4868186,0.8571545,0.9829614,0.017457793,0.18298106,10.072586,0.18066406,0.17826843,9.804136,0.19541971,0.105440125,0.008728027,0.06503296,-0.007232666,-31.739807,9.118652,23.75946,0,0.0,0.0,0.0,0.0
0.564453125,-0.014226373,0.9270046,-0.37478018,-0.018031131,0.3745193,0.92704374,0.99973613,0.019946178,0.011386889,0.06992482,0.87571263,-0.4777425,-0.16271488,0.48251337,0.860642,0.9841922,0.017555585,0.17623115,10.072586,0.18066406,0.17826843,9.804063,0.1956052,0.11166724,0.02003479,0.048538208,-0.0014343262,-31.739807,9.118652,23.75946,0,0.0,0.0,0.0,0.0
0.572753906,-0.014145912,0.928816,-0.37027103,-0.018361952,0.37000433,0.9288485,0.9997313,0.019938309,0.011820829,0.067916244,0.876864,-0.47591692,-0.16004589,0.4804161,0.86231416,0.98477036,0.017603397,0.17296652,10.052246,0.19381714,0.24885559,9.804015,0.19552802,0.115922734,0.02003479,0.01586914,-8.239746E-4,-31.799316,9.059143,23.939514,0,0.0,0.0,0.0,0.0
0.581054687,-0.014095417,0.9302523,-0.3666495,-0.018600432,0.36637858,0.93028,0.9997277,0.019932525,0.012138838,0.064032786,0.87917554,-0.472176,-0.15486439,0.47616935,0.86560947,0.98585844,0.017695861,0.16664344,10.067795,0.1878357,0.17347717,9.80398,0.1954713,0.11904134,0.0014038086,-6.2561035E-4,2.4414063E-4,-32.03888,8.879089,23.75946,0,0.0,0.0,0.0,0.0
0.589355469,-0.01404767,0.9302751,-0.36659366,-0.018668557,0.36632192,0.93030083,0.999727,0.019912336,0.012220924,0.060332134,0.88144916,-0.46840948,-0.14987057,0.47194397,0.8687967,0.98686314,0.017784435,0.16057669,10.069,0.17826843,0.12921143,9.803973,0.19527331,0.11984632,-0.0030212402,0.0034942627,-0.0025024414,-32.03888,8.879089,23.75946,0,0.0,0.0,0.0,0.0
0.59765625,-0.014024371,0.9302862,-0.3665664,-0.018685434,0.36629456,0.93031126,0.999727,0.019896483,0.012245749,0.058555014,0.8825453,-0.46656746,-0.14743617,0.46988943,0.8703255,0.98733675,0.017826993,0.15763347,10.065414,0.18544006,0.105285645,9.803973,0.19511785,0.12008978,-5.79834E-4,0.0051727295,-0.0050964355,-32.03888,8.879089,23.75946,0,0.0,0.0,0.0,0.0
0.605957031,-0.013833247,0.9258433,-0.3776542,-0.01892187,0.37738034,0.925865,0.9997253,0.019953644,0.012298293,0.055139266,0.88465893,-0.4629667,-0.1426881,0.4658946,0.8732596,0.9882306,0.017908948,0.15191936,10.063019,0.21655273,0.11843872,9.803956,0.1956784,0.12060506,3.0517578E-5,0.018920898,-0.0050964355,-32.03888,9.359741,24.119568,0,0.0,0.0,0.0,0.0
0.614257812,-0.0138336,0.9258431,-0.37765458,-0.019056141,0.37737802,0.92586315,0.9997227,0.020004664,0.012422503,0.051962864,0.8864533,-0.4598919,-0.13807586,0.4624684,0.8758185,0.9890576,0.01798992,0.14642897,10.072586,0.21176147,0.22372437,9.803931,0.19617873,0.12182314,-0.0079193115,0.010665894,0.0029907227,-32.03888,9.359741,24.119568,0,0.0,0.0,0.0,0.0
0.622558594,-0.013626576,0.92327195,-0.38390535,-0.019382376,0.38362497,0.92328554,0.99971926,0.020022217,0.012667709,0.050434925,0.88731873,-0.4583904,-0.13583171,0.46080405,0.8770458,0.98944736,0.018030215,0.14376664,10.072586,0.21176147,0.22372437,9.803897,0.19635089,0.12422779,-0.0030212402,-0.0029144287,-3.6621094E-4,-32.218933,9.47876,23.939514,0,0.0,0.0,0.0,0.0
0.630859375,-0.013640064,0.92412496,-0.38184696,-0.01938694,0.3815663,0.92413825,0.999719,0.020008147,0.012711365,0.047532517,0.88886684,-0.45569324,-0.13145564,0.45780754,0.8792791,0.99018186,0.018109102,0.13860732,10.065414,0.19023132,0.19621277,9.803895,0.1962129,0.12465591,0.003692627,-0.026901245,-0.0020446777,-32.218933,9.539795,24.238586,0,0.0,0.0,0.0,0.0
0.639160156,-0.013665724,0.9241125,-0.38187617,-0.019302871,0.38159686,0.92412734,0.99972034,0.020000175,0.012623227,0.046129905,0.88963455,-0.4543374,-0.12932794,0.4563125,0.88037103,0.9905283,0.018147083,0.13610426,10.065414,0.19023132,0.19621277,9.803907,0.19613472,0.123791575,-0.003479004,-0.027816772,0.0019226074,-32.218933,9.539795,24.238586,0,0.0,0.0,0.0,0.0
0.647460937,-0.01371546,0.9240883,-0.38193277,-0.019186545,0.38165516,0.92410564,0.9997219,0.020002505,0.012495488,0.043427154,0.8911162,-0.4516924,-0.12518153,0.45340925,0.882468,0.991183,0.018220467,0.13124156,10.069,0.1986084,0.24885559,9.803923,0.19615757,0.12253888,0.0015563965,-0.053771973,-0.0021972656,-32.218933,9.539795,24.238586,0,0.0,0.0,0.0,0.0
0.655761719,-0.013714613,0.9204361,-0.39065236,-0.0188635,0.3903814,0.92045987,0.99972796,0.019992825,0.012008716,0.04085421,0.8925292,-0.4491353,-0.12117666,0.45061848,0.8844542,0.9917899,0.018291036,0.12656337,10.079758,0.18185425,0.08973694,9.803983,0.19606264,0.11776528,0.007965088,-0.06401062,5.493164E-4,-32.398987,9.779358,24.179077,0,0.0,0.0,0.0,0.0
0.6640625,-0.013907089,0.92034024,-0.3908715,-0.018359253,0.39060834,0.9203739,0.9997347,0.01997583,0.011464533,0.03963343,0.8931264,-0.44805625,-0.11921162,0.4494323,0.8853243,0.9920775,0.018325072,0.1242836,10.079758,0.18185425,0.08973694,9.804049,0.19589597,0.112428665,0.0059814453,-0.05697632,-6.1035156E-5,-32.398987,9.779358,24.179077,0,0.0,0.0,0.0,0.0
0.672363281,-0.013934489,0.91703856,-0.39855498,-0.017976254,0.39829952,0.9170792,0.9997413,0.019943556,0.0109348195,0.037271153,0.8942764,-0.44596046,-0.11536838,0.4471372,0.88699406,0.99262327,0.018390443,0.11983653,10.051056,0.17945862,0.06700134,9.804113,0.19557948,0.10723395,0.003692627,-0.045074463,0.0016174316,-32.218933,10.018921,24.179077,0,0.0,0.0,0.0,0.0
0.680664062,-0.01418902,0.9196466,-0.39249027,-0.017455753,0.39224216,0.9196963,0.999747,0.019900806,0.010487594,0.035049364,0.8952276,-0.44422874,-0.111633725,0.4452271,0.88843167,0.99313116,0.018451948,0.115542516,10.064209,0.18902588,0.08734131,9.804169,0.19516024,0.102848165,0.0017089844,-0.027664185,0.001159668,-32.159424,9.899902,24.35913,0,0.0,0.0,0.0,0.0
0.688964844,-0.014264539,0.91960937,-0.39257485,-0.017197154,0.3923311,0.91966325,0.9997504,0.019869745,0.010218243,0.033959515,0.8957461,-0.443267,-0.109814376,0.44418165,0.8891813,0.99337184,0.018480925,0.11345,10.064209,0.18902588,0.08734131,9.804202,0.19485563,0.10020673,0.0043029785,-0.004135132,7.019043E-4,-32.159424,9.899902,24.35913,0,0.0,0.0,0.0,0.0
0.697265625,-0.014307767,0.919588,-0.39262328,-0.016955458,0.39238387,0.9196452,0.99975383,0.019815179,0.0099779,0.03185343,0.89674723,-0.44139525,-0.106265925,0.44215477,0.8906215,0.9938274,0.018535923,0.109377824,10.080963,0.19502258,0.06700134,9.804236,0.19432053,0.09784978,0.0038452148,0.018310547,5.493164E-4,-32.159424,9.899902,24.35913,0,0.0,0.0,0.0,0.0
0.705566406,-0.01402774,0.9152016,-0.4027519,-0.017295215,0.40250915,0.91525245,0.999752,0.019804608,0.010182317,0.029843438,0.89770335,-0.4395885,-0.10283833,0.44020814,0.89198714,0.9942503,0.018586583,0.105455644,10.076172,0.18544006,0.18544006,9.804218,0.19421686,0.099854425,0.0029296875,0.012496948,-0.0014343262,-31.799316,10.258484,24.41864,0,0.0,0.0,0.0,0.0
0.713867187,-0.013939256,0.9152456,-0.40265515,-0.017506005,0.4024092,0.9152925,0.9997496,0.01980738,0.01041301,0.02889802,0.89806867,-0.43890494,-0.10116942,0.43946135,0.89254606,0.99444944,0.018610945,0.10355665,10.076172,0.18544006,0.18544006,9.804194,0.19424404,0.10211674,0.006286621,0.007156372,-0.004180908,-31.799316,10.258484,24.41864,0,0.0,0.0,0.0,0.0
0.722167969,-0.013897827,0.91436476,-0.40465298,-0.017587885,0.40440592,0.91441053,0.9997487,0.019825308,0.010461377,0.027074747,0.8987776,-0.43756792,-0.09793425,0.4380075,0.8936209,0.9948245,0.018658325,0.09988006,10.058228,0.17347717,0.053833008,9.804186,0.19441986,0.10259107,0.0038452148,0.027008057,-0.0035705566,-32.03888,10.319519,24.41864,0,0.0,0.0,0.0,0.0
0.73046875,-0.013853147,0.91491044,-0.4034191,-0.017743565,0.40316933,0.91495335,0.99974656,0.019833077,0.010648609,0.025341582,0.8994186,-0.43635312,-0.09482037,0.43668795,0.894602,0.99517184,0.018704535,0.09634957,10.074982,0.18066406,0.086135864,9.804165,0.19449605,0.10442719,0.007659912,0.040298462,7.019043E-4,-31.858826,10.258484,24.35913,0,0.0,0.0,0.0,0.0
0.738769531,-0.013740938,0.91496646,-0.40329593,-0.017997567,0.40304232,0.9150043,0.9997435,0.019831363,0.01092899,0.024503043,0.8997405,-0.43573675,-0.093311846,0.4360232,0.8950847,0.99533534,0.018727107,0.09464035,10.074982,0.18066406,0.086135864,9.804135,0.19447924,0.10717679,0.009033203,0.047317505,-0.0038757324,-31.858826,10.258484,24.35913,0,0.0,0.0,0.0,0.0
0.747070312,-0.013610467,0.9150315,-0.40315273,-0.01831866,0.40289423,0.9150632,0.9997396,0.019839656,0.0112785725,0.02288648,0.90036625,-0.4345306,-0.09039052,0.4347278,0.8960141,0.9956434,0.018770834,0.09133396,10.065414,0.18066406,0.059814453,9.804096,0.19456056,0.11060502,0.009185791,0.06838989,-0.008605957,-31.858826,10.258484,24.35913,0,0.0,0.0,0.0,0.0
0.755371094,-0.013647885,0.9196614,-0.39247498,-0.01860554,0.39221,0.9196875,0.99973375,0.019854,0.01175796,0.021346813,0.90096825,-0.43335968,-0.08759251,0.43347707,0.89689755,0.9959277,0.018813157,0.08817142,10.076172,0.17108154,0.055038452,9.804039,0.19470122,0.1153062,0.013015747,0.08381653,-3.6621094E-4,-31.619263,10.079956,24.719238,0,0.0,0.0,0.0,0.0
0.763671875,-0.0134065,0.9197766,-0.3922132,-0.019117929,0.391941,0.91979176,0.9997274,0.019829493,0.012329668,0.020586515,0.90136033,-0.43258026,-0.08624704,0.4326601,0.8974222,0.996061,0.018833976,0.08664663,10.076172,0.17108154,0.055038452,9.803977,0.1944609,0.12091274,0.01576233,0.09039307,-0.001739502,-31.619263,10.079956,24.719238,0,0.0,0.0,0.0,0.0
0.771972656,-0.012970676,0.91758585,-0.39732614,-0.019879267,0.3970444,0.9175842,0.99971825,0.019800236,0.013090998,0.019127792,0.9021242,-0.4310523,-0.08365224,0.4310635,0.89843565,0.9963114,0.018873397,0.08371001,10.055832,0.17347717,0.15672302,9.803887,0.19417399,0.12837884,0.012237549,0.08747864,0.0029907227,-31.498718,10.258484,24.719238,0,0.0,0.0,0.0,0.0
0.780273437,-0.012636426,0.917746,-0.39696673,-0.020569602,0.39667583,0.91772825,0.99970853,0.01976225,0.013865107,0.018439716,0.9024459,-0.43040842,-0.08240295,0.4303888,0.8988744,0.9964285,0.018891936,0.08230045,10.055832,0.17347717,0.15672302,9.803792,0.19380148,0.13597025,0.013931274,0.09451294,3.9672852E-4,-31.498718,10.258484,24.719238,0,0.0,0.0,0.0,0.0
0.788574219,-0.012240037,0.9162565,-0.40040517,-0.021368776,0.40010402,0.9162206,0.99969673,0.019770741,0.01468199,0.017123155,0.9030754,-0.42914057,-0.08000294,0.42906484,0.8997238,0.9966476,0.0189264,0.07959563,10.060623,0.19979858,0.18902588,9.803676,0.19388473,0.14398113,0.008117676,0.08595276,-0.0026550293,-31.439209,10.198975,24.299622,0,0.0,0.0,0.0,0.0
0.796875,-0.01190906,0.9164182,-0.4000448,-0.02216167,0.399733,0.91636366,0.99968344,0.01977869,0.015548914,0.015890256,0.9036148,-0.42805108,-0.07772079,0.4279261,0.90046585,0.9968485,0.018959835,0.07702951,10.041473,0.18664551,0.26200867,9.803546,0.1939627,0.15248276,0.007507324,0.06838989,-0.0032653809,-31.439209,10.198975,24.299622,0,0.0,0.0,0.0,0.0
0.805175781,-0.011702408,0.91761166,-0.39730573,-0.022800904,0.39698476,0.9175419,0.9996715,0.01979638,0.016276699,0.015300956,0.90387946,-0.42751354,-0.076628454,0.42736617,0.9008254,0.99694234,0.018976212,0.075802,10.041473,0.18664551,0.26200867,9.803429,0.19413619,0.1596199,0.008117676,0.053878784,-0.007232666,-31.3797,10.198975,24.479675,0,0.0,0.0,0.0,0.0
0.813476562,-0.011539926,0.9176898,-0.39713004,-0.023265485,0.39680257,0.91760916,0.99966276,0.019828564,0.016771426,0.014164133,0.9044425,-0.42636037,-0.0745346,0.42617187,0.90156645,0.9971178,0.01900869,0.07344862,10.040283,0.20458984,0.21176147,9.803343,0.1944518,0.1644715,7.9345703E-4,0.03907776,0.005279541,-31.3797,10.198975,24.479675,0,0.0,0.0,0.0,0.0
0.821777344,-0.010907518,0.9101554,-0.41412348,-0.023838202,0.4137937,0.91005856,0.9996563,0.019798435,0.017183004,0.01308408,0.904985,-0.42524227,-0.07253885,0.42501718,0.9022741,0.99727976,0.019041158,0.07120753,10.063019,0.1758728,0.24287415,9.80328,0.19415633,0.16850771,-0.0010375977,0.022277832,-0.0050964355,-31.439209,10.679626,24.299622,0,0.0,0.0,0.0,0.0
0.830078125,-0.010780143,0.9102191,-0.41398662,-0.024097651,0.41365394,0.9101151,0.99965143,0.019787278,0.017474895,0.012592673,0.90508974,-0.42503414,-0.071572244,0.4247934,0.90245664,0.99735594,0.019056305,0.07012859,10.063019,0.1758728,0.24287415,9.803232,0.19404691,0.17137018,0.0058288574,0.009750366,-0.0047912598,-31.439209,10.679626,24.299622,0,0.0,0.0,0.0,0.0
0.838378906,-0.010929463,0.91389054,-0.40581343,-0.024100937,0.40547904,0.9137866,0.9996498,0.019767683,0.017593952,0.011645293,0.9052955,-0.42462274,-0.069705956,0.42435345,0.9028097,0.9974996,0.01908525,0.068046205,10.066605,0.15911865,0.22492981,9.803216,0.19385475,0.17253773,0.0030822754,-0.016204834,-8.239746E-4,-31.619263,10.438538,24.35913,0,0.0,0.0,0.0,0.0
0.846679687,-0.01090006,0.9139051,-0.4057815,-0.024104282,0.40544754,0.9138004,0.99965,0.019741552,0.017609626,0.010715682,0.90564334,-0.42390496,-0.06792017,0.42360944,0.90329504,0.9976333,0.019112272,0.066050716,10.059433,0.16630554,0.29910278,9.803219,0.19359851,0.17269145,0.0058288574,-0.04675293,-0.0028076172,-31.619263,10.438538,24.35913,0,0.0,0.0,0.0,0.0
0.854980469,-0.010875355,0.9125733,-0.40876848,-0.023956582,0.40843755,0.91247183,0.9996539,0.019716151,0.017420234,0.010266341,0.90581214,-0.4235552,-0.06705336,0.42324772,0.90352935,0.99769664,0.019124858,0.06508295,10.059433,0.16630554,0.29910278,9.803256,0.1933494,0.17083414,0.003540039,-0.06278992,-0.0050964355,-31.318665,10.618591,24.539185,0,0.0,0.0,0.0,0.0
0.86328125,-0.011022244,0.9125014,-0.40892485,-0.023543041,0.4085995,0.91240996,0.99966204,0.019684142,0.01697938,0.009402718,0.9060844,-0.42299238,-0.06536202,0.42266336,0.9039267,0.9978173,0.019148273,0.0631977,10.051056,0.1483612,0.21774292,9.803336,0.1930355,0.16651084,0.011489868,-0.075912476,-0.0023498535,-31.318665,10.618591,24.539185,0,0.0,0.0,0.0,0.0
0.871582031,-0.010283229,0.9149888,-0.40334806,-0.02242134,0.40305698,0.9149001,0.9996957,0.018451734,0.016370548,0.008569511,0.9063427,-0.42245638,-0.06372002,0.42210826,0.90430325,0.997931,0.019169495,0.061369434,10.058228,-0.7154541,0.13998413,9.803666,0.18094969,0.16054024,0.05378723,-0.03956604,-0.004180908,-31.3797,10.438538,24.479675,0,0.0,0.0,0.0,0.0
0.879882812,-0.009375123,0.91542846,-0.40237147,-0.021507746,0.40211144,0.91533804,0.9997247,0.017235512,0.015918959,0.008175543,0.9065196,-0.42208457,-0.06290261,0.42172897,0.9045374,0.9979862,0.01915514,0.06047031,10.058228,-0.7154541,0.13998413,9.803951,0.16902265,0.15611167,0.06906128,-0.016052246,-0.0038757324,-31.3797,10.438538,24.479675,0,0.0,0.0,0.0,0.0
0.888183594,-0.0080539,0.9137112,-0.40628427,-0.02088603,0.4060551,0.9136098,0.99974936,0.015843788,0.015813475,0.0074466616,0.90688044,-0.42132226,-0.061279498,0.4209559,0.9050088,0.99809283,0.019079123,0.058707893,10.085754,-0.8566284,0.17706299,9.804193,0.1553745,0.15507722,0.07867432,0.024108887,3.9672852E-4,-31.559753,10.499573,24.238586,0,0.0,0.0,0.0,0.0
0.896484375,-0.0056561125,0.91488653,-0.40367135,-0.020180268,0.40349117,0.91476095,0.99978036,0.013320189,0.016180465,0.0068076067,0.9071557,-0.4207401,-0.059691325,0.4203682,0.9053881,0.9981937,0.018951006,0.057011023,10.082153,-1.6773682,0.33499146,9.804497,0.13062644,0.15867618,0.10279846,0.06991577,0.005584717,-31.559753,10.499573,24.238586,0,0.0,0.0,0.0,0.0
0.904785156,-0.0032178303,0.9172414,-0.398319,-0.019726865,0.39818534,0.917093,0.99980026,0.010808632,0.016813003,0.00654383,0.9073136,-0.42040363,-0.058906384,0.42003232,0.9055953,0.9982421,0.018838396,0.056195185,10.082153,-1.6773682,0.33499146,9.804691,0.105996475,0.16487923,0.18281555,0.06991577,0.005584717,-31.619263,10.258484,23.878479,0,0.0,0.0,0.0,0.0
0.913085937,-1.7318074E-4,0.9187153,-0.39492053,-0.019170793,0.3948449,0.91854775,0.9998162,0.007730014,0.01754412,0.006121099,0.9077177,-0.41953665,-0.057364997,0.41917235,0.9060926,0.99833447,0.018520435,0.054637022,10.069,-2.099701,0.3134613,9.804848,0.075805545,0.17204905,0.22467041,0.069610596,0.011398315,-31.619263,10.258484,23.878479,0,0.0,0.0,0.0,0.0
0.921386719,0.0027216796,0.922781,-0.3853153,-0.0186818,0.38529637,0.9226037,0.9998217,0.0046873507,0.018287862,0.005832579,0.9081676,-0.41856617,-0.055860113,0.4182156,0.90662855,0.9984216,0.018093169,0.053169623,10.043869,-2.1942139,0.19142151,9.804902,0.04596721,0.17934267,0.33476257,0.09069824,0.006515503,-31.739807,10.139465,24.058533,0,0.0,0.0,0.0,0.0
0.9296875,0.005789427,0.9241995,-0.38186595,-0.018130621,0.38190657,0.9240229,0.9998188,0.001573903,0.018967334,0.0057438016,0.908473,-0.41790408,-0.05511925,0.41756323,0.90697455,0.9984633,0.017825076,0.052472748,10.043869,-2.1942139,0.19142151,9.804873,0.015434717,0.18600601,0.3749237,0.09863281,0.006210327,-31.739807,10.139465,24.058533,0,0.0,0.0,0.0,0.0
0.937988281,0.008643356,0.92923373,-0.3693915,-0.017888837,0.36948985,0.92906255,0.9998026,-0.0014222347,0.01981654,0.0056899283,0.90912664,-0.41648087,-0.053655207,0.4161652,0.90770453,0.99854326,0.017181594,0.05114733,10.067795,-2.157135,0.24885559,9.804714,-0.013947358,0.19433388,0.44898987,0.08930969,0.007736206,-32.099915,9.719849,23.699951,0,0.0,0.0,0.0,0.0
0.946289062,0.00936656,0.92956203,-0.3685466,-0.01848766,0.36866075,0.92938006,0.9997852,-0.0018915301,0.020638512,0.005736567,0.9099738,-0.41462597,-0.0522334,0.41433942,0.90862226,0.9986184,0.016444953,0.049907915,10.041473,-2.4717865,0.25723267,9.8045435,-0.018549575,0.20239466,0.5079346,0.101989746,0.006515503,-32.099915,9.719849,23.699951,0,0.0,0.0,0.0,0.0
0.954589844,0.0099834,0.93242943,-0.3612141,-0.01918042,0.36134422,0.9322352,0.99976623,-0.0023786384,0.021491833,0.0057757013,0.91039073,-0.41370922,-0.05155502,0.413437,0.90907204,0.9986535,0.016078258,0.049323097,10.041473,-2.4717865,0.25723267,9.804358,-0.023326475,0.21076289,0.539093,0.10870361,0.007736206,-32.159424,9.47876,23.579407,0,0.0,0.0,0.0,0.0
0.962890625,0.010786728,0.9327885,-0.3602628,-0.019929992,0.36041275,0.93258,0.99974316,-0.0028794517,0.02247814,0.005871361,0.9113252,-0.41164532,-0.050263572,0.41140103,0.9100675,0.99871874,0.01534743,0.048221942,10.097717,-2.5567322,0.4175415,9.8041315,-0.028237777,0.22043526,0.5675049,0.13238525,0.01322937,-32.159424,9.47876,23.579407,0,0.0,0.0,0.0,0.0
0.971191406,0.011863902,0.9305976,-0.36585176,-0.020681638,0.36602762,0.93037426,0.99971575,-0.003471455,0.023588793,0.006000965,0.91223425,-0.40962493,-0.049051635,0.4094077,0.91103196,0.99877816,0.014625702,0.04720342,10.100098,-2.9228363,0.44386292,9.803863,-0.034043346,0.23132704,0.5959015,0.13208008,0.01612854,-32.339478,9.658813,23.519897,0,0.0,0.0,0.0,0.0
0.979492187,0.012838125,0.93103915,-0.36469358,-0.02159944,0.36489674,0.9307974,0.9996842,-0.0040725158,0.024794511,0.0060914494,0.9126244,-0.40875366,-0.048478648,0.4085501,0.9114475,0.99880564,0.014263787,0.04673146,10.100098,-2.9228363,0.44386292,9.803554,-0.03993774,0.2431511,0.5997162,0.1749878,0.012924194,-32.339478,9.658813,23.519897,0,0.0,0.0,0.0,0.0
0.987792969,0.013986981,0.9294992,-0.3685587,-0.022647085,0.36879468,0.92923486,0.99964565,-0.0046504107,0.026208773,0.0063091395,0.9133987,-0.4070173,-0.04740179,0.406841,0.9122683,0.998856,0.01353772,0.04586355,10.053452,-2.8223267,0.38046265,9.803175,-0.04560495,0.25702026,0.5699463,0.21270752,0.021621704,-32.398987,9.599304,22.979736,0,0.0,0.0,0.0,0.0
0.99609375,0.015161666,0.93004566,-0.3671308,-0.024026876,0.36740583,0.9297502,0.9995963,-0.0052755564,0.027916582,0.006573407,0.91407174,-0.4054992,-0.04640928,0.40534988,0.9129828,0.9989009,0.012817516,0.04508594,10.074982,-2.7278137,0.3397827,9.802691,-0.051735535,0.27376816,0.552536,0.24752808,0.0068206787,-32.398987,9.599304,22.979736,0,0.0,0.0,0.0,0.0
1.004394531,0.016685018,0.9258354,-0.37755877,-0.025466867,0.37788233,0.9255034,0.9995364,-0.0058268015,0.029883094,0.006726645,0.91440946,-0.4047346,-0.045954518,0.40459883,0.9133389,0.9989209,0.012455677,0.04474284,10.074982,-2.7278137,0.3397827,9.802104,-0.057141405,0.29305306,0.4740448,0.27760315,0.010177612,-32.63855,9.959412,22.979736,0,0.0,0.0,0.0,0.0
1.012695312,0.017906696,0.92641604,-0.37607527,-0.027286578,0.37644827,0.9260357,0.99946725,-0.006320433,0.03201967,0.007097764,0.91488236,-0.40365806,-0.045132205,0.40354997,0.9138438,0.9989558,0.011731731,0.04415496,10.040283,-2.5938263,-0.07058716,9.801426,-0.061982278,0.3140057,0.42700195,0.28141785,0.01322937,-32.63855,9.959412,22.979736,0,0.0,0.0,0.0,0.0
1.020996094,0.019445682,0.9244348,-0.3808442,-0.028981207,0.38127735,0.92400634,0.9993908,-0.0069306097,0.03420543,0.0075052045,0.9153599,-0.40256658,-0.044413198,0.4024858,0.9143482,0.99898505,0.0110169,0.043674804,10.07019,-3.0998993,-0.17108154,9.800675,-0.06796606,0.33544067,0.2950592,0.26187134,0.006958008,-32.818604,9.959412,22.499084,0,0.0,0.0,0.0,0.0
1.029296875,0.020758292,0.9250763,-0.37921357,-0.030754723,0.37970665,0.92459565,0.9993114,-0.0075304164,0.036332525,0.007736775,0.91554904,-0.40213186,-0.044099018,0.40206504,0.9145485,0.9989972,0.010657964,0.043485504,10.07019,-3.0998993,-0.17108154,9.799897,-0.07384816,0.35630038,0.24221802,0.28034973,0.0057373047,-32.818604,9.959412,22.499084,0,0.0,0.0,0.0,0.0
1.037597656,0.022256669,0.9239136,-0.3819532,-0.03247343,0.38251433,0.9233787,0.9992247,-0.0081480015,0.03851614,0.00823959,0.9159425,-0.40122503,-0.04355817,0.40118662,0.9149601,0.99901694,0.0099377325,0.04320239,10.095322,-3.2291107,-0.24645996,9.799047,-0.0799046,0.37771434,0.16694641,0.2979126,-0.0038757324,-32.87964,10.018921,22.31903,0,0.0,0.0,0.0,0.0
1.045898437,0.023815535,0.9246795,-0.3800006,-0.034465432,0.38064185,0.92407984,0.999122,-0.008910575,0.040934674,0.008785814,0.91627103,-0.40046266,-0.043108247,0.40045285,0.9153029,0.99903184,0.009221561,0.043017138,10.096512,-3.961319,0.2679901,9.79804,-0.08738289,0.40143204,0.1194458,0.28738403,0.0155181885,-32.87964,10.018921,22.31903,0,0.0,0.0,0.0,0.0
1.054199219,0.025833758,0.9208502,-0.38905972,-0.036086608,0.38979498,0.92019427,0.9990147,-0.0097322315,0.04330023,0.009082605,0.91644627,-0.4000547,-0.042928874,0.40005973,0.9154831,0.9990369,0.008858928,0.042975597,10.096512,-3.961319,0.2679901,9.796988,-0.09544059,0.4246302,0.11303711,0.2313385,0.021011353,-32.939148,10.379028,22.37854,0,0.0,0.0,0.0,0.0
1.0625,0.027285377,0.9215683,-0.3872561,-0.037701312,0.38807338,0.9208569,0.99891645,-0.010525866,0.04533307,0.009743018,0.9166289,-0.3996205,-0.04265083,0.39965674,0.9156721,0.9990426,0.008122736,0.042988848,10.063019,-3.4205475,0.5850525,9.796024,-0.10322349,0.44456553,0.13166809,0.17285156,0.03048706,-32.939148,10.379028,22.37854,0,0.0,0.0,0.0,0.0
1.070800781,0.029446015,0.9141643,-0.40427276,-0.038298696,0.405183,0.913433,0.99883235,-0.011413843,0.046942327,0.010435306,0.9168334,-0.39913365,-0.04244631,0.39920178,0.91588,0.99904424,0.0073842634,0.043081988,10.13121,-3.7830505,0.6544342,9.7952,-0.11193158,0.46034703,0.10983276,0.14291382,-0.0032653809,-32.759094,10.978699,22.439575,0,0.0,0.0,0.0,0.0
1.079101562,0.030669177,0.91477937,-0.40278804,-0.039275862,0.4037693,0.91401744,0.99875766,-0.012212312,0.048312016,0.010816067,0.9167835,-0.399238,-0.042365693,0.399323,0.9158309,0.9990436,0.0070083053,0.043159273,10.13121,-3.7830505,0.6544342,9.794467,-0.11976187,0.47377905,0.14021301,0.13130188,-3.6621094E-4,-32.759094,10.978699,22.439575,0,0.0,0.0,0.0,0.0
1.087402344,0.03174979,0.9150756,-0.40203065,-0.040024996,0.4030748,0.9142913,0.99869406,-0.012937281,0.049423434,0.0112135075,0.91674703,-0.3993109,-0.042305782,0.3994134,0.9157943,0.99904174,0.006623895,0.043262523,10.034302,-3.4157562,0.6663971,9.793843,-0.12687139,0.48467833,0.14511108,0.095581055,0.0084991455,-33.17871,10.798645,21.958923,0,0.0,0.0,0.0,0.0
1.095703125,0.032796178,0.91561556,-0.4007151,-0.040872093,0.40182406,0.9148043,0.998626,-0.013624019,0.050601415,0.012027251,0.9166877,-0.39942324,-0.04221845,0.39956146,0.9157337,0.999036,0.0058492715,0.04350676,10.034302,-3.4157562,0.6663971,9.793176,-0.13360599,0.49623036,0.11395264,0.16871643,0.0103302,-33.17871,10.798645,21.958923,0,0.0,0.0,0.0,0.0
1.104003906,0.034007527,0.91552544,-0.4008199,-0.041847687,0.40200457,0.91468084,0.99854505,-0.014332651,0.051983807,0.012850035,0.916652,-0.39947957,-0.04216697,0.39965394,0.9156957,0.99902797,0.005078123,0.04378801,10.057037,-3.402588,0.6999054,9.792382,-0.14055529,0.509787,0.036987305,0.072525024,-0.013504028,-33.4198,10.618591,21.418762,0,0.0,0.0,0.0,0.0
1.112304687,0.03487325,0.9159839,-0.39969638,-0.042546995,0.4009378,0.91511667,0.9984856,-0.014907216,0.052954372,0.013273376,0.9166329,-0.39950955,-0.042161692,0.39970246,0.9156748,0.9990226,0.0046899025,0.043952197,10.137192,-3.5198364,0.7513428,9.7918,-0.14618985,0.519305,-0.0068359375,0.057250977,-0.03945923,-33.4198,10.618591,21.418762,0,0.0,0.0,0.0,0.0
1.120605469,0.035515074,0.9163226,-0.39886284,-0.04294566,0.40014532,0.91544497,0.998446,-0.015382666,0.05356327,0.014129055,0.91661406,-0.39952368,-0.042178057,0.3997543,0.91565144,0.9990102,0.0039138426,0.044309147,10.022339,-3.9505463,0.8889313,9.79141,-0.15085243,0.52527624,0.0033874512,0.07420349,-0.02418518,-33.4198,10.618591,21.418762,0,0.0,0.0,0.0,0.0
1.12890625,0.036424387,0.9153634,-0.4009775,-0.04324447,0.40231162,0.91448075,0.9984003,-0.01596934,0.054238368,0.01497624,0.9166089,-0.39950442,-0.04220868,0.39977264,0.91564196,0.99899656,0.0031496817,0.044675946,9.996017,-3.891922,1.085144,9.790962,-0.15660574,0.5318967,0.038513184,0.099243164,-0.008148193,-33.4198,10.739136,21.479797,0,0.0,0.0,0.0,0.0
1.137207031,0.03789469,0.90926695,-0.41448474,-0.04300451,0.4158823,0.9084011,0.9983559,-0.016598862,0.05486231,0.015405359,0.91658735,-0.39953756,-0.04223061,0.3998249,0.9156181,0.9989891,0.0027672895,0.044867493,10.017548,-3.3523407,1.1712799,9.790527,-0.16277923,0.5380155,0.061569214,0.012649536,-0.01701355,-33.239746,11.039734,21.1792,0,0.0,0.0,0.0,0.0
1.145507812,0.038524803,0.9096095,-0.41367438,-0.043185964,0.41511053,0.9087455,0.99832404,-0.01714431,0.05527441,0.016295644,0.9163095,-0.4001392,-0.04227616,0.4004659,0.9153359,0.998973,0.0020003626,0.045263894,10.017548,-3.3523407,1.1712799,9.790215,-0.16812824,0.5420568,0.10020447,-0.014526367,0.0032958984,-33.239746,11.039734,21.1792,0,0.0,0.0,0.0,0.0
1.153808594,0.03896434,0.91054714,-0.41156492,-0.04315748,0.41302687,0.9096957,0.9983082,-0.01768359,0.05539024,0.017175565,0.916055,-0.40068465,-0.042325485,0.40105072,0.9150775,0.9989562,0.0012422019,0.04566075,10.02832,-3.139389,0.9451599,9.790059,-0.17341678,0.5431927,0.06568909,0.019073486,0.0022277832,-33.47931,10.978699,21.11969,0,0.0,0.0,0.0,0.0
1.162109375,0.039652687,0.91092205,-0.41066864,-0.043455634,0.41217512,0.91006774,0.9982681,-0.018240765,0.055928543,0.017611215,0.9159497,-0.4009066,-0.04234755,0.4012923,0.9149706,0.99894774,8.6366816E-4,0.04585547,9.981659,-3.0963135,1.195221,9.789667,-0.17888081,0.5484717,0.016220093,0.20643616,-0.011047363,-33.47931,10.978699,21.11969,0,0.0,0.0,0.0,0.0
1.170410156,0.04054039,0.91140366,-0.40951177,-0.04454204,0.41108972,0.910506,0.99818456,-0.018671779,0.057261515,0.018483879,0.9157594,-0.40130174,-0.04240132,0.4017272,0.9147773,0.9989297,1.07093394E-4,0.04625489,10.031906,-2.646469,0.7692871,9.788847,-0.18310761,0.56154364,-0.0440979,0.22537231,-0.019454956,-33.47931,10.978699,21.11969,0,0.0,0.0,0.0,0.0
1.178710937,0.041568965,0.90911776,-0.41445974,-0.045539744,0.41611114,0.9081726,0.99809724,-0.018877408,0.058698304,0.01935688,0.9155949,-0.40163586,-0.042494647,0.40210155,0.9146084,0.9989092,-6.365922E-4,0.046691313,10.082153,-1.9094696,0.30867004,9.787992,-0.18512414,0.57563376,-0.22155762,0.1317749,-0.0435791,-33.718872,11.279297,21.359253,0,0.0,0.0,0.0,0.0
1.187011719,0.04208751,0.91077924,-0.4107431,-0.04647794,0.41244707,0.90979517,0.9980323,-0.019200519,0.05969001,0.019800363,0.9154704,-0.40189785,-0.042562123,0.4023841,0.914481,0.9988976,-0.0010014306,0.046931718,10.153946,-2.946762,0.5288086,9.7873535,-0.18829277,0.58535904,-0.3530426,0.051132202,-0.06770325,-34.01947,10.798645,20.458984,0,0.0,0.0,0.0,0.0
1.1953125,0.042649366,0.9110981,-0.40997714,-0.04713431,0.41172847,0.91008675,0.9979776,-0.019490637,0.060503937,0.020681692,0.91529244,-0.4022586,-0.04272633,0.40278625,0.91429627,0.9988727,-0.0017221599,0.04743739,10.168304,-4.1611176,0.82432556,9.786818,-0.19113787,0.59334093,-0.468338,0.11039734,-0.1304779,-34.01947,10.798645,20.458984,0,0.0,0.0,0.0,0.0
1.203613281,0.04295439,0.9119602,-0.40802386,-0.048279915,0.40981844,0.9108885,0.99790984,-0.019427303,0.061632864,0.021550398,0.91513354,-0.4025745,-0.04290891,0.4031436,0.9141302,0.99884653,-0.0024258383,0.047955286,10.168304,-4.1611176,0.82432556,9.786152,-0.19051675,0.6044119,-0.3657074,0.17254639,-0.05519104,-33.779907,10.798645,20.579529,0,0.0,0.0,0.0,0.0
1.211914062,0.043566074,0.91230017,-0.40719825,-0.049719024,0.40906003,0.91115195,0.9978126,-0.019449813,0.06317981,0.021977969,0.9150731,-0.4026887,-0.043019366,0.40327853,0.91406554,0.99883246,-0.0027658904,0.04822911,9.554535,-3.4229279,1.1928253,9.785199,-0.19073752,0.61958236,-0.30111694,0.18307495,-0.044036865,-33.779907,10.798645,20.579529,0,0.0,0.0,0.0,0.0
1.220214844,0.044363286,0.91274166,-0.4061213,-0.05053718,0.40805146,0.91155905,0.99773633,-0.019915532,0.0642299,0.022831818,0.9149688,-0.40287817,-0.043289848,0.40351006,0.91395056,0.99880165,-0.0034266184,0.04882173,10.094116,-3.2279205,0.9918213,9.7844515,-0.19530466,0.62988013,-0.27468872,0.02243042,-0.029830933,-33.779907,10.798645,20.579529,0,0.0,0.0,0.0,0.0
1.228515625,0.045050416,0.9133518,-0.40467152,-0.05060268,0.40664917,0.912182,0.9977023,-0.020616712,0.064537756,0.023683716,0.91488576,-0.4030175,-0.043580957,0.40369216,0.9138563,0.9987691,-0.004079626,0.049432527,10.003189,-3.7722778,0.97029114,9.784118,-0.20218088,0.6328992,-0.25912476,-0.07133484,0.010940552,-33.4198,10.978699,21.058655,0,0.0,0.0,0.0,0.0
1.236816406,0.045288555,0.9162913,-0.39794362,-0.050319664,0.3999391,0.91515934,0.9977058,-0.02142185,0.06422014,0.024110945,0.9148576,-0.40305603,-0.043722805,0.40375245,0.9138229,0.9987527,-0.004410393,0.049734995,10.13002,-3.329605,0.9104614,9.784152,-0.21007659,0.62978446,-0.20628357,-0.14631653,0.035064697,-33.239746,10.919189,21.359253,0,0.0,0.0,0.0,0.0
1.245117187,0.04569442,0.9164992,-0.39741826,-0.048984848,0.39941096,0.91546243,0.99775374,-0.022364048,0.06314542,0.02495126,0.91491973,-0.40286383,-0.043980766,0.40360373,0.9138762,0.9987207,-0.0050841034,0.050309293,10.157532,-3.2662048,0.82192993,9.784622,-0.21931641,0.61924505,-0.21253967,-0.18586731,0.018722534,-33.239746,10.919189,21.359253,0,0.0,0.0,0.0,0.0
1.253417969,0.04587151,0.9165897,-0.39718896,-0.047143072,0.39915082,0.9156725,0.9978343,-0.023278572,0.06152051,0.025774054,0.9149879,-0.4026572,-0.044175208,0.40344003,0.9139391,0.99869126,-0.005768452,0.050818067,10.157532,-3.2662048,0.82192993,9.785413,-0.22828482,0.60331017,-0.2659912,-0.25993347,0.014144897,-33.239746,10.919189,21.359253,0,0.0,0.0,0.0,0.0
1.26171875,0.046066165,0.9144237,-0.4021283,-0.04485999,0.40404323,0.9136392,0.9979306,-0.024048382,0.059633765,0.026176512,0.9150229,-0.40255174,-0.0442327,0.40335554,0.91397357,0.9986782,-0.006118689,0.051032376,9.968506,-2.7505493,0.53479004,9.786357,-0.23583409,0.5848075,-0.30523682,-0.14509583,0.011398315,-33.47931,11.158752,21.539307,0,0.0,0.0,0.0,0.0
1.270019531,0.046138752,0.91446114,-0.40203482,-0.04325883,0.40391496,0.9137731,0.99799794,-0.024768796,0.058194652,0.02696453,0.9150047,-0.40254113,-0.044258088,0.40338543,0.9139592,0.9986562,-0.00682878,0.05137346,10.04866,-2.342575,0.36968994,9.787016,-0.2428989,0.57069457,-0.4443512,-0.06996155,0.017654419,-33.47931,11.158752,21.539307,0,0.0,0.0,0.0,0.0
1.278320312,0.04560555,0.92340255,-0.3811141,-0.043239407,0.38297817,0.92274487,0.9980233,-0.025603136,0.057393305,0.0273482,0.91499674,-0.40253335,-0.04423833,0.4033973,0.913955,0.9986467,-0.0071876203,0.051510114,10.085754,-2.5459595,0.5635071,9.787266,-0.25108102,0.5628361,-0.50743103,-0.073776245,0.021316528,-33.599854,10.499573,21.418762,0,0.0,0.0,0.0,0.0
1.286621094,0.0462456,0.92396957,-0.3796597,-0.04272934,0.38154817,0.9233607,0.99801576,-0.026478766,0.05712554,0.028070284,0.9153441,-0.401693,-0.044183046,0.40259472,0.9143114,0.99862903,-0.007916962,0.051743638,10.179062,-2.4753723,1.2430725,9.787191,-0.259668,0.56021017,-0.51231384,0.027313232,0.01399231,-33.358765,10.618591,21.77887,0,0.0,0.0,0.0,0.0
1.294921875,0.046941515,0.9243048,-0.3787572,-0.04258009,0.3806821,0.92372507,0.9979897,-0.02723354,0.057226785,0.028788574,0.91570085,-0.4008281,-0.044109177,0.4017674,0.9146788,0.99861187,-0.008652102,0.051957127,10.058228,-2.030304,1.154541,9.786936,-0.2670698,0.56120306,-0.48513794,0.019683838,0.025909424,-33.358765,10.618591,21.77887,0,0.0,0.0,0.0,0.0
1.303222656,0.047732376,0.9246843,-0.37773088,-0.042793214,0.37970778,0.92411613,0.997943,-0.02794594,0.057694566,0.02915083,0.91588074,-0.4003906,-0.044070154,0.40134895,0.91486436,0.99860305,-0.009023781,0.052062664,10.180267,-1.655838,1.4488525,9.786478,-0.27405605,0.5657904,-0.48513794,0.1146698,0.04055786,-33.358765,10.618591,21.77887,0,0.0,0.0,0.0,0.0
1.311523437,0.04855479,0.92542857,-0.37579834,-0.043472867,0.37784365,0.9248484,0.9978741,-0.028568784,0.05857715,0.02988538,0.91624534,-0.39950144,-0.044002593,0.40049848,0.9152403,0.99858433,-0.009773204,0.052286215,10.119247,-1.3399811,1.3734741,9.785802,-0.28016406,0.5744456,-0.48039246,0.143219,-0.015640259,-33.17871,10.438538,21.418762,0,0.0,0.0,0.0,0.0
1.319824219,0.049375936,0.925823,-0.37471852,-0.044431522,0.37684077,0.9252118,0.99779147,-0.029033886,0.059742585,0.030624043,0.9166257,-0.39857176,-0.043963753,0.39960814,0.91563123,0.99856365,-0.010517619,0.05253592,10.119247,-1.3399811,1.3734741,9.784992,-0.28472516,0.5858746,-0.4942932,0.14505005,0.0019226074,-33.17871,10.438538,21.418762,0,0.0,0.0,0.0,0.0
1.328125,0.049866702,0.9293072,-0.36592528,-0.04588431,0.36812592,0.92864305,0.99770135,-0.029518139,0.060997855,0.030999225,0.9168183,-0.3980996,-0.04396379,0.3991562,0.91582835,0.9985521,-0.010888,0.052680343,9.933807,-1.5194397,1.4990997,9.784108,-0.28947407,0.59818465,-0.4942932,0.14093018,8.544922E-4,-32.998657,10.559082,22.31903,0,0.0,0.0,0.0,0.0
1.336425781,0.050434113,0.9319387,-0.35909122,-0.047180884,0.3613706,0.93122774,0.99761236,-0.03002341,0.062195107,0.031748258,0.9173387,-0.39683974,-0.044014838,0.39793786,0.9163559,0.9985263,-0.011625868,0.053010345,10.030716,-1.0588226,1.2921295,9.783235,-0.29442906,0.6099256,-0.45718384,0.09588623,0.0022277832,-33.299255,10.379028,22.259521,0,0.0,0.0,0.0,0.0
1.344726562,0.051063318,0.9322168,-0.35827968,-0.047982763,0.36062345,0.9314765,0.9975421,-0.03037303,0.06314497,0.032491915,0.9179503,-0.39536268,-0.044110592,0.39650315,0.91697305,0.9984982,-0.012354527,0.053374477,10.187439,-0.7848511,0.9224396,9.782546,-0.29785767,0.6192406,-0.38845825,0.17056274,-0.0015869141,-33.299255,10.379028,22.259521,0,0.0,0.0,0.0,0.0
1.353027344,0.05160565,0.93245566,-0.3575797,-0.049021967,0.35999045,0.9316672,0.9974637,-0.030550035,0.064288355,0.032865785,0.9182521,-0.39463013,-0.044173203,0.39579216,0.91727716,0.9984832,-0.012714955,0.05357016,10.000809,0.025131226,1.0695953,9.781777,-0.2995935,0.6304534,-0.35517883,0.16520691,0.011245728,-33.299255,10.379028,22.259521,0,0.0,0.0,0.0,0.0
1.361328125,0.051514897,0.9355182,-0.3495022,-0.05025951,0.35195202,0.9346677,0.9974068,-0.030583503,0.06514946,0.033614147,0.91884637,-0.39318115,-0.044336367,0.3943871,0.9178743,0.998451,-0.013421336,0.053995296,10.244873,0.7298126,0.3756714,9.781219,-0.2999217,0.63889796,-0.26156616,0.03831482,0.015213013,-33.659363,10.079956,22.019958,0,0.0,0.0,0.0,0.0
1.369628906,0.05150783,0.9355151,-0.3495116,-0.050641887,0.3519726,0.9346392,0.9973877,-0.030441318,0.0655056,0.034331817,0.91954863,-0.39147374,-0.044537783,0.39272323,0.9185777,0.99841756,-0.014101068,0.054437555,9.974487,1.1976013,0.36968994,9.781033,-0.29852736,0.64239055,-0.24751282,-0.06492615,-0.07397461,-33.659363,10.079956,22.019958,0,0.0,0.0,0.0,0.0
1.377929687,0.05096786,0.9357995,-0.34882864,-0.050646953,0.35125512,0.93490887,0.99741524,-0.029983202,0.065298125,0.03467986,0.9198879,-0.39064512,-0.044644095,0.39191598,0.9189171,0.99840087,-0.014427924,0.054659154,9.974487,1.1976013,0.36968994,9.781302,-0.29403478,0.6403559,-0.25942993,-0.05987549,-0.046936035,-33.95996,10.079956,22.079468,0,0.0,0.0,0.0,0.0
1.386230469,0.04965384,0.93883836,-0.3407595,-0.050705314,0.34310994,0.93792564,0.99747854,-0.029293297,0.06464082,0.035333484,0.920556,-0.38900927,-0.044852823,0.39032078,0.91958576,0.99836856,-0.015044004,0.055080924,9.893127,1.8245239,0.095718384,9.781923,-0.28726912,0.6339099,-0.3435669,-0.042617798,0.006210327,-33.898926,9.719849,21.839905,0,0.0,0.0,0.0,0.0
1.39453125,0.049308643,0.9386865,-0.34122768,-0.050537392,0.34355047,0.93777347,0.99750423,-0.02899558,0.064378776,0.03562464,0.92094696,-0.3880563,-0.04495433,0.38938648,0.9199768,0.99835366,-0.0153290285,0.055272304,9.893127,1.8245239,0.095718384,9.782175,-0.2843495,0.63134015,-0.4246521,0.0975647,0.038879395,-33.898926,9.719849,21.839905,0,0.0,0.0,0.0,0.0
1.402832031,0.049065873,0.9385795,-0.34155688,-0.050528847,0.34386346,0.9376592,0.9975166,-0.028748589,0.064297296,0.036175054,0.92169553,-0.38622367,-0.04514745,0.38758934,0.92072594,0.9983251,-0.015870295,0.05563327,10.169495,2.4705963,0.6017914,9.782296,-0.28192735,0.6305411,-0.6347809,-0.109054565,-0.017318726,-33.898926,9.719849,21.839905,0,0.0,0.0,0.0,0.0
1.411132812,0.048373293,0.9394745,-0.33918637,-0.050134003,0.34143957,0.93856555,0.99757034,-0.028396748,0.063616194,0.03669346,0.922406,-0.38447446,-0.045335572,0.38587397,0.92143685,0.9982977,-0.016380342,0.055976864,9.896713,2.5304108,1.5302124,9.782824,-0.27847698,0.62386173,-0.7568054,-0.14646912,-0.011962891,-34.13849,9.599304,21.71936,0,0.0,0.0,0.0,0.0
1.419433594,0.047707014,0.9391775,-0.34010234,-0.049140677,0.34228453,0.93831044,0.9976519,-0.028051127,0.062481195,0.036930606,0.9227695,-0.3835788,-0.045419518,0.38499394,0.9218008,0.9982852,-0.016620697,0.056129802,9.896713,2.5304108,1.5302124,9.783623,-0.2750876,0.6127312,-0.7884064,-0.1162262,-0.024795532,-34.13849,9.599304,21.71936,0,0.0,0.0,0.0,0.0
1.427734375,0.047378477,0.9383935,-0.34230548,-0.048429582,0.34444532,0.93755645,0.9977023,-0.027842285,0.061765295,0.037362136,0.9234587,-0.38187456,-0.04554613,0.3833179,0.9224928,0.99826336,-0.017073395,0.056381542,9.92543,1.8843536,1.7922211,9.784118,-0.27303955,0.6057106,-0.78749084,0.039382935,-0.015182495,-34.199524,9.539795,21.418762,0,0.0,0.0,0.0,0.0
1.436035156,0.04746653,0.93692166,-0.3463016,-0.04832116,0.34844026,0.9360846,0.9977034,-0.027698996,0.06181239,0.037761927,0.92408293,-0.38032198,-0.04564274,0.3817912,0.9231209,0.99824387,-0.017499888,0.05659485,9.937393,2.030304,1.9489594,9.784128,-0.27163437,0.6061725,-0.55506897,0.07557678,0.018722534,-34.13849,9.779358,21.77887,0,0.0,0.0,0.0,0.0
1.444335937,0.047614243,0.9369886,-0.3461001,-0.048975162,0.34826627,0.9361153,0.9976644,-0.027622117,0.062471606,0.037957363,0.92435235,-0.37964714,-0.04568885,0.381129,0.92339224,0.99823433,-0.01770389,0.05669925,9.937393,2.030304,1.9489594,9.783747,-0.27088046,0.6126372,-0.47566223,0.07557678,0.018722534,-34.13849,9.779358,21.77887,0,0.0,0.0,0.0,0.0
1.452636719,0.0477756,0.9370617,-0.34587997,-0.049949136,0.3480834,0.93613195,0.99760836,-0.027447855,0.06343531,0.03834319,0.9248766,-0.3783295,-0.04580478,0.3798367,0.92391884,0.99821424,-0.018096695,0.056927916,10.52243,2.7888336,1.1018982,9.783196,-0.2691715,0.6220879,-0.4089203,0.19041443,0.032928467,-34.13849,9.779358,21.77887,0,0.0,0.0,0.0,0.0
1.4609375,0.04804797,0.93562067,-0.34972185,-0.051376205,0.35197774,0.9345974,0.9975229,-0.02693813,0.064980455,0.03872119,0.9253812,-0.37705484,-0.04595553,0.3785877,0.9244239,0.9981928,-0.018467035,0.05718575,9.876373,2.8319092,1.1892395,9.782357,-0.2641728,0.6372405,-0.35746765,0.25759888,-0.25202942,-34.379578,9.838867,21.598816,0,0.0,0.0,0.0,0.0
1.469238281,0.047120444,0.93518853,-0.3510014,-0.053494,0.35325003,0.9339982,0.9974558,-0.025233949,0.06667228,0.039095894,0.9258024,-0.37598073,-0.0461593,0.37754,0.9248421,0.99816877,-0.018802522,0.05749465,9.482758,5.066803,1.4560394,9.7817,-0.2474605,0.6538317,-0.2934723,0.024108887,-0.098861694,-34.379578,9.838867,21.598816,0,0.0,0.0,0.0,0.0
1.477539062,0.04535386,0.93577176,-0.34967732,-0.055207506,0.35185048,0.9344268,0.99744433,-0.023075046,0.067619406,0.03925994,0.92599666,-0.3754848,-0.0463016,0.37705672,0.92503214,0.9981557,-0.01893116,0.05767835,10.118057,4.577469,0.8063812,9.781588,-0.2262889,0.66311985,-0.30004883,0.08320618,-0.004638672,-34.318542,9.779358,21.71936,0,0.0,0.0,0.0,0.0
1.485839844,0.043974984,0.9404782,-0.33699676,-0.05673302,0.33912963,0.93902737,0.9974205,-0.02217487,0.068269394,0.03950999,0.926397,-0.37446964,-0.04664737,0.37606373,0.92541885,0.9981297,-0.019095263,0.058072258,9.893127,3.390625,2.4478607,9.781354,-0.2174612,0.6694941,-0.42770386,-0.18525696,-0.0093688965,-34.07898,9.4192505,21.839905,0,0.0,0.0,0.0,0.0
1.494140625,0.04332184,0.9401879,-0.3378907,-0.05649903,0.33997256,0.9387368,0.99746233,-0.021577297,0.06784793,0.03970079,0.9269825,-0.37299767,-0.047038432,0.37461194,0.92598766,0.9981038,-0.019217217,0.0584762,9.893127,3.390625,2.4478607,9.781764,-0.211601,0.6653609,-0.35411072,-0.29948425,0.0017700195,-34.07898,9.4192505,21.839905,0,0.0,0.0,0.0,0.0
1.502441406,0.0422514,0.9397092,-0.33935457,-0.054889888,0.34132814,0.9383402,0.99759805,-0.021019055,0.06600212,0.03977959,0.92725927,-0.37230083,-0.04722437,0.37392408,0.9262563,0.99809194,-0.019264419,0.05866378,9.939789,3.439682,2.1846466,9.783095,-0.20612651,0.6472597,-0.27423096,-0.27764893,0.014907837,-34.07898,9.4192505,21.839905,0,0.0,0.0,0.0,0.0
1.510742187,0.040390518,0.94401264,-0.3274274,-0.053621687,0.32927048,0.9427119,0.99774414,-0.020519415,0.063918956,0.039886698,0.9277739,-0.371005,-0.047523353,0.3726417,0.92675763,0.9980734,-0.019333903,0.05895437,9.968506,3.4229279,2.2863464,9.784528,-0.20122673,0.6268308,-0.09877014,-0.22373962,0.021316528,-33.95996,8.81958,21.238708,0,0.0,0.0,0.0,0.0
1.519042969,0.03946723,0.9435984,-0.32873166,-0.05223851,0.33048654,0.9423639,0.9978544,-0.02002004,0.062335555,0.03990147,0.9281182,-0.37014094,-0.047643766,0.37178183,0.9270967,0.9980671,-0.019357614,0.05905369,9.968506,3.4229279,2.2863464,9.785609,-0.19632953,0.611303,-0.025619507,-0.10203552,0.02192688,-33.95996,8.81958,21.238708,0,0.0,0.0,0.0,0.0
1.52734375,0.03845235,0.9446575,-0.3257967,-0.051874906,0.32748532,0.94343114,0.99791306,-0.019376477,0.061596606,0.03989043,0.9287659,-0.3685142,-0.04782436,0.37015975,0.92773634,0.998059,-0.019383846,0.059183467,9.949356,5.0189514,1.4404755,9.786184,-0.19001833,0.60405636,0.041259766,0.06686401,0.028808594,-34.199524,8.758545,21.359253,0,0.0,0.0,0.0,0.0
1.535644531,0.037768804,0.94240004,-0.33234888,-0.051836353,0.33398604,0.9411516,0.9979411,-0.018318413,0.061464828,0.039838992,0.92943203,-0.36683637,-0.047985323,0.36848387,0.92839485,0.99805325,-0.019383553,0.059279125,10.069,5.728424,0.9607239,9.786459,-0.17964226,0.60276407,0.12663269,-0.040023804,0.020095825,-33.95996,8.999634,21.659851,0,0.0,0.0,0.0,0.0
1.543945312,0.036806606,0.9419682,-0.3336781,-0.05209679,0.335259,0.9406845,0.99796355,-0.017239844,0.061413273,0.039799895,0.92970383,-0.3661513,-0.04806324,0.36779875,0.9286625,0.9980511,-0.01936225,0.05932293,10.069,5.728424,0.9607239,9.786679,-0.16906512,0.6022585,0.07608032,-0.040023804,0.028198242,-33.95996,8.999634,21.659851,0,0.0,0.0,0.0,0.0
1.552246094,0.035825502,0.9415253,-0.3350323,-0.05210242,0.3365513,0.9402226,0.99799895,-0.016227953,0.06111287,0.039685827,0.93021107,-0.36487314,-0.04822576,0.36651838,0.9291601,0.99804777,-0.019278204,0.059405718,10.042679,5.5118713,1.2921295,9.787026,-0.15914185,0.59931254,0.025375366,-0.08782959,0.017807007,-33.95996,8.999634,21.659851,0,0.0,0.0,0.0,0.0
1.560546875,0.033642523,0.94795674,-0.31661683,-0.05260582,0.3180366,0.9466178,0.9980484,-0.015190721,0.06056759,0.039610665,0.93044686,-0.36427972,-0.048305154,0.3659227,0.9293908,0.9980469,-0.0192172,0.059439816,10.042679,5.5118713,1.2921295,9.787513,-0.1489701,0.59396523,-0.016311646,-0.10462952,0.0028381348,-33.95996,8.459473,21.71936,0,0.0,0.0,0.0,0.0
1.568847656,0.032346647,0.94739616,-0.3184247,-0.05213329,0.31975704,0.9460643,0.99811614,-0.014001481,0.05973394,0.039380953,0.93118674,-0.3624091,-0.048484463,0.36404398,0.9301189,0.9980473,-0.019057756,0.05948449,9.981659,5.7786713,1.3794556,9.788176,-0.13730763,0.58578986,-0.08151245,-0.20205688,-0.005859375,-33.95996,8.459473,21.71936,0,0.0,0.0,0.0,0.0
1.577148437,0.030006697,0.9525417,-0.3029255,-0.05171704,0.30413556,0.95122385,0.99821085,-0.012876676,0.058388744,0.039107516,0.93186873,-0.36068174,-0.048639357,0.36230528,0.93078953,0.9980505,-0.018857539,0.059494358,10.043869,5.4436646,1.4680023,9.789104,-0.12627706,0.572598,-0.20155334,-0.14021301,5.493164E-4,-34.01947,7.978821,21.71936,0,0.0,0.0,0.0,0.0
1.585449219,0.028635252,0.951966,-0.3048621,-0.05081611,0.30597916,0.9506811,0.9982974,-0.0117310835,0.057136994,0.03892806,0.9323175,-0.35953945,-0.048709985,0.36115494,0.93123275,0.998054,-0.018737927,0.059472237,10.043869,5.4436646,1.4680023,9.789953,-0.115042634,0.5603225,-0.25300598,-0.09667969,-0.039001465,-34.01947,7.978821,21.71936,0,0.0,0.0,0.0,0.0
1.59375,0.026875764,0.95393765,-0.29879898,-0.050677348,0.29982278,0.95264804,0.9983534,-0.010460803,0.05640099,0.038523227,0.93315774,-0.35739705,-0.048812952,0.3589929,0.932063,0.99806476,-0.01846047,0.059379745,9.958923,5.230713,0.5204315,9.790503,-0.10258544,0.55310476,-0.3814392,-0.042617798,-0.055648804,-33.779907,7.6797485,21.479797,0,0.0,0.0,0.0,0.0
1.602050781,0.025569351,0.95338935,-0.30065742,-0.050760627,0.301606,0.95208037,0.99838346,-0.00908252,0.056106515,0.03806437,0.934052,-0.35510275,-0.04891075,0.3566758,0.932947,0.9980776,-0.0181437,0.059261825,10.005585,5.3527374,0.15911865,9.790797,-0.0890691,0.550217,-0.55537415,0.072525024,-0.051986694,-33.779907,7.6797485,21.479797,0,0.0,0.0,0.0,0.0
1.610351562,0.022922605,0.9616168,-0.27343717,-0.0520764,0.2742862,0.9602371,0.99837995,-0.00777151,0.056364883,0.037815757,0.9344709,-0.35402557,-0.04896041,0.3555861,0.9333603,0.9980846,-0.01796249,0.059198838,10.005585,5.3527374,0.15911865,9.790763,-0.07621248,0.5527507,-0.6476135,0.099243164,-0.05105591,-34.259033,6.8389893,21.1792,0,0.0,0.0,0.0,0.0
1.618652344,0.022145689,0.9613054,-0.27459335,-0.053063773,0.27540377,0.95986295,0.9983455,-0.0066858656,0.057109497,0.03723275,0.9356796,-0.3508808,-0.049125124,0.3524135,0.93455416,0.99809843,-0.017558958,0.059086703,10.019943,4.8095703,0.13400269,9.790425,-0.06556594,0.5600529,-0.7740631,0.12397766,-0.038848877,-34.259033,6.8389893,21.1792,0,0.0,0.0,0.0,0.0
1.626953125,0.022093747,0.9592862,-0.28157035,-0.05399174,0.28237295,0.9577841,0.9982969,-0.0059585655,0.058032203,0.036644496,0.9368149,-0.34790084,-0.049321048,0.34940583,0.9356725,0.99811053,-0.017128414,0.059008498,10.02832,3.5605164,0.102890015,9.789949,-0.05843357,0.5691016,-0.8149872,0.15376282,-0.05014038,-34.199524,6.8984985,20.819092,0,0.0,0.0,0.0,0.0
1.635253906,0.021763561,0.9591478,-0.28206688,-0.05533207,0.28285685,0.9575648,0.99823076,-0.0052326773,0.05922761,0.036358804,0.93731177,-0.34659013,-0.04943194,0.34808177,0.93615997,0.9981155,-0.016905034,0.058988973,10.02832,3.5605164,0.102890015,9.7893,-0.051315036,0.58082443,-0.82307434,0.2536316,-0.04449463,-34.199524,6.8984985,20.819092,0,0.0,0.0,0.0,0.0
1.643554687,0.021791171,0.9583133,-0.2848873,-0.05729839,0.2856837,0.9566094,0.99811924,-0.0045220554,0.061135188,0.035794184,0.9382639,-0.34406352,-0.04969886,0.34552938,0.93709093,0.99812263,-0.016442843,0.05899859,10.065414,3.505478,0.3864441,9.788206,-0.044346217,0.5995314,-0.7765045,0.29989624,-0.040222168,-33.95996,7.1395874,21.418762,0,0.0,0.0,0.0,0.0
1.651855469,0.021805616,0.9583191,-0.2848664,-0.059881244,0.28567448,0.9564539,0.9979673,-0.0037979155,0.06361466,0.03525614,0.93913186,-0.34174308,-0.050029192,0.34318545,0.93793434,0.9981253,-0.015970813,0.059083402,9.994827,3.6921234,1.0815582,9.786716,-0.03724483,0.6238467,-0.72213745,0.27592468,-0.04067993,-33.95996,7.1395874,21.418762,0,0.0,0.0,0.0,0.0
1.66015625,0.020571904,0.9636905,-0.26622838,-0.062755376,0.26700428,0.96164995,0.99781686,-0.0030757075,0.065969534,0.034997944,0.93955106,-0.34061563,-0.050240062,0.3420475,0.9383387,0.9981238,-0.015727375,0.059174057,9.994827,3.6921234,1.0815582,9.785241,-0.030162388,0.6469402,-0.6558533,0.22201538,-0.036712646,-33.95996,6.6589355,21.479797,0,0.0,0.0,0.0,0.0
1.668457031,0.020409541,0.9636283,-0.26646578,-0.06468805,0.26723558,0.9614575,0.99769676,-0.0023857572,0.06778938,0.034461383,0.9406218,-0.33770254,-0.050771676,0.33911467,0.939374,0.99811554,-0.015226403,0.059443306,10.039093,3.534195,1.2741852,9.784063,-0.023396285,0.66478676,-0.53063965,0.108551025,-0.026321411,-33.95996,6.6589355,21.479797,0,0.0,0.0,0.0,0.0
1.676757812,0.01949532,0.96599686,-0.25781778,-0.06603108,0.25854778,0.96373904,0.9976271,-0.0017644126,0.06882629,0.0339423,0.9416385,-0.33491012,-0.051356364,0.33630383,0.9403522,0.99810344,-0.014717948,0.05977406,9.997208,3.3009033,1.3268127,9.78338,-0.017302977,0.67495537,-0.36494446,-0.025222778,-0.01777649,-34.01947,6.4193726,21.479797,0,0.0,0.0,0.0,0.0
1.685058594,0.019012414,0.96581644,-0.2585287,-0.06638138,0.25922427,0.96353316,0.99761313,-0.0011575973,0.069040716,0.033675317,0.94218904,-0.33338526,-0.051668808,0.3347696,0.9408824,0.99809635,-0.014458894,0.059955258,9.997208,3.3009033,1.3268127,9.783243,-0.011352152,0.67705816,-0.2907257,-0.08874512,-0.010284424,-34.01947,6.4193726,21.479797,0,0.0,0.0,0.0,0.0
1.693359375,0.018238625,0.9660863,-0.25757468,-0.06595969,0.25821894,0.96383214,0.9976556,-5.8942684E-4,0.0684323,0.033136267,0.9432412,-0.33045128,-0.052288044,0.33181617,0.9418938,0.99808216,-0.0139321955,0.06031539,10.040283,3.0424805,1.085144,9.783659,-0.005780303,0.6710917,-0.15374756,-0.15333557,-0.0049438477,-34.13849,6.4193726,21.659851,0,0.0,0.0,0.0,0.0
1.701660156,0.017477306,0.96580213,-0.25869036,-0.06490603,0.25928006,0.9636187,0.9977383,-5.0894196E-5,0.0672179,0.032583885,0.9442565,-0.32759425,-0.052865807,0.32893774,0.9428707,0.9980699,-0.013403854,0.060636953,10.022339,2.786438,0.3397827,9.784471,-4.991016E-4,0.6591824,-0.07235718,-0.14814758,-9.765625E-4,-34.13849,6.4193726,21.659851,0,0.0,0.0,0.0,0.0
1.709960937,0.016573662,0.96590745,-0.2583567,-0.0637653,0.25888726,0.96380055,0.9978273,5.004881E-4,0.06588209,0.032297865,0.9447386,-0.32622963,-0.053124867,0.3275612,0.94333524,0.9980654,-0.013136811,0.060768638,10.022339,2.786438,0.3397827,9.785343,0.004908112,0.6460826,-0.043945313,-0.16418457,7.019043E-4,-33.95996,6.3598633,21.598816,0,0.0,0.0,0.0,0.0
1.718261719,0.015773945,0.96560735,-0.25952572,-0.062444624,0.2600027,0.9635867,0.9979238,0.0010064241,0.06439826,0.03170237,0.9456737,-0.32356787,-0.05358317,0.3248731,0.9442385,0.99806,-0.012596804,0.060971443,10.065414,2.5208435,0.14596558,9.78629,0.00986965,0.63153124,-0.027618408,-0.18937683,-0.0018920898,-33.95996,6.3598633,21.598816,0,0.0,0.0,0.0,0.0
1.7265625,0.013814103,0.9699902,-0.24275145,-0.061213735,0.24313964,0.9680578,0.99802905,0.0014868717,0.062735476,0.031092864,0.94654983,-0.32105553,-0.053969834,0.32233214,0.9450869,0.9980583,-0.0120581435,0.061107364,10.072586,2.3437653,-0.051452637,9.787322,0.014581231,0.6152249,-0.031433105,-0.17288208,0.0034484863,-34.318542,5.8792114,21.539307,0,0.0,0.0,0.0,0.0
1.734863281,0.013038277,0.96971,-0.24391107,-0.05973188,0.24425152,0.96787053,0.9981293,0.0019499012,0.06110721,0.030757949,0.9470842,-0.31950817,-0.054138646,0.3207687,0.94560903,0.9980596,-0.011787257,0.06114004,10.072586,2.3437653,-0.051452637,9.788305,0.019121999,0.59925705,-0.02027893,-0.16448975,0.001159668,-34.318542,5.8792114,21.539307,0,0.0,0.0,0.0,0.0
1.743164062,0.012504095,0.96883786,-0.24738005,-0.058432493,0.2476846,0.967077,0.99821305,0.0023626094,0.059708685,0.030071426,0.9480993,-0.31654933,-0.05440679,0.31777564,0.94660366,0.99806595,-0.011243291,0.061139002,10.076172,2.1559296,0.041870117,9.789126,0.023169283,0.5855422,-0.012954712,-0.09729004,-5.187988E-4,-34.13849,5.8792114,21.299744,0,0.0,0.0,0.0,0.0
1.751464844,0.011906359,0.9686159,-0.24827681,-0.057496734,0.24854681,0.96691185,0.99827474,0.0027627046,0.058651544,0.029385556,0.949021,-0.3138403,-0.054609165,0.3150312,0.947509,0.99807537,-0.010704519,0.06108261,10.054642,1.6450653,0.21296692,9.789731,0.027092878,0.57517517,0.009338379,-0.0287323,0.0046691895,-34.13849,5.8792114,21.299744,0,0.0,0.0,0.0,0.0
1.759765625,0.010858426,0.971112,-0.23837677,-0.05710126,0.238604,0.96943665,0.9983093,0.003085059,0.05804259,0.029039308,0.9494596,-0.31254318,-0.054687984,0.31371585,0.9479407,0.99808115,-0.010435186,0.06103412,10.054642,1.6450653,0.21296692,9.790071,0.030254096,0.5692034,0.041412354,-0.0287323,0.0046691895,-34.259033,5.758667,21.899414,0,0.0,0.0,0.0,0.0
1.768066406,0.010511155,0.97099024,-0.23888801,-0.05700935,0.23909454,0.96932125,0.9983183,0.0034301633,0.05786868,0.028325152,0.9504316,-0.30964094,-0.054831054,0.31077617,0.9489003,0.99809384,-0.009899804,0.060915947,10.041473,1.750351,0.34217834,9.790158,0.03363841,0.5674979,0.06645203,0.055114746,2.4414063E-4,-34.259033,5.758667,21.899414,0,0.0,0.0,0.0,0.0
1.776367187,0.010557227,0.96946365,-0.24500796,-0.057305723,0.2452055,0.96777606,0.9983009,0.003823327,0.0581445,0.027624713,0.9513503,-0.3068706,-0.05496194,0.30796894,0.9498075,0.9981062,-0.009371957,0.060795605,10.063019,1.8460693,0.48812866,9.789988,0.03749403,0.57020277,0.098983765,0.078933716,0.0017700195,-34.318542,5.9387207,22.019958,0,0.0,0.0,0.0,0.0
1.784667969,0.01032154,0.96937895,-0.24535245,-0.057950377,0.245533,0.9676544,0.99826604,0.004230583,0.058710158,0.027285906,0.9517542,-0.30564588,-0.055028267,0.30672622,0.95020574,0.9981119,-0.00910806,0.060742687,10.063019,1.8460693,0.48812866,9.789646,0.041487847,0.57575,0.113342285,0.073272705,0.0026855469,-34.318542,5.9387207,22.019958,0,0.0,0.0,0.0,0.0
1.79296875,0.011125133,0.9651151,-0.26158953,-0.05842634,0.26178616,0.9633557,0.9982297,0.004566258,0.05930055,0.026620336,0.9525292,-0.303281,-0.055180617,0.30432612,0.9509683,0.99812144,-0.008579865,0.060662415,10.041473,1.5278168,0.59461975,9.789289,0.04477969,0.58153975,0.12478638,0.045181274,0.0034484863,-33.95996,6.3598633,22.019958,0,0.0,0.0,0.0,0.0
1.801269531,0.011063447,0.96509176,-0.26167792,-0.05887955,0.26186863,0.9633057,0.9982038,0.0047499985,0.059721347,0.026011774,0.95306665,-0.30164117,-0.055333078,0.30265334,0.95149314,0.99812907,-0.008059292,0.06060866,10.039093,0.78604126,0.61854553,9.789036,0.046581574,0.58566636,0.105392456,0.015090942,0.006210327,-33.95996,6.3598633,22.019958,0,0.0,0.0,0.0,0.0
1.809570312,0.0107079195,0.9661487,-0.25776368,-0.059168454,0.25793898,0.9643478,0.9981906,0.00492532,0.059927512,0.025715578,0.9533256,-0.30084702,-0.055415463,0.30184323,0.9517456,0.99813217,-0.0078031127,0.060591057,10.039093,0.78604126,0.61854553,9.788906,0.04830089,0.58768815,0.09928894,0.005783081,0.006515503,-33.95996,6.298828,22.198486,0,0.0,0.0,0.0,0.0
1.817871094,0.010683655,0.96613973,-0.25779825,-0.059289876,0.25797144,0.9643316,0.9981836,0.0049822424,0.06003838,0.025127396,0.95387447,-0.29915234,-0.055587973,0.30011705,0.95228136,0.9981376,-0.007299077,0.06056511,10.041473,0.3098755,0.8374939,9.788838,0.048859112,0.58877546,0.1081543,-0.011932373,0.008651733,-33.95996,6.298828,22.198486,0,0.0,0.0,0.0,0.0
1.826171875,0.010859641,0.9651776,-0.26137012,-0.05919719,0.26154763,0.9633735,0.9981872,0.0050104866,0.059976112,0.024561167,0.9543981,-0.29752502,-0.05575647,0.29845935,0.95279235,0.9981423,-0.0068127466,0.060544375,10.04866,0.18424988,0.5467529,9.788873,0.049136087,0.58816475,0.11364746,-0.01071167,0.0026855469,-33.839417,6.3598633,22.079468,0,0.0,0.0,0.0,0.0
1.834472656,0.010796566,0.96515393,-0.26146,-0.059105996,0.26163405,0.96335566,0.9981933,0.00505292,0.059871133,0.024289593,0.95462877,-0.29680607,-0.055834826,0.29772568,0.95301723,0.9981445,-0.006576286,0.060533166,10.04866,0.18424988,0.5467529,9.788933,0.04955222,0.58713526,0.098983765,0.0036468506,0.004211426,-33.839417,6.3598633,22.079468,0,0.0,0.0,0.0,0.0
1.842773437,0.01025274,0.9672779,-0.2535119,-0.059151042,0.25366795,0.96548104,0.9981964,0.005096668,0.059816293,0.024021968,0.95485383,-0.2961031,-0.0559093,0.29700816,0.95323676,0.99814683,-0.006343706,0.06051993,10.00679,0.13639832,0.8518524,9.788962,0.049981236,0.58659744,0.09547424,-0.003692627,0.0060424805,-34.13849,6.1798096,22.198486,0,0.0,0.0,0.0,0.0
1.851074219,0.010229065,0.9672693,-0.25354588,-0.059066545,0.25370088,0.96547765,0.9982016,0.0051001464,0.059728373,0.023481848,0.9553853,-0.29442734,-0.05605904,0.2953035,0.9537574,0.9981513,-0.0058906735,0.060492255,10.00679,0.13639832,0.8518524,9.789015,0.050015356,0.5857353,0.11898804,-0.034988403,0.011245728,-34.13849,6.1798096,22.198486,0,0.0,0.0,0.0,0.0
1.859375,0.011041912,0.963189,-0.26859817,-0.05858062,0.2687763,0.9614196,0.99822164,0.005118737,0.059392016,0.02296157,0.9558923,-0.2928184,-0.05619777,0.2936666,0.9542545,0.99815553,-0.0054554422,0.06046206,10.064209,0.14117432,0.65682983,9.78921,0.050197665,0.58243674,0.11669922,-0.041870117,0.0036010742,-34.199524,6.5994263,22.259521,0,0.0,0.0,0.0,0.0
1.867675781,0.010906282,0.96313673,-0.26879105,-0.05822961,0.26896262,0.9613888,0.9982437,0.0051664216,0.059016462,0.02272432,0.9560456,-0.292336,-0.05625108,0.293171,0.9544038,0.998158,-0.005243961,0.06044071,10.04866,0.15074158,0.4749756,9.789426,0.050665285,0.57875377,0.109375,-0.041870117,0.0036010742,-34.199524,6.5994263,22.259521,0,0.0,0.0,0.0,0.0
1.875976562,0.01078274,0.96308905,-0.2689667,-0.05799378,0.2691319,0.9613556,0.99825877,0.005232349,0.05875516,0.022258151,0.95634,-0.2914075,-0.05634017,0.29221636,0.9546912,0.99816346,-0.0048317136,0.060384557,10.045074,0.16151428,0.35891724,9.789575,0.051311817,0.5761913,0.102493286,0.009902954,-8.239746E-4,-34.199524,6.5994263,22.259521,0,0.0,0.0,0.0,0.0
1.884277344,0.011515045,0.95938534,-0.2818638,-0.057950146,0.282049,0.9576482,0.99825305,0.0053066867,0.058844324,0.021805182,0.9566197,-0.29052234,-0.056415644,0.29130578,0.954965,0.9981692,-0.00443318,0.060320295,10.069,0.20458984,0.39959717,9.789518,0.052040823,0.5770657,0.090286255,0.08366394,0.0013122559,-33.839417,7.1395874,22.918701,0,0.0,0.0,0.0,0.0
1.892578125,0.012144728,0.95680046,-0.29049155,-0.058425516,0.29069567,0.95503014,0.99821794,0.005373537,0.05943198,0.021599676,0.9566768,-0.2903497,-0.05644823,0.29112116,0.95501935,0.9981718,-0.0042383843,0.060290832,10.023529,0.22851563,0.5419769,9.789174,0.0526964,0.58282864,0.09867859,0.12870789,0.0010070801,-33.53882,7.4386597,23.098755,0,0.0,0.0,0.0,0.0
1.900878906,0.0123796165,0.956892,-0.29018,-0.059549894,0.29039267,0.9550529,0.9981486,0.005456998,0.060577765,0.021225272,0.95668334,-0.29035568,-0.056526538,0.29110485,0.9550197,0.99817544,-0.0038577537,0.060256775,10.023529,0.22851563,0.5419769,9.788494,0.05351487,0.59406495,0.098526,0.20307922,-2.1362305E-4,-33.53882,7.4386597,23.098755,0,0.0,0.0,0.0,0.0
1.909179687,0.0134009,0.95387477,-0.29990542,-0.06101157,0.30015352,0.9519376,0.99804705,0.0055408804,0.06221973,0.020875067,0.9566932,-0.29034865,-0.056646515,0.2910772,0.9550211,0.99817604,-0.0034888913,0.060269594,10.017548,0.21057129,0.6963043,9.787498,0.054337475,0.61016715,0.13731384,0.23728943,0.0028381348,-33.4198,7.6187134,22.738647,0,0.0,0.0,0.0,0.0
1.917480469,0.01385858,0.95406,-0.2992948,-0.0628225,0.29956296,0.9520059,0.99792844,0.005608997,0.06408795,0.02072474,0.95663846,-0.29053968,-0.05673239,0.29125914,0.95496047,0.99817425,-0.0033082962,0.060308654,10.017548,0.21057129,0.6963043,9.786335,0.05500547,0.6284881,0.13822937,0.26844788,0.0026855469,-33.4198,7.6187134,22.738647,0,0.0,0.0,0.0,0.0
1.92578125,0.0144318985,0.9542913,-0.29852968,-0.065052986,0.29882434,0.9520883,0.9977774,0.0056798058,0.066392094,0.020450732,0.9565392,-0.29088578,-0.05697123,0.2915888,0.95484567,0.9981663,-0.0029551722,0.060458414,10.013962,0.057434082,0.34695435,9.784854,0.055699866,0.65108407,0.06614685,0.33898926,8.544922E-4,-33.4198,7.6187134,22.738647,0,0.0,0.0,0.0,0.0
1.934082031,0.014540538,0.9570221,-0.2896505,-0.067751125,0.2899584,0.9546382,0.9975963,0.0057431944,0.06905547,0.020209882,0.9564526,-0.29118717,-0.057289384,0.291876,0.9547389,0.99815303,-0.002613227,0.06069336,10.042679,0.23091125,1.730011,9.783078,0.056321498,0.6772028,0.075927734,0.1343689,0.0059051514,-33.47931,7.499695,23.098755,0,0.0,0.0,0.0,0.0
1.942382812,0.01559419,0.9545028,-0.29779398,-0.069203325,0.2981463,0.95200825,0.9974807,0.005762539,0.07070412,0.02009683,0.9564647,-0.29115525,-0.0574989,0.29183778,0.95473796,0.99814326,-0.0024460987,0.060860682,10.005585,0.1483612,1.4656067,9.781944,0.0565112,0.6933706,0.12005615,0.020904541,0.008346558,-33.53882,7.6797485,22.859192,0,0.0,0.0,0.0,0.0
1.950683594,0.015683785,0.9545386,-0.29767457,-0.069573425,0.29803142,0.95201725,0.9974536,0.0057790065,0.071084775,0.019915434,0.95638907,-0.29141614,-0.057961456,0.29208815,0.9546335,0.9981201,-0.0021210362,0.061250765,10.021133,0.13877869,0.7429657,9.781678,0.056672696,0.69710356,0.16511536,-0.052093506,0.011398315,-33.53882,7.6797485,22.859192,0,0.0,0.0,0.0,0.0
1.958984375,0.014539659,0.9586439,-0.28423643,-0.0693417,0.28454882,0.9561504,0.997487,0.0058073383,0.070611246,0.01974497,0.95631766,-0.29166198,-0.05842049,0.29232398,0.95453334,0.9980968,-0.0018081941,0.061640475,10.021133,0.13877869,0.7429657,9.782006,0.056950536,0.69245976,0.12953186,-0.08248901,0.0074310303,-33.659363,7.1990967,22.558594,0,0.0,0.0,0.0,0.0
1.967285156,0.014328138,0.95856124,-0.2845257,-0.06869758,0.2848262,0.9561142,0.9975346,0.00584689,0.06993188,0.019642536,0.95636535,-0.29151246,-0.058639828,0.2921688,0.9545673,0.9980859,-0.001655883,0.061820034,10.061813,0.12802124,0.55752563,9.782474,0.057338413,0.6857975,0.10676575,-0.070114136,0.0022277832,-33.659363,7.1990967,22.558594,0,0.0,0.0,0.0,0.0
1.975585937,0.014113639,0.95847744,-0.28481898,-0.068077415,0.2851075,0.95607495,0.99758023,0.0058960435,0.06927457,0.019434882,0.95645446,-0.29123405,-0.059039723,0.29187864,0.95463145,0.9980665,-0.0013587725,0.06214143,10.037888,0.124420166,0.46899414,9.782921,0.05782044,0.6793515,0.077301025,-0.06278992,-2.1362305E-4,-33.659363,7.1990967,22.558594,0,0.0,0.0,0.0,0.0
1.983886719,0.013813097,0.9589227,-0.2833307,-0.067594215,0.28360504,0.9565558,0.99761724,0.005938521,0.06873511,0.01922643,0.95653635,-0.29097846,-0.059398953,0.291611,0.95469093,0.99804914,-0.001071481,0.0624239,10.061813,0.093322754,0.65563965,9.783283,0.058236998,0.6740612,0.021865845,-0.06538391,0.005126953,-33.599854,7.0785522,22.31903,0,0.0,0.0,0.0,0.0
1.9921875,0.013830248,0.95814097,-0.28596273,-0.06707176,0.28623492,0.9558091,0.9976523,0.0059609436,0.068222895,0.019119436,0.9565852,-0.29082486,-0.059563704,0.2914512,0.95472944,0.9980414,-9.3128055E-4,0.06255014,10.041473,0.13519287,0.8877411,9.783627,0.058456887,0.669038,0.010253906,-0.09225464,-0.0011291504,-33.53882,7.1990967,22.499084,0,0.0,0.0,0.0,0.0
2.000488281,0.013613454,0.9580557,-0.28625858,-0.06633572,0.28651974,0.955775,0.99770445,0.005977771,0.06745384,0.018911455,0.95664823,-0.29063115,-0.05986217,0.29124507,0.9547737,0.99802744,-6.583474E-4,0.062774904,10.00679,0.1375885,0.94636536,9.784139,0.05862191,0.6614962,3.0517578E-5,-0.15930176,-0.0049438477,-33.53882,7.1990967,22.499084,0,0.0,0.0,0.0,0.0
2.008789062,0.013242582,0.9579095,-0.28676468,-0.065126374,0.28700718,0.955712,0.99778914,0.0060198507,0.06618589,0.018806087,0.956677,-0.29054326,-0.05999217,0.29115078,0.9547943,0.9980217,-5.256245E-4,0.06286854,10.00679,0.1375885,0.94636536,9.784969,0.05903457,0.6490619,-0.0030212402,-0.21228027,-0.0047912598,-33.53882,7.1990967,22.499084,0,0.0,0.0,0.0,0.0
2.017089844,0.012622424,0.9579371,-0.28670034,-0.063258976,0.28691384,0.95586544,0.99791735,0.006071033,0.064219676,0.018586576,0.9567269,-0.29039294,-0.060196444,0.290987,0.9548313,0.99801344,-2.664225E-4,0.06300001,10.023529,0.1531372,1.0863342,9.786226,0.059536498,0.62977993,0.0027770996,-0.35964966,9.1552734E-5,-33.53882,7.1395874,22.37854,0,0.0,0.0,0.0,0.0
2.025390625,0.011837628,0.95762444,-0.28777674,-0.060462546,0.2879558,0.9557332,0.9981003,0.0060860994,0.061309118,0.018350864,0.9567759,-0.2902467,-0.060318626,0.29082623,0.95487267,0.99801046,-1.5457998E-5,0.06304832,10.023529,0.1531372,1.0863342,9.78802,0.05968425,0.60123706,0.007507324,-0.4879303,0.0059051514,-33.53882,7.1395874,22.37854,0,0.0,0.0,0.0,0.0
2.033691406,0.011236103,0.9550684,-0.29617253,-0.05665678,0.29632345,0.9534057,0.9983304,0.006067618,0.05744062,0.018220628,0.9567933,-0.29019755,-0.060321894,0.29076898,0.9548899,0.99801266,1.0657379E-4,0.063013576,10.0295105,0.16870117,0.9032898,9.7902775,0.059503004,0.5633001,0.0044555664,-0.5545044,0.0060424805,-33.4198,7.258606,22.138977,0,0.0,0.0,0.0,0.0
2.041992187,0.009726571,0.95598716,-0.2932473,-0.052244283,0.29334652,0.9545776,0.998587,0.0060357284,0.05279812,0.017944934,0.95672625,-0.29043564,-0.06017522,0.29098928,0.954832,0.9980265,3.4263238E-4,0.062792994,10.033112,0.1758728,0.71066284,9.792793,0.059190277,0.5177727,0.00491333,-0.6244507,0.0043640137,-33.299255,7.258606,22.558594,0,0.0,0.0,0.0,0.0
2.050292969,0.008352899,0.95543104,-0.2950961,-0.04735972,0.2951532,0.9542754,0.99884295,0.006004702,0.047714334,0.01762039,0.9566977,-0.29054955,-0.059860505,0.29108277,0.9548234,0.9980512,5.6808017E-4,0.062397394,10.037888,0.1651001,0.5383911,9.795303,0.05888601,0.4679178,-0.0028686523,-0.6453705,0.0059051514,-33.299255,7.258606,22.558594,0,0.0,0.0,0.0,0.0
2.05859375,0.0068833204,0.9548303,-0.29707202,-0.04223627,0.29709157,0.9539144,0.99908394,0.005981115,0.04237344,0.017436199,0.9566728,-0.29064253,-0.059609797,0.2911643,0.95481414,0.99806947,6.768132E-4,0.06210387,10.016357,0.1758728,0.27876282,9.797667,0.058654703,0.4155415,-0.0028686523,-0.6398773,0.0059051514,-33.299255,7.258606,22.558594,0,0.0,0.0,0.0,0.0
2.066894531,0.0055763633,0.9531431,-0.30246836,-0.03724932,0.30246112,0.9524335,0.99929035,0.005955626,0.037190564,0.017022753,0.956601,-0.29090315,-0.05891974,0.29139942,0.9547852,0.99811757,8.868647E-4,0.061323103,10.065414,0.19502258,0.112457275,9.799691,0.05840474,0.36471486,-0.0011901855,-0.5679474,0.006210327,-33.299255,7.258606,22.259521,0,0.0,0.0,0.0,0.0
2.075195312,0.0042293486,0.9525682,-0.304296,-0.032690924,0.30426776,0.9520255,0.9994566,0.005921269,0.032427188,0.01657936,0.95646703,-0.291369,-0.05805687,0.29183826,0.9547041,0.9981756,0.0010875887,0.06036797,10.065414,0.19502258,0.112457275,9.801321,0.058067814,0.3180021,1.8310547E-4,-0.51831055,0.010482788,-33.299255,7.258606,22.259521,0,0.0,0.0,0.0,0.0
2.083496094,0.0026820498,0.9555247,-0.29489857,-0.028596582,0.2948523,0.95511466,0.99958736,0.0058714277,0.028115554,0.01633904,0.9563909,-0.2916324,-0.057546657,0.29208735,0.9546588,0.9982091,0.0011842629,0.05980953,10.04985,0.16749573,-0.093322754,9.802604,0.057579037,0.2757194,1.8310547E-4,-0.45921326,0.006515503,-33.358765,7.019043,22.439575,0,0.0,0.0,0.0,0.0
2.091796875,0.0019309934,0.95170254,-0.30701572,-0.024991477,0.3069663,0.95139223,0.99968576,0.005835644,0.0243772,0.015801903,0.9563571,-0.2917728,-0.056399535,0.2921972,0.9546936,0.9982832,0.0013698754,0.05855537,10.059433,0.14715576,-0.11843872,9.803569,0.05722812,0.23905867,9.460449E-4,-0.3330841,0.0022277832,-33.17871,7.499695,23.039246,0,0.0,0.0,0.0,0.0
2.100097656,0.001056141,0.95133525,-0.30815604,-0.02218385,0.30810267,0.95109445,0.99975336,0.005831597,0.021429677,0.015271631,0.95617753,-0.29238904,-0.055148516,0.2927835,0.95458704,0.99836135,0.0015467209,0.057203054,10.084549,0.15434265,0.026321411,9.804232,0.05718843,0.21015334,3.0517578E-5,-0.24557495,0.0017700195,-33.17871,7.499695,23.039246,0,0.0,0.0,0.0,0.0
2.108398437,3.6981143E-4,0.9510457,-0.30905014,-0.020079702,0.3089949,0.95085174,0.9997983,0.005853999,0.019210983,0.014997942,0.9560833,-0.2927112,-0.054485165,0.29309064,0.9545309,0.99840194,0.0016324188,0.05648811,10.0247345,0.1651001,0.06939697,9.804672,0.05740812,0.1883954,0.0038452148,-0.21870422,-0.003112793,-33.17871,7.499695,23.039246,0,0.0,0.0,0.0,0.0
2.116699219,1.887428E-5,0.9469815,-0.32128835,-0.018373314,0.32123443,0.9468215,0.9998312,0.0058852616,0.01740525,0.014441023,0.95588917,-0.29337242,-0.05311443,0.29372212,0.95441407,0.998484,0.0017995943,0.055013154,10.073776,0.19023132,-0.029907227,9.804995,0.0577147,0.1706872,-0.003479004,-0.17227173,8.544922E-4,-32.87964,7.9193115,23.339844,0,0.0,0.0,0.0,0.0
2.125,-4.6191213E-4,0.9467751,-0.3218957,-0.01699334,0.3218418,0.94664097,0.99985546,0.0059073465,0.015940206,0.013908625,0.95555186,-0.29449484,-0.05172363,0.29481658,0.954153,0.9985646,0.0019613877,0.053525105,10.045074,0.19023132,-0.07298279,9.805233,0.05793128,0.15632002,0.0072021484,-0.096832275,0.0060424805,-32.87964,7.9193115,23.339844,0,0.0,0.0,0.0,0.0
2.133300781,-9.019117E-4,0.9490312,-0.31518084,-0.016056864,0.31512657,0.9489138,0.99987066,0.0059166523,0.0149542475,0.0136407865,0.955384,-0.29505143,-0.051021382,0.2953595,0.9540228,0.9986044,0.0020403073,0.052773945,10.045074,0.19023132,-0.07298279,9.805382,0.05802254,0.14665107,0.005065918,-0.056365967,-6.713867E-4,-32.51953,7.8598022,23.75946,0,0.0,0.0,0.0,0.0
2.141601562,-0.0011249519,0.950606,-0.3103982,-0.015702795,0.31034333,0.9504949,0.9998761,0.0059433803,0.01457805,0.013092916,0.9551406,-0.29586327,-0.049626064,0.2961447,0.953853,0.9986821,0.0021938111,0.051277265,10.033112,0.16989136,-0.19502258,9.805434,0.058284648,0.14296183,0.0038452148,0.073898315,-0.0021972656,-32.339478,7.739258,23.81897,0,0.0,0.0,0.0,0.0
2.149902344,-0.0010280979,0.95064485,-0.31027934,-0.016091175,0.31022358,0.95052737,0.99986994,0.0059699947,0.014978053,0.012818668,0.95505214,-0.2961607,-0.04894386,0.2964293,0.9537999,0.9987193,0.002268803,0.050543763,10.033112,0.16989136,-0.19502258,9.805375,0.05854565,0.14688453,0.011169434,0.1456604,0.0049743652,-32.339478,7.739258,23.81897,0,0.0,0.0,0.0,0.0
2.158203125,-6.549713E-4,0.9507945,-0.30982134,-0.017275667,0.3097644,0.9506563,0.9998505,0.0059750234,0.016222725,0.012288782,0.95488167,-0.29673222,-0.047635984,0.29697675,0.9536958,0.99878913,0.002415371,0.049136207,10.036697,0.15074158,-0.2416687,9.805184,0.058594964,0.15909058,0.0041503906,0.2850952,-0.003112793,-32.339478,7.739258,23.81897,0,0.0,0.0,0.0,0.0
2.166503906,-1.9813488E-4,0.9539405,-0.29999596,-0.019402537,0.29993582,0.9537621,0.9998117,0.0060096555,0.018449437,0.01179202,0.9547233,-0.29726136,-0.046427734,0.29748416,0.9535972,0.998852,0.0025563338,0.04783358,10.054642,0.1603241,-0.20698547,9.804804,0.058934588,0.18092717,0.012710571,0.43397522,-0.008758545,-32.458496,7.559204,24.058533,0,0.0,0.0,0.0,0.0
2.174804687,6.932512E-4,0.9542838,-0.29890117,-0.022578852,0.29884,0.95403606,0.99974483,0.006087459,0.021753805,0.011553708,0.95470786,-0.2973205,-0.04588688,0.29753327,0.9536081,0.9988798,0.0026254007,0.047246177,10.054642,0.1603241,-0.20698547,9.804148,0.059697583,0.21333195,0.006134033,0.4945984,-0.008758545,-32.458496,7.559204,24.058533,0,0.0,0.0,0.0,0.0
2.183105469,0.0011076966,0.9618407,-0.27360785,-0.026492763,0.27354017,0.9614956,0.99964833,0.0061835824,0.025784818,0.01112505,0.9546913,-0.2973899,-0.044963688,0.29758507,0.9536359,0.9989267,0.002762499,0.046237092,10.072586,0.15194702,0.037094116,9.803202,0.06064023,0.2528627,0.009338379,0.5512543,-0.0107421875,-32.759094,6.77948,23.699951,0,0.0,0.0,0.0,0.0
2.19140625,0.0018939412,0.96459025,-0.2637461,-0.030753084,0.26367804,0.9641204,0.99952525,0.0062850174,0.030163515,0.010710893,0.95498616,-0.29645708,-0.044241797,0.29663634,0.95396525,0.9989635,0.002897975,0.045427542,10.0295105,0.15194702,0.2632141,9.801994,0.06163497,0.29580304,0.0128479,0.56134033,-0.0040283203,-32.57904,6.6589355,24.119568,0,0.0,0.0,0.0,0.0
2.199707031,0.0029789768,0.9649594,-0.2623824,-0.035220724,0.26232198,0.9643374,0.9993751,0.0063685593,0.03476802,0.010525528,0.95518935,-0.29580814,-0.043977752,0.29598045,0.9541811,0.99897707,0.0029657162,0.045122433,10.0295105,0.15194702,0.2632141,9.800522,0.062454235,0.3409578,0.011169434,0.5628662,-0.0063171387,-32.57904,6.6589355,24.119568,0,0.0,0.0,0.0,0.0
2.208007812,0.0040393565,0.9653171,-0.26104885,-0.03965899,0.26100025,0.9645237,0.9992051,0.0064568813,0.03933778,0.010215044,0.95559883,-0.29449362,-0.043640405,0.2946544,0.9546069,0.99899507,0.0031004697,0.04471263,10.045074,0.17228699,0.6879425,9.798855,0.063320376,0.38577187,0.013626099,0.49934387,-0.012130737,-32.57904,6.6589355,24.119568,0,0.0,0.0,0.0,0.0
2.216308594,0.005708627,0.96118915,-0.27583104,-0.04364589,0.27581215,0.96022004,0.9990307,0.0065573542,0.043526467,0.009965135,0.9560063,-0.2931769,-0.043490157,0.29332834,0.95502204,0.9990041,0.0032333843,0.044499915,10.0247345,0.17945862,0.77407837,9.797145,0.06430568,0.42684883,0.0015563965,0.41854858,-0.005554199,-32.27997,7.1990967,24.41864,0,0.0,0.0,0.0,0.0
2.224609375,0.006580458,0.9614884,-0.27476677,-0.047186106,0.2747652,0.96035284,0.9988644,0.0066456124,0.047176972,0.009880025,0.95611316,-0.29283106,-0.043494575,0.29297912,0.9551291,0.99900484,0.003299864,0.044480376,10.0247345,0.17945862,0.77407837,9.795514,0.0651712,0.46264806,0.0041503906,0.36923218,-0.009979248,-32.27997,7.1990967,24.41864,0,0.0,0.0,0.0,0.0
2.232910156,0.007327584,0.961479,-0.27478075,-0.050026,0.27479652,0.96020013,0.998721,0.006710235,0.05011254,0.00975197,0.95633274,-0.29211733,-0.043642834,0.2922599,0.9553426,0.9989996,0.0034323565,0.04458718,10.047455,0.20817566,1.2335052,9.794107,0.06580493,0.49143618,0.0078125,0.20843506,-0.0040283203,-32.339478,7.1395874,24.119568,0,0.0,0.0,0.0,0.0
2.241210937,0.007706427,0.96209764,-0.27259606,-0.0523718,0.27261835,0.9606957,0.99859786,0.0068728165,0.052487705,0.009660345,0.9565429,-0.29143178,-0.043897144,0.2915701,0.9555417,0.99898934,0.0035621617,0.044806167,10.0295105,0.16870117,1.0205383,9.7929,0.06739931,0.51472855,0.022476196,0.012039185,3.9672852E-4,-32.699585,7.0785522,24.058533,0,0.0,0.0,0.0,0.0
2.249511719,0.007864138,0.96215254,-0.27239788,-0.05352351,0.2724208,0.96068835,0.99853563,0.0070247045,0.05364014,0.00962452,0.9566577,-0.29105577,-0.044067293,0.29119223,0.9556491,0.99898225,0.003628375,0.044959903,10.0295105,0.16870117,1.0205383,9.79229,0.06888882,0.52603006,0.036071777,-0.07133484,0.0063476563,-32.699585,7.0785522,24.058533,0,0.0,0.0,0.0,0.0
2.2578125,0.0077535463,0.96211416,-0.27253687,-0.05316717,0.2725562,0.96066976,0.9985555,0.007041416,0.05326616,0.009561731,0.9568825,-0.29031792,-0.04444273,0.29045096,0.9558573,0.99896616,0.0037628708,0.04530368,10.041473,0.08015442,0.78723145,9.792484,0.0690527,0.5223626,0.03591919,-0.20159912,-0.0023498535,-32.699585,7.0785522,24.058533,0,0.0,0.0,0.0,0.0
2.266113281,0.0072402386,0.96224904,-0.27207413,-0.051609147,0.27207825,0.9608902,0.99864113,0.0070844404,0.05163077,0.009496205,0.95709616,-0.2896148,-0.04478915,0.2897443,0.9560555,0.9989513,0.0038927018,0.045618996,10.037888,0.09451294,0.46061707,9.793324,0.06947463,0.5063249,0.028884888,-0.22953796,0.003753662,-32.998657,6.8984985,23.519897,0,0.0,0.0,0.0,0.0
2.274414062,0.006722435,0.9620626,-0.2727459,-0.049764108,0.27273598,0.960801,0.99873835,0.0071140355,0.049709637,0.009453503,0.95720255,-0.2892645,-0.044926222,0.28939188,0.9561558,0.9989456,0.003956537,0.04573926,10.037888,0.09451294,0.46061707,9.794277,0.06976485,0.487485,0.0073547363,-0.24084473,-3.6621094E-4,-32.998657,6.8984985,23.519897,0,0.0,0.0,0.0,0.0
2.282714844,0.0063610766,0.96090823,-0.27679393,-0.04836487,0.27677122,0.9597179,0.99880946,0.0072822627,0.048234764,0.009348494,0.9574007,-0.2886114,-0.045119375,0.28873393,0.9563457,0.99893785,0.0040815747,0.045896545,10.035492,0.19621277,0.9571228,9.794975,0.071414605,0.47302145,0.010559082,-0.39279175,0.0017700195,-33.1192,6.9595337,23.399353,0,0.0,0.0,0.0,0.0
2.291015625,0.005841932,0.9592775,-0.28240475,-0.046157494,0.28236723,0.9581952,0.99891704,0.007437385,0.04592742,0.0092317,0.9575426,-0.28814387,-0.04524919,0.28826103,0.9564822,0.998933,0.004208322,0.045989163,10.0785675,0.20458984,0.86260986,9.79603,0.072935835,0.45039415,-0.0030212402,-0.47509766,0.0048217773,-32.998657,7.019043,23.15979,0,0.0,0.0,0.0,0.0
2.299316406,0.004828026,0.9588914,-0.28373235,-0.043015897,0.28367218,0.957956,0.9990627,0.007579964,0.04261715,0.009164019,0.95757776,-0.2880292,-0.045267772,0.28814328,0.95651674,0.99893284,0.0042729042,0.045987964,10.0785675,0.20458984,0.86260986,9.797459,0.074334055,0.41793147,-7.324219E-4,-0.55618286,0.0048217773,-32.998657,7.019043,23.15979,0,0.0,0.0,0.0,0.0
2.307617187,0.00357207,0.95840913,-0.2853757,-0.038949255,0.28529432,0.9576483,0.9992348,0.007694383,0.038348407,0.008991955,0.95763034,-0.28785977,-0.04517942,0.2879665,0.95657414,0.9989384,0.004403865,0.04585456,10.015152,0.18066406,0.7010956,9.799146,0.07545612,0.3760694,3.3569336E-4,-0.68614197,0.005126953,-32.998657,7.019043,23.15979,0,0.0,0.0,0.0,0.0
2.315917969,0.0028382305,0.95133233,-0.308154,-0.034041274,0.30806854,0.95075506,0.9994164,0.007791492,0.03325893,0.008883252,0.9576461,-0.28781074,-0.045055162,0.28791308,0.9565961,0.998945,0.004469676,0.045704506,10.015152,0.18066406,0.7010956,9.800927,0.07640844,0.3261587,-0.008361816,-0.7409668,0.011398315,-32.699585,7.6187134,23.2193,0,0.0,0.0,0.0,0.0
2.32421875,0.0010166788,0.9505816,-0.31047294,-0.028373208,0.31037554,0.9501904,0.9995969,0.007843075,0.027286606,0.008652754,0.9574044,-0.2886209,-0.044613898,0.28871387,0.9563754,0.9989668,0.0046012206,0.045211706,10.052246,0.16989136,0.38883972,9.802697,0.076914296,0.2675902,-0.004699707,-0.7594452,0.0075683594,-32.699585,7.6187134,23.2193,0,0.0,0.0,0.0,0.0
2.332519531,-0.001014301,0.9504617,-0.31084016,-0.022133999,0.31074283,0.9502362,0.9997544,0.00784396,0.02072233,0.008507324,0.9572728,-0.2890611,-0.044285677,0.2891486,0.9562593,0.99898267,0.004666059,0.04485336,10.064209,0.14955139,0.107681274,9.804242,0.076922975,0.20321664,-0.004547119,-0.74035645,0.011398315,-32.87964,7.499695,23.039246,0,0.0,0.0,0.0,0.0
2.340820312,-0.002915773,0.9496529,-0.31329048,-0.016204491,0.3132058,0.94954705,0.9998644,0.007845376,0.014475404,0.008149493,0.9570126,-0.28993177,-0.04340037,0.2900067,0.95604,0.9990245,0.004791905,0.043898106,10.04985,0.13877869,-0.033493042,9.805321,0.076936856,0.14195523,0.0044555664,-0.6904144,0.0084991455,-32.87964,7.499695,23.039246,0,0.0,0.0,0.0,0.0
2.349121094,-0.005013743,0.95342284,-0.3015953,-0.010281944,0.301534,0.95339996,0.99993455,0.007881087,0.008291227,0.007736676,0.9567321,-0.2908675,-0.042313434,0.2909289,0.9558085,0.99907446,0.0049128234,0.042733446,10.071396,0.16151428,-0.38404846,9.806008,0.07728707,0.08130916,-0.003479004,-0.5580139,0.011245728,-33.059692,7.019043,22.738647,0,0.0,0.0,0.0,0.0
2.357421875,-0.0066917357,0.95270777,-0.30381417,-0.004949386,0.3037857,0.9527275,0.99996537,0.007879095,0.0026824651,0.007245484,0.9566034,-0.29130298,-0.041040212,0.29134965,0.95573586,0.9991312,0.0050303666,0.041370176,10.043869,0.13877869,-0.92004395,9.806311,0.07726753,0.026305998,0.005218506,-0.25030518,0.009567261,-33.059692,7.019043,22.738647,0,0.0,0.0,0.0,0.0
2.365722656,-0.007870746,0.95496994,-0.2965982,-0.0012361966,0.29659787,0.9550017,0.9999683,0.007883228,-0.0011539155,0.0069760527,0.9565272,-0.2915598,-0.040315207,0.29159883,0.9556908,0.9991627,0.005087342,0.040596798,10.043869,0.13877869,-0.92004395,9.806338,0.07730806,-0.011316045,-0.0079193115,-0.16616821,0.006652832,-32.818604,6.9595337,23.278809,0,0.0,0.0,0.0,0.0
2.374023437,-0.008485258,0.9547186,-0.2973894,5.268289E-4,0.29740432,0.95475143,0.9999638,0.007944638,-0.0030265253,0.006396116,0.95646614,-0.2917733,-0.038765687,0.2917971,0.9556944,0.9992278,0.00519806,0.038944434,10.015152,0.14715576,-0.4402771,9.806295,0.07791028,-0.029680075,-0.014328003,-0.051483154,-0.004638672,-32.818604,6.9595337,23.278809,0,0.0,0.0,0.0,0.0
2.382324219,-0.008890579,0.9545784,-0.29782736,0.0012684017,0.29784966,0.954612,0.99995965,0.008109287,-0.0038588443,0.0058157695,0.95639765,-0.2920098,-0.037207276,0.2920195,0.95568836,0.99929065,0.0053068255,0.037283268,10.046265,0.17945862,-0.3409729,9.806254,0.07952495,-0.037842337,-0.0053100586,0.038009644,-0.0047912598,-32.57904,6.9595337,23.278809,0,0.0,0.0,0.0,0.0
2.390625,-0.009146072,0.95447403,-0.2981538,0.0015111112,0.29817912,0.9545087,0.999957,0.008279461,-0.0041694837,0.005526318,0.9563617,-0.2921332,-0.036436394,0.29213625,0.9556824,0.9993207,0.0053628753,0.036460806,10.046265,0.17945862,-0.3409729,9.806229,0.08119378,-0.040888667,0.009643555,0.09649658,-0.0025024414,-32.57904,6.9595337,23.278809,0,0.0,0.0,0.0,0.0
2.398925781,-0.009124337,0.95320696,-0.30218068,0.0010273599,0.30220205,0.9532433,0.99995786,0.008387265,-0.00373668,0.0049545392,0.9562878,-0.2923852,-0.03493082,0.29237583,0.9556653,0.9993774,0.005478373,0.034852505,10.021133,0.13998413,-0.28953552,9.806237,0.082250975,-0.036644313,0.004760742,0.13619995,-0.007080078,-32.099915,7.319641,24.058533,0,0.0,0.0,0.0,0.0
2.407226562,-0.008945829,0.9532774,-0.30196393,1.096949E-4,0.30197695,0.95331526,0.99996,0.008495072,-0.002806004,0.004411192,0.9561678,-0.2927859,-0.033501912,0.29276574,0.95559704,0.9994289,0.0055935658,0.033324897,10.053452,0.13279724,-0.18304443,9.806258,0.0833082,-0.0275175,-0.0054626465,0.16093445,-0.0050964355,-32.099915,7.319641,24.058533,0,0.0,0.0,0.0,0.0
2.415527344,-0.00873726,0.9537613,-0.3004382,-9.296597E-4,0.3004418,0.9537997,0.9999614,0.0086129,-0.0017383642,0.0041504907,0.956111,-0.29297537,-0.032827523,0.29295027,0.95556396,0.9994524,0.0056515965,0.03260264,10.053452,0.13279724,-0.18304443,9.806272,0.0844637,-0.01704753,-0.0069885254,0.17224121,-0.007537842,-32.099915,7.3791504,24.35913,0,0.0,0.0,0.0,0.0
2.423828125,-0.00849616,0.95385456,-0.30014876,-0.002126447,0.3001417,0.9538923,0.9999617,0.008742671,-5.2173063E-4,0.0036497666,0.9560192,-0.29328132,-0.031561073,0.29324728,0.9555155,0.99949515,0.005768865,0.031243278,10.069,0.13877869,-0.22013855,9.806273,0.08573632,-0.005116429,-0.0028686523,0.23225403,-0.01121521,-32.099915,7.3791504,24.35913,0,0.0,0.0,0.0,0.0
2.432128906,-0.008135402,0.9524111,-0.3047079,-0.0038584662,0.30468583,0.9524451,0.99995947,0.008924229,0.0011961042,0.0031769718,0.95593464,-0.29356244,-0.03039261,0.2935206,0.9554695,0.99953294,0.0058866283,0.029985853,10.077377,0.16630554,-0.1268158,9.8062525,0.08751679,0.011729776,-0.008224487,0.2904358,-0.0050964355,-31.91986,7.559204,24.479675,0,0.0,0.0,0.0,0.0
2.440429687,-0.007656947,0.9525962,-0.30414116,-0.0058997804,0.3041017,0.9526212,0.9999532,0.009088536,0.0032916178,0.0029568486,0.9558655,-0.29378963,-0.02985948,0.29374433,0.9554175,0.9995497,0.005947381,0.029410204,10.077377,0.16630554,-0.1268158,9.806191,0.08912809,0.032279745,-0.0040893555,0.31730652,-0.0026550293,-31.91986,7.559204,24.479675,0,0.0,0.0,0.0,0.0
2.448730469,-0.0070833126,0.9538532,-0.30018982,-0.008355949,0.3001304,0.95386153,0.99994,0.009264871,0.0058444315,0.0025465311,0.9557385,-0.2942067,-0.028906634,0.29415506,0.95532054,0.9995789,0.006071772,0.028376255,10.092926,0.18664551,0.0059814453,9.806062,0.09085734,0.057314295,-0.0025634766,0.34739685,-0.012268066,-31.799316,7.6187134,24.958801,0,0.0,0.0,0.0,0.0
2.45703125,-0.0063738637,0.9541169,-0.29936647,-0.011203702,0.29928565,0.9540978,0.999917,0.009435302,0.008782036,0.0021701418,0.9556647,-0.29444918,-0.028090738,0.29439193,0.9552719,0.99960303,0.0061982195,0.027484199,10.065414,0.16270447,0.15792847,9.805836,0.0925287,0.08612235,0.0059814453,0.35395813,-0.0066223145,-31.799316,7.6187134,24.958801,0,0.0,0.0,0.0,0.0
2.465332031,-0.0055193724,0.9513454,-0.30807722,-0.0141618345,0.30797666,0.9512885,0.9998845,0.009613453,0.011772958,0.0020009927,0.9556341,-0.2945497,-0.027752237,0.2944899,0.9552515,0.9996128,0.006262962,0.027110256,10.065414,0.16270447,0.15792847,9.805517,0.09427577,0.11545328,3.3569336E-4,0.36480713,-0.012878418,-31.739807,7.8598022,24.839783,0,0.0,0.0,0.0,0.0
2.473632812,-0.0048042107,0.95161694,-0.30724928,-0.017167276,0.30712906,0.95151305,0.9998411,0.009845902,0.014861157,0.0017105867,0.95546806,-0.29508948,-0.027210144,0.29502514,0.9551019,0.99962825,0.0063956426,0.026503092,9.866806,0.2033844,0.20817566,9.805092,0.09655532,0.14573817,0.0056762695,0.35792542,-0.007537842,-31.739807,7.8598022,24.839783,0,0.0,0.0,0.0,0.0
2.481933594,-0.0041227667,0.955197,-0.29594192,-0.020259434,0.29580393,0.9550338,0.99978626,0.009932999,0.018132221,0.0014575338,0.95531875,-0.29557398,-0.026809426,0.29550537,0.9549649,0.9996395,0.006532275,0.026042257,10.2556305,0.110076904,0.3912201,9.804554,0.09740944,0.17781635,-0.001953125,0.30845642,-0.003112793,-31.678772,7.559204,24.839783,0,0.0,0.0,0.0,0.0
2.490234375,-0.0033234707,0.955488,-0.29501113,-0.02309892,0.29486072,0.95526105,0.9997277,0.009989221,0.02109078,0.0013459921,0.9553164,-0.29558206,-0.026678443,0.2955114,0.95496666,0.9996432,0.0066002905,0.02588411,10.2556305,0.110076904,0.3912201,9.80398,0.09796079,0.20682989,-0.011886597,0.2679901,-0.0047912598,-31.678772,7.559204,24.839783,0,0.0,0.0,0.0,0.0
2.498535156,-0.0024304986,0.9523483,-0.30500293,-0.025538616,0.30484524,0.95205945,0.9996709,0.010103333,0.023580732,0.0011609886,0.95532346,-0.2955602,-0.02653677,0.29548573,0.9549785,0.9996472,0.0067344937,0.025694255,9.954147,0.15553284,0.42352295,9.803423,0.09907985,0.23124799,-0.0018005371,0.18231201,-0.0066223145,-31.799316,7.739258,24.41864,0,0.0,0.0,0.0,0.0
2.506835937,-0.0018786207,0.9525582,-0.3043508,-0.027575366,0.30418622,0.9522134,0.99961793,0.010181431,0.025695689,0.0010191179,0.9552075,-0.29593503,-0.026495753,0.29585707,0.9548647,0.9996484,0.0068679014,0.025610454,10.128815,0.12562561,0.5467529,9.802904,0.09984574,0.25198865,0.0044555664,0.12887573,-8.239746E-4,-31.799316,7.739258,24.41864,0,0.0,0.0,0.0,0.0
2.515136719,-0.0014549398,0.9526985,-0.30391362,-0.029137043,0.30374452,0.95230794,0.99957436,0.0102406945,0.027316885,9.609652E-4,0.9551554,-0.2961036,-0.02651678,0.29602396,0.9548124,0.9996479,0.006934173,0.025612114,10.128815,0.12562561,0.5467529,9.802476,0.10042691,0.26788715,0.0012512207,0.08091736,0.0020751953,-31.619263,7.798767,24.598694,0,0.0,0.0,0.0,0.0
2.5234375,-0.0012820358,0.952763,-0.3037118,-0.03014581,0.3035372,0.9523425,0.9995447,0.010376577,0.028332671,8.644541E-4,0.95505947,-0.29641303,-0.026619677,0.2963301,0.9547146,0.99964523,0.0070651127,0.025679538,9.991226,0.20817566,0.5120697,9.802185,0.10175946,0.2778486,0.0067443848,-0.0030822754,-0.004180908,-31.619263,7.798767,24.598694,0,0.0,0.0,0.0,0.0
2.531738281,-9.236084E-4,0.9492575,-0.3144983,-0.030560851,0.31432477,0.94882345,0.9995325,0.010487679,0.028719809,7.784669E-4,0.9549698,-0.29670218,-0.026758786,0.29661593,0.954622,0.99964166,0.007196248,0.025784738,10.101303,0.18544006,0.49531555,9.802066,0.10284901,0.28164512,-0.0011901855,-0.07194519,-0.002960205,-31.559753,8.099365,24.539185,0,0.0,0.0,0.0,0.0
2.540039062,-0.0010745847,0.9491995,-0.31467333,-0.030512065,0.31449586,0.9487683,0.9995338,0.010620863,0.028624078,7.430464E-4,0.95485884,-0.29705897,-0.026834134,0.29697114,0.9545093,0.99963963,0.007262077,0.025843475,10.101303,0.18544006,0.49531555,9.802078,0.104155086,0.28070632,-0.007293701,-0.087371826,-0.0021972656,-31.559753,8.099365,24.539185,0,0.0,0.0,0.0,0.0
2.548339844,-0.0010498685,0.94589585,-0.32446873,-0.030083183,0.32429218,0.94547844,0.9995468,0.010753681,0.028115094,6.6851266E-4,0.95464104,-0.29775825,-0.026978396,0.29766718,0.95428836,0.99963576,0.007395087,0.025953678,9.982849,0.19740295,0.4139557,9.802207,0.1054576,0.2757149,0.0056762695,-0.10218811,-0.0014343262,-31.619263,8.279419,24.238586,0,0.0,0.0,0.0,0.0
2.556640625,-0.0013438088,0.9457777,-0.32481188,-0.029336583,0.3246351,0.94538426,0.9995687,0.010799286,0.027309638,5.9714355E-4,0.9543092,-0.29882044,-0.027099006,0.2987262,0.9539541,0.9996326,0.0075280895,0.026039213,10.061813,0.13877869,0.28234863,9.802421,0.10590482,0.26781607,0.0015563965,-0.0965271,-0.0066223145,-31.619263,8.279419,24.238586,0,0.0,0.0,0.0,0.0
2.564941406,-0.0016962114,0.9461264,-0.32379293,-0.02860325,0.323615,0.9457563,0.9995894,0.010865735,0.026513373,5.571218E-4,0.95414555,-0.2993424,-0.027142465,0.29924658,0.95378965,0.9996314,0.007593514,0.02606458,10.061813,0.13877869,0.28234863,9.802624,0.10655646,0.26000738,-0.0037841797,-0.09866333,3.9672852E-4,-31.799316,8.279419,24.35913,0,0.0,0.0,0.0,0.0
2.573242187,-0.002000238,0.94600415,-0.32414833,-0.027864432,0.32397038,0.94565684,0.9996097,0.010923748,0.025711851,4.664748E-4,0.9538401,-0.30031464,-0.027197711,0.3002157,0.95348346,0.99963,0.0077230954,0.026082313,10.074982,0.14117432,0.3098755,9.802823,0.10712537,0.25214714,0.0044555664,-0.14509583,-2.1362305E-4,-31.799316,8.279419,24.35913,0,0.0,0.0,0.0,0.0
2.581542969,-0.0023071037,0.9455782,-0.3253868,-0.026934413,0.32521084,0.94525796,0.99963456,0.01094491,0.024718298,3.6817975E-4,0.9535413,-0.3012622,-0.027221423,0.30116016,0.95318496,0.9996293,0.007849842,0.02606763,10.055832,0.1268158,0.3026886,9.803066,0.10733291,0.2424037,0.0018615723,-0.1847992,-0.0066223145,-32.398987,8.1588745,23.939514,0,0.0,0.0,0.0,0.0
2.58984375,-0.002747063,0.9453936,-0.3259193,-0.02574613,0.3257456,0.9451068,0.9996647,0.010987429,0.02344538,3.1484524E-4,0.95338804,-0.30174673,-0.027214222,0.30164316,0.9530324,0.99962956,0.0079117445,0.026040686,10.055832,0.1268158,0.3026886,9.803363,0.10774988,0.22992067,7.9345703E-4,-0.2214508,-5.187988E-4,-32.398987,8.1588745,23.939514,0,0.0,0.0,0.0,0.0
2.598144531,-0.0032773623,0.9449729,-0.32713225,-0.024335913,0.32696176,0.94472414,0.99969846,0.011057267,0.021925207,2.5434094E-4,0.95323426,-0.30223235,-0.027183112,0.30212727,0.95287997,0.99963045,0.007973259,0.025988717,10.096512,0.15672302,0.39959717,9.803694,0.10843476,0.21501285,6.4086914E-4,-0.2559662,0.005126953,-32.159424,8.279419,24.238586,0,0.0,0.0,0.0,0.0
2.606445312,-0.003922682,0.94470525,-0.32789707,-0.022533152,0.32773283,0.94450164,0.9997384,0.011093535,0.020001598,1.1734059E-4,0.9529196,-0.303223,-0.027066426,0.30311495,0.95256954,0.9996336,0.008095388,0.025827697,10.096512,0.15672302,0.39959717,9.804085,0.10879042,0.19614866,-8.8500977E-4,-0.29138184,0.0034484863,-32.159424,8.279419,24.238586,0,0.0,0.0,0.0,0.0
2.614746094,-0.0044953963,0.9405758,-0.339554,-0.020319575,0.3394014,0.94042206,0.9997834,0.011127165,0.017586358,-3.815163E-5,0.9526067,-0.30420485,-0.026882503,0.30409393,0.9522627,0.9996386,0.008214117,0.025596848,9.981659,0.15672302,0.22372437,9.804526,0.10912021,0.17246325,-0.0043945313,-0.31414795,0.003753662,-32.27997,8.639526,24.35913,0,0.0,0.0,0.0,0.0
2.623046875,-0.005466314,0.94015884,-0.34069276,-0.01782475,0.34055212,0.9400567,0.9998262,0.011211407,0.01489653,-1.2242002E-4,0.95237905,-0.30491656,-0.026747743,0.30480435,0.9520393,0.9996422,0.008272379,0.025436677,10.088135,0.20458984,0.061019897,9.804946,0.109946355,0.14608505,-0.0043945313,-0.3037567,0.009109497,-32.27997,8.639526,24.35913,0,0.0,0.0,0.0,0.0
2.631347656,-0.0063517275,0.9397766,-0.3417305,-0.015470592,0.34160417,0.93971664,0.99986017,0.011255596,0.012369122,-3.2104785E-4,0.95192105,-0.30634335,-0.026386268,0.30622867,0.95159227,0.9996518,0.008388765,0.02501933,10.088135,0.18066406,0.08973694,9.805279,0.11037969,0.121299654,-0.010665894,-0.28222656,0.0048217773,-32.27997,8.639526,24.35913,0,0.0,0.0,0.0,0.0
2.639648437,-0.007245469,0.93973845,-0.34181732,-0.013061812,0.34170818,0.93971527,0.9998884,0.0112734325,0.009798852,-5.441136E-4,0.9514655,-0.30775496,-0.025945185,0.307638,0.9511497,0.99966323,0.008502293,0.02451856,10.025925,0.15074158,-0.06819153,9.805556,0.110554606,0.096093915,-0.0043945313,-0.25794983,0.005584717,-32.218933,8.699036,24.598694,0,0.0,0.0,0.0,0.0
2.647949219,-0.008120891,0.9415635,-0.33673757,-0.010826677,0.33664614,0.941569,0.9999084,0.011292127,0.0074601374,-6.689406E-4,0.9512431,-0.30844155,-0.025682658,0.30832353,0.9509348,0.9996699,0.008557717,0.0242242,10.114456,0.15792847,-0.21296692,9.805752,0.11073794,0.07315896,1.8310547E-4,-0.22236633,0.004058838,-32.27997,8.518982,24.598694,0,0.0,0.0,0.0,0.0
2.65625,-0.00884988,0.9412528,-0.33758658,-0.008871257,0.33751258,0.94127905,0.99992144,0.011325026,0.0053631505,-9.4699115E-4,0.95087606,-0.30957043,-0.025085755,0.30945054,0.95058465,0.9996849,0.008666002,0.023560395,10.114456,0.15792847,-0.21296692,9.805881,0.111060575,0.052594546,0.0073547363,-0.14616394,-3.6621094E-4,-32.27997,8.518982,24.598694,0,0.0,0.0,0.0,0.0
2.664550781,-0.009441174,0.9440824,-0.32957444,-0.007349238,0.3295147,0.94412184,0.9999284,0.011335739,0.0038272806,-0.0012415424,0.950511,-0.31068859,-0.024434563,0.31056723,0.9502373,0.99970067,0.0087713,0.022839738,9.981659,0.1268158,-0.24645996,9.805948,0.11116563,0.037532803,4.8828125E-4,-0.04751587,2.4414063E-4,-32.398987,8.1588745,24.299622,0,0.0,0.0,0.0,0.0
2.672851562,-0.009772407,0.9439413,-0.3299687,-0.0065128673,0.32991734,0.94398737,0.99993104,0.01137407,0.0029236777,-0.0013988288,0.9503861,-0.31106943,-0.02408958,0.31094745,0.95012176,0.99970883,0.00882259,0.022459442,10.095322,0.14476013,-0.22372437,9.805974,0.11154153,0.028671484,0.0014038086,-0.013458252,0.001159668,-32.398987,8.1588745,24.299622,0,0.0,0.0,0.0,0.0
2.681152344,-0.009918912,0.9438788,-0.3301431,-0.0063365456,0.33009338,0.94392705,0.99993074,0.011454696,0.002706764,-0.001716943,0.9501383,-0.31182414,-0.023387277,0.31170118,0.94989234,0.999725,0.008923629,0.021685973,10.060623,0.16151428,-0.07777405,9.805971,0.112332195,0.026544288,7.9345703E-4,0.030822754,-0.009063721,-32.398987,8.1588745,24.299622,0,0.0,0.0,0.0,0.0
2.689453125,-0.010077527,0.947186,-0.32052633,-0.0064721787,0.3204741,0.94723517,0.99992824,0.0116202915,0.0029007709,-0.002029025,0.94989735,-0.31255552,-0.022706235,0.3124318,0.9496688,0.9997401,0.00902386,0.020934658,10.011566,0.21057129,0.01914978,9.805946,0.11395614,0.028446846,0.0039978027,0.037704468,0.0017700195,-32.458496,7.978821,24.598694,0,0.0,0.0,0.0,0.0
2.697753906,-0.010137597,0.9499201,-0.31232873,-0.0067875776,0.31227222,0.9499686,0.9999256,0.011750352,0.003281966,-0.002187292,0.9498438,-0.312717,-0.022380255,0.3125929,0.9496235,0.99974716,0.00907579,0.020574015,10.1479645,0.20100403,0.098098755,9.805921,0.11523159,0.032185093,0.0099487305,0.032348633,-0.002960205,-32.699585,7.6797485,24.41864,0,0.0,0.0,0.0,0.0
2.706054687,-0.010204258,0.9498928,-0.31240943,-0.006982932,0.31235036,0.94994134,0.9999235,0.01187498,0.0034457322,-0.0025022891,0.949847,-0.31270507,-0.021763077,0.31258026,0.949642,0.99976003,0.0091817025,0.019889425,10.017548,0.19262695,-0.041870117,9.805901,0.116453774,0.03379109,0.0044555664,0.029144287,-0.005554199,-32.699585,7.6797485,24.41864,0,0.0,0.0,0.0,0.0
2.714355469,-0.010277603,0.950365,-0.3109675,-0.0072507923,0.31090495,0.9504134,0.9999209,0.012022732,0.0036955415,-0.002807458,0.9498489,-0.31269664,-0.02117782,0.31257123,0.9496583,0.9997718,0.0092883585,0.019238198,10.017548,0.19262695,-0.041870117,9.805874,0.11790272,0.03624088,0.008422852,0.1076355,-0.001739502,-32.27997,7.739258,24.719238,0,0.0,0.0,0.0,0.0
2.72265625,-0.010241059,0.95037955,-0.31092435,-0.0075495634,0.3108583,0.95042634,0.99991906,0.012080713,0.003991432,-0.0029573394,0.9498593,-0.31266364,-0.020899562,0.312538,0.9496753,0.9997772,0.009343046,0.018927364,10.057037,0.13877869,-0.23210144,9.805857,0.11847133,0.03914258,0.003692627,0.1076355,-0.001739502,-32.27997,7.739258,24.719238,0,0.0,0.0,0.0,0.0
2.730957031,-0.010079014,0.95044386,-0.3107329,-0.008148309,0.31066033,0.9504862,0.9999161,0.012111911,0.0046133604,-0.0032466697,0.9498802,-0.31259748,-0.020371463,0.31247145,0.94970864,0.9997872,0.009451458,0.018335957,10.057037,0.13040161,-0.3361969,9.805827,0.118777275,0.045241613,0.002319336,0.23225403,-0.003112793,-32.27997,7.739258,24.719238,0,0.0,0.0,0.0,0.0
