Time,Rot1,Rot2,Rot3,Rot4,Rot5,Rot6,Rot7,Rot8,Rot9,FRot1,FRot2,FRot3,FRot4,FRot5,FRot6,FRot7,FRot8,FRot9,AccX,AccY,AccZ,GravX,GravY,GravZ,GyroX,GyroY,GyroZ,MagX,MagY,MagZ,Imid
0.0,0.0,0.0,0.0,0.0,0.0,0.0,0.0,0.0,0.0,1.0,0.0,0.0,0.0,1.0,0.0,0.0,0.0,1.0,10.025925,0.14596558,-0.17826843,9.804437,0.14616881,-0.14846496,0.0,0.0,0.0,0.0,0.0,0.0,0,0.0,0.0,0.0,0.0
0.008300782,-0.02071203,0.51591164,-0.85639143,-0.004913863,0.8565123,0.5161033,0.9997734,0.014897736,-0.015204988,1.0,0.0,0.0,0.0,1.0,0.0,0.0,0.0,1.0,10.022339,0.15792847,-0.15553284,9.804428,0.14609689,-0.14911,0.0010986328,-0.0019989014,0.0013122559,-23.81897,39.179993,24.179077,0,0.0,0.0,0.0,0.0
0.016601563,-0.020738559,0.5158996,-0.856398,-0.00490357,0.8565194,0.51609147,0.9997729,0.014902403,-0.01523323,0.99779767,0.021467006,-0.06276258,-0.021461705,0.9997694,7.586912E-4,0.062764384,5.8997155E-4,0.9980282,10.0247345,0.15792847,-0.16989136,9.804423,0.14614265,-0.14938696,0.003692627,0.0019683838,-0.0011291504,-23.81897,39.179993,24.179077,0,0.0,0.0,0.0,0.0
0.024902344,-0.020735698,0.51455355,-0.85720754,-0.004957717,0.8573284,0.51474607,0.9997727,0.01492341,-0.015226291,0.9951449,0.031876348,-0.09311547,-0.031819373,0.99949145,0.0020968255,0.09313496,8.762308E-4,0.99565315,10.060623,0.1651001,-0.14476013,9.804421,0.14634866,-0.1493189,0.0059814453,-0.003692627,-3.6621094E-4,-23.81897,38.819885,23.878479,0,0.0,0.0,0.0,0.0
0.033203125,-0.020741241,0.51218295,-0.85862595,-0.0050438335,0.8587461,0.5123765,0.99977213,0.014958088,-0.015228093,0.98706347,0.052001636,-0.15166238,-0.051616255,0.99864596,0.0064795464,0.15179399,0.0014325201,0.9884111,10.018753,0.17108154,-0.15074158,9.804416,0.14668874,-0.14933658,0.0070495605,0.0027313232,-0.0018920898,-23.999023,38.75885,23.699951,0,0.0,0.0,0.0,0.0
0.041503907,-0.020742396,0.5121824,-0.8586262,-0.005073162,0.85874593,0.51237637,0.99977195,0.014983864,-0.015214064,0.98176104,0.06170116,-0.17982873,-0.060998768,0.99809325,0.009438436,0.1800682,0.001703042,0.98365265,10.018753,0.17108154,-0.15074158,9.804414,0.14694151,-0.14919901,0.008117676,0.0037994385,0.003753662,-23.999023,38.75885,23.699951,0,0.0,0.0,0.0,0.0
0.049804688,-0.020729411,0.51218843,-0.85862285,-0.00509477,0.85874206,0.51238257,0.99977213,0.014995876,-0.015191737,0.96892154,0.080504626,-0.23390175,-0.07878124,0.9967517,0.016717644,0.23448782,0.0022289832,0.9721165,10.039093,0.16151428,-0.16390991,9.804416,0.1470593,-0.14898005,0.0072021484,0.0066986084,-6.1035156E-5,-23.999023,38.75885,23.699951,0,0.0,0.0,0.0,0.0
0.058105469,-0.02070746,0.5124093,-0.8584915,-0.0051143123,0.8586101,0.5126035,0.99977255,0.015005313,-0.0151590165,0.9534679,0.098536864,-0.28493744,-0.09519767,0.9951296,0.025581153,0.28607038,0.0027345724,0.9582047,10.025925,0.14715576,-0.16151428,9.8044195,0.14715186,-0.14865917,0.009811401,0.0050201416,0.0019226074,-23.939514,38.938904,23.81897,0,0.0,0.0,0.0,0.0
0.06640625,-0.020678936,0.5124225,-0.85848445,-0.0051118257,0.85860264,0.51261616,0.9997731,0.014988779,-0.015135573,0.94488883,0.10727723,-0.30931637,-0.10288545,0.99422467,0.030526508,0.31080475,0.0029799973,0.95046914,10.025925,0.14715576,-0.16151428,9.804425,0.14698972,-0.14842927,0.006286621,0.0015106201,-2.1362305E-4,-23.939514,38.938904,23.81897,0,0.0,0.0,0.0,0.0
0.074707032,-0.020635558,0.50706977,-0.8616579,-0.0052396106,0.86177474,0.507264,0.9997733,0.014982428,-0.015126356,0.9262642,0.12421335,-0.3558169,-0.11720048,0.99224955,0.041290972,0.35818803,0.003455564,0.9336431,10.016357,0.17228699,-0.15553284,9.804427,0.14692743,-0.14833888,0.0027770996,0.0041046143,-0.0011291504,-24.179077,38.879395,23.458862,0,0.0,0.0,0.0,0.0
0.083007813,-0.020625463,0.50712574,-0.86162525,-0.005282408,0.86174124,0.50732046,0.9997733,0.0150151765,-0.015094969,0.90600646,0.14020078,-0.39936945,-0.1298826,0.99011534,0.05293461,0.40284333,0.0039120466,0.9152606,10.016357,0.17228699,-0.15553284,9.804427,0.14724858,-0.14803109,0.01423645,0.010513306,-0.0012817383,-24.179077,39.179993,23.638916,0,0.0,0.0,0.0,0.0
0.091308594,-0.020567892,0.50715256,-0.86161083,-0.005345817,0.861725,0.50734735,0.99977416,0.01504108,-0.015012722,0.89535564,0.14794387,-0.42006043,-0.13571052,0.98898715,0.059051957,0.42417076,0.004134118,0.90557283,10.046265,0.17228699,-0.15074158,9.804436,0.14750262,-0.14722452,0.009811401,0.021057129,0.0036010742,-24.179077,39.179993,23.638916,0,0.0,0.0,0.0,0.0
0.099609375,-0.020460606,0.50720257,-0.86158395,-0.0054008104,0.86169577,0.50739664,0.9997761,0.015034893,-0.01489151,0.8731939,0.16294347,-0.4593276,-0.1463615,0.98662484,0.07176164,0.4648771,0.004566051,0.88536346,10.018753,0.15792847,-0.1651001,9.804454,0.14744192,-0.14603582,0.003692627,0.016784668,0.001159668,-24.179077,39.179993,23.638916,0,0.0,0.0,0.0,0.0
0.107910157,-0.020266142,0.5022808,-0.864467,-0.005634161,0.8645735,0.5024747,0.99977875,0.015053771,-0.014691639,0.85010594,0.17731592,-0.49586186,-0.15571228,0.98414135,0.08496723,0.5030642,0.0049806335,0.8642347,10.016357,0.17945862,-0.10647583,9.804481,0.14762707,-0.14407577,-0.0042419434,0.009902954,-8.239746E-4,-23.939514,39.718628,23.638916,0,0.0,0.0,0.0,0.0
0.116210938,-0.020151535,0.5023333,-0.86443925,-0.005730582,0.86454254,0.5025269,0.9997805,0.015080428,-0.014543196,0.83830965,0.1841618,-0.5131485,-0.15982153,0.9828823,0.091648795,0.5212428,0.005182104,0.8533927,10.016357,0.17945862,-0.10647583,9.804498,0.14788848,-0.14262004,7.9345703E-4,0.00440979,0.0034484863,-23.939514,39.718628,23.638916,0,0.0,0.0,0.0,0.0
0.124511719,-0.02011058,0.49652153,-0.8677915,-0.0058824173,0.86789316,0.49671605,0.9997804,0.015093959,-0.014533088,0.81431186,0.19742203,-0.5458212,-0.16715388,0.9803027,0.105195604,0.5558379,0.005574093,0.831272,10.035492,0.16390991,-0.1531372,9.804497,0.14802118,-0.1425209,0.0039978027,-0.0027618408,-9.765625E-4,-24.238586,39.59961,23.2193,0,0.0,0.0,0.0,0.0
0.1328125,-0.020151904,0.49742734,-0.86727154,-0.005828631,0.8673745,0.49762183,0.99977994,0.015083033,-0.014579926,0.7899768,0.20986345,-0.5761024,-0.17314656,0.97771263,0.11873646,0.58818096,0.005951096,0.8087074,10.035492,0.14476013,-0.1603241,9.804492,0.14791402,-0.14298023,0.009033203,-7.7819824E-4,-9.765625E-4,-24.41864,39.179993,23.039246,0,0.0,0.0,0.0,0.0
0.141113282,-0.020182097,0.49741295,-0.86727905,-0.005799413,0.8673829,0.49760744,0.99977946,0.015072471,-0.014620902,0.77771604,0.21590644,-0.5903745,-0.17576486,0.9763947,0.12553857,0.6035432,0.0061337412,0.79730666,10.035492,0.14476013,-0.1603241,9.804487,0.14781046,-0.14338207,0.012710571,-0.0019989014,8.544922E-4,-24.41864,39.179993,23.039246,0,0.0,0.0,0.0,0.0
0.149414063,-0.020132842,0.49743646,-0.8672668,-0.0057970816,0.8673699,0.49763018,0.9997805,0.0150463255,-0.014578939,0.7531111,0.22760782,-0.61726683,-0.18025391,0.9737313,0.1391256,0.6327181,0.006487729,0.77435505,10.021133,0.14596558,-0.088531494,9.804498,0.14755405,-0.14297056,0.0041503906,-0.007659912,0.0045166016,-24.41864,39.179993,23.039246,0,0.0,0.0,0.0,0.0
0.157714844,-0.020179259,0.4969614,-0.867538,-0.005752977,0.8676426,0.49715513,0.9997798,0.015023149,-0.014649376,0.7285093,0.23881589,-0.64206016,-0.18380754,0.97104084,0.15262511,0.6599159,0.0068266625,0.75130844,10.034302,0.16270447,-0.14476013,9.804491,0.14732677,-0.1436613,0.006439209,-0.008575439,-8.239746E-4,-24.539185,39.118958,22.979736,0,0.0,0.0,0.0,0.0
0.166015625,-0.020238865,0.49693277,-0.867553,-0.005713256,0.8676591,0.49712685,0.99977887,0.015017835,-0.014721331,0.7162479,0.24423039,-0.65371275,-0.18524733,0.969692,0.15931347,0.67280924,0.0069905985,0.739783,10.034302,0.16270447,-0.14476013,9.8044815,0.14727466,-0.14436695,0.008575439,-0.0073547363,0.0013122559,-24.539185,39.118958,22.979736,0,0.0,0.0,0.0,0.0
0.174316407,-0.020310538,0.49463752,-0.86886203,-0.0057533905,0.8689691,0.49483296,0.9997772,0.015049227,-0.014803388,0.6918659,0.2547135,-0.6756053,-0.18751347,0.966989,0.17254297,0.6972519,0.0073084887,0.71678895,10.018753,0.18304443,-0.16151428,9.804464,0.14758249,-0.14517164,0.0078125,-0.005050659,0.006652832,-24.778748,38.819885,22.679138,0,0.0,0.0,0.0,0.0
0.182617188,-0.02036474,0.494611,-0.8688758,-0.0057261363,0.8689841,0.49480683,0.99977624,0.015051916,-0.014864427,0.6797779,0.2597366,-0.68588555,-0.18832216,0.9656507,0.17903513,0.7088278,0.007463309,0.7053422,10.018753,0.18304443,-0.16151428,9.804456,0.14760888,-0.14577024,0.0078125,-0.0023040771,0.0075683594,-24.778748,38.819885,22.679138,0,0.0,0.0,0.0,0.0
0.190917969,-0.020343563,0.4891539,-0.87196016,-0.0058093253,0.87206817,0.48935,0.99977624,0.015020624,-0.014899321,0.65583915,0.26946208,-0.7051703,-0.18940921,0.9629797,0.19181825,0.7307524,0.007763829,0.6825984,10.02713,0.17108154,-0.15194702,9.804456,0.147302,-0.14611243,0.0015563965,-0.003692627,0.009262085,-25.79956,37.85858,21.839905,0,0.0,0.0,0.0,0.0
0.19921875,-0.02035099,0.48915,-0.87196225,-0.0057512387,0.87207115,0.48934528,0.9997763,0.014973525,-0.014934293,0.6323232,0.27853817,-0.7228996,-0.18968682,0.9603914,0.20412555,0.7511233,0.008051209,0.6601128,10.009171,0.16390991,-0.15434265,9.804457,0.14684013,-0.14645539,0.008880615,5.950928E-4,0.0074310303,-25.79956,37.85858,21.839905,0,0.0,0.0,0.0,0.0
0.207519532,-0.02030959,0.48374057,-0.87497574,-0.0058337227,0.875084,0.48393583,0.9997767,0.014932904,-0.01495059,0.62072414,0.2829315,-0.73119855,-0.1896067,0.95910513,0.21015854,0.76075673,0.0081896605,0.64898545,10.009171,0.16390991,-0.15434265,9.804461,0.14644177,-0.1466152,0.010253906,5.950928E-4,0.00390625,-25.91858,37.979126,21.598816,0,0.0,0.0,0.0,0.0
0.215820313,-0.020277245,0.48375767,-0.874967,-0.0058354917,0.87507474,0.4839525,0.9997774,0.014919087,-0.014921142,0.597922,0.2912048,-0.74678576,-0.18889916,0.9566234,0.2217856,0.77897775,0.008456701,0.62699455,10.02713,0.16151428,-0.13639832,9.804466,0.14630626,-0.14632641,0.0046081543,2.89917E-4,-0.004180908,-25.91858,37.979126,21.598816,0,0.0,0.0,0.0,0.0
0.224121094,-0.020246867,0.48314202,-0.87530774,-0.005890148,0.8754144,0.48333713,0.9997777,0.0149417585,-0.014878624,0.5756195,0.2991307,-0.7610408,-0.18772253,0.9541724,0.23305653,0.7958784,0.008712621,0.60539377,10.030716,0.16749573,-0.12562561,9.80447,0.1465286,-0.14590946,0.0033874512,0.0010528564,0.002532959,-25.979614,37.5,21.299744,0,0.0,0.0,0.0,0.0
0.232421875,-0.02023508,0.4831484,-0.87530464,-0.0059220167,0.87541056,0.48334378,0.9997777,0.014964068,-0.014852791,0.5646693,0.30295438,-0.76770264,-0.18696707,0.9529641,0.238543,0.8038606,0.008837207,0.594752,10.030716,0.16749573,-0.12562561,9.80447,0.14674738,-0.14565612,0.0030822754,-0.0047454834,5.493164E-4,-25.979614,37.5,21.299744,0,0.0,0.0,0.0,0.0
0.240722657,-0.020256117,0.48649785,-0.873447,-0.005829086,0.873554,0.4866926,0.99977785,0.014949897,-0.014858969,0.543182,0.31036004,-0.7801474,-0.18516974,0.9505757,0.24923477,0.8189416,0.009079839,0.5738049,10.023529,0.15194702,-0.12921143,9.804472,0.14660841,-0.14571671,0.0043029785,-0.003692627,0.008041382,-26.45874,36.59973,20.999146,0,0.0,0.0,0.0,0.0
0.249023438,-0.02026733,0.48649153,-0.8734502,-0.005801596,0.87355775,0.48668605,0.9997778,0.014931232,-0.014882255,0.52223545,0.31759855,-0.79145515,-0.18310618,0.9481796,0.2596684,0.8329119,0.009312299,0.55332726,10.025925,0.16270447,-0.13040161,9.804471,0.14642537,-0.14594507,0.013931274,-0.008728027,0.0034484863,-26.45874,36.59973,20.999146,0,0.0,0.0,0.0,0.0
0.257324219,-0.020266876,0.4836747,-0.8750132,-0.00582933,0.8751209,0.48386928,0.9997776,0.014907259,-0.014916466,0.511981,0.32110277,-0.79672366,-0.18195462,0.94699746,0.264742,0.83950466,0.009424681,0.5432708,10.025925,0.16270447,-0.13040161,9.804469,0.14619027,-0.14628056,0.0068969727,-0.009338379,0.00390625,-26.519775,36.11908,20.579529,0,0.0,0.0,0.0,0.0
0.265625,-0.020339858,0.48363322,-0.8750344,-0.005777833,0.875144,0.4838281,0.9997764,0.014896797,-0.015005952,0.4919398,0.32776928,-0.8065746,-0.179375,0.9447086,0.27450004,0.8519506,0.009641798,0.5235334,10.025925,0.15672302,-0.16151428,9.804458,0.14608768,-0.14715812,0.013458252,-0.0059814453,9.1552734E-5,-26.519775,36.11908,20.579529,0,0.0,0.0,0.0,0.0
0.273925782,-0.020408528,0.48343813,-0.8751406,-0.00576211,0.87525153,0.4836338,0.9997752,0.01491291,-0.015076973,0.47249565,0.33415467,-0.8155296,-0.17654915,0.9424668,0.28387806,0.8634687,0.009849902,0.50430614,10.0295105,0.1603241,-0.16390991,9.804445,0.14624569,-0.1478546,0.011627197,-0.0019989014,-6.713867E-4,-26.579285,36.239624,20.639038,0,0.0,0.0,0.0,0.0
0.282226563,-0.020460736,0.48340845,-0.87515575,-0.0057585994,0.8752675,0.48360482,0.9997741,0.014934582,-0.015124861,0.46299928,0.33724216,-0.8196947,-0.17505367,0.94136536,0.28842247,0.86890036,0.009951166,0.49488693,10.0295105,0.1603241,-0.16390991,9.804435,0.14645822,-0.14832422,0.009338379,-0.0047454834,9.1552734E-5,-26.579285,36.239624,20.639038,0,0.0,0.0,0.0,0.0
0.290527344,-0.020466829,0.47833624,-0.8779382,-0.0058905105,0.8780492,0.47853407,0.9997732,0.014965578,-0.015153237,0.444458,0.34322155,-0.8274394,-0.17192255,0.9391996,0.29723164,0.8791471,0.010148514,0.47644234,10.02713,0.17347717,-0.1531372,9.804425,0.14676218,-0.14860249,0.006134033,-0.0016937256,0.0013122559,-27.119446,36.05957,20.27893,0,0.0,0.0,0.0,0.0
0.298828125,-0.020497577,0.4783182,-0.8779474,-0.005900153,0.8780587,0.4785166,0.9997724,0.014988453,-0.015175922,0.42655686,0.34873635,-0.83452517,-0.16853358,0.93716383,0.30548385,0.8886201,0.010339275,0.45852742,10.039093,0.18066406,-0.17108154,9.804419,0.14698651,-0.14882496,0.0128479,-0.002456665,0.002380371,-27.119446,36.05957,20.27893,0,0.0,0.0,0.0,0.0
0.307128907,-0.02055585,0.48026577,-0.8768821,-0.0058579827,0.8769945,0.48046464,0.99977154,0.01501312,-0.015213979,0.41782945,0.35140657,-0.8378138,-0.16679212,0.9361648,0.30947667,0.893084,0.010432261,0.4497691,10.039093,0.18066406,-0.17108154,9.80441,0.14722842,-0.14919817,0.010116577,0.0019683838,0.002380371,-27.059937,35.758972,20.219421,0,0.0,0.0,0.0,0.0
0.315429688,-0.02055467,0.4802664,-0.8768818,-0.0058458047,0.8769944,0.48046508,0.99977165,0.015001881,-0.015218787,0.40080243,0.35666183,-0.84388965,-0.16326645,0.9341732,0.3172765,0.90149957,0.010613667,0.43264982,10.017548,0.1531372,-0.16630554,9.804411,0.1471182,-0.14924532,0.009643555,0.0054779053,5.493164E-4,-27.059937,35.758972,20.219421,0,0.0,0.0,0.0,0.0
0.323730469,-0.020536538,0.48002142,-0.87701637,-0.005849422,0.87712866,0.48021984,0.99977195,0.014992092,-0.015205338,0.3843618,0.36169836,-0.84937644,-0.15965085,0.9322328,0.32473633,0.9092731,0.010787444,0.41606012,10.039093,0.1758728,-0.13160706,9.804414,0.1470222,-0.14911343,0.011795044,1.373291E-4,0.00390625,-26.638794,36.239624,20.458984,0,0.0,0.0,0.0,0.0
0.33203125,-0.020497497,0.48004374,-0.8770051,-0.0058682445,0.87711656,0.4802419,0.9997727,0.014990237,-0.01516168,0.3763597,0.36413234,-0.8519161,-0.15781413,0.9312838,0.32833713,0.9129338,0.010871539,0.4079629,10.039093,0.1758728,-0.13160706,9.804421,0.14700401,-0.14868529,0.0056762695,0.0065460205,0.005584717,-26.638794,36.239624,20.458984,0,0.0,0.0,0.0,0.0
0.340332032,-0.020448066,0.4815206,-0.87619627,-0.005829698,0.8763072,0.4817176,0.9997739,0.01495815,-0.015111664,0.36078408,0.368849,-0.8566127,-0.15410069,0.92942387,0.33529738,0.9198304,0.011034644,0.39216122,10.060623,0.15672302,-0.13519287,9.804433,0.14668934,-0.1481948,0.0032348633,0.0021209717,0.003753662,-26.879883,35.758972,20.27893,0,0.0,0.0,0.0,0.0
0.348632813,-0.020460475,0.48151335,-0.8761999,-0.0058154664,0.8763112,0.48171028,0.9997737,0.014951534,-0.01512952,0.3457609,0.37343183,-0.8608124,-0.15037058,0.92759013,0.3420018,0.9261955,0.011190017,0.3768776,10.030716,0.17228699,-0.17826843,9.804431,0.14662446,-0.14836991,0.009811401,-0.0053710938,0.0034484863,-26.879883,35.758972,20.27893,0,0.0,0.0,0.0,0.0
0.356933594,-0.020480098,0.47716868,-0.87857306,-0.0058909366,0.8786845,0.47736654,0.9997729,0.0149521325,-0.015184576,0.33845547,0.3756513,-0.86274797,-0.14849457,0.9266926,0.3452393,0.9291917,0.011265248,0.36942634,10.030716,0.17228699,-0.17826843,9.804423,0.14663033,-0.14890982,0.006286621,-0.00491333,0.002380371,-27.178955,35.398865,19.859314,0,0.0,0.0,0.0,0.0
0.365234375,-0.020517899,0.4771461,-0.87858444,-0.0058864616,0.8786965,0.47734442,0.99977213,0.014965858,-0.015220305,0.3242757,0.37977043,-0.86638314,-0.14466643,0.92501044,0.35132235,0.93483526,0.0114112515,0.35489842,10.022339,0.17706299,-0.13877869,9.804416,0.14676493,-0.14926021,0.013153076,-0.011169434,3.9672852E-4,-27.178955,35.398865,19.859314,0,0.0,0.0,0.0,0.0
0.373535157,-0.02054536,0.4725613,-0.88105834,-0.00593605,0.88117105,0.47276023,0.99977124,0.014943033,-0.015298829,0.31062004,0.38371834,-0.869641,-0.14084154,0.923378,0.35712305,0.94004196,0.011552016,0.34086317,10.041473,0.15792847,-0.15553284,9.804407,0.1465411,-0.15003027,0.01133728,-0.011932373,-0.0020446777,-26.939392,35.51941,19.67926,0,0.0,0.0,0.0,0.0
0.381835938,-0.020629618,0.4725111,-0.8810832,-0.0059105437,0.88119763,0.47271088,0.9997697,0.014959528,-0.015385976,0.30399823,0.3855346,-0.87117636,-0.13890162,0.92262024,0.35983098,0.9424921,0.011619838,0.33402628,10.041473,0.15792847,-0.15553284,9.804392,0.14670286,-0.15088488,0.002319336,-0.010559082,-8.239746E-4,-26.939392,35.51941,19.67926,0,0.0,0.0,0.0,0.0
0.390136719,-0.020721707,0.47077894,-0.88200784,-0.005920362,0.88212407,0.47098008,0.9997678,0.0149813155,-0.015491932,0.29112598,0.38905254,-0.8740044,-0.1350432,0.92114055,0.3650525,0.9471055,0.011752092,0.32070687,10.037888,0.16749573,-0.16390991,9.804373,0.14691652,-0.15192395,0.009338379,-0.0128479,-9.765625E-4,-27.2995,35.21881,19.439697,0,0.0,0.0,0.0,0.0
0.3984375,-0.020831654,0.47071198,-0.88204104,-0.005875183,0.8821596,0.47091398,0.9997657,0.014992068,-0.015611323,0.27874684,0.3923544,-0.87656045,-0.13120013,0.9197374,0.36995894,0.95136046,0.011879971,0.30785084,10.022339,0.16151428,-0.17108154,9.804353,0.14702196,-0.15309478,0.0073547363,-0.004135132,8.544922E-4,-27.2995,35.21881,19.439697,0,0.0,0.0,0.0,0.0
0.406738282,-0.020898007,0.4670472,-0.88398546,-0.0059342645,0.88410497,0.46725067,0.99976397,0.01501041,-0.01570445,0.2727329,0.39395273,-0.87773454,-0.12929517,0.91905314,0.37232256,0.9533622,0.011942214,0.30159226,10.022339,0.16151428,-0.17108154,9.804336,0.14720184,-0.15400805,0.0072021484,-0.005050659,-0.0020446777,-27.659607,35.099792,19.198608,0,0.0,0.0,0.0,0.0
0.415039063,-0.020911772,0.4670386,-0.8839896,-0.0059359567,0.8841093,0.46724227,0.99976367,0.015018189,-0.015715973,0.2610685,0.39689982,-0.879951,-0.12548132,0.9177826,0.3767352,0.9571299,0.0120637175,0.28940764,10.023529,0.14715576,-0.14715576,9.804333,0.14727813,-0.15412106,0.011489868,0.0025787354,-0.0050964355,-27.659607,35.099792,19.198608,0,0.0,0.0,0.0,0.0
0.423339844,-0.020943018,0.4689125,-0.88299626,-0.005939506,0.883116,0.469117,0.999763,0.015069287,-0.015710006,0.249851,0.3997261,-0.88192606,-0.121730775,0.9165537,0.3809343,0.9606019,0.012180718,0.27766085,10.037888,0.16630554,-0.17108154,9.804326,0.14777923,-0.15406252,0.004760742,-0.006591797,0.0028381348,-27.598572,34.91974,19.198608,0,0.0,0.0,0.0,0.0
0.431640625,-0.020985683,0.46888596,-0.8830093,-0.005954445,0.8831295,0.46909127,0.999762,0.0151020335,-0.015741123,0.24440008,0.40113446,-0.8828136,-0.119892016,0.9159374,0.3829942,0.96223414,0.012238489,0.271948,10.037888,0.16630554,-0.17108154,9.8043165,0.14810036,-0.15436769,0.008422852,-0.005050659,0.0017700195,-27.598572,34.91974,19.198608,0,0.0,0.0,0.0,0.0
0.439941407,-0.020991916,0.46768674,-0.88364506,-0.0059561282,0.8837657,0.46789205,0.99976194,0.015085054,-0.015766332,0.23381498,0.40386337,-0.8844348,-0.11626595,0.9147359,0.3869631,0.9653045,0.012351888,0.26083452,10.040283,0.14715576,-0.15194702,9.804316,0.14793384,-0.1546149,0.008728027,-0.0055236816,0.0028381348,-27.95868,34.67865,19.018555,0,0.0,0.0,0.0,0.0
0.448242188,-0.021026712,0.46766466,-0.8836558,-0.005930411,0.8837773,0.4678701,0.99976134,0.015078212,-0.015809488,0.22364746,0.40643176,-0.8858866,-0.11269801,0.9135962,0.39069322,0.96813273,0.012460124,0.25012752,10.031906,0.16270447,-0.15434265,9.80431,0.14786676,-0.15503812,0.010116577,-0.006286621,-9.765625E-4,-27.95868,34.67865,19.018555,0,0.0,0.0,0.0,0.0
0.456542969,-0.021090943,0.4713846,-0.8816756,-0.005821369,0.88179886,0.47158977,0.99976057,0.01507883,-0.015853863,0.218713,0.40767592,-0.88654673,-0.1109418,0.913041,0.39248967,0.96946204,0.0125124855,0.24492224,10.031906,0.16270447,-0.15434265,9.804302,0.1478728,-0.15547329,0.009506226,-0.0012359619,0.0013122559,-28.019714,34.318542,19.018555,0,0.0,0.0,0.0,0.0
0.46484375,-0.021118393,0.47136697,-0.88168424,-0.005810499,0.88180816,0.47157237,0.9997601,0.015081879,-0.015883496,0.20911527,0.41024008,-0.8876789,-0.10752159,0.9118903,0.39609993,0.97196186,0.012614114,0.23479986,10.021133,0.15792847,-0.16270447,9.804297,0.14790271,-0.1557639,0.009033203,-0.0013885498,-0.0014343262,-28.019714,34.318542,19.018555,0,0.0,0.0,0.0,0.0
0.473144532,-0.021175198,0.4785553,-0.8778021,-0.0056365286,0.87792784,0.47875986,0.9997599,0.015085591,-0.015892906,0.19989482,0.41269895,-0.8886628,-0.104175754,0.91077876,0.39953652,0.97426355,0.012711839,0.22505318,10.023529,0.18066406,-0.18304443,9.804296,0.14793912,-0.15585618,0.0030822754,-7.7819824E-4,0.0059051514,-27.95868,34.199524,19.319153,0,0.0,0.0,0.0,0.0
0.481445313,-0.021220958,0.47852618,-0.87781686,-0.005636798,0.87794334,0.4787314,0.9997589,0.015107215,-0.015933445,0.19540532,0.41403925,-0.88903785,-0.10256353,0.9101696,0.4013378,0.97534484,0.012759315,0.2203173,10.023529,0.18066406,-0.18304443,9.804286,0.14815117,-0.15625371,4.8828125E-4,-0.0027618408,0.0017700195,-27.95868,34.199524,19.319153,0,0.0,0.0,0.0,0.0
0.489746094,-0.021221643,0.4796694,-0.87719256,-0.0055591217,0.87731993,0.47987354,0.9997593,0.015060128,-0.015951633,0.19100527,0.41535127,-0.88938206,-0.1009686,0.90957093,0.40309557,0.97638226,0.012806274,0.21567029,10.041473,0.13400269,-0.15911865,9.80429,0.1476894,-0.15643209,0.0078125,-0.0043029785,3.9672852E-4,-27.83966,34.318542,19.439697,0,0.0,0.0,0.0,0.0
0.498046875,-0.02123034,0.47966397,-0.87719536,-0.005500922,0.8773238,0.47986734,0.9997595,0.015013131,-0.01598729,0.18246451,0.4179415,-0.8899616,-0.097839415,0.9083824,0.4065327,0.97833234,0.012895528,0.20663871,10.052246,0.16630554,-0.17108154,9.804292,0.14722852,-0.15678176,0.0053710938,-0.0053710938,0.0048217773,-27.83966,34.318542,19.439697,0,0.0,0.0,0.0,0.0
0.506347657,-0.021282857,0.48124155,-0.87632954,-0.005429696,0.87645954,0.48144478,0.9997587,0.015004725,-0.016040567,0.17426494,0.42042577,-0.8904347,-0.094779186,0.90723413,0.40980873,0.98012686,0.012979386,0.1979467,10.041473,0.16151428,-0.16630554,9.804284,0.14714609,-0.15730424,0.007507324,-0.00491333,0.004058838,-27.778625,34.498596,19.619751,0,0.0,0.0,0.0,0.0
0.514648438,-0.021321587,0.4812174,-0.87634194,-0.0053958604,0.87647307,0.4814207,0.9997581,0.014993273,-0.016091216,0.170285,0.42166224,-0.89062,-0.09328184,0.90665954,0.41142076,0.98096967,0.013019893,0.19372393,10.004395,0.19262695,-0.1651001,9.804278,0.14703378,-0.15780093,0.0078125,-0.0047454834,0.006210327,-27.778625,34.498596,19.619751,0,0.0,0.0,0.0,0.0
0.522949219,-0.021363635,0.4811912,-0.87635535,-0.005385923,0.8764873,0.48139495,0.9997573,0.015004327,-0.016133294,0.16256437,0.4240582,-0.89092505,-0.09033976,0.9055402,0.41453063,0.9825536,0.013098041,0.18551789,10.039093,0.16630554,-0.19502258,9.80427,0.14714219,-0.15821357,0.013015747,-0.003692627,0.006210327,-27.778625,34.498596,19.619751,0,0.0,0.0,0.0,0.0
0.53125,-0.021470055,0.4885663,-0.8722626,-0.0051530423,0.872398,0.48876902,0.9997562,0.014988702,-0.016212828,0.1551529,0.42635545,-0.8911502,-0.08747009,0.9044598,0.41749433,0.98401046,0.01317353,0.1776229,10.039093,0.16630554,-0.19502258,9.804259,0.14698896,-0.15899354,0.0128479,-0.0019989014,-0.0011291504,-27.418518,34.67865,20.098877,0,0.0,0.0,0.0,0.0
0.539550782,-0.021513736,0.49036998,-0.8712488,-0.0051146466,0.8713851,0.49057302,0.9997555,0.015010187,-0.01623868,0.15154418,0.42762122,-0.89116466,-0.08608748,0.9038615,0.4190744,0.9846945,0.013209834,0.17378777,10.046265,0.17108154,-0.1651001,9.804253,0.14719966,-0.15924706,0.0026245117,-1.6784668E-4,-0.0012817383,-26.998901,34.739685,20.219421,0,0.0,0.0,0.0,0.0
0.547851563,-0.021533014,0.49035847,-0.87125474,-0.005105162,0.87139153,0.49056163,0.99975514,0.015011168,-0.016260328,0.14453918,0.43014887,-0.89111185,-0.08338495,0.90266025,0.42219827,0.9859794,0.013281129,0.16633771,10.0247345,0.1603241,-0.1758728,9.804249,0.14720927,-0.15945935,0.003540039,2.89917E-4,0.0060424805,-26.998901,34.739685,20.219421,0,0.0,0.0,0.0,0.0
0.556152344,-0.02154735,0.49583152,-0.86815137,-0.0049609262,0.86828923,0.4960334,0.9997555,0.0149950385,-0.016249547,0.13781826,0.43257275,-0.8910033,-0.08074836,0.90150017,0.42517895,0.9871605,0.013349639,0.15917273,10.055832,0.15792847,-0.15194702,9.804253,0.1470511,-0.15935363,0.003540039,0.0025787354,0.0019226074,-26.638794,34.979248,20.639038,0,0.0,0.0,0.0,0.0
0.564453125,-0.021533664,0.49583945,-0.8681472,-0.0049583763,0.8682849,0.49604106,0.9997558,0.014986183,-0.016238797,0.1345514,0.43386075,-0.89087635,-0.07947192,0.9008806,0.42672992,0.9877146,0.013382548,0.15569451,10.047455,0.15074158,-0.13877869,9.8042555,0.14696425,-0.1592482,0.008880615,-0.0023040771,0.0028381348,-26.638794,34.979248,20.639038,0,0.0,0.0,0.0,0.0
0.572753907,-0.021512011,0.49585205,-0.8681405,-0.004942868,0.86827815,0.49605313,0.9997564,0.014962204,-0.016227476,0.12821947,0.43635765,-0.89059067,-0.076966204,0.8996728,0.42972666,0.98875475,0.0134460535,0.14894037,10.043869,0.1603241,-0.1651001,9.804261,0.1467291,-0.15913719,0.010864258,-0.0021514893,0.0071258545,-26.638794,34.979248,20.639038,0,0.0,0.0,0.0,0.0
0.581054688,-0.021475483,0.4936545,-0.869393,-0.0049754893,0.86952996,0.4938552,0.999757,0.014931434,-0.016217403,0.12214735,0.43875307,-0.89026725,-0.0745233,0.89850616,0.43258867,0.9897103,0.013506095,0.14244747,10.043869,0.1603241,-0.1651001,9.804267,0.14642735,-0.1590384,0.0032348633,0.003189087,-0.007232666,-26.339722,35.51941,20.819092,0,0.0,0.0,0.0,0.0
0.589355469,-0.02150253,0.49670303,-0.86765414,-0.004907759,0.8677919,0.4969035,0.99975675,0.01494292,-0.016222022,0.11920934,0.4398684,-0.89011514,-0.0733193,0.89796025,0.43392587,0.99015826,0.013534602,0.1392961,10.02832,0.15074158,-0.17228699,9.804265,0.14653999,-0.15908371,0.009506226,2.89917E-4,-0.0066223145,-25.79956,35.879517,21.1792,0,0.0,0.0,0.0,0.0
0.59765625,-0.021511521,0.4966981,-0.86765677,-0.004928518,0.8677944,0.49689907,0.99975646,0.014965317,-0.016219594,0.11350385,0.44215536,-0.8897278,-0.07097665,0.89683557,0.43663296,0.9909991,0.013590371,0.133177,10.057037,0.15434265,-0.1375885,9.804262,0.14675963,-0.15905988,0.009811401,0.0024261475,0.0048217773,-25.79956,35.879517,21.1792,0,0.0,0.0,0.0,0.0
0.605957032,-0.021487419,0.49683252,-0.86758035,-0.0049322406,0.8677175,0.4970332,0.999757,0.014959076,-0.016194511,0.108032025,0.44434875,-0.8893162,-0.06869822,0.89575,0.43921813,0.991771,0.013644818,0.12729566,10.021133,0.15194702,-0.15911865,9.804267,0.14669843,-0.15881391,0.003692627,0.0027313232,-0.004333496,-25.498962,36.299133,21.418762,0,0.0,0.0,0.0,0.0
0.614257813,-0.021471338,0.49684116,-0.8675758,-0.004952591,0.8677123,0.4970419,0.9997572,0.014968903,-0.016170293,0.10538106,0.44541448,-0.88910115,-0.06758316,0.8952201,0.44046962,0.9921327,0.013671104,0.12444176,10.0295105,0.15553284,-0.15074158,9.804269,0.1467948,-0.15857641,0.009185791,1.373291E-4,9.1552734E-5,-25.498962,36.299133,21.418762,0,0.0,0.0,0.0,0.0
0.622558594,-0.021469984,0.49684188,-0.86757547,-0.004967558,0.8677118,0.4970429,0.9997572,0.0149812335,-0.016161665,0.100243375,0.44748104,-0.8886574,-0.06540107,0.8941881,0.44288856,0.9928111,0.013722496,0.11890218,10.04985,0.16151428,-0.16749573,9.804269,0.14691572,-0.15849179,0.008270264,0.0027313232,0.00390625,-25.498962,36.299133,21.418762,0,0.0,0.0,0.0,0.0
0.630859375,-0.021496847,0.5019465,-0.8646315,-0.0048457356,0.8647688,0.5021467,0.9997572,0.014984346,-0.016157502,0.09531611,0.4494635,-0.88819903,-0.063282005,0.8931926,0.44519937,0.99343354,0.013772341,0.11357859,10.04985,0.16151428,-0.16749573,9.804269,0.14694624,-0.15845098,0.01576233,-1.5258789E-5,0.0031433105,-25.2594,36.538696,21.839905,0,0.0,0.0,0.0,0.0
0.639160157,-0.02151509,0.5033338,-0.8638241,-0.004809688,0.86396205,0.50353396,0.999757,0.014988302,-0.01616734,0.09292141,0.4505295,-0.8879126,-0.062256806,0.8926549,0.4464205,0.9937252,0.013796582,0.110995285,10.033112,0.16151428,-0.15434265,9.804267,0.14698504,-0.15854746,0.01576233,-0.0035247803,0.0031433105,-25.079346,36.71875,22.019958,0,0.0,0.0,0.0,0.0
0.647460938,-0.021513881,0.5033344,-0.86382383,-0.0048061134,0.86396176,0.5035345,0.999757,0.014984616,-0.01616809,0.08827613,0.45265278,-0.88730645,-0.060255896,0.89157933,0.44883788,0.9942719,0.013843775,0.10598019,10.033112,0.16151428,-0.15434265,9.804267,0.14694889,-0.15855479,0.002319336,-1.6784668E-4,-0.0038757324,-25.079346,36.71875,22.019958,0,0.0,0.0,0.0,0.0
0.655761719,-0.021509368,0.5033368,-0.86382264,-0.0047787754,0.863961,0.50353634,0.9997573,0.014958762,-0.016177919,0.08602576,0.4536818,-0.8870019,-0.05927691,0.8910559,0.45000634,0.99452794,0.013866592,0.10354661,10.035492,0.14476013,-0.14955139,9.80427,0.14669535,-0.15865119,0.0056762695,-0.007659912,0.0059051514,-25.079346,36.71875,22.019958,0,0.0,0.0,0.0,0.0
0.6640625,-0.021545613,0.5086704,-0.8606917,-0.0046248836,0.8608317,0.5088689,0.9997572,0.014944491,-0.016194604,0.08166475,0.45567682,-0.8863913,-0.057360716,0.8900366,0.45226607,0.9950079,0.013909843,0.09882257,10.022339,0.1483612,-0.14955139,9.804269,0.1465554,-0.15881482,0.010864258,-9.3078613E-4,-5.187988E-4,-25.2594,36.898804,22.439575,0,0.0,0.0,0.0,0.0
0.672363282,-0.02152197,0.50868255,-0.86068517,-0.0046277586,0.86082464,0.50888073,0.99975765,0.014935158,-0.016172582,0.07746917,0.4578084,-0.8856693,-0.05551923,0.8889414,0.45464358,0.9954477,0.013950815,0.094282724,10.025925,0.15672302,-0.12921143,9.804274,0.14646387,-0.15859886,0.010253906,-0.0039978027,0.0048217773,-25.2594,36.898804,22.439575,0,0.0,0.0,0.0,0.0
0.680664063,-0.02151408,0.5109193,-0.8593595,-0.00458098,0.8594991,0.5111169,0.99975806,0.014932918,-0.01615082,0.075437404,0.45884168,-0.8853098,-0.054618593,0.88840824,0.45579344,0.99565357,0.013970503,0.092080496,10.016357,0.17468262,-0.15074158,9.804277,0.1464419,-0.15838544,0.011795044,-0.0023040771,-0.005554199,-25.19989,36.479187,22.31903,0,0.0,0.0,0.0,0.0
0.688964844,-0.021529486,0.51430875,-0.8573349,-0.004531597,0.8574746,0.51450634,0.99975795,0.014962152,-0.016130347,0.07149533,0.4609362,-0.8845486,-0.052864548,0.8873227,0.4581089,0.99603903,0.014008615,0.08780662,10.018753,0.16989136,-0.14715576,9.804276,0.14672859,-0.15818466,0.006134033,0.0077667236,0.00390625,-25.019836,36.358643,22.439575,0,0.0,0.0,0.0,0.0
0.697265625,-0.021519797,0.51431364,-0.8573321,-0.004536641,0.85747164,0.5145112,0.9997581,0.014961585,-0.016119359,0.06770866,0.4630839,-0.8837244,-0.051173918,0.8862031,0.46046194,0.9963919,0.014046375,0.083701454,10.018753,0.16989136,-0.14715576,9.804278,0.14672303,-0.15807691,0.009506226,0.0048675537,0.001159668,-25.019836,36.358643,22.439575,0,0.0,0.0,0.0,0.0
0.705566407,-0.021470798,0.5143388,-0.8573182,-0.0045357887,0.8574569,0.5145356,0.9997592,0.014936106,-0.016077355,0.06587481,0.4641248,-0.8833168,-0.05034717,0.8856582,0.46160024,0.99655694,0.014064679,0.08170993,10.017548,0.1531372,-0.18066406,9.804289,0.14647317,-0.157665,0.010864258,0.015258789,0.0016174316,-25.019836,36.358643,22.439575,0,0.0,0.0,0.0,0.0
0.713867188,-0.021373559,0.51517516,-0.8568184,-0.0045850035,0.85695463,0.5153715,0.99976104,0.014943837,-0.01595409,0.062323324,0.46614364,-0.8825111,-0.04873025,0.88459665,0.46380386,0.99686563,0.014099187,0.0778463,10.017548,0.1531372,-0.18066406,9.804307,0.14654899,-0.15645619,0.008728027,0.009140015,0.0017700195,-25.079346,36.17859,22.37854,0,0.0,0.0,0.0,0.0
0.722167969,-0.021207305,0.51526093,-0.8567708,-0.0046537137,0.8569034,0.51545584,0.99976426,0.014918598,-0.015774736,0.058921155,0.46811447,-0.88170135,-0.04716648,0.8835548,0.46594658,0.99714774,0.014132637,0.07413938,10.033112,0.13877869,-0.08494568,9.804338,0.14630148,-0.15469731,0.011795044,0.0039520264,0.0043640137,-25.079346,36.17859,22.37854,0,0.0,0.0,0.0,0.0
0.73046875,-0.02113467,0.5207873,-0.8534248,-0.0045973323,0.85355586,0.5209811,0.9997661,0.014934242,-0.015645389,0.057276465,0.46907136,-0.88130105,-0.04640366,0.8830469,0.4669848,0.99727935,0.014148355,0.07234444,10.033112,0.13877869,-0.08494568,9.804356,0.14645487,-0.15342884,0.011795044,-0.0059814453,7.019043E-4,-25.19989,36.239624,22.738647,0,0.0,0.0,0.0,0.0
0.738769532,-0.021221768,0.5177426,-0.85527325,-0.0046070814,0.85540617,0.5179373,0.99976414,0.014931858,-0.015767947,0.054082353,0.47115213,-0.8803924,-0.04492992,0.881938,0.46921924,0.9975251,0.0141794775,0.068866104,10.030716,0.15911865,-0.19262695,9.8043375,0.1464315,-0.15463074,0.0137786865,-0.016815186,-8.239746E-4,-25.019836,36.239624,22.558594,0,0.0,0.0,0.0,0.0
0.747070313,-0.02138095,0.5176609,-0.8553186,-0.004524016,0.85545534,0.5178568,0.99976116,0.014941745,-0.015948543,0.05102311,0.4730238,-0.879571,-0.043490663,0.8809351,0.47123456,0.9977501,0.014209272,0.06552017,10.009171,0.17347717,-0.18066406,9.804308,0.14652847,-0.15640178,0.011932373,-0.006286621,0.0017700195,-25.019836,36.239624,22.558594,0,0.0,0.0,0.0,0.0
0.755371094,-0.021493452,0.5176032,-0.85535073,-0.0044862144,0.8554898,0.5178001,0.9997589,0.0149666,-0.016065352,0.04953799,0.4739292,-0.87916845,-0.04278607,0.8804481,0.47220817,0.99785537,0.014223921,0.06389319,10.009171,0.17347717,-0.18066406,9.804286,0.1467722,-0.15754728,0.011169434,-0.003829956,0.0026855469,-25.019836,36.239624,22.558594,0,0.0,0.0,0.0,0.0
0.763671875,-0.021545896,0.52057576,-0.8535435,-0.0043673925,0.85368454,0.520772,0.9997583,0.014948262,-0.016119841,0.04665591,0.47568226,-0.878379,-0.04140863,0.8795017,0.47409075,0.99805236,0.014253332,0.060731303,10.022339,0.14117432,-0.18424988,9.80428,0.14659238,-0.15808165,0.009643555,0.009140015,-0.0052490234,-25.19989,36.239624,22.738647,0,0.0,0.0,0.0,0.0
0.771972657,-0.021552606,0.52480865,-0.8509474,-0.0042719217,0.851089,0.5250042,0.9997586,0.014950386,-0.016101241,0.043885563,0.47748512,-0.87754315,-0.04007895,0.87852377,0.47601435,0.9982323,0.014280851,0.05769161,10.033112,0.15911865,-0.1878357,9.804283,0.14661321,-0.15789925,0.013931274,0.020751953,-0.0023498535,-25.379944,36.11908,22.918701,0,0.0,0.0,0.0,0.0
0.780273438,-0.021476926,0.52484775,-0.8509252,-0.004353975,0.8510644,0.5250435,0.9997599,0.014981224,-0.01599307,0.04254019,0.4784461,-0.8770859,-0.039434325,0.8780006,0.4770324,0.9983162,0.014294242,0.056217507,10.02713,0.14955139,-0.1375885,9.804296,0.14691563,-0.15683845,0.0078125,0.025787354,-0.0018920898,-25.379944,36.11908,22.918701,0,0.0,0.0,0.0,0.0
0.788574219,-0.021291198,0.5226092,-0.85230654,-0.0045354096,0.8524405,0.5228046,0.999763,0.014996694,-0.015779233,0.03993661,0.4803107,-0.8761887,-0.038178176,0.8769815,0.4790051,0.9984725,0.0143214455,0.05336105,10.039093,0.17706299,-0.100494385,9.804326,0.14706734,-0.15474142,0.0070495605,0.014953613,-0.0011291504,-25.138855,36.05957,22.738647,0,0.0,0.0,0.0,0.0
0.796875,-0.021135438,0.52268916,-0.85226125,-0.004687449,0.85239047,0.52288467,0.99976563,0.01504633,-0.0155655695,0.038681224,0.48116827,-0.8757744,-0.037565157,0.87651104,0.4799138,0.9985452,0.014334951,0.05197968,10.039093,0.17706299,-0.100494385,9.804352,0.1475541,-0.1526461,0.013626099,0.008071899,-0.0014343262,-25.138855,36.05957,22.738647,0,0.0,0.0,0.0,0.0
0.805175782,-0.021054965,0.5227305,-0.8522379,-0.0047640586,0.8523648,0.52292603,0.999767,0.015070301,-0.015456191,0.036254853,0.48283425,-0.87496096,-0.036374453,0.87559396,0.4816764,0.99868035,0.01436312,0.04930736,10.040283,0.16270447,-0.11366272,9.804365,0.14778917,-0.15157346,0.011489868,-0.002609253,-0.0023498535,-25.138855,36.05957,22.738647,0,0.0,0.0,0.0,0.0
0.813476563,-0.021047091,0.5231012,-0.85201067,-0.004792746,0.85213685,0.5232971,0.999767,0.015097352,-0.015427911,0.033931952,0.48443434,-0.87416935,-0.03522508,0.87470925,0.48336622,0.9988032,0.014391124,0.04674483,10.022339,0.17706299,-0.117248535,9.804365,0.14805445,-0.15129612,0.0070495605,-0.010864258,-0.0012817383,-25.2594,36.11908,22.799683,0,0.0,0.0,0.0,0.0
0.821777344,-0.021108737,0.5230695,-0.85202867,-0.0048143184,0.85215557,0.5232666,0.99976563,0.015147435,-0.015469703,0.03280663,0.48521742,-0.87377787,-0.034665506,0.87427485,0.48419186,0.99886036,0.014405249,0.04550232,10.022339,0.17706299,-0.117248535,9.804352,0.1485456,-0.15170597,0.011932373,-0.01727295,-0.0021972656,-25.2594,36.11908,22.799683,0,0.0,0.0,0.0,0.0
0.830078125,-0.021208167,0.5193271,-0.8543123,-0.004852725,0.854441,0.5195258,0.9997633,0.015163933,-0.015600975,0.030623604,0.48673457,-0.8730129,-0.03357484,0.8734306,0.4857897,0.99896693,0.014434639,0.04308963,10.040283,0.15792847,-0.15194702,9.804329,0.14870739,-0.1529933,0.007659912,-0.021240234,0.0020751953,-25.2594,36.17859,22.619629,0,0.0,0.0,0.0,0.0
0.838378907,-0.021330327,0.5194271,-0.85424846,-0.0047734203,0.85438013,0.51962644,0.99976104,0.015161488,-0.015744764,0.02853123,0.48803875,-0.8723556,-0.032513186,0.8727021,0.48716927,0.99906397,0.014463519,0.04076696,10.030716,0.1531372,-0.1651001,9.804307,0.14868341,-0.15440339,0.008117676,-0.011016846,0.001159668,-25.2594,36.358643,22.738647,0,0.0,0.0,0.0,0.0
0.846679688,-0.021425342,0.51937824,-0.8542759,-0.0046944628,0.8544103,0.5195777,0.9997594,0.015142497,-0.015867831,0.027514776,0.48867297,-0.8720331,-0.031994507,0.87234694,0.4878393,0.99910927,0.014477479,0.039637282,10.030716,0.1531372,-0.1651001,9.804291,0.14849716,-0.15561028,0.012237549,-0.007965088,0.0026855469,-25.2594,36.358643,22.738647,0,0.0,0.0,0.0,0.0
0.854980469,-0.021487914,0.519346,-0.85429394,-0.0046256417,0.8544305,0.5195453,0.9997584,0.015115601,-0.015957618,0.025540907,0.48990092,-0.8714039,-0.030980784,0.87165743,0.4891354,0.99919355,0.014503814,0.037440438,10.021133,0.14955139,-0.16870117,9.804281,0.14823341,-0.15649079,0.0124053955,-0.010101318,0.005432129,-25.2594,36.358643,22.738647,0,0.0,0.0,0.0,0.0
0.86328125,-0.021568665,0.5213777,-0.8530534,-0.00449788,0.8531926,0.5215765,0.9997573,0.015086642,-0.016057134,0.023645343,0.49107808,-0.8707946,-0.029999215,0.8709944,0.4903762,0.9992702,0.014528041,0.035326917,10.042679,0.1483612,-0.16870117,9.80427,0.14794941,-0.1574667,0.0072021484,-0.0015411377,0.0026855469,-25.19989,36.358643,22.859192,0,0.0,0.0,0.0,0.0
0.871582032,-0.021614676,0.5213541,-0.8530667,-0.0044464963,0.8532074,0.5215528,0.99975646,0.015066351,-0.016123602,0.022723973,0.49169013,-0.8704737,-0.029520826,0.87064886,0.4910184,0.99930584,0.014539213,0.0342997,10.042679,0.1483612,-0.16870117,9.804262,0.14775044,-0.15811853,0.004760742,-3.2043457E-4,2.4414063E-4,-25.19989,36.358643,22.859192,0,0.0,0.0,0.0,0.0
0.879882813,-0.021599552,0.52280676,-0.8521775,-0.004380553,0.85231864,0.52300435,0.99975705,0.015029669,-0.016119517,0.020936193,0.4928761,-0.8698476,-0.02858682,0.8699777,0.49226177,0.99937207,0.014560088,0.03230378,10.031906,0.14476013,-0.16630554,9.804268,0.14739071,-0.15807846,0.0032348633,0.0022735596,0.005279541,-25.619507,36.299133,22.918701,0,0.0,0.0,0.0,0.0
0.888183594,-0.02155546,0.5227099,-0.8522381,-0.0043601505,0.8523789,0.52290654,0.9997581,0.014987376,-0.016094323,0.019220572,0.49407297,-0.869208,-0.027685283,0.8692982,0.49351206,0.9994319,0.014578683,0.030386958,10.00679,0.14955139,-0.16749573,9.804278,0.14697595,-0.1578314,0.0039978027,0.0027313232,0.0043640137,-25.559998,36.11908,22.799683,0,0.0,0.0,0.0,0.0
0.896484375,-0.021518035,0.5227294,-0.85222703,-0.0043468634,0.8523674,0.5229253,0.999759,0.014956839,-0.01606904,0.018390186,0.49465117,-0.868897,-0.027245734,0.8689692,0.4941156,0.9994596,0.0145868575,0.029457638,10.00679,0.14955139,-0.16749573,9.804287,0.1466765,-0.15758345,0.007659912,0.0053253174,-0.0014343262,-25.559998,36.11908,22.799683,0,0.0,0.0,0.0,0.0
0.904785157,-0.021463891,0.52275765,-0.85221106,-0.004400774,0.85234976,0.52295357,0.9997599,0.014975008,-0.015994204,0.016781969,0.4957733,-0.86828977,-0.02638909,0.86832917,0.49528578,0.9995109,0.014601508,0.027655281,10.019943,0.17228699,-0.13400269,9.8042965,0.14685467,-0.15684958,0.010116577,0.0039520264,7.019043E-4,-25.559998,36.11908,22.799683,0,0.0,0.0,0.0,0.0
0.913085938,-0.021434037,0.5188986,-0.85456693,-0.004508459,0.85470444,0.5190952,0.9997601,0.014979088,-0.015980335,0.015241794,0.49685135,-0.8677018,-0.025564607,0.86771256,0.49640846,0.999557,0.014616299,0.025927307,10.023529,0.15792847,-0.16870117,9.804297,0.14689468,-0.15671356,0.009033203,-0.0016937256,0.0013122559,-25.439453,36.299133,22.679138,0,0.0,0.0,0.0,0.0
0.921386719,-0.021449398,0.51889074,-0.85457146,-0.0045032166,0.85470927,0.5190875,0.9997598,0.014982432,-0.01599632,0.014497928,0.49729556,-0.86746013,-0.02516219,0.867458,0.4968738,0.9995783,0.014623554,0.025089389,10.023529,0.15792847,-0.16870117,9.804295,0.14692748,-0.15687032,0.006439209,-0.0019989014,2.4414063E-4,-25.439453,36.299133,22.679138,0,0.0,0.0,0.0,0.0
0.9296875,-0.021433605,0.5200479,-0.8538682,-0.0044993265,0.8540056,0.5202445,0.99976015,0.014992546,-0.015964553,0.013054891,0.49815682,-0.8669887,-0.024378829,0.86696345,0.49777523,0.9996176,0.014637766,0.023462592,10.0247345,0.15911865,-0.124420166,9.804298,0.14702666,-0.15655878,1.8310547E-4,-0.0039978027,-0.0026550293,-25.679016,36.17859,22.679138,0,0.0,0.0,0.0,0.0
0.937988282,-0.021408949,0.51370144,-0.85770184,-0.004699435,0.85783726,0.5138999,0.9997598,0.01503277,-0.015951289,0.01167026,0.4990299,-0.86650616,-0.023625458,0.86646086,0.49868563,0.99965274,0.0146518145,0.021901634,10.042679,0.17228699,-0.12921143,9.804295,0.14742112,-0.15642871,0.012542725,-1.5258789E-5,-6.713867E-4,-25.559998,36.59973,22.558594,0,0.0,0.0,0.0,0.0
0.946289063,-0.021418005,0.5136968,-0.8577045,-0.004739794,0.85783947,0.513896,0.9997594,0.015071967,-0.01593839,0.011002402,0.49932483,-0.8663449,-0.023258185,0.8662908,0.49899825,0.9996689,0.014659434,0.02114467,10.042679,0.17228699,-0.12921143,9.80429,0.1478055,-0.1563022,0.01133728,-0.0058288574,-6.1035156E-5,-25.559998,36.59973,22.558594,0,0.0,0.0,0.0,0.0
0.954589844,-0.021429997,0.5136905,-0.85770786,-0.0047667,0.85784256,0.51389027,0.99975896,0.015101104,-0.015934957,0.009706985,0.49989662,-0.86603063,-0.022545867,0.8659607,0.49960354,0.99969864,0.01467577,0.019676471,10.012772,0.16870117,-0.13400269,9.804287,0.14809126,-0.15626857,0.002166748,-0.0032196045,-0.003112793,-25.559998,36.59973,22.558594,0,0.0,0.0,0.0,0.0
0.962890625,-0.021460151,0.5151611,-0.8568247,-0.0047680894,0.8569596,0.5153616,0.9997583,0.015145156,-0.015934149,0.009078668,0.50017375,-0.86587745,-0.022200221,0.86580056,0.49989653,0.9997123,0.014684277,0.018964283,10.012772,0.16870117,-0.13400269,9.80428,0.14852324,-0.15626062,0.0053710938,-0.0030822754,-0.0050964355,-25.498962,36.358643,22.499084,0,0.0,0.0,0.0,0.0
0.971191407,-0.02147778,0.5151519,-0.8568298,-0.004775596,0.8569649,0.51535285,0.99975795,0.015160505,-0.015945543,0.007857955,0.50077015,-0.8655446,-0.021530509,0.86545545,0.5005231,0.9997373,0.014702529,0.017582547,10.02713,0.14476013,-0.15792847,9.8042755,0.14867376,-0.15637235,0.016067505,-7.7819824E-4,0.0014648438,-25.498962,36.358643,22.499084,0,0.0,0.0,0.0,0.0
0.979492188,-0.021451328,0.51324034,-0.8579768,-0.004852336,0.85811067,0.51344174,0.9997581,0.0151772,-0.0159172,0.006685719,0.50134236,-0.86522317,-0.020885982,0.86512375,0.50112337,0.9997595,0.014720666,0.016255002,10.041473,0.16151428,-0.13639832,9.804278,0.14883749,-0.15609442,0.0053710938,5.950928E-4,-6.1035156E-5,-25.619507,36.239624,22.31903,0,0.0,0.0,0.0,0.0
0.987792969,-0.021434328,0.5132493,-0.8579718,-0.004871824,0.85810506,0.51345074,0.9997583,0.015185361,-0.015892448,0.00611859,0.5015813,-0.86508894,-0.020573042,0.86498517,0.5013756,0.9997696,0.014729797,0.015611541,10.041473,0.16151428,-0.13639832,9.80428,0.14891753,-0.15585168,0.0078125,-0.002456665,-2.1362305E-4,-25.619507,36.239624,22.31903,0,0.0,0.0,0.0,0.0
0.99609375,-0.021385597,0.50932914,-0.8603061,-0.004981933,0.86043787,0.50953096,0.99975884,0.015182611,-0.015863532,0.005019504,0.5020451,-0.8648269,-0.019965786,0.8647157,0.5018647,0.99978805,0.014747837,0.014364168,10.039093,0.15672302,-0.12802124,9.804285,0.14889055,-0.15556811,0.008728027,-0.006134033,0.0019226074,-25.619507,36.419678,22.198486,0,0.0,0.0,0.0,0.0
1.004394532,-0.021426711,0.5093074,-0.8603178,-0.004955628,0.8604507,0.50950944,0.9997581,0.015180529,-0.015912693,0.0039688833,0.5023342,-0.86466444,-0.019381087,0.8645475,0.50217724,0.99980426,0.014765053,0.013167071,10.031906,0.16749573,-0.1651001,9.804278,0.14887014,-0.15605022,0.006286621,-0.006439209,0.0019226074,-25.619507,36.419678,22.198486,0,0.0,0.0,0.0,0.0
1.012695313,-0.021477273,0.5077399,-0.86124265,-0.0049632005,0.8613766,0.5079426,0.999757,0.015183742,-0.015980005,0.0034586098,0.50247395,-0.86458546,-0.01909669,0.86446613,0.5023282,0.99981165,0.014773363,0.01258544,10.031906,0.16749573,-0.1651001,9.804268,0.14890166,-0.15671034,0.0070495605,-0.007965088,-8.239746E-4,-25.379944,36.479187,22.138977,0,0.0,0.0,0.0,0.0
1.020996094,-0.021480747,0.5077381,-0.86124367,-0.0049460707,0.8613779,0.5079406,0.999757,0.015170715,-0.01599173,0.002467853,0.5026829,-0.8644673,-0.018543044,0.86434436,0.50255847,0.999825,0.014789615,0.011454347,10.00798,0.14715576,-0.12802124,9.804267,0.1487739,-0.1568253,0.0110321045,-0.0078125,0.0036010742,-25.379944,36.479187,22.138977,0,0.0,0.0,0.0,0.0
1.029296875,-0.021501534,0.5056416,-0.8624757,-0.004931866,0.86261094,0.5058438,0.9997566,0.015130032,-0.0160537,0.001516453,0.5028834,-0.8643529,-0.018010173,0.8642275,0.50277877,0.9998366,0.014804706,0.010367578,10.043869,0.13639832,-0.15911865,9.804263,0.14837493,-0.15743303,0.007507324,-0.014678955,0.002380371,-25.498962,36.779785,22.198486,0,0.0,0.0,0.0,0.0
1.037597657,-0.021556407,0.50561285,-0.8624912,-0.004845958,0.8626287,0.5058146,0.9997559,0.01508314,-0.016144995,0.0010552751,0.50293857,-0.86432153,-0.017750166,0.8641953,0.5028435,0.9998419,0.014811212,0.009839207,10.043869,0.13639832,-0.15911865,9.804256,0.14791508,-0.15832832,0.010421753,-0.012390137,0.0019226074,-25.498962,36.779785,22.198486,0,0.0,0.0,0.0,0.0
1.045898438,-0.021629756,0.504128,-0.863358,-0.0048306985,0.86349726,0.5043303,0.99975437,0.015079165,-0.016241945,1.5823869E-4,0.5030446,-0.86426044,-0.01724199,0.86413336,0.5029674,0.99985135,0.014821981,0.00881023,10.047455,0.16870117,-0.15792847,9.804241,0.1478761,-0.15927908,0.008422852,-0.0068969727,0.006958008,-25.498962,36.71875,22.079468,0,0.0,0.0,0.0,0.0
1.054199219,-0.021672571,0.5041055,-0.8633701,-0.004768651,0.863511,0.50430745,0.9997537,0.015046749,-0.016310599,-7.0532225E-4,0.50308746,-0.8642352,-0.016751656,0.8641082,0.50302726,0.9998594,0.014832167,0.007818073,10.025925,0.15911865,-0.15911865,9.8042345,0.1475582,-0.15995233,0.010421753,-0.00491333,0.001159668,-25.498962,36.71875,22.079468,0,0.0,0.0,0.0,0.0
1.0625,-0.021703508,0.5036004,-0.86366403,-0.004755159,0.8638058,0.5038026,0.9997532,0.015041143,-0.016352916,-0.0011250186,0.5031078,-0.86422294,-0.016512536,0.8640963,0.5030556,0.999863,0.0148364585,0.007335461,10.025925,0.15911865,-0.15911865,9.80423,0.14750323,-0.16036732,0.009033203,-0.00491333,-0.008453369,-25.19989,36.779785,22.079468,0,0.0,0.0,0.0,0.0
1.070800782,-0.021753002,0.5035747,-0.8636778,-0.004800055,0.86381966,0.5037783,0.9997518,0.015104391,-0.016373482,-0.001940357,0.50312734,-0.8642102,-0.016047474,0.8640848,0.5030904,0.99986935,0.014844564,0.006397289,10.037888,0.16989136,-0.16390991,9.804216,0.14812347,-0.16056901,0.0038452148,2.89917E-4,-0.001739502,-25.19989,36.779785,22.079468,0,0.0,0.0,0.0,0.0
1.079101563,-0.021766791,0.5056962,-0.8624369,-0.0047965627,0.8625785,0.50590026,0.99975157,0.015148562,-0.016349968,-0.0027252133,0.50314504,-0.8641977,-0.0156026045,0.8640743,0.5031224,0.9998746,0.014854851,0.005495586,10.033112,0.16390991,-0.15074158,9.8042145,0.14855666,-0.16033842,0.0038452148,-0.0032196045,-0.0020446777,-25.498962,36.65924,22.138977,0,0.0,0.0,0.0,0.0
1.087402344,-0.021773836,0.5056926,-0.8624389,-0.0048089484,0.8625805,0.505897,0.9997513,0.015162742,-0.016349835,-0.00310665,0.50319606,-0.8641667,-0.015387681,0.8640445,0.50318027,0.99987674,0.014860726,0.0050587375,10.033112,0.16390991,-0.15074158,9.804212,0.1486957,-0.16033712,0.008117676,-0.0046081543,0.0032958984,-25.498962,36.65924,22.138977,0,0.0,0.0,0.0,0.0
1.095703125,-0.021789072,0.5072717,-0.8615107,-0.0047649443,0.8616528,0.5074759,0.9997512,0.015162479,-0.016357495,-0.0038470377,0.503295,-0.86410606,-0.014970965,0.8639866,0.5032921,0.9998805,0.014872686,0.0042110225,10.041473,0.16749573,-0.1531372,9.804211,0.14869313,-0.16041222,0.0027770996,0.0013580322,0.0029907227,-25.619507,36.59973,22.198486,0,0.0,0.0,0.0,0.0
1.104003907,-0.021763464,0.5072852,-0.86150336,-0.0047776597,0.86164486,0.5074892,0.99975175,0.015160694,-0.016328743,-0.0045593376,0.50345266,-0.86401075,-0.014570085,0.8638946,0.50346184,0.9998834,0.014884163,0.0033965611,10.023529,0.16989136,-0.13519287,9.804215,0.14867562,-0.16013026,0.006286621,-0.0030822754,0.0010070801,-25.619507,36.59973,22.198486,0,0.0,0.0,0.0,0.0
1.112304688,-0.021765774,0.5099981,-0.85990006,-0.0047415523,0.86004144,0.51020193,0.9997518,0.015182202,-0.016301285,-0.004904324,0.5035294,-0.86396414,-0.0143757695,0.86384976,0.5035444,0.9998846,0.014889694,0.003002024,10.023529,0.16989136,-0.13519287,9.804216,0.14888655,-0.15986101,0.0038452148,-3.2043457E-4,-0.004180908,-25.138855,36.65924,22.37854,0,0.0,0.0,0.0,0.0
1.120605469,-0.021775091,0.5099933,-0.85990274,-0.0047661206,0.86004394,0.51019776,0.9997515,0.015208001,-0.016296843,-0.005574809,0.50378615,-0.8638104,-0.013999161,0.86369985,0.5038121,0.99988645,0.014901277,0.002237622,10.025925,0.16151428,-0.15434265,9.804214,0.14913955,-0.15981744,0.007965088,0.0013580322,-0.003112793,-25.138855,36.65924,22.37854,0,0.0,0.0,0.0,0.0
1.12890625,-0.021774158,0.51129127,-0.8591316,-0.0047690244,0.85927236,0.5114959,0.9997515,0.015234614,-0.016271573,-0.0062189326,0.5040324,-0.86366236,-0.013638032,0.8635559,0.5040685,0.99988765,0.014913423,0.0015036137,10.015152,0.15074158,-0.1483612,9.804214,0.14940053,-0.15956962,0.003692627,-0.002456665,-0.0025024414,-25.439453,36.419678,22.31903,0,0.0,0.0,0.0,0.0
1.137207032,-0.021767665,0.51129466,-0.85912985,-0.0047980854,0.8592701,0.5114997,0.9997515,0.01525633,-0.016251065,-0.00653156,0.504178,-0.86357516,-0.013463231,0.863471,0.50421894,0.99988806,0.014919847,0.001148052,10.015152,0.15074158,-0.1483612,9.804214,0.1496135,-0.1593685,0.006134033,0.0019683838,0.0020751953,-25.439453,36.419678,22.31903,0,0.0,0.0,0.0,0.0
1.145507813,-0.021770742,0.5124516,-0.8584402,-0.0047872206,0.8585804,0.51265675,0.9997515,0.015270456,-0.01623871,-0.007137809,0.50446045,-0.8634053,-0.013124857,0.8633057,0.50451076,0.99988836,0.014933173,4.588609E-4,10.045074,0.16390991,-0.15672302,9.804214,0.14975202,-0.15924735,0.00491333,-0.0029144287,-0.0028076172,-25.19989,36.71875,22.558594,0,0.0,0.0,0.0,0.0
1.153808594,-0.021751199,0.5124616,-0.8584346,-0.0047961017,0.8585744,0.5126666,0.9997519,0.015268253,-0.016217206,-0.0077201836,0.5047778,-0.8632148,-0.012799938,0.8631199,0.5048368,0.9998883,0.014946529,-2.0231928E-4,10.039093,0.1483612,-0.14476013,9.804217,0.14973041,-0.15903646,0.0128479,0.0024261475,-0.0040283203,-25.19989,36.71875,22.558594,0,0.0,0.0,0.0,0.0
1.162109375,-0.021749148,0.51333904,-0.8579102,-0.0047948174,0.85804975,0.5135441,0.999752,0.015282673,-0.016200488,-0.008002191,0.5049319,-0.8631221,-0.012642357,0.86302966,0.50499505,0.99988806,0.014952964,-5.225988E-4,10.039093,0.1483612,-0.14476013,9.804218,0.14987183,-0.15887251,0.009033203,-0.0015411377,7.019043E-4,-25.079346,36.538696,22.499084,0,0.0,0.0,0.0,0.0
1.170410157,-0.02174606,0.51334065,-0.8579094,-0.0048170965,0.8580485,0.513546,0.9997519,0.015300234,-0.016186362,-0.008549524,0.50526583,-0.8629214,-0.012336731,0.862834,0.5053369,0.99988735,0.014966019,-0.0011434901,10.031906,0.1603241,-0.14955139,9.804217,0.15004404,-0.158734,0.0053710938,-0.0013885498,2.4414063E-4,-25.079346,36.538696,22.499084,0,0.0,0.0,0.0,0.0
1.178710938,-0.021756126,0.51646703,-0.8560307,-0.004723645,0.85617065,0.51667154,0.9997521,0.015284355,-0.01618735,-0.009074823,0.50558645,-0.86272824,-0.012043695,0.8626459,0.5056649,0.99988633,0.014979254,-0.0017392305,10.04985,0.14356995,-0.15553284,9.804219,0.14988832,-0.15874366,0.0078125,-0.0023040771,0.0032958984,-24.958801,36.538696,22.679138,0,0.0,0.0,0.0,0.0
1.187011719,-0.021745846,0.5164723,-0.8560278,-0.004701145,0.85616803,0.5166763,0.9997525,0.015259873,-0.016190086,-0.009330321,0.50580484,-0.86259747,-0.011900417,0.8625178,0.5058868,0.9998856,0.0149853565,-0.00202828,10.04985,0.14356995,-0.15553284,9.804223,0.14964823,-0.1587705,0.0124053955,-0.0013885498,0.002532959,-24.958801,36.538696,22.679138,0,0.0,0.0,0.0,0.0
1.1953125,-0.021717679,0.51474005,-0.85707116,-0.004706447,0.8572112,0.5149434,0.99975306,0.015217136,-0.01619404,-0.009825348,0.5062288,-0.86234325,-0.011621221,0.8622688,0.50631756,0.9998842,0.014996227,-0.0025890945,10.016357,0.14476013,-0.1603241,9.804229,0.14922912,-0.15880929,0.013153076,0.0062408447,-6.1035156E-5,-25.19989,36.59973,22.619629,0,0.0,0.0,0.0,0.0
1.203613282,-0.02170302,0.5147477,-0.8570671,-0.004698436,0.857207,0.5149507,0.9997534,0.015202858,-0.01618547,-0.010298881,0.5065668,-0.86213917,-0.011351909,0.8620701,0.50666183,0.9998825,0.015004976,-0.0031278573,10.030716,0.15434265,-0.17108154,9.804232,0.1490891,-0.15872523,0.0041503906,0.0022735596,7.019043E-4,-25.19989,36.59973,22.619629,0,0.0,0.0,0.0,0.0
1.211914063,-0.02168053,0.5126703,-0.85831183,-0.0047629513,0.85845095,0.5128737,0.9997536,0.0152074685,-0.016169846,-0.010528306,0.50673085,-0.86204,-0.011220923,0.86197364,0.5068289,0.9998816,0.015008934,-0.0033891331,10.030716,0.15434265,-0.17108154,9.804234,0.14913432,-0.15857202,0.0099487305,9.0026855E-4,0.0017700195,-25.2594,36.59973,22.499084,0,0.0,0.0,0.0,0.0
1.220214844,-0.02169463,0.51266295,-0.8583158,-0.0047770003,0.8584549,0.51286674,0.9997532,0.01522663,-0.016174871,-0.010971723,0.50696653,-0.8618959,-0.010968101,0.8618349,0.5070703,0.99987966,0.015016796,-0.003895354,10.036697,0.16749573,-0.17108154,9.80423,0.14932223,-0.15862131,0.0053710938,0.0012054443,0.0019226074,-25.2594,36.59973,22.499084,0,0.0,0.0,0.0,0.0
1.228515625,-0.021710552,0.5122185,-0.8585807,-0.004806434,0.8587197,0.5124229,0.9997527,0.015251697,-0.016181335,-0.011398056,0.5071925,-0.8617574,-0.010725587,0.8617018,0.5073016,0.9998775,0.015025106,-0.004381788,10.0247345,0.1531372,-0.13639832,9.804226,0.14956807,-0.1586847,0.010559082,0.0053253174,0.0031433105,-25.379944,36.839294,22.619629,0,0.0,0.0,0.0,0.0
1.236816407,-0.021654433,0.5122474,-0.8585649,-0.0048334086,0.8587026,0.5124514,0.99975383,0.015246641,-0.016118817,-0.011604998,0.5072932,-0.8616954,-0.010608395,0.8616425,0.5074049,0.9998764,0.015029637,-0.004617793,10.0247345,0.1531372,-0.13639832,9.804236,0.14951847,-0.15807159,0.014389038,0.0054779053,0.0045166016,-25.379944,36.839294,22.619629,0,0.0,0.0,0.0,0.0
1.245117188,-0.021558873,0.5101333,-0.85982513,-0.0048951553,0.8599609,0.5103366,0.9997556,0.015211258,-0.016042603,-0.011806663,0.5073925,-0.86163414,-0.010494031,0.8615839,0.5075067,0.99987525,0.015033977,-0.0048478376,10.035492,0.15672302,-0.14596558,9.804254,0.14917149,-0.1573242,0.0032348633,0.0054779053,0.0075683594,-25.619507,36.839294,22.499084,0,0.0,0.0,0.0,0.0
1.253417969,-0.021492688,0.51016784,-0.8598063,-0.004907339,0.8599408,0.5103703,0.999757,0.01518859,-0.015978873,-0.01219362,0.5075012,-0.8615648,-0.0102734845,0.8615198,0.5076201,0.99987286,0.015040998,-0.00529124,10.019943,0.1651001,-0.14476013,9.804267,0.14894919,-0.15669921,0.010253906,0.0048675537,0.0028381348,-25.619507,36.839294,22.499084,0,0.0,0.0,0.0,0.0
1.26171875,-0.021459753,0.5102365,-0.85976636,-0.004933444,0.8598999,0.51043886,0.9997575,0.015195502,-0.015936017,-0.012562634,0.50760686,-0.8614973,-0.010062035,0.86145747,0.5077301,0.9998705,0.015046843,-0.0057146167,10.0295105,0.17706299,-0.15074158,9.804273,0.14901698,-0.15627894,0.009033203,0.0050201416,0.002532959,-25.498962,36.839294,22.499084,0,0.0,0.0,0.0,0.0
1.270019532,-0.0214275,0.51025325,-0.85975724,-0.0049142838,0.8598905,0.51045483,0.9997583,0.015162861,-0.015917774,-0.01274088,0.50765944,-0.8614636,-0.009960016,0.86142635,0.50778484,0.9998692,0.015049817,-0.0059190337,10.030716,0.14117432,-0.16390991,9.80428,0.14869687,-0.15610005,0.01210022,0.0022735596,-8.239746E-4,-25.498962,36.839294,22.499084,0,0.0,0.0,0.0,0.0
1.278320313,-0.021417493,0.5102585,-0.8597543,-0.0049133627,0.8598875,0.5104599,0.99975854,0.015157056,-0.015909549,-0.013085572,0.5077624,-0.86139774,-0.009761157,0.8613656,0.50789165,0.9998667,0.015054293,-0.0063151135,10.030716,0.14117432,-0.16390991,9.804282,0.14863995,-0.15601937,0.013458252,-1.5258789E-5,-0.0037231445,-25.498962,36.839294,22.499084,0,0.0,0.0,0.0,0.0
1.286621094,-0.02143709,0.51145005,-0.8590456,-0.0049281996,0.8591786,0.5116522,0.99975806,0.0152018815,-0.01589776,-0.013416102,0.5078614,-0.8613344,-0.009570102,0.86130726,0.5079944,0.9998642,0.015058362,-0.006695101,10.036697,0.17347717,-0.1531372,9.804277,0.14907953,-0.15590377,0.016830444,1.373291E-4,0.005279541,-25.559998,36.71875,22.499084,0,0.0,0.0,0.0,0.0
1.294921875,-0.021406302,0.51237524,-0.8584948,-0.004917411,0.8586272,0.5125769,0.9997587,0.015193948,-0.015860474,-0.013576888,0.5079332,-0.86128944,-0.009477939,0.86126477,0.508068,0.9998629,0.015061232,-0.0068791346,10.055832,0.15672302,-0.13279724,9.804284,0.14900173,-0.15553813,0.010421753,-0.001083374,0.0016174316,-25.379944,36.839294,22.619629,0,0.0,0.0,0.0,0.0
1.303222657,-0.02141588,0.51237035,-0.8584975,-0.004893671,0.85863036,0.51257175,0.9997586,0.015178379,-0.015880952,-0.0138878375,0.50810933,-0.86118066,-0.009298896,0.8611608,0.5082476,0.99986035,0.015066489,-0.0072348057,10.034302,0.16270447,-0.15434265,9.804283,0.14884906,-0.15573893,0.010421753,-0.007965088,0.005126953,-25.379944,36.839294,22.619629,0,0.0,0.0,0.0,0.0
1.311523438,-0.021436803,0.50951725,-0.86019343,-0.004915037,0.860327,0.50971884,0.9997581,0.015154623,-0.015938362,-0.014186619,0.5082784,-0.86107594,-0.009125977,0.8610609,0.5084199,0.9998577,0.015070919,-0.0075770067,10.052246,0.16390991,-0.15434265,9.804278,0.14861609,-0.15630195,0.010559082,-0.0056762695,0.005584717,-25.318909,37.01935,22.558594,0,0.0,0.0,0.0,0.0
1.319824219,-0.021487176,0.5094914,-0.86020744,-0.0048352797,0.8603431,0.50969255,0.99975747,0.015111196,-0.01602281,-0.014331747,0.5083032,-0.8610589,-0.009041972,0.86104625,0.5084463,0.9998564,0.015072593,-0.007744233,10.04985,0.15553284,-0.17945862,9.804272,0.14819022,-0.15713009,0.005065918,-0.0021514893,0.005126953,-25.318909,37.01935,22.558594,0,0.0,0.0,0.0,0.0
1.328125,-0.021505129,0.50948215,-0.8602124,-0.004793738,0.86034894,0.50968283,0.9997573,0.015084431,-0.016059592,-0.014615285,0.5083503,-0.86102635,-0.008875806,0.8610185,0.5084963,0.9998538,0.015074122,-0.008072011,10.053452,0.14596558,-0.17228699,9.80427,0.14792773,-0.1574908,0.011795044,-0.001083374,-0.0020446777,-25.318909,37.01935,22.558594,0,0.0,0.0,0.0,0.0
1.336425782,-0.021522053,0.5120375,-0.8586934,-0.0047028335,0.858831,0.5122374,0.9997573,0.015062693,-0.016075779,-0.014888257,0.5083952,-0.8609952,-0.008714565,0.86099195,0.50854397,0.9998512,0.015074531,-0.008388227,10.053452,0.14596558,-0.17228699,9.804271,0.14771457,-0.15764955,0.009811401,0.001663208,0.004058838,-25.079346,37.078857,22.738647,0,0.0,0.0,0.0,0.0
1.344726563,-0.021472143,0.51195544,-0.85874355,-0.004672462,0.8588808,0.5121541,0.99975854,0.0150094945,-0.016049922,-0.014888257,0.5083952,-0.8609952,-0.008714565,0.86099195,0.50854397,0.9998512,0.015074531,-0.008388227,10.053452,0.14596558,-0.17228699,9.804282,0.14719287,-0.15739596,0.009811401,0.001663208,0.004058838,-24.899292,37.1994,22.799683,0,0.0,0.0,0.0,0.0
1.353027344,-0.02142325,0.51198006,-0.85873014,-0.004703967,0.8588661,0.5121785,0.9997594,0.015011965,-0.015991366,-0.015276451,0.5086048,-0.8608645,-0.008478334,0.8608682,0.50875735,0.99984735,0.015070705,-0.008838889,10.047455,0.1603241,-0.14356995,9.804291,0.1472171,-0.15682173,0.014694214,0.0077667236,-8.239746E-4,-24.899292,37.1994,22.799683,0,0.0,0.0,0.0,0.0
1.361328125,-0.021358538,0.51025856,-0.85975575,-0.004850476,0.85988885,0.51045805,0.9997601,0.015072864,-0.015890973,-0.015520396,0.50873864,-0.86078113,-0.008329817,0.8607891,0.5088936,0.99984485,0.015068378,-0.009122088,10.077377,0.17826843,-0.12562561,9.804297,0.1478143,-0.15583721,0.0059814453,0.0012054443,-6.713867E-4,-25.019836,36.65924,22.37854,0,0.0,0.0,0.0,0.0
1.369628907,-0.021296017,0.51029056,-0.8597383,-0.0049396995,0.8598691,0.5104906,0.99976104,0.015118266,-0.015791109,-0.0156373,0.5087691,-0.860761,-0.008260425,0.8607711,0.50892514,0.9998436,0.015068468,-0.009257488,10.077377,0.17826843,-0.12562561,9.804307,0.14825955,-0.15485787,0.0041503906,0.0021209717,0.002380371,-25.019836,36.65924,22.37854,0,0.0,0.0,0.0,0.0
1.377929688,-0.02128111,0.5102982,-0.8597342,-0.0049493928,0.8598646,0.5104981,0.9997612,0.015119128,-0.015773205,-0.01586154,0.5088295,-0.86072123,-0.008129358,0.8607355,0.5089876,0.99984115,0.015070438,-0.009516132,10.041473,0.1531372,-0.14356995,9.804309,0.148268,-0.15468231,0.006286621,-0.0035247803,-8.239746E-4,-25.019836,36.65924,22.37854,0,0.0,0.0,0.0,0.0
1.386230469,-0.021272572,0.507698,-0.86127245,-0.0050011277,0.8614026,0.5078982,0.99976116,0.015111635,-0.015785187,-0.016076377,0.5088876,-0.8606828,-0.008003786,0.86070096,0.50904787,0.9998387,0.015072367,-0.009763927,10.041473,0.1531372,-0.14356995,9.804308,0.14819452,-0.1547998,0.0072021484,-0.007965088,0.0034484863,-25.2594,36.59973,22.198486,0,0.0,0.0,0.0,0.0
1.39453125,-0.021237684,0.5063332,-0.8620764,-0.0050176326,0.862206,0.5065329,0.9997618,0.015083168,-0.015770663,-0.016180186,0.5088638,-0.860695,-0.007943619,0.8607151,0.50902504,0.9998375,0.015073152,-0.009884309,10.041473,0.14955139,-0.110076904,9.804315,0.14791535,-0.15465738,0.0070495605,-0.0058288574,0.0045166016,-25.2594,36.839294,22.259521,0,0.0,0.0,0.0,0.0
1.402832032,-0.02126541,0.50631875,-0.86208403,-0.004981667,0.8622147,0.50651836,0.99976146,0.015065939,-0.01581304,-0.016380168,0.5087636,-0.86075044,-0.007827176,0.8607743,0.5089267,0.9998352,0.01507355,-0.010117445,10.023529,0.1651001,-0.14596558,9.804311,0.1477464,-0.15507294,0.0030822754,-0.012390137,0.006652832,-25.2594,36.839294,22.259521,0,0.0,0.0,0.0,0.0
1.411132813,-0.021308223,0.5062967,-0.8620961,-0.004910418,0.8622284,0.50649583,0.99976087,0.015025778,-0.015886428,-0.016477743,0.5087148,-0.8607774,-0.0077699805,0.8608031,0.50887877,0.99983406,0.015073397,-0.01023139,10.039093,0.14955139,-0.15792847,9.804305,0.14735255,-0.15579264,0.005218506,-0.010253906,0.0029907227,-25.2594,36.839294,22.259521,0,0.0,0.0,0.0,0.0
1.419433594,-0.021380479,0.5073556,-0.8614716,-0.004819652,0.86160624,0.5075545,0.9997598,0.015003749,-0.015976274,-0.016668743,0.5086191,-0.8608303,-0.0076562236,0.8608597,0.50878483,0.99983174,0.015071511,-0.010455346,10.043869,0.1483612,-0.17347717,9.804295,0.14713652,-0.15667373,0.0128479,-0.0056762695,-5.187988E-4,-25.559998,36.71875,22.259521,0,0.0,0.0,0.0,0.0
1.427734375,-0.021416958,0.5073364,-0.8614819,-0.004782634,0.86161774,0.5075352,0.9997592,0.014990013,-0.016026825,-0.016855039,0.5085691,-0.8608561,-0.0075437184,0.86088926,0.50873643,0.9998295,0.015068829,-0.010673821,10.040283,0.1531372,-0.15792847,9.804289,0.14700182,-0.15716946,0.0020141602,-0.0078125,0.004211426,-25.559998,36.71875,22.259521,0,0.0,0.0,0.0,0.0
1.436035157,-0.021473816,0.50626546,-0.8621103,-0.0047504334,0.86224777,0.50646454,0.9997581,0.014971123,-0.01611077,-0.016946178,0.50854445,-0.860869,-0.007488387,0.86090386,0.50871253,0.99982834,0.015067252,-0.010780852,10.005585,0.15911865,-0.17228699,9.804278,0.14681657,-0.15799269,0.009643555,-0.010406494,0.0032958984,-25.79956,36.299133,21.958923,0,0.0,0.0,0.0,0.0
1.444335938,-0.021548156,0.50826246,-0.8609325,-0.004680096,0.86107177,0.50846183,0.9997569,0.014985662,-0.016175793,-0.017125214,0.5084543,-0.86091864,-0.007379503,0.8609572,0.50862384,0.9998261,0.015063445,-0.010991936,10.033112,0.18185425,-0.17706299,9.804266,0.14695914,-0.15863036,0.007659912,0.005630493,-0.0014343262,-25.85907,35.998535,21.899414,0,0.0,0.0,0.0,0.0
1.452636719,-0.02159234,0.5082386,-0.86094564,-0.0047260504,0.8610849,0.50843936,0.9997557,0.015047268,-0.016190877,-0.017300414,0.5084467,-0.8609196,-0.007272533,0.8609617,0.5086177,0.99982387,0.015060364,-0.011197299,10.033112,0.18185425,-0.17706299,9.804255,0.1475633,-0.15877827,0.0017089844,0.003189087,0.0010070801,-25.85907,35.998535,21.899414,0,0.0,0.0,0.0,0.0
1.4609375,-0.021550324,0.50826126,-0.8609332,-0.0047509745,0.86107135,0.5084618,0.99975646,0.01504779,-0.016141633,-0.01738625,0.5084425,-0.86092037,-0.0072215823,0.8609642,0.50861424,0.99982274,0.015060102,-0.011297178,10.012772,0.16270447,-0.1603241,9.804262,0.1475684,-0.15829535,0.008270264,0.010665894,0.006210327,-25.85907,35.998535,21.899414,0,0.0,0.0,0.0,0.0
1.469238282,-0.021450767,0.5036484,-0.86364233,-0.0049199583,0.86377746,0.50384945,0.9997578,0.015057043,-0.016050763,-0.017551072,0.50843537,-0.86092126,-0.007123752,0.8609684,0.5086085,0.99982053,0.015059615,-0.011488952,10.033112,0.17347717,-0.1651001,9.8042755,0.14765915,-0.15740421,0.006591797,0.011886597,-0.0021972656,-26.759338,35.279846,21.238708,0,0.0,0.0,0.0,0.0
1.477539063,-0.02135268,0.5037046,-0.863612,-0.0049842456,0.8637446,0.50390524,0.9997596,0.015064182,-0.015932675,-0.01770506,0.5082462,-0.8610298,-0.0070356373,0.8610801,0.5084205,0.99981844,0.015059511,-0.01166964,10.025925,0.15074158,-0.15434265,9.804293,0.14772916,-0.15624617,0.010559082,0.01586914,0.007873535,-26.759338,35.279846,21.238708,0,0.0,0.0,0.0,0.0
1.485839844,-0.021243239,0.50745845,-0.8614143,-0.004942041,0.8615449,0.5076573,0.9997621,0.0150414305,-0.015794126,-0.017777763,0.5081555,-0.86108184,-0.0069942563,0.86113364,0.5083305,0.9998175,0.015059605,-0.011754859,10.02713,0.15074158,-0.15434265,9.804317,0.14750604,-0.15488747,0.010559082,0.019226074,-0.0054016113,-26.69983,35.038757,21.299744,0,0.0,0.0,0.0,0.0
1.494140625,-0.02113292,0.50633687,-0.8620768,-0.0050680526,0.862204,0.5065358,0.99976385,0.015073631,-0.015654746,-0.01791493,0.508128,-0.86109525,-0.006912886,0.86114997,0.5083041,0.99981564,0.015058885,-0.011914809,10.00798,0.1651001,-0.16151428,9.804335,0.14782183,-0.15352063,0.009811401,0.012954712,-0.0035705566,-26.339722,35.879517,21.71936,0,0.0,0.0,0.0,0.0
1.502441407,-0.021054823,0.50638,-0.8620534,-0.005158277,0.8621781,0.5065792,0.99976504,0.015112647,-0.015540958,-0.018042155,0.50805694,-0.8611344,-0.0068396186,0.86119175,0.5082341,0.9998138,0.01505947,-0.01206284,10.052246,0.16989136,-0.13877869,9.804346,0.14820445,-0.15240474,0.012542725,0.017700195,-0.0020446777,-26.339722,35.879517,21.71936,0,0.0,0.0,0.0,0.0
1.510742188,-0.02096056,0.50643206,-0.8620251,-0.0052520093,0.86214685,0.50663126,0.9997665,0.015146638,-0.015411293,-0.018102277,0.50802344,-0.86115295,-0.0068059177,0.86121154,0.5082011,0.99981296,0.015060534,-0.012132325,10.052246,0.16989136,-0.13877869,9.80436,0.14853778,-0.15113316,0.008270264,0.010818481,-8.239746E-4,-26.339722,35.879517,21.71936,0,0.0,0.0,0.0,0.0
1.519042969,-0.020895349,0.5104673,-0.8596432,-0.0052368212,0.85976326,0.5106659,0.99976796,0.015172341,-0.01529183,-0.018215518,0.5079605,-0.8611877,-0.0067440905,0.8612486,0.5081391,0.9998113,0.015063944,-0.012262358,10.013962,0.16151428,-0.16151428,9.804375,0.14878984,-0.14996162,0.007965088,0.012496948,-3.6621094E-4,-25.979614,36.11908,22.079468,0,0.0,0.0,0.0,0.0
1.52734375,-0.020785322,0.5105266,-0.8596106,-0.0053220913,0.8597277,0.5107248,0.9997698,0.015190507,-0.015152648,-0.018321954,0.5080598,-0.8611269,-0.0066846153,0.86118996,0.5082392,0.99980974,0.015068238,-0.012382497,10.046265,0.16749573,-0.10887146,9.804393,0.148968,-0.14859672,0.0039978027,0.004562378,-0.0038757324,-25.979614,36.11908,22.079468,0,0.0,0.0,0.0,0.0
1.535644532,-0.02069181,0.5096127,-0.8601551,-0.0054445392,0.86026907,0.5098112,0.99977106,0.015232065,-0.015025919,-0.01837131,0.5081092,-0.86109674,-0.0066574947,0.8611608,0.50828904,0.9998091,0.015070682,-0.012437918,10.025925,0.16151428,-0.14356995,9.804405,0.14937553,-0.14735393,0.0067443848,0.01020813,-0.006164551,-25.79956,36.11908,22.019958,0,0.0,0.0,0.0,0.0
1.543945313,-0.020609753,0.5036065,-0.8636873,-0.005653291,0.86379826,0.5038062,0.99977165,0.015265997,-0.014955636,-0.018463295,0.5081688,-0.86105955,-0.0066096084,0.8611255,0.5083494,0.99980766,0.015077073,-0.012540418,10.02713,0.14955139,-0.13877869,9.804411,0.14970829,-0.1466647,0.0056762695,-9.3078613E-4,-3.6621094E-4,-25.498962,35.998535,21.598816,0,0.0,0.0,0.0,0.0
1.552246094,-0.020577848,0.50362355,-0.8636781,-0.005689352,0.863788,0.5038232,0.9997721,0.015281366,-0.014909607,-0.01850609,0.5080776,-0.8611124,-0.006590277,0.86117923,0.5082587,0.999807,0.015080851,-0.012588688,10.02713,0.14955139,-0.13877869,9.804415,0.14985901,-0.14621331,0.006439209,0.0033416748,-6.713867E-4,-25.498962,35.998535,21.598816,0,0.0,0.0,0.0,0.0
1.560546875,-0.020491201,0.5036699,-0.8636531,-0.0057375603,0.86376107,0.503869,0.9997736,0.015280144,-0.014809667,-0.018587826,0.5079015,-0.8612146,-0.0065542622,0.861283,0.5080833,0.99980575,0.01508879,-0.01268046,10.011566,0.15911865,-0.08973694,9.80443,0.14984703,-0.14523323,0.006134033,4.4250488E-4,0.0034484863,-25.498962,35.998535,21.598816,1,0.0,0.0,0.0,0.0
1.568847657,-0.020428764,0.5038542,-0.8635471,-0.0057486035,0.86365384,0.5040525,0.99977475,0.01526136,-0.014746925,-0.018663095,0.50773406,-0.8613116,-0.0065215323,0.86138153,0.50791657,0.99980456,0.015096368,-0.012764842,10.017548,0.15434265,-0.110076904,9.804441,0.14966282,-0.14461793,0.011169434,-0.013305664,0.001159668,-25.559998,35.879517,21.539307,1,0.0,0.0,0.0,0.0
1.577148438,-0.020458035,0.50383854,-0.86355555,-0.005703127,0.86366343,0.5040366,0.99977446,0.015236565,-0.014795401,-0.018698275,0.5076566,-0.8613566,-0.0065059564,0.8614272,0.5078394,0.99980396,0.015099669,-0.01280441,10.017548,0.15434265,-0.110076904,9.804439,0.14941967,-0.14509332,0.008422852,-0.020477295,0.003753662,-25.559998,35.879517,21.539307,1,0.0,0.0,0.0,0.0
1.585449219,-0.020554489,0.50086313,-0.86528236,-0.0056765215,0.8653928,0.50106186,0.9997726,0.015210866,-0.014944546,-0.018767763,0.5075056,-0.86144406,-0.006473897,0.86151606,0.507689,0.9998029,0.015105089,-0.012883192,10.052246,0.1531372,-0.14356995,9.80442,0.14916764,-0.14655593,0.006134033,-0.021392822,0.0029907227,-25.91858,35.939026,21.418762,1,0.0,0.0,0.0,0.0
1.59375,-0.020697441,0.5045512,-0.8631337,-0.005479548,0.8632484,0.5047496,0.99977076,0.015176607,-0.015102319,-0.018838273,0.5072431,-0.8615972,-0.0064417897,0.8616706,0.5074272,0.9998018,0.015109278,-0.0129648335,10.039093,0.15792847,-0.1651001,9.804402,0.14883168,-0.14810316,0.011489868,-0.01651001,0.0029907227,-25.439453,36.419678,21.899414,1,0.0,0.0,0.0,0.0
1.602050782,-0.020829502,0.5044815,-0.8631713,-0.005374768,0.8632896,0.5046804,0.9997686,0.0151515845,-0.015270421,-0.01887543,0.50718933,-0.86162794,-0.0064224103,0.86170226,0.5073737,0.9998012,0.015110624,-0.013007621,10.039093,0.15792847,-0.1651001,9.804381,0.14858629,-0.14975168,0.0044555664,-0.01651001,0.0029907227,-25.439453,36.419678,21.899414,1,0.0,0.0,0.0,0.0
1.610351563,-0.020904938,0.5044417,-0.8631927,-0.005333198,0.8633128,0.50464106,0.99976724,0.015153067,-0.015357214,-0.0189527,0.50708216,-0.8616893,-0.0063806796,0.8617652,0.5072672,0.9998,0.015112246,-0.013097248,10.031906,0.17706299,-0.13519287,9.804367,0.14860082,-0.15060282,0.002319336,-0.011016846,0.0045166016,-25.439453,36.419678,21.899414,1,0.0,0.0,0.0,0.0
1.618652344,-0.020979136,0.5064869,-0.86199236,-0.005215209,0.8621149,0.50668585,0.9997663,0.0151253035,-0.015444994,-0.019029997,0.5069776,-0.8617491,-0.0063389093,0.8618268,0.50716317,0.99979883,0.015113863,-0.013186875,10.034302,0.16151428,-0.15194702,9.8043585,0.14832856,-0.15146366,0.006439209,-0.0068969727,8.544922E-4,-25.498962,36.419678,22.019958,1,0.0,0.0,0.0,0.0
1.626953125,-0.021034263,0.50645787,-0.86200815,-0.005166647,0.8621324,0.50665694,0.99976546,0.015110844,-0.015517626,-0.019068975,0.50696784,-0.8617541,-0.006316409,0.86183256,0.5071537,0.99979824,0.015114091,-0.013232046,10.034302,0.16151428,-0.15194702,9.80435,0.14818676,-0.15217593,0.009338379,-0.007507324,0.0028381348,-25.498962,36.419678,22.019958,1,0.0,0.0,0.0,0.0
1.635253907,-0.02109879,0.5107237,-0.859486,-0.005015854,0.8596124,0.510922,0.9997648,0.015090891,-0.015575065,-0.01914663,0.5069476,-0.86176425,-0.006270921,0.8618444,0.507134,0.99979705,0.015113963,-0.013322389,10.017548,0.15553284,-0.15672302,9.804344,0.1479911,-0.15273923,7.9345703E-4,-0.001083374,2.4414063E-4,-25.619507,35.998535,22.019958,1,0.0,0.0,0.0,0.0
1.643554688,-0.021084785,0.5103371,-0.85971594,-0.005020122,0.8598422,0.5105352,0.99976504,0.015080404,-0.015567633,-0.01922409,0.50709724,-0.8616744,-0.0062215733,0.8617564,0.5072843,0.99979585,0.015113048,-0.013411539,10.018753,0.15553284,-0.13400269,9.804347,0.14788826,-0.15266635,0.010116577,-0.0029144287,-0.001739502,-25.979614,35.81848,21.899414,1,0.0,0.0,0.0,0.0
1.651855469,-0.021069659,0.51034534,-0.85971147,-0.0050497493,0.85983706,0.51054364,0.9997652,0.015098306,-0.0155393565,-0.01926141,0.5071621,-0.8616354,-0.0061976695,0.8617182,0.5073494,0.99979526,0.015112395,-0.013454684,10.018753,0.15553284,-0.13400269,9.804348,0.14806381,-0.15238903,0.006286621,0.0013580322,-0.0040283203,-25.979614,35.81848,21.899414,1,0.0,0.0,0.0,0.0
1.66015625,-0.021103531,0.5103269,-0.85972154,-0.005082813,0.8598472,0.5105263,0.9997644,0.01514371,-0.0155519135,-0.01933321,0.5072883,-0.86155957,-0.0061524455,0.8616439,0.50747603,0.9997941,0.0151118385,-0.013537279,10.031906,0.16989136,-0.15792847,9.804339,0.14850907,-0.15251218,0.01133728,-0.004135132,-0.001739502,-25.979614,35.81848,21.899414,1,0.0,0.0,0.0,0.0
1.668457032,-0.021179892,0.5155953,-0.85657036,-0.0049485397,0.8566979,0.51579446,0.99976337,0.015163245,-0.015593326,-0.019403415,0.5074087,-0.86148703,-0.00611035,0.861573,0.50759685,0.99979305,0.015113101,-0.013617014,10.0295105,0.1603241,-0.16989136,9.80433,0.14870064,-0.1529183,0.0059814453,-0.006134033,0.007736206,-26.339722,35.398865,21.958923,1,0.0,0.0,0.0,0.0
1.676757813,-0.021217933,0.5155743,-0.85658205,-0.0049039517,0.856711,0.51577336,0.99976283,0.015144283,-0.015649285,-0.019439077,0.5075728,-0.8613896,-0.006087482,0.8614763,0.50776136,0.9997925,0.015114104,-0.0136564635,10.0295105,0.1603241,-0.16989136,9.804324,0.14851469,-0.15346707,0.0078125,-0.002609253,0.0060424805,-26.339722,35.398865,21.958923,1,0.0,0.0,0.0,0.0
1.685058594,-0.021241592,0.51728886,-0.85554725,-0.0048150793,0.8556774,0.5174871,0.9997627,0.015111778,-0.015685163,-0.019509993,0.5078905,-0.86120063,-0.0060411836,0.86128896,0.5080795,0.9997914,0.015115299,-0.0137354825,10.041473,0.16270447,-0.15911865,9.804323,0.14819592,-0.1538189,0.0137786865,-0.0043029785,-2.1362305E-4,-26.69983,35.51941,22.138977,1,0.0,0.0,0.0,0.0
1.693359375,-0.021280734,0.5196756,-0.8540985,-0.0047442745,0.85422987,0.5198738,0.9997623,0.015115375,-0.015713157,-0.019579152,0.50826395,-0.8609787,-0.005993266,0.86106867,0.5084533,0.9997903,0.01511516,-0.0138128325,10.0247345,0.16870117,-0.15553284,9.804319,0.1482312,-0.15409343,0.0068969727,-0.0056762695,0.002380371,-26.818848,35.879517,22.499084,1,0.0,0.0,0.0,0.0
1.701660157,-0.02131559,0.5196564,-0.8541094,-0.004735562,0.85424143,0.5198549,0.9997615,0.015125703,-0.015747795,-0.019613484,0.50849307,-0.8608427,-0.005968715,0.86093336,0.50868267,0.9997898,0.015115163,-0.013850852,10.0247345,0.16870117,-0.15553284,9.804312,0.14833248,-0.15443312,0.0067443848,-0.003692627,0.004211426,-26.818848,35.879517,22.499084,1,0.0,0.0,0.0,0.0
1.709960938,-0.02133764,0.5196442,-0.85411626,-0.004703235,0.85424906,0.5198425,0.9997612,0.015109321,-0.01578365,-0.019681402,0.50893676,-0.8605789,-0.005920727,0.86067116,0.5091268,0.99978876,0.0151155805,-0.013925938,10.041473,0.16270447,-0.16270447,9.804309,0.14817183,-0.15478474,0.0038452148,0.0024261475,0.0059051514,-26.818848,35.879517,22.499084,1,0.0,0.0,0.0,0.0
1.718261719,-0.021341909,0.52255464,-0.8523387,-0.004604495,0.8524724,0.5227519,0.99976164,0.015081113,-0.015787289,-0.019714817,0.5091517,-0.860451,-0.0058967588,0.860544,0.5093419,0.9997882,0.015115455,-0.013963125,10.041473,0.16270447,-0.16270447,9.804313,0.1478952,-0.15482041,0.014389038,0.0033416748,0.005584717,-26.69983,35.998535,22.738647,1,0.0,0.0,0.0,0.0
1.7265625,-0.02127716,0.52259004,-0.8523186,-0.004593566,0.8524515,0.5227862,0.9997631,0.015038587,-0.015737195,-0.019779911,0.5096848,-0.8601338,-0.005846538,0.8602285,0.5098753,0.9997873,0.015114094,-0.014035351,10.023529,0.14596558,-0.13998413,9.804327,0.14747816,-0.15432917,0.006286621,0.001663208,-5.187988E-4,-26.69983,35.998535,22.738647,1,0.0,0.0,0.0,0.0
1.734863282,-0.021288257,0.5243355,-0.8512455,-0.0045496877,0.8513788,0.52453136,0.999763,0.015039263,-0.015738811,-0.019839782,0.510198,-0.8598281,-0.005797787,0.8599242,0.5103888,0.9997863,0.015111104,-0.014102689,10.036697,0.16151428,-0.17347717,9.804326,0.1474848,-0.15434502,0.010421753,0.007156372,0.008651733,-26.818848,36.11908,22.918701,1,0.0,0.0,0.0,0.0
1.743164063,-0.021272613,0.524344,-0.85124075,-0.00454357,0.8513739,0.5245396,0.99976337,0.015025999,-0.015728554,-0.019869145,0.51048213,-0.8596587,-0.005773255,0.8597556,0.51067305,0.9997859,0.015109668,-0.014135465,10.036697,0.16151428,-0.17347717,9.80433,0.14735472,-0.15424442,0.009338379,0.0054779053,0.0032958984,-26.818848,36.11908,22.918701,1,0.0,0.0,0.0,0.0
1.751464844,-0.021230293,0.52102196,-0.85327923,-0.0046149725,0.85341144,0.5212175,0.99976397,0.01500346,-0.015713671,-0.019925341,0.5110336,-0.85932976,-0.005725422,0.859428,0.5112247,0.99978507,0.015106354,-0.014198515,10.016357,0.16151428,-0.16270447,9.804336,0.1471337,-0.15409848,0.01133728,0.001663208,0.0019226074,-26.879883,36.538696,22.979736,1,0.0,0.0,0.0,0.0
1.759765625,-0.021235684,0.52101904,-0.85328084,-0.0046024835,0.8534132,0.5212145,0.99976385,0.014995556,-0.015724834,-0.019977415,0.5114305,-0.8590924,-0.0056820414,0.85919195,0.51162183,0.9997843,0.01510228,-0.014258465,10.058228,0.15792847,-0.1651001,9.804335,0.14705618,-0.15420794,0.01133728,-0.0013885498,-0.004486084,-26.879883,36.538696,22.979736,1,0.0,0.0,0.0,0.0
1.768066407,-0.021248112,0.52048975,-0.8536035,-0.0046233106,0.85373604,0.5206857,0.9997636,0.01501006,-0.01573389,-0.020002784,0.51162285,-0.85897726,-0.005660725,0.8590774,0.5118143,0.9997839,0.015100146,-0.014287785,10.058228,0.15792847,-0.1651001,9.804332,0.14719841,-0.15429676,0.011489868,0.0013580322,-2.1362305E-4,-26.998901,36.779785,23.098755,1,0.0,0.0,0.0,0.0
1.776367188,-0.021241508,0.5204933,-0.85360146,-0.004666319,0.8537332,0.5206898,0.9997635,0.015043414,-0.015705794,-0.020027913,0.51180077,-0.8588707,-0.005640202,0.8589715,0.5119924,0.9997835,0.015098344,-0.014316747,10.02713,0.16749573,-0.13877869,9.80433,0.14752549,-0.15402122,0.006286621,0.003036499,-8.239746E-4,-26.998901,36.779785,23.098755,1,0.0,0.0,0.0,0.0
1.784667969,-0.021222623,0.5198944,-0.85396683,-0.0046866806,0.8540981,0.5200908,0.9997638,0.015039962,-0.015689624,-0.020099731,0.5123134,-0.85856324,-0.0055836216,0.8586658,0.51250535,0.9997823,0.015095114,-0.014398388,10.039093,0.15194702,-0.13639832,9.804334,0.14749165,-0.15386266,0.013320923,-0.001083374,-3.6621094E-4,-27.119446,36.538696,22.918701,1,0.0,0.0,0.0,0.0
1.79296875,-0.021218313,0.51989686,-0.8539655,-0.0046834797,0.8540968,0.5200931,0.99976385,0.015035029,-0.015687564,-0.02012226,0.5124655,-0.85847205,-0.0055659176,0.85857517,0.51265746,0.999782,0.015094012,-0.014424132,10.039093,0.15194702,-0.13639832,9.804335,0.14744326,-0.15384246,0.007507324,-0.0044403076,8.544922E-4,-27.119446,36.538696,22.918701,1,0.0,0.0,0.0,0.0
1.801269532,-0.021236481,0.52060574,-0.85353297,-0.004673796,0.8536645,0.52080226,0.9997636,0.015049249,-0.015695628,-0.020165946,0.51276046,-0.85829484,-0.005531317,0.85839903,0.5129527,0.9997813,0.015091677,-0.014474189,10.034302,0.16390991,-0.14356995,9.804332,0.14758272,-0.15392153,0.0070495605,-0.00491333,0.0028381348,-27.2995,36.65924,23.039246,1,0.0,0.0,0.0,0.0
1.809570313,-0.02126569,0.52058965,-0.8535421,-0.0046753017,0.85367405,0.5207866,0.9997629,0.015065453,-0.015720053,-0.020208621,0.513072,-0.8581076,-0.0054977136,0.85821295,0.5132644,0.99978065,0.015089997,-0.014522579,10.033112,0.17228699,-0.14596558,9.804325,0.14774163,-0.15416107,3.3569336E-4,-0.010406494,0.0013122559,-27.2995,36.65924,23.039246,1,0.0,0.0,0.0,0.0
1.817871094,-0.021310331,0.52022433,-0.8537637,-0.0046709627,0.85389644,0.5204218,0.99976194,0.0150782615,-0.01576687,-0.020229895,0.5132227,-0.858017,-0.0054814424,0.8581228,0.51341516,0.9997803,0.015089506,-0.014546534,10.033112,0.17228699,-0.14596558,9.8043165,0.14786725,-0.15462019,0.002166748,-0.008575439,0.0013122559,-27.178955,36.59973,22.979736,1,0.0,0.0,0.0,0.0
1.826171875,-0.021354644,0.5202,-0.85377735,-0.0046424996,0.8539113,0.5203978,0.99976116,0.015076571,-0.015819944,-0.020272754,0.51350063,-0.8578497,-0.0054497663,0.8579565,0.5136934,0.99977964,0.01508906,-0.014594683,10.030716,0.16989136,-0.15074158,9.804308,0.14785066,-0.15514065,0.0039978027,-0.0056762695,0.0043640137,-27.178955,36.59973,22.979736,1,0.0,0.0,0.0,0.0
1.834472657,-0.021357173,0.5154228,-0.8566699,-0.0046980893,0.85680413,0.5156207,0.99976087,0.015036911,-0.01587741,-0.0203157,0.5137665,-0.8576895,-0.005418184,0.8577973,0.51395947,0.9997789,0.015088566,-0.014643072,10.010376,0.14955139,-0.16390991,9.804305,0.14746173,-0.15570422,0.011627197,-0.0067443848,0.0032958984,-26.939392,36.479187,22.619629,1,0.0,0.0,0.0,0.0
1.842773438,-0.021385785,0.515407,-0.8566786,-0.004642346,0.8568141,0.51560444,0.99976045,0.015003604,-0.015930945,-0.020336544,0.5137997,-0.8576692,-0.0054038293,0.8577775,0.5139927,0.99977857,0.015087533,-0.014667743,10.010376,0.14955139,-0.16390991,9.804301,0.1471351,-0.15622921,0.0017089844,-0.0018463135,0.0046691895,-26.939392,36.479187,22.619629,1,0.0,0.0,0.0,0.0
1.851074219,-0.021404497,0.5149952,-0.8569258,-0.004621652,0.857062,0.5151925,0.99976015,0.01498785,-0.015964853,-0.020378176,0.51386344,-0.8576299,-0.005373731,0.8577393,0.51405674,0.99977785,0.015084211,-0.014717801,10.0295105,0.16630554,-0.16151428,9.804298,0.1469806,-0.15656172,0.006439209,0.0022735596,0.005279541,-26.879883,36.71875,22.738647,1,0.0,0.0,0.0,0.0
1.859375,-0.021381339,0.51500785,-0.8569188,-0.0046045445,0.8570549,0.51520455,0.99976075,0.014961483,-0.015953606,-0.020418923,0.5139083,-0.857602,-0.005343957,0.8577125,0.51410174,0.9997772,0.015080393,-0.014767262,10.053452,0.16151428,-0.14596558,9.804304,0.14672203,-0.15645143,0.0068969727,0.0018157959,0.0014648438,-26.879883,36.71875,22.738647,1,0.0,0.0,0.0,0.0
1.867675782,-0.021341369,0.51334673,-0.8579159,-0.0046559004,0.85805094,0.51354337,0.99976134,0.014954089,-0.015921889,-0.020438183,0.5139303,-0.85758847,-0.005329198,0.85769945,0.5141238,0.9997769,0.015078015,-0.014790981,10.053452,0.16151428,-0.14596558,9.80431,0.14664952,-0.1561404,0.0072021484,0.0048675537,-0.0020446777,-26.519775,36.898804,22.738647,1,0.0,0.0,0.0,0.0
1.875976563,-0.021320457,0.5133579,-0.8579097,-0.0046885693,0.858044,0.51355475,0.99976176,0.014971594,-0.01588698,-0.020456158,0.51391864,-0.857595,-0.0053157685,0.8577064,0.51411223,0.9997766,0.015075536,-0.014813506,10.033112,0.16270447,-0.15434265,9.804314,0.14682119,-0.15579805,0.010253906,0.005783081,-2.1362305E-4,-26.519775,36.898804,22.738647,1,0.0,0.0,0.0,0.0
1.884277344,-0.021272842,0.5085602,-0.8607637,-0.004834567,0.86089617,0.5087579,0.999762,0.014984145,-0.015855039,-0.020506892,0.5138856,-0.85761356,-0.0052788937,0.85772634,0.51407945,0.99977577,0.015069423,-0.014876555,10.045074,0.15911865,-0.13639832,9.8043165,0.14694427,-0.15548481,0.010559082,-0.005050659,3.9672852E-4,-26.69983,36.65924,22.31903,1,0.0,0.0,0.0,0.0
1.892578125,-0.021280011,0.5085562,-0.86076576,-0.004833265,0.86089826,0.508754,0.9997618,0.014986601,-0.01586194,-0.02052213,0.5137793,-0.8576769,-0.0052699246,0.85779005,0.5139732,0.99977547,0.015067718,-0.014896101,10.045074,0.15911865,-0.14117432,9.804315,0.14696835,-0.15555249,0.006591797,-0.0058288574,0.003753662,-26.69983,36.65924,22.31903,1,0.0,0.0,0.0,0.0
1.900878907,-0.021335626,0.50606483,-0.8622315,-0.0048775636,0.8623648,0.5062638,0.99976045,0.015007045,-0.015930733,-0.020552037,0.5135728,-0.8577999,-0.00525245,0.85791373,0.5137669,0.999775,0.015064506,-0.01493436,10.0247345,0.17945862,-0.1758728,9.804301,0.14716884,-0.15622713,0.008117676,-0.006286621,0.0049743652,-26.579285,36.59973,22.138977,1,0.0,0.0,0.0,0.0
1.909179688,-0.021390697,0.50603473,-0.8622478,-0.004820575,0.8623829,0.5062336,0.9997595,0.01498522,-0.016007593,-0.020582907,0.5132762,-0.8579766,-0.0052373414,0.8580913,0.5134705,0.99977446,0.015062231,-0.01497381,10.013962,0.15792847,-0.17945862,9.804292,0.1469548,-0.15698087,0.005065918,-0.002609253,5.493164E-4,-26.579285,36.59973,22.138977,1,0.0,0.0,0.0,0.0
1.917480469,-0.021439884,0.5055717,-0.86251813,-0.0047938246,0.8626545,0.5057708,0.9997586,0.014978428,-0.01607159,-0.020599032,0.5131317,-0.85806257,-0.005228838,0.8581777,0.51332605,0.9997741,0.015060691,-0.014994548,10.013962,0.15792847,-0.17945862,9.804283,0.14688821,-0.15760846,0.0053710938,-0.002609253,-0.0052490234,-26.339722,36.95984,22.31903,1,0.0,0.0,0.0,0.0
1.92578125,-0.021450972,0.5055657,-0.8625214,-0.004842681,0.86265725,0.50576574,0.9997581,0.015026083,-0.016056543,-0.020632066,0.512833,-0.8582404,-0.0052113784,0.8583563,0.51302755,0.99977356,0.015057433,-0.015037096,10.043869,0.16870117,-0.14237976,9.804278,0.14735554,-0.1574609,0.0110321045,0.0018157959,-0.004333496,-26.339722,36.95984,22.31903,1,0.0,0.0,0.0,0.0
1.934082032,-0.0214742,0.5050561,-0.86281943,-0.004938502,0.8629543,0.5052579,0.9997572,0.015111043,-0.01603703,-0.020664375,0.51254594,-0.8584111,-0.0051964903,0.8585278,0.51274073,0.9997729,0.015056192,-0.015077499,10.023529,0.18902588,-0.15074158,9.804269,0.14818871,-0.15726955,0.003692627,-0.0035247803,3.9672852E-4,-26.098633,37.01935,22.31903,1,0.0,0.0,0.0,0.0
1.942382813,-0.0214934,0.50504583,-0.8628249,-0.004998591,0.86295915,0.5052489,0.99975646,0.015172424,-0.016023405,-0.02068051,0.51239645,-0.85849994,-0.0051911925,0.858617,0.51259136,0.99977267,0.015057289,-0.015096688,10.023529,0.18902588,-0.15074158,9.804262,0.14879066,-0.15713593,0.010253906,0.004714966,0.001159668,-26.098633,37.01935,22.31903,1,0.0,0.0,0.0,0.0
1.950683594,-0.021520076,0.5053938,-0.8626204,-0.004983345,0.86275524,0.5055971,0.999756,0.015179225,-0.016048009,-0.020712512,0.51210606,-0.8586724,-0.0051833503,0.85879016,0.5123013,0.999772,0.015061848,-0.015133276,10.043869,0.15792847,-0.1878357,9.804257,0.14885736,-0.15737721,0.008270264,0.007003784,-0.0023498535,-25.85907,37.1994,22.439575,1,0.0,0.0,0.0,0.0
1.958984375,-0.021500515,0.50540406,-0.8626148,-0.0049907537,0.8627492,0.5056072,0.9997564,0.015175916,-0.016027208,-0.020744313,0.5118408,-0.8588298,-0.005175245,0.8589482,0.5120364,0.9997714,0.015066497,-0.015169387,10.051056,0.14596558,-0.17108154,9.804261,0.1488249,-0.15717323,0.0029296875,7.4768066E-4,0.006210327,-25.85907,37.1994,22.439575,1,0.0,0.0,0.0,0.0
1.967285157,-0.02150321,0.509473,-0.8602178,-0.004869813,0.8603531,0.5096749,0.9997569,0.0151487505,-0.01601932,-0.020759402,0.51171243,-0.858906,-0.005171438,0.8590246,0.5119082,0.9997711,0.015068687,-0.015186548,10.051056,0.14596558,-0.17108154,9.804266,0.1485585,-0.15709586,0.0039978027,0.0015106201,0.00819397,-25.979614,37.5,22.859192,1,0.0,0.0,0.0,0.0
1.975585938,-0.021473663,0.5094884,-0.86020947,-0.004843437,0.8603447,0.5096894,0.99975765,0.01511127,-0.016007077,-0.020788854,0.51162386,-0.858958,-0.0051594004,0.8590773,0.5118198,0.9997705,0.015071856,-0.015219561,10.04866,0.15911865,-0.16390991,9.804274,0.14819095,-0.1569758,0.0056762695,0.0033416748,0.0031433105,-25.979614,37.5,22.859192,1,0.0,0.0,0.0,0.0
1.983886719,-0.021397624,0.50628275,-0.86210203,-0.0049512573,0.86223525,0.5064839,0.99975884,0.01510604,-0.015943049,-0.020816077,0.51153934,-0.85900766,-0.005146741,0.8591276,0.51173544,0.99977005,0.015073416,-0.015250905,10.04985,0.17228699,-0.13877869,9.804285,0.14813966,-0.1563479,0.008422852,-0.001083374,0.0010070801,-26.039124,37.61902,22.738647,1,0.0,0.0,0.0,0.0
1.9921875,-0.021354185,0.50630546,-0.8620899,-0.0049916143,0.8622217,0.50650656,0.9997595,0.015119253,-0.015884759,-0.020827662,0.5114344,-0.8590699,-0.005142771,0.8591901,0.51163065,0.99976987,0.015074069,-0.015264731,10.04985,0.17228699,-0.13877869,9.804292,0.14826922,-0.15577628,0.008728027,0.0068511963,0.0020751953,-26.039124,37.61902,22.738647,1,0.0,0.0,0.0,0.0
2.000488282,-0.021306247,0.5028491,-0.86411154,-0.0051030647,0.8642418,0.50305074,0.99976,0.015127741,-0.01584768,-0.020838162,0.5113319,-0.8591306,-0.00513969,0.8592511,0.5115283,0.9997697,0.015074973,-0.015277126,10.043869,0.16749573,-0.15074158,9.8042965,0.14835246,-0.15541264,0.006134033,0.0027313232,0.0014648438,-25.85907,37.979126,22.738647,1,0.0,0.0,0.0,0.0
2.008789063,-0.021274753,0.5028654,-0.8641029,-0.0050876085,0.86423284,0.50306624,0.9997607,0.015098828,-0.01582796,-0.020856688,0.51099694,-0.85932946,-0.0051380284,0.8594503,0.5111935,0.9997693,0.015077063,-0.015299769,10.030716,0.15553284,-0.15911865,9.804303,0.14806892,-0.15521926,0.0078125,4.4250488E-4,0.0068206787,-25.85907,37.979126,22.738647,1,0.0,0.0,0.0,0.0
2.017089844,-0.021209357,0.5026565,-0.86422604,-0.005082614,0.8643551,0.5028563,0.9997621,0.015057785,-0.015777607,-0.020873241,0.5106758,-0.8595199,-0.0051358435,0.85964113,0.5108725,0.9997689,0.015077924,-0.015320745,10.037888,0.1483612,-0.12322998,9.804317,0.14766644,-0.15472546,0.007659912,0.001663208,-0.0015869141,-25.679016,38.21869,22.859192,1,0.0,0.0,0.0,0.0
2.025390625,-0.02120688,0.5026578,-0.8642253,-0.005071545,0.86435455,0.5028574,0.99976224,0.015046993,-0.015781011,-0.020879969,0.51051587,-0.85961473,-0.0051346906,0.8597361,0.5107127,0.9997688,0.015077522,-0.015329923,10.041473,0.14715576,-0.1651001,9.804318,0.1475606,-0.15475886,0.010116577,0.0019683838,-0.0011291504,-25.679016,38.21869,22.859192,1,0.0,0.0,0.0,0.0
2.033691407,-0.021201963,0.50266033,-0.864224,-0.0050689364,0.86435306,0.5028598,0.9997623,0.01504231,-0.015778027,-0.020892974,0.5102055,-0.8597987,-0.005132002,0.8599204,0.5104024,0.9997685,0.015076314,-0.015347919,10.041473,0.14715576,-0.1651001,9.804319,0.14751467,-0.15472959,0.009185791,7.4768066E-4,0.0031433105,-25.679016,38.21869,22.859192,1,0.0,0.0,0.0,0.0
2.041992188,-0.021216158,0.5080359,-0.86107457,-0.004947832,0.86120445,0.50823444,0.9997626,0.015043235,-0.015757775,-0.020905169,0.5099075,-0.8599752,-0.0051293895,0.86009717,0.5101045,0.9997683,0.015074967,-0.015364963,10.031906,0.16270447,-0.15672302,9.804322,0.14752375,-0.15453099,0.0058288574,0.0028839111,0.005584717,-25.738525,38.279724,23.2193,1,0.0,0.0,0.0,0.0
2.050292969,-0.021174248,0.5073102,-0.8615033,-0.004955707,0.86163265,0.50750816,0.9997635,0.015015463,-0.015730344,-0.020911388,0.50987005,-0.8599972,-0.0051257405,0.86011934,0.5100671,0.9997682,0.015074333,-0.015372829,10.030716,0.1531372,-0.14715576,9.804331,0.1472514,-0.15426198,0.008880615,-0.0032196045,0.0036010742,-25.679016,38.459778,23.278809,1,0.0,0.0,0.0,0.0
2.05859375,-0.021166936,0.5073139,-0.8615014,-0.0049526375,0.8616306,0.50751173,0.99976367,0.015009171,-0.015725538,-0.020921797,0.5097687,-0.86005706,-0.0051189624,0.8601794,0.50996584,0.99976796,0.015072001,-0.015387012,10.02713,0.1758728,-0.13998413,9.804333,0.14718969,-0.15421484,0.0027770996,-0.0021514893,0.0071258545,-25.679016,38.459778,23.278809,1,0.0,0.0,0.0,0.0
2.066894532,-0.021181893,0.50672823,-0.8618456,-0.004941794,0.8619754,0.50692594,0.99976337,0.014996716,-0.015754124,-0.020931331,0.5096716,-0.8601144,-0.0051124385,0.86023706,0.50986874,0.99976784,0.015069513,-0.015400241,10.057037,0.17108154,-0.16151428,9.80433,0.14706755,-0.15449518,0.002319336,1.373291E-4,0.0029907227,-25.679016,38.519287,23.278809,1,0.0,0.0,0.0,0.0
2.075195313,-0.021172944,0.5067327,-0.8618432,-0.0049327062,0.86197305,0.50693023,0.99976367,0.014984424,-0.015750945,-0.02093629,0.50961274,-0.86014915,-0.0051090335,0.86027193,0.50980985,0.9997677,0.015068057,-0.015407273,10.040283,0.15911865,-0.15672302,9.804332,0.146947,-0.15446399,0.003692627,0.003189087,-8.239746E-4,-25.679016,38.519287,23.278809,1,0.0,0.0,0.0,0.0
2.083496094,-0.021204479,0.50557846,-0.86252,-0.004943533,0.86265033,0.5057764,0.9997629,0.014988623,-0.015792709,-0.020945717,0.5094988,-0.86021644,-0.0051019723,0.8603395,0.5096959,0.9997676,0.015064745,-0.01542098,10.004395,0.15792847,-0.17706299,9.804325,0.14698818,-0.15487356,0.0070495605,-0.0078125,-9.765625E-4,-25.79956,38.938904,23.458862,1,0.0,0.0,0.0,0.0
2.091796875,-0.021266576,0.5055474,-0.86253667,-0.004929237,0.8626683,0.505746,0.99976164,0.015007135,-0.015854038,-0.020955978,0.5093437,-0.86030805,-0.0050956225,0.8604314,0.50954086,0.9997674,0.0150617305,-0.015435759,10.004395,0.15792847,-0.17706299,9.804313,0.14716972,-0.155475,0.0059814453,-7.7819824E-4,0.0034484863,-25.79956,38.938904,23.458862,1,0.0,0.0,0.0,0.0
2.100097657,-0.021282915,0.5060006,-0.8622706,-0.00490895,0.8624027,0.50619924,0.99976146,0.015006237,-0.015870508,-0.020962153,0.50926787,-0.86035275,-0.005092278,0.86047626,0.5094651,0.9997673,0.01506064,-0.015444102,10.019943,0.15434265,-0.15911865,9.804311,0.14716092,-0.15563652,0.0046081543,2.89917E-4,0.004058838,-25.679016,38.99994,23.519897,1,0.0,0.0,0.0,0.0
2.108398438,-0.021271124,0.50600636,-0.8622674,-0.004894105,0.8623995,0.5062046,0.99976176,0.01498757,-0.01586776,-0.020974856,0.50913864,-0.860429,-0.0050849505,0.86055285,0.5093359,0.99976707,0.015058485,-0.015461027,10.0295105,0.1603241,-0.16151428,9.804314,0.14697786,-0.15560958,0.008270264,0.0024261475,0.004058838,-25.679016,38.99994,23.519897,1,0.0,0.0,0.0,0.0
2.116699219,-0.02123389,0.5033794,-0.8638045,-0.0049766293,0.8639354,0.503578,0.9997621,0.014991755,-0.015839575,-0.020986542,0.50901467,-0.860502,-0.0050773593,0.86062616,0.50921196,0.9997668,0.015055676,-0.015477116,10.035492,0.16870117,-0.14356995,9.804317,0.1470189,-0.15533318,0.0072021484,0.0015106201,-0.0025024414,-25.738525,38.75885,23.2193,1,0.0,0.0,0.0,0.0
2.125,-0.021216065,0.50338835,-0.8637997,-0.005019066,0.8639296,0.5035873,0.9997623,0.015019611,-0.01580265,-0.020991383,0.5089022,-0.86056834,-0.0050753597,0.86069274,0.50909954,0.99976677,0.015054397,-0.015484268,10.025925,0.16749573,-0.13877869,9.804319,0.14729208,-0.15497106,0.0018615723,0.0048675537,-0.0015869141,-25.738525,38.75885,23.2193,1,0.0,0.0,0.0,0.0
2.133300782,-0.021188146,0.5034024,-0.86379224,-0.005026471,0.86392164,0.50360113,0.99976283,0.0150122,-0.01577456,-0.02100017,0.5086843,-0.860697,-0.005073121,0.8608215,0.5088817,0.9997666,0.015053021,-0.015496782,10.034302,0.14715576,-0.15434265,9.804325,0.1472194,-0.1546956,0.010116577,0.0024261475,0.0036010742,-25.738525,38.75885,23.2193,1,0.0,0.0,0.0,0.0
2.141601563,-0.021204289,0.5103355,-0.859714,-0.0048430366,0.85984474,0.51053256,0.99976337,0.014989106,-0.015760822,-0.021007659,0.5084754,-0.8608201,-0.005071182,0.86094487,0.5086729,0.9997664,0.015051403,-0.015507866,10.034302,0.14715576,-0.15434265,9.80433,0.14699292,-0.15456088,0.0033874512,-0.0012359619,0.0029907227,-25.979614,38.339233,23.399353,1,0.0,0.0,0.0,0.0
2.149902344,-0.021185635,0.51068974,-0.85950404,-0.0048293984,0.8596347,0.5108864,0.99976385,0.01497434,-0.015745582,-0.021011556,0.5085127,-0.8607982,-0.0050666546,0.860923,0.5087101,0.9997664,0.015050157,-0.0155128725,10.034302,0.1483612,-0.14117432,9.804335,0.14684811,-0.15441142,0.0041503906,-7.7819824E-4,-0.0026550293,-25.738525,38.819885,23.699951,1,0.0,0.0,0.0,0.0
2.158203125,-0.021152418,0.5107063,-0.85949504,-0.0048290677,0.85962516,0.51090246,0.99976456,0.01495738,-0.01571691,-0.021018539,0.508599,-0.8607469,-0.0050572315,0.86087203,0.50879633,0.9997663,0.015047153,-0.015522169,10.040283,0.15911865,-0.14596558,9.804341,0.14668179,-0.15413025,0.011627197,0.0022735596,0.0019226074,-25.738525,38.819885,23.699951,1,0.0,0.0,0.0,0.0
2.166503907,-0.021118129,0.51072335,-0.85948575,-0.0048359977,0.85961515,0.51091903,0.9997652,0.014946125,-0.015683606,-0.021021258,0.5086412,-0.8607219,-0.005052654,0.8608471,0.50883853,0.99976623,0.015045358,-0.015526103,10.045074,0.1603241,-0.16151428,9.804348,0.14657143,-0.15380365,0.0072021484,0.0015106201,0.003753662,-25.738525,38.819885,23.699951,1,0.0,0.0,0.0,0.0
2.174804688,-0.021132743,0.51353806,-0.85780656,-0.0047464166,0.85793704,0.5137331,0.99976546,0.014928097,-0.015693096,-0.02102508,0.5087237,-0.8606731,-0.0050441027,0.8607984,0.508921,0.99976623,0.015041429,-0.015532301,10.010376,0.15792847,-0.15434265,9.80435,0.14639463,-0.1538967,0.007659912,-0.0029144287,-0.0018920898,-25.498962,38.938904,23.939514,1,0.0,0.0,0.0,0.0
2.183105469,-0.02113998,0.5135345,-0.8578085,-0.0047416976,0.85793906,0.5137295,0.9997653,0.014927701,-0.01570179,-0.021029454,0.50891465,-0.86056006,-0.005032298,0.8606856,0.50911194,0.9997662,0.015036941,-0.015538737,10.051056,0.16390991,-0.1531372,9.804349,0.14639075,-0.15398197,0.0059814453,0.0039520264,0.0016174316,-25.498962,38.938904,23.939514,1,0.0,0.0,0.0,0.0
2.19140625,-0.021118343,0.5111859,-0.85921067,-0.004816314,0.8593403,0.5113814,0.99976534,0.014937757,-0.015685814,-0.021031654,0.5090073,-0.8605052,-0.0050265193,0.8606309,0.50920445,0.9997662,0.015034757,-0.015541957,10.035492,0.17228699,-0.14476013,9.804349,0.14648935,-0.15382528,0.008117676,0.0022735596,0.0048217773,-25.559998,38.879395,23.75946,1,0.0,0.0,0.0,0.0
2.199707032,-0.021072036,0.50989366,-0.85997933,-0.004853923,0.86010796,0.5100889,0.9997662,0.014922884,-0.01564924,-0.021035124,0.50909364,-0.86045414,-0.0050181886,0.8605799,0.50929075,0.9997662,0.015030915,-0.015547678,10.046265,0.1603241,-0.14715576,9.804357,0.1463435,-0.15346661,0.0043029785,0.003189087,-8.239746E-4,-25.498962,39.118958,23.81897,1,0.0,0.0,0.0,0.0
2.208007813,-0.021047859,0.5099055,-0.85997295,-0.0048785238,0.86010087,0.5101008,0.9997666,0.0149319265,-0.015615696,-0.021036617,0.50912535,-0.86043525,-0.0050116684,0.8605612,0.5093224,0.9997662,0.015026637,-0.015551732,10.046265,0.1603241,-0.14715576,9.804361,0.14643218,-0.15313767,0.010559082,0.0018157959,-0.0026550293,-25.498962,39.118958,23.81897,1,0.0,0.0,0.0,0.0
2.216308594,-0.021043478,0.50990766,-0.85997176,-0.004911068,0.86009914,0.5101034,0.9997665,0.014957727,-0.015595284,-0.021036875,0.50914097,-0.860426,-0.00500899,0.860552,0.50933796,0.9997661,0.015024743,-0.015553042,10.022339,0.15672302,-0.15194702,9.80436,0.1466852,-0.1529375,0.010559082,0.0012054443,-0.001739502,-25.498962,39.118958,23.81897,1,0.0,0.0,0.0,0.0
2.224609375,-0.021006199,0.5084813,-0.8608167,-0.004975982,0.86094284,0.50867724,0.99976695,0.014968785,-0.015554943,-0.021037033,0.50917137,-0.860408,-0.0050051725,0.8605341,0.5093683,0.9997662,0.015022088,-0.015554592,10.053452,0.17228699,-0.13519287,9.804364,0.14679363,-0.15254188,0.016677856,0.004714966,0.0048217773,-25.619507,38.75885,23.519897,1,0.0,0.0,0.0,0.0
2.232910157,-0.020936998,0.5085158,-0.8607981,-0.005027866,0.86092234,0.5087115,0.99976814,0.014978868,-0.0154683795,-0.021035798,0.509144,-0.8604243,-0.005004026,0.8605503,0.50934094,0.9997662,0.015019977,-0.015554592,10.030716,0.17468262,-0.17347717,9.804377,0.14689252,-0.15169299,0.0014038086,0.008224487,0.002380371,-25.619507,38.75885,23.519897,1,0.0,0.0,0.0,0.0
2.241210938,-0.020877784,0.5015636,-0.8648688,-0.005216398,0.86499095,0.50176036,0.99976844,0.014987145,-0.015442739,-0.021033768,0.5091315,-0.8604317,-0.0050045354,0.86055773,0.5093283,0.99976623,0.015019155,-0.015552806,10.030716,0.16749573,-0.15792847,9.804379,0.14697368,-0.15144154,0.0014038086,0.0034942627,0.0031433105,-25.738525,38.75885,23.098755,1,0.0,0.0,0.0,0.0
2.249511719,-0.020845592,0.50359845,-0.8636863,-0.0051940037,0.86380786,0.50379467,0.9997692,0.014987888,-0.0153908925,-0.02102769,0.50883245,-0.8606087,-0.005012935,0.8607346,0.5090293,0.9997663,0.015017887,-0.015548515,10.036697,0.15911865,-0.15792847,9.804387,0.14698097,-0.1509331,0.008422852,0.014785767,0.0013122559,-25.679016,38.75885,23.2193,1,0.0,0.0,0.0,0.0
2.2578125,-0.02074339,0.5036497,-0.86365885,-0.0052857283,0.8637774,0.5038458,0.9997709,0.015016538,-0.015255519,-0.021020442,0.50862557,-0.86073124,-0.0050201816,0.8608569,0.50882244,0.9997664,0.015016698,-0.015542199,10.041473,0.16630554,-0.13998413,9.804403,0.14726193,-0.14960554,0.0017089844,0.021514893,-0.0067749023,-25.679016,38.75885,23.2193,1,0.0,0.0,0.0,0.0
2.266113282,-0.020613505,0.50371486,-0.863624,-0.0054087904,0.8637387,0.5039109,0.9997729,0.0150585305,-0.015080194,-0.021014936,0.5085262,-0.86079,-0.0050255163,0.86091554,0.5087231,0.9997665,0.0150166955,-0.015536479,10.041473,0.16630554,-0.13998413,9.804423,0.14767374,-0.14788619,0.008270264,0.015563965,0.0049743652,-25.679016,38.75885,23.2193,1,0.0,0.0,0.0,0.0
2.274414063,-0.02046488,0.5012731,-0.8650471,-0.005516976,0.86515856,0.5014682,0.99977535,0.015034931,-0.014939855,-0.020999067,0.508336,-0.8609028,-0.0050407974,0.8610279,0.5085328,0.99976677,0.015018351,-0.015518363,10.02713,0.14955139,-0.1483612,9.804447,0.14744231,-0.14650993,0.007507324,0.0146484375,0.005584717,-25.79956,39.118958,23.278809,1,0.0,0.0,0.0,0.0
2.282714844,-0.020348495,0.50133145,-0.8650161,-0.005531943,0.86512554,0.50152504,0.9997776,0.014990496,-0.014830664,-0.020977853,0.50805694,-0.86106807,-0.005059924,0.8611926,0.50825363,0.9997671,0.015019009,-0.015495242,10.045074,0.14596558,-0.14356995,9.804469,0.14700656,-0.14543913,0.010559082,0.0034942627,-0.0026550293,-25.79956,39.118958,23.278809,1,0.0,0.0,0.0,0.0
2.291015625,-0.02030723,0.5043492,-0.863261,-0.005476211,0.86336994,0.50454164,0.9997788,0.014973243,-0.01477073,-0.020965276,0.5079227,-0.8611475,-0.005069486,0.86127174,0.5081194,0.99976736,0.015018438,-0.015481893,10.040283,0.17347717,-0.1483612,9.8044815,0.14683737,-0.1448514,0.005065918,0.0033416748,0.0013122559,-25.91858,38.69934,23.2193,1,0.0,0.0,0.0,0.0
2.299316407,-0.020225504,0.4953876,-0.8684365,-0.0057098228,0.8685428,0.49558124,0.99977916,0.014981999,-0.014738142,-0.020939305,0.5077813,-0.8612315,-0.005085677,0.86135507,0.50797784,0.9997678,0.015016649,-0.015453766,10.016357,0.15792847,-0.1375885,9.804484,0.14692323,-0.1445318,0.009033203,-0.004135132,2.4414063E-4,-25.91858,38.69934,22.679138,1,0.0,0.0,0.0,0.0
2.307617188,-0.02023674,0.49538192,-0.8684395,-0.005702489,0.868546,0.49557558,0.9997789,0.0149811,-0.01475163,-0.02091138,0.50729257,-0.8615201,-0.0051107127,0.8616431,0.50748897,0.99976826,0.015015277,-0.015425521,10.040283,0.1603241,-0.12322998,9.804482,0.14691441,-0.14466408,0.006439209,-0.012237549,0.002532959,-25.91858,38.69934,22.679138,1,0.0,0.0,0.0,0.0
2.315917969,-0.020282248,0.4953586,-0.8684518,-0.005674665,0.8685594,0.4955525,0.99977815,0.014979092,-0.014805345,-0.020898018,0.5070553,-0.8616601,-0.0051227137,0.8617827,0.5072516,0.9997685,0.0150145935,-0.015412054,10.040283,0.1603241,-0.12322998,9.804475,0.14689472,-0.14519083,0.009811401,-0.015289307,0.0013122559,-25.91858,38.69934,22.679138,1,0.0,0.0,0.0,0.0
2.32421875,-0.020413902,0.5001644,-0.8656898,-0.0054919077,0.86580116,0.5003582,0.99977654,0.014968551,-0.0149275195,-0.020873806,0.5065938,-0.8619321,-0.005144893,0.8620541,0.5067901,0.99976885,0.015013187,-0.015387978,10.052246,0.1531372,-0.15553284,9.804459,0.14679134,-0.14638896,0.0056762695,-0.014373779,0.0028381348,-25.619507,38.519287,22.859192,1,0.0,0.0,0.0,0.0
2.332519532,-0.020520909,0.50011027,-0.8657186,-0.00541958,0.86583257,0.5003045,0.9997747,0.014958534,-0.015057282,-0.020855568,0.5063398,-0.8620819,-0.0051588207,0.8622034,0.50653595,0.9997692,0.0150114205,-0.015369626,10.064209,0.1651001,-0.13998413,9.804441,0.14669313,-0.1476615,0.0072021484,-0.017120361,0.001159668,-25.619507,38.519287,22.859192,1,0.0,0.0,0.0,0.0
2.340820313,-0.020639712,0.50273585,-0.8641937,-0.0052946215,0.8643107,0.5029304,0.9997729,0.0149559155,-0.015177327,-0.02084884,0.50621545,-0.86215496,-0.005164114,0.8622764,0.5064116,0.9997693,0.0150103625,-0.015363309,10.039093,0.15074158,-0.18902588,9.804423,0.14666744,-0.14883874,0.0072021484,-0.01727295,0.0068206787,-25.379944,38.459778,22.979736,1,0.0,0.0,0.0,0.0
2.349121094,-0.020740714,0.5010158,-0.8651896,-0.0052356846,0.8653095,0.50121075,0.9997712,0.014925327,-0.015323976,-0.02084045,0.50607777,-0.862236,-0.0051693865,0.86235726,0.50627387,0.9997694,0.0150082065,-0.0153558,10.0295105,0.15194702,-0.15792847,9.804406,0.14636746,-0.15027687,0.0043029785,-0.011474609,0.0036010742,-25.19989,38.63983,22.979736,1,0.0,0.0,0.0,0.0
2.357421875,-0.020820718,0.5009761,-0.86521065,-0.0051661353,0.8653328,0.5011711,0.9997699,0.014904537,-0.015428739,-0.020838492,0.50597674,-0.8622954,-0.005170701,0.8624166,0.50617284,0.9997695,0.015006549,-0.015355205,10.0295105,0.15194702,-0.15792847,9.804394,0.14616358,-0.15130424,0.003540039,-0.0030822754,-0.0015869141,-25.19989,38.63983,22.979736,1,0.0,0.0,0.0,0.0
2.365722657,-0.020895429,0.500939,-0.86523026,-0.00514707,0.8653539,0.5011349,0.99976844,0.01492483,-0.015503572,-0.020837935,0.5057789,-0.86241144,-0.0051704296,0.8625327,0.50597495,0.9997695,0.01500251,-0.015358305,10.0295105,0.16989136,-0.16749573,9.804379,0.14636259,-0.15203811,0.0027770996,-0.005218506,0.0029907227,-25.19989,38.63983,22.979736,1,0.0,0.0,0.0,0.0
2.374023438,-0.020931097,0.49908775,-0.8662987,-0.005160624,0.86642295,0.49928406,0.99976754,0.014921203,-0.015559578,-0.02084122,0.5054947,-0.862578,-0.0051690745,0.86269933,0.5056908,0.99976945,0.014997941,-0.0153667675,10.035492,0.15553284,-0.16390991,9.804371,0.14632702,-0.15258734,0.009185791,0.0019683838,-6.713867E-4,-25.079346,38.938904,23.039246,1,0.0,0.0,0.0,0.0
2.382324219,-0.020962404,0.49907237,-0.8663067,-0.0051413,0.86643183,0.49926883,0.999767,0.014919818,-0.015596612,-0.02084297,0.50536686,-0.86265284,-0.005168909,0.86277425,0.5055629,0.9997694,0.014996407,-0.015370582,10.035492,0.15553284,-0.16390991,9.804365,0.14631344,-0.15295053,0.012237549,-0.0019989014,0.005126953,-25.079346,38.938904,23.039246,1,0.0,0.0,0.0,0.0
2.390625,-0.020947969,0.4985204,-0.8666248,-0.0051462334,0.8667497,0.49871668,0.9997673,0.014906955,-0.015591144,-0.020845352,0.5052413,-0.86272633,-0.005168333,0.86284786,0.50543725,0.99976933,0.0149948755,-0.015375111,10.052246,0.15792847,-0.14476013,9.804368,0.14618729,-0.1528969,0.008575439,0.0025787354,0.006210327,-25.019836,38.99994,23.039246,1,0.0,0.0,0.0,0.0
2.398925782,-0.02095488,0.5008984,-0.8652524,-0.0050871684,0.8653778,0.5010942,0.9997675,0.014902054,-0.0155857345,-0.020849407,0.5049757,-0.8628817,-0.00516741,0.8630034,0.5051717,0.9997693,0.014991394,-0.015383693,10.042679,0.17347717,-0.1603241,9.80437,0.14613923,-0.15284385,0.009643555,0.0025787354,-0.001739502,-24.839783,38.75885,23.039246,1,0.0,0.0,0.0,0.0
2.407226563,-0.020950243,0.5009007,-0.8652512,-0.0051291,0.8653759,0.5010971,0.99976736,0.014936065,-0.015560666,-0.020851515,0.5048942,-0.86292934,-0.005165789,0.86305106,0.5050903,0.9997692,0.014989608,-0.015387746,10.042679,0.17347717,-0.1603241,9.804369,0.14647277,-0.15259801,0.0128479,0.0066986084,-0.007843018,-24.839783,38.75885,23.039246,1,0.0,0.0,0.0,0.0
2.415527344,-0.020922817,0.5009141,-0.8652441,-0.0051897704,0.8653674,0.501111,0.99976754,0.014975072,-0.0155062955,-0.020855466,0.50473624,-0.8630217,-0.005164284,0.86314356,0.5049323,0.99976915,0.014987487,-0.01539466,10.02713,0.14715576,-0.17108154,9.804371,0.1468553,-0.15206482,0.0068969727,0.0050201416,-6.713867E-4,-24.839783,38.75885,23.039246,1,0.0,0.0,0.0,0.0
2.423828125,-0.020884404,0.4974367,-0.8672488,-0.0053063883,0.86737055,0.49763435,0.9997678,0.014994757,-0.015474927,-0.020858223,0.50458497,-0.86311007,-0.005165229,0.86323196,0.50478107,0.9997691,0.014986997,-0.015399188,10.035492,0.15911865,-0.15672302,9.804373,0.14704834,-0.1517572,0.0070495605,-0.0021514893,0.003753662,-25.019836,38.69934,22.799683,1,0.0,0.0,0.0,0.0
2.432128907,-0.020881437,0.4974382,-0.86724806,-0.005314615,0.8673697,0.49763593,0.99976784,0.015000443,-0.015468233,-0.020858683,0.5044424,-0.8631934,-0.005168087,0.8633153,0.5046385,0.9997691,0.014987152,-0.015400618,10.035492,0.15911865,-0.15672302,9.804374,0.1471041,-0.15169156,0.0039978027,-0.0029144287,-9.765625E-4,-25.019836,38.69934,22.799683,1,0.0,0.0,0.0,0.0
2.440429688,-0.020936187,0.50162756,-0.8648302,-0.0051860376,0.8649537,0.50182474,0.99976736,0.014991341,-0.015507376,-0.020859554,0.5041657,-0.86335504,-0.005173902,0.86347693,0.50436187,0.99976903,0.014987678,-0.015403241,10.0295105,0.15074158,-0.16989136,9.804369,0.14701484,-0.15207541,0.010726929,-1.6784668E-4,0.0034484863,-25.138855,38.879395,23.15979,1,0.0,0.0,0.0,0.0
2.448730469,-0.02088531,0.50020176,-0.8656569,-0.005197087,0.86577976,0.5003981,0.9997684,0.014949866,-0.015482488,-0.020862628,0.5040652,-0.86341363,-0.0051743495,0.8635356,0.50426143,0.999769,0.014987823,-0.015407411,10.054642,0.13877869,-0.12083435,9.8043785,0.1466081,-0.15183134,0.011169434,-0.0032196045,0.0031433105,-25.19989,38.819885,23.039246,1,0.0,0.0,0.0,0.0
2.45703125,-0.02084135,0.5002235,-0.8656455,-0.005159604,0.8657682,0.5004186,0.9997694,0.0148957865,-0.015462822,-0.020863121,0.50398797,-0.8634587,-0.005174779,0.86358064,0.50418425,0.999769,0.0149870645,-0.015408961,10.054642,0.13877869,-0.12083435,9.804389,0.14607777,-0.1516385,0.004760742,-0.0032196045,0.0031433105,-25.19989,38.819885,23.039246,1,0.0,0.0,0.0,0.0
2.465332032,-0.020870563,0.5002091,-0.86565316,-0.0051527307,0.8657764,0.5004046,0.9997689,0.014904201,-0.015491798,-0.020862263,0.50383914,-0.8635456,-0.0051741726,0.8636676,0.50403535,0.999769,0.01498345,-0.015411108,10.021133,0.17468262,-0.14117432,9.804384,0.14616029,-0.15192264,0.006591797,-9.3078613E-4,-0.0014343262,-25.19989,38.819885,23.039246,1,0.0,0.0,0.0,0.0
2.473632813,-0.020888247,0.50015265,-0.86568534,-0.0051848446,0.8658084,0.50034887,0.9997684,0.014939852,-0.015492004,-0.020862365,0.5037666,-0.86358786,-0.0051737754,0.86370987,0.5039628,0.999769,0.014981865,-0.015412656,10.021133,0.17468262,-0.14117432,9.8043785,0.1465099,-0.15192467,0.003692627,-0.0021514893,-6.713867E-4,-25.318909,38.819885,23.039246,1,0.0,0.0,0.0,0.0
2.481933594,-0.020916866,0.50013846,-0.8656928,-0.005193365,0.8658162,0.50033516,0.99976766,0.014961302,-0.015512758,-0.020863865,0.5035543,-0.86371166,-0.0051744264,0.8638337,0.5037505,0.999769,0.014979394,-0.015417306,10.039093,0.16151428,-0.16270447,9.804372,0.14672026,-0.15212819,0.0073547363,2.89917E-4,-0.002960205,-25.318909,38.819885,23.039246,1,0.0,0.0,0.0,0.0
2.490234375,-0.020949787,0.50135595,-0.8649875,-0.0051695444,0.8651115,0.50155306,0.9997672,0.01497902,-0.015532119,-0.02086492,0.50348604,-0.86375135,-0.0051748003,0.8638735,0.5036822,0.9997689,0.014979032,-0.015419213,10.039093,0.16151428,-0.16270447,9.804367,0.14689401,-0.15231806,0.01210022,-3.2043457E-4,-0.0015869141,-25.559998,38.578796,22.979736,1,0.0,0.0,0.0,0.0
2.498535157,-0.020965492,0.501348,-0.8649917,-0.0051944,0.8651156,0.5015457,0.9997667,0.015008264,-0.015533371,-0.020866623,0.5034435,-0.8637761,-0.0051746885,0.86389834,0.5036397,0.99976885,0.014979032,-0.015421476,10.039093,0.16151428,-0.16270447,9.804362,0.1471808,-0.15233034,0.011489868,0.0050201416,-0.0020446777,-25.559998,38.578796,22.979736,1,0.0,0.0,0.0,0.0
2.506835938,-0.020927325,0.5016018,-0.86484545,-0.005216786,0.86496836,0.5017993,0.99976736,0.015013031,-0.015484724,-0.020870518,0.5033605,-0.8638244,-0.0051754704,0.8639466,0.5035568,0.99976873,0.0149801895,-0.015425886,10.0295105,0.1603241,-0.13400269,9.804369,0.14722754,-0.15185328,0.0059814453,0.003189087,0.006652832,-25.738525,38.339233,22.859192,1,0.0,0.0,0.0,0.0
2.515136719,-0.020910747,0.50161034,-0.864841,-0.0052158455,0.86496353,0.5018076,0.99976766,0.015004046,-0.015470711,-0.020872815,0.5032909,-0.8638649,-0.0051770755,0.86398715,0.5034872,0.99976873,0.01498149,-0.015428268,10.053452,0.16630554,-0.16390991,9.804372,0.14713943,-0.15171584,0.012710571,-6.2561035E-4,0.0020751953,-25.738525,38.339233,22.859192,1,0.0,0.0,0.0,0.0
2.5234375,-0.020901036,0.49921447,-0.8662264,-0.0052753086,0.8663485,0.49941215,0.99976766,0.015007841,-0.01547407,-0.020873664,0.5032573,-0.8638845,-0.005177797,0.86400676,0.5034536,0.9997687,0.01498194,-0.015429222,10.053452,0.16630554,-0.16390991,9.804372,0.14717665,-0.15174879,0.0137786865,-0.0030822754,-0.0014343262,-25.619507,38.279724,22.679138,1,0.0,0.0,0.0,0.0
2.531738282,-0.020908032,0.49921092,-0.8662282,-0.0052977307,0.8663501,0.49940905,0.99976736,0.0150307035,-0.015468991,-0.020874664,0.50309736,-0.8639776,-0.0051817084,0.8640999,0.50329375,0.9997687,0.014982967,-0.015430891,10.0295105,0.16989136,-0.13998413,9.804369,0.14740086,-0.15169899,0.0044555664,-0.002456665,0.002532959,-25.619507,38.279724,22.679138,1,0.0,0.0,0.0,0.0
2.540039063,-0.02092918,0.50290084,-0.8640906,-0.0052277856,0.8642131,0.5030987,0.9997673,0.015046725,-0.015458214,-0.020875929,0.5029436,-0.8640671,-0.0051863356,0.8641893,0.5031401,0.9997686,0.014984858,-0.015432321,10.010376,0.16989136,-0.13519287,9.804368,0.14755797,-0.1515933,0.0041503906,-1.5258789E-5,0.0013122559,-25.19989,38.63983,23.098755,1,0.0,0.0,0.0,0.0
2.548339844,-0.020922434,0.50290424,-0.8640889,-0.005240705,0.864211,0.5031022,0.99976736,0.015054557,-0.015445824,-0.020876959,0.50294274,-0.86406755,-0.0051871864,0.8641898,0.50313926,0.9997686,0.014986096,-0.015432797,10.010376,0.16989136,-0.13519287,9.804369,0.14763477,-0.1514718,0.004760742,-0.0035247803,0.0032958984,-25.19989,38.63983,23.098755,1,0.0,0.0,0.0,0.0
2.556640625,-0.020969817,0.50545263,-0.8625995,-0.005161576,0.862723,0.50565046,0.99976677,0.015055771,-0.0154822115,-0.020878725,0.50294125,-0.8640684,-0.005189323,0.86419064,0.5031378,0.9997685,0.014988806,-0.015433273,10.04985,0.17468262,-0.16151428,9.804363,0.14764668,-0.15182863,0.006286621,-0.006286621,0.004058838,-24.778748,38.69934,23.278809,1,0.0,0.0,0.0,0.0
2.564941407,-0.020996973,0.50543946,-0.8626065,-0.0050937263,0.86273146,0.5056367,0.9997666,0.015010721,-0.01554018,-0.02088251,0.50304073,-0.8640104,-0.0051881317,0.8641327,0.5032373,0.9997685,0.014991458,-0.015435419,10.010376,0.14596558,-0.16270447,9.804361,0.14720489,-0.15239711,0.0046081543,-0.0059814453,0.0032958984,-24.778748,38.69934,23.278809,1,0.0,0.0,0.0,0.0
2.573242188,-0.021027185,0.50446695,-0.8631749,-0.005049511,0.86330116,0.5046637,0.9997661,0.014970269,-0.015605483,-0.020884743,0.5030888,-0.8639824,-0.0051862844,0.86410475,0.50328535,0.99976844,0.014991843,-0.015437444,10.010376,0.14596558,-0.16270447,9.804357,0.14680819,-0.15303752,0.0072021484,-0.009033203,0.0059051514,-24.719238,38.69934,23.2193,1,0.0,0.0,0.0,0.0
2.581542969,-0.021045968,0.5044579,-0.86317974,-0.005011904,0.8633069,0.5046544,0.99976593,0.0149471145,-0.015640834,-0.020890305,0.5031434,-0.8639504,-0.0051809237,0.86407286,0.50334007,0.9997684,0.014990989,-0.015443999,10.033112,0.1603241,-0.13639832,9.804355,0.14658113,-0.1533842,0.0078125,-0.008117676,0.0032958984,-24.719238,38.69934,23.2193,1,0.0,0.0,0.0,0.0
2.58984375,-0.021075888,0.50367326,-0.8636371,-0.004959519,0.86376566,0.5038693,0.9997656,0.014902717,-0.015706653,-0.020896437,0.5031954,-0.86392,-0.0051742652,0.86404264,0.50339204,0.99976826,0.01498925,-0.015451746,10.033112,0.1483612,-0.15074158,9.804352,0.14614575,-0.15402965,0.006286621,-0.0032196045,0.0010070801,-24.958801,39.179993,23.458862,1,0.0,0.0,0.0,0.0
2.598144532,-0.02109398,0.50366455,-0.8636418,-0.004927502,0.86377114,0.5038603,0.99976534,0.014884015,-0.01573856,-0.020900052,0.50320494,-0.8639143,-0.0051699593,0.86403716,0.5034015,0.9997682,0.01498752,-0.015456872,10.033112,0.1483612,-0.15074158,9.804349,0.14596233,-0.15434255,0.0033874512,-0.0019989014,0.00390625,-24.958801,39.179993,23.458862,1,0.0,0.0,0.0,0.0
2.606445313,-0.021102224,0.503031,-0.86401063,-0.004937699,0.86414015,0.503227,0.99976516,0.014885434,-0.015751462,-0.02090788,0.5032232,-0.8639035,-0.005160276,0.8640266,0.5034197,0.9997681,0.014983421,-0.015468195,10.0247345,0.15672302,-0.1531372,9.804347,0.14597625,-0.15446909,0.008117676,-0.0016937256,0.0020751953,-24.778748,39.35852,23.519897,1,0.0,0.0,0.0,0.0
2.614746094,-0.021112172,0.50302625,-0.86401325,-0.0049360674,0.8641429,0.50322235,0.9997649,0.014888944,-0.015760962,-0.020915667,0.50321555,-0.86390775,-0.0051514083,0.86403114,0.50341207,0.99976796,0.014979541,-0.015479518,10.0247345,0.15672302,-0.1531372,9.804344,0.14601065,-0.15456223,0.0070495605,-0.0013885498,0.0031433105,-24.778748,39.35852,23.519897,1,0.0,0.0,0.0,0.0
2.623046875,-0.02110042,0.50048727,-0.8654867,-0.0049895607,0.86561596,0.50068367,0.9997649,0.014883035,-0.015767649,-0.020919574,0.50321174,-0.8639099,-0.0051471163,0.8640334,0.50340825,0.9997679,0.01497773,-0.01548512,10.0295105,0.15911865,-0.15672302,9.804345,0.14595272,-0.15462781,0.01133728,-1.6784668E-4,3.9672852E-4,-24.778748,39.419556,23.399353,1,0.0,0.0,0.0,0.0
2.631347657,-0.021134468,0.500471,-0.8654953,-0.005008797,0.8656248,0.50066817,0.9997641,0.014916444,-0.01578776,-0.020926623,0.5031039,-0.86397254,-0.0051409057,0.86409616,0.5033004,0.9997678,0.014973979,-0.015496205,10.02832,0.17706299,-0.17228699,9.804337,0.14628035,-0.15482503,6.4086914E-4,-1.6784668E-4,-0.0025024414,-24.778748,39.419556,23.399353,1,0.0,0.0,0.0,0.0
2.639648438,-0.021211175,0.50623703,-0.8621335,-0.004897015,0.8622645,0.50643444,0.999763,0.01496395,-0.015810592,-0.020934846,0.50299984,-0.8640329,-0.005135639,0.86415684,0.5031964,0.99976766,0.014971701,-0.015507766,10.04866,0.17228699,-0.17706299,9.804327,0.14674623,-0.15504897,0.010726929,-1.6784668E-4,-0.0076904297,-24.479675,39.538574,23.81897,1,0.0,0.0,0.0,0.0
2.647949219,-0.021269746,0.5062096,-0.86214817,-0.004943016,0.8622795,0.50640863,0.9997615,0.015032794,-0.015838262,-0.020940406,0.50306463,-0.863995,-0.0051308754,0.8641191,0.5032612,0.99976754,0.014971546,-0.015513844,10.04866,0.17228699,-0.17706299,9.804312,0.14742136,-0.1553203,0.007659912,-3.2043457E-4,-0.005706787,-24.479675,39.538574,23.81897,1,0.0,0.0,0.0,0.0
2.65625,-0.021280987,0.5092475,-0.86035687,-0.0049356073,0.86048776,0.50944704,0.99976134,0.015087922,-0.015798585,-0.020953389,0.5031894,-0.8639221,-0.005123526,0.86404645,0.5033861,0.9997673,0.014973972,-0.015526596,10.042679,0.16390991,-0.13279724,9.80431,0.14796197,-0.1549312,0.0059814453,-0.0032196045,0.0014648438,-24.539185,39.419556,23.939514,1,0.0,0.0,0.0,0.0
2.664550782,-0.021269778,0.5092527,-0.8603541,-0.0049707014,0.86048436,0.5094527,0.99976146,0.015112509,-0.015770968,-0.020966455,0.5034297,-0.86378175,-0.005116134,0.8639063,0.5036265,0.99976707,0.014978486,-0.01553744,10.019943,0.16630554,-0.13160706,9.804311,0.14820309,-0.15466036,0.010559082,-0.0044403076,0.0026855469,-24.539185,39.419556,23.939514,1,0.0,0.0,0.0,0.0
2.672851563,-0.021219537,0.50155824,-0.8648636,-0.005165836,0.86499184,0.50175935,0.9997615,0.015114846,-0.01576376,-0.020972513,0.5035464,-0.8637136,-0.005113275,0.86383826,0.50374323,0.99976695,0.014981166,-0.015542088,10.019943,0.16630554,-0.13160706,9.804312,0.14822601,-0.15458968,0.0099487305,-0.0016937256,0.0026855469,-25.19989,39.179993,23.339844,1,0.0,0.0,0.0,0.0
2.681152344,-0.021234684,0.5015509,-0.86486745,-0.0051471144,0.86499614,0.50175196,0.9997612,0.015106116,-0.015786381,-0.020982333,0.5034678,-0.86375916,-0.0051153125,0.863884,0.50366485,0.99976677,0.014986461,-0.015550907,10.017548,0.15911865,-0.15792847,9.804309,0.1481404,-0.15481152,0.0078125,4.4250488E-4,0.0031433105,-25.19989,39.179993,23.339844,1,0.0,0.0,0.0,0.0
2.689453125,-0.021216312,0.5017168,-0.86477166,-0.005137517,0.8649003,0.5019175,0.99976176,0.0150916185,-0.015772417,-0.020992402,0.50339204,-0.863803,-0.005116501,0.8639281,0.5035892,0.9997665,0.014991198,-0.015560321,10.022339,0.1651001,-0.15074158,9.804314,0.14799823,-0.15467457,0.008575439,-0.003692627,0.008956909,-25.439453,39.35852,23.458862,1,0.0,0.0,0.0,0.0
