Time,Rot1,Rot2,Rot3,Rot4,Rot5,Rot6,Rot7,Rot8,Rot9,FRot1,FRot2,FRot3,FRot4,FRot5,FRot6,FRot7,FRot8,FRot9,AccX,AccY,AccZ,GravX,GravY,GravZ,GyroX,GyroY,GyroZ,MagX,MagY,MagZ,Imid
0.0,0.0,0.0,0.0,0.0,0.0,0.0,0.0,0.0,0.0,1.0,0.0,0.0,0.0,1.0,0.0,0.0,0.0,1.0,0.0,0.0,0.0,9.806467,-0.057784542,0.015775293,0.0,0.0,0.0,0.0,0.0,0.0,0,0.0,0.0,0.0,0.0
0.008300781,0.0046913954,0.9184287,0.3955588,-0.0039797327,-0.39554286,0.9184389,0.99998105,-0.005882978,0.0017994527,1.0,0.0,0.0,0.0,1.0,0.0,0.0,0.0,1.0,10.067795,-0.06819153,0.047851563,9.806464,-0.057692308,0.017646603,-0.004776001,0.014007568,-0.003967285,-57.958984,-12.779236,30.358887,0,0.0,0.0,0.0,0.0
0.016601562,0.004653382,0.9184552,0.3954974,-0.0040802034,-0.39548093,0.91846496,0.9999808,-0.0058876793,0.0019071606,0.995013,0.078227445,-0.061883777,-0.07806207,0.99693555,0.005089123,0.06209225,-2.3296705E-4,0.9980704,10.039093,-0.09451294,0.009567261,9.806462,-0.057738412,0.018702857,-0.009048462,0.012023926,-0.0045776367,-57.958984,-12.779236,30.358887,0,0.0,0.0,0.0,0.0
0.024902343,0.0046237702,0.918476,0.39544964,-0.0041759145,-0.39543268,0.91848546,0.99998057,-0.00589823,0.0020070875,0.9890248,0.116027236,-0.0914742,-0.11550204,0.99324596,0.011032603,0.09213646,-3.460619E-4,0.9957463,10.071396,-0.06939697,0.01914978,9.806459,-0.057841875,0.019682804,-0.016540527,0.016448975,-0.0035095215,-57.958984,-12.779236,30.358887,0,0.0,0.0,0.0,0.0
0.033203125,0.0045851185,0.91613597,0.40084144,-0.004249434,-0.4008242,0.91614515,0.99998045,-0.005903983,0.0020552333,0.97088736,0.18884593,-0.14735968,-0.1866211,0.98200655,0.028907942,0.15016732,-5.659288E-4,0.9886604,10.022339,-0.08734131,-0.025131226,9.806458,-0.057898298,0.020154955,-0.013015747,0.014160156,-0.0047302246,-58.139038,-13.018799,30.419922,0,0.0,0.0,0.0,0.0
0.041503906,0.0045659207,0.9161496,0.40081054,-0.0042914096,-0.40079305,0.91615856,0.99998033,-0.0059031495,0.0021015834,0.9455705,0.25804558,-0.19826442,-0.25238845,0.9661324,0.05374212,0.2054176,-7.77317E-4,0.9786741,10.022339,-0.08734131,-0.025131226,9.8064575,-0.05789012,0.020609492,-0.009048462,0.011413574,-0.009765625,-58.139038,-13.018799,30.419922,0,0.0,0.0,0.0,0.0
0.049804687,0.0045666764,0.9188016,0.39469314,-0.0042797634,-0.3946757,0.91881055,0.99998045,-0.005885104,0.0021298975,0.93063223,0.29116315,-0.22169273,-0.28302425,0.956673,0.06836671,0.23199332,-8.798342E-4,0.972717,10.010376,-0.07417297,0.0,9.806458,-0.05771316,0.02088716,-0.009048462,0.00592041,-0.0077819824,-58.018494,-12.779236,30.419922,0,0.0,0.0,0.0,0.0
0.058105468,0.0044741454,0.91753846,0.39762193,-0.004313357,-0.3976045,0.91754675,0.9999806,-0.0058203223,0.0021787307,0.8970491,0.3541574,-0.26433954,-0.33938888,0.9351852,0.10121178,0.2830513,-0.001078044,0.9591041,10.046265,-0.044265747,0.01914978,9.80646,-0.057077866,0.021366049,-0.0055389404,0.007293701,-0.0025787354,-58.018494,-12.89978,30.419922,0,0.0,0.0,0.0,0.0
0.06640625,0.0044968356,0.91752255,0.39765844,-0.0043116934,-0.39764097,0.917531,0.99998057,-0.0058405665,0.0021679497,0.8593294,0.4132985,-0.30122632,-0.38956973,0.91059476,0.13803145,0.3313433,-0.0012658393,0.94350946,10.059433,-0.086135864,-0.034698486,9.806459,-0.057276394,0.021260325,-0.004776001,0.0138549805,-0.0018310547,-58.018494,-12.89978,30.419922,0,0.0,0.0,0.0,0.0
0.074707031,0.004437023,0.9175645,0.39756215,-0.0044204975,-0.39754418,0.9175723,0.99998033,-0.005828712,0.0022921793,0.83926326,0.44138968,-0.31750947,-0.41229805,0.89731455,0.15759759,0.3544678,-0.0013573343,0.93506724,10.055832,-0.06341553,0.033493042,9.8064575,-0.05716014,0.022478601,-0.004776001,0.015396118,-0.00289917,-58.018494,-12.89978,30.419922,0,0.0,0.0,0.0,0.0
0.083007812,0.004349637,0.9189593,0.3943284,-0.004582174,-0.39430967,0.91896623,0.99998003,-0.0058040507,0.0024957277,0.7973248,0.49465457,-0.34581798,-0.45310536,0.86908835,0.19844659,0.39870885,-0.0015344019,0.9170763,10.042679,-0.062210083,0.07298279,9.806455,-0.056918297,0.024474729,-0.0014190674,0.014465332,-0.0064086914,-57.899475,-12.779236,30.419922,0,0.0,0.0,0.0,0.0
0.091308593,0.004248755,0.91902953,0.39416587,-0.0047207153,-0.39414662,0.9190355,0.99997985,-0.0057655014,0.002663844,0.7537639,0.5440033,-0.36864665,-0.48779532,0.83908135,0.24082819,0.44033587,-0.0017034808,0.8978315,10.059433,-0.062210083,0.0657959,9.806453,-0.056540255,0.026123388,-0.013168335,0.0065307617,-0.005645752,-57.899475,-12.779236,30.419922,0,0.0,0.0,0.0,0.0
0.099609375,0.00417239,0.91962826,0.39276758,-0.004800842,-0.39274806,0.91963357,0.9999798,-0.005722685,0.0027762922,0.73159665,0.5672934,-0.37807998,-0.50297713,0.8235138,0.26237178,0.46019584,-0.0017847216,0.8878156,10.059433,-0.062210083,0.0657959,9.806452,-0.05612037,0.027226126,-0.013168335,0.0040893555,-0.0064086914,-58.31909,-12.599182,30.119324,0,0.0,0.0,0.0,0.0
0.107910156,0.0040443595,0.9160878,0.40095747,-0.004926335,-0.40093765,0.91609216,0.9999797,-0.0056802565,0.0028914195,0.6869401,0.6111516,-0.39320108,-0.5291876,0.7915112,0.30572948,0.49807006,-0.0019406657,0.8671346,10.023529,-0.08015442,0.023925781,9.806451,-0.05570429,0.028355138,-0.008743286,0.014160156,-0.002746582,-58.198547,-12.89978,30.059814,0,0.0,0.0,0.0,0.0
0.116210937,0.004003645,0.9161169,0.40089116,-0.0050040814,-0.400871,0.9161208,0.9999795,-0.005673914,0.002979379,0.6421054,0.6518466,-0.40348062,-0.5504594,0.7583479,0.34914583,0.5335682,-0.0020887542,0.84575444,10.041473,-0.053833008,0.049057007,9.806449,-0.055642094,0.029217727,-0.015625,0.008361816,-0.0015258789,-58.198547,-12.89978,30.059814,0,0.0,0.0,0.0,0.0
0.124511718,0.0039205565,0.91617656,0.40075585,-0.005144301,-0.40073517,0.91617954,0.9999791,-0.005653542,0.0031419825,0.61985284,0.67094445,-0.4069595,-0.5592651,0.7415045,0.37066653,0.55045897,-0.002160458,0.83485943,10.063019,-0.061019897,0.09690857,9.806445,-0.055442307,0.030812323,-0.011184692,1.2207031E-4,-0.004272461,-58.198547,-12.89978,30.059814,0,0.0,0.0,0.0,0.0
0.1328125,0.0038677962,0.9122846,0.40953866,-0.005221671,-0.4095177,0.9122873,0.9999789,-0.005667017,0.0031797187,0.5759511,0.70674574,-0.41084164,-0.5734734,0.707464,0.41306552,0.5825879,-0.0022987847,0.81276447,10.074982,-0.08375549,0.061019897,9.806443,-0.05557445,0.03118239,-0.01133728,-0.010574341,-0.0012207031,-58.198547,-13.139343,29.818726,0,0.0,0.0,0.0,0.0
0.141113281,0.0038945796,0.9122649,0.40958223,-0.0052003968,-0.4095613,0.91226774,0.9999789,-0.0056828894,0.0031490703,0.5329244,0.7397625,-0.41078335,-0.5836956,0.67286366,0.45448205,0.6126099,-0.0024321673,0.79038155,10.0295105,-0.07777405,0.025131226,9.806443,-0.05573011,0.030881831,-0.009506226,-0.018356323,-7.4768066E-4,-58.198547,-13.139343,29.818726,0,0.0,0.0,0.0,0.0
0.149414062,0.003916199,0.9083972,0.41809002,-0.0051161367,-0.41806954,0.90840065,0.99997926,-0.005696483,0.0030102404,0.5119167,0.7551731,-0.40945685,-0.58735037,0.65552074,0.47467056,0.62686586,-0.002497182,0.7791232,10.0295105,-0.07777405,0.025131226,9.806447,-0.055863414,0.029520376,-0.010269165,-0.020339966,-0.0024414063,-58.61969,-13.499451,29.87976,0,0.0,0.0,0.0,0.0
0.157714843,0.004044614,0.91206604,0.4100234,-0.004915292,-0.41000363,0.9120706,0.9999797,-0.0057043578,0.0028247647,0.47084472,0.7841387,-0.40426704,-0.5921744,0.62058014,0.51401335,0.6539378,-0.0026238747,0.7565437,10.065414,-0.07777405,0.017944336,9.806451,-0.055940643,0.027701478,-0.008285522,-0.018966675,-0.0019683838,-58.73871,-13.198853,29.93927,0,0.0,0.0,0.0,0.0
0.166015625,0.0041235024,0.9120077,0.4101524,-0.004755862,-0.41013336,0.9120131,0.99998015,-0.0057113166,0.002646197,0.45104626,0.7975033,-0.40068167,-0.5932622,0.6033087,0.5329715,0.66678125,-0.0026854847,0.7452487,10.065414,-0.07777405,0.017944336,9.806456,-0.056008883,0.02595033,-0.01423645,-0.017593384,-0.0015258789,-58.73871,-13.198853,29.93927,0,0.0,0.0,0.0,0.0
0.174316406,0.00420477,0.9119475,0.41028535,-0.004620704,-0.41026688,0.91195375,0.99998045,-0.005730363,0.0024887612,0.41280195,0.82234865,-0.39158306,-0.59321946,0.568977,0.56952256,0.6911478,-0.0028053084,0.722708,10.025925,-0.08375549,-0.0035858154,9.806458,-0.056195665,0.02440641,-0.017303467,7.324219E-4,-0.004272461,-58.73871,-13.198853,29.93927,0,0.0,0.0,0.0,0.0
0.182617187,0.004134623,0.90255064,0.4305637,-0.004695287,-0.43054512,0.9025568,0.99998045,-0.0057533523,0.002457593,0.37645438,0.8448234,-0.38020453,-0.5905239,0.5350372,0.60416615,0.71383727,-0.0029211412,0.7003055,10.066605,-0.093322754,0.039474487,9.806458,-0.056421116,0.024100756,-0.007369995,-0.009353638,-0.0024414063,-58.799744,-14.099121,30.119324,0,0.0,0.0,0.0,0.0
0.190917968,0.004169704,0.9025238,0.43061963,-0.0046797763,-0.43060103,0.90253013,0.99998033,-0.0057784873,0.0024281312,0.35875466,0.85545444,-0.37348732,-0.5884506,0.51786953,0.62091625,0.72458327,-0.0029777857,0.68918085,10.066605,-0.093322754,0.039474487,9.8064575,-0.056667604,0.023811834,-0.008895874,-0.009963989,-0.001663208,-58.799744,-14.099121,30.119324,0,0.0,0.0,0.0,0.0
0.19921875,0.004194822,0.89684826,0.44231844,-0.0046339855,-0.44230014,0.8968551,0.99998045,-0.005811845,0.0023006115,0.3248782,0.8750851,-0.35872024,-0.5826838,0.4839592,0.6528883,0.74493873,-0.003088694,0.6671257,10.071396,-0.093322754,-0.009567261,9.806458,-0.056994732,0.022561293,-0.006454468,-0.009811401,-0.0018310547,-59.098816,-14.518738,29.99878,0,0.0,0.0,0.0,0.0
0.207519531,0.0042137504,0.88914603,0.45760414,-0.0045827944,-0.45758623,0.8891534,0.9999806,-0.0058437767,0.0021466191,0.29275116,0.89290595,-0.3420755,-0.575165,0.45023182,0.68299085,0.76385987,-0.0031965314,0.6453741,10.054642,-0.08375549,0.009567261,9.80646,-0.057307873,0.021051142,-0.004623413,-0.018203735,-0.0059509277,-59.75952,-14.93988,29.579163,0,0.0,0.0,0.0,0.0
0.215820312,0.0042835316,0.88908815,0.4577159,-0.004450262,-0.4576986,0.8890962,0.9999809,-0.0058454275,0.001996109,0.27726567,0.90123194,-0.33302358,-0.5708638,0.4333248,0.69738376,0.7728119,-0.0032494764,0.6346268,10.054642,-0.08375549,0.009567261,9.806463,-0.057324063,0.019575143,-0.0055389404,-0.013473511,-0.005645752,-59.75952,-14.93988,29.579163,0,0.0,0.0,0.0,0.0
0.224121093,0.004288015,0.88908446,0.45772308,-0.004343002,-0.45770642,0.8890928,0.9999814,-0.005800335,0.0018986436,0.24784459,0.91647404,-0.31408343,-0.5611267,0.40008014,0.724619,0.789753,-0.0033522767,0.6134158,10.039093,-0.055038452,0.03111267,9.806467,-0.056881856,0.018619332,-0.008895874,-0.013626099,-0.004119873,-59.75952,-14.93988,29.579163,0,0.0,0.0,0.0,0.0
0.232421875,0.0042803143,0.8866059,0.4625058,-0.004264134,-0.4624896,0.8866144,0.9999817,-0.005767175,0.0018010057,0.2204601,0.92995876,-0.29423457,-0.5500935,0.36764756,0.7498216,0.8054778,-0.0034492202,0.5926159,10.040283,-0.051452637,0.01675415,9.806471,-0.056556668,0.017661832,-0.0030975342,-0.0096588135,3.2043457E-4,-59.458923,-15.299988,29.87976,0,0.0,0.0,0.0,0.0
0.240722656,0.004310783,0.8865809,0.46255362,-0.0041686697,-0.46253797,0.8865897,0.999982,-0.0057501285,0.0017019619,0.20745596,0.9361252,-0.28395697,-0.54418737,0.35164943,0.7617104,0.81290966,-0.0034955794,0.5823793,10.040283,-0.051452637,0.01675415,9.806474,-0.0563895,0.016690545,-0.007522583,-0.015609741,-9.1552734E-4,-59.458923,-15.299988,29.87976,0,0.0,0.0,0.0,0.0
0.249023437,0.0043304963,0.88436097,0.46678367,-0.0040779538,-0.46676856,0.88437015,0.9999823,-0.005733283,0.001585044,0.18290669,0.94730467,-0.26298097,-0.53167784,0.3203139,0.7840393,0.82696056,-0.0035848601,0.56224847,10.061813,-0.058624268,0.015548706,9.806478,-0.056224305,0.015543973,-0.010574341,-0.014694214,-0.0048828125,-59.75952,-15.478516,29.87976,0,0.0,0.0,0.0,0.0
0.257324218,0.0044244756,0.8875913,0.46061045,-0.003897321,-0.46059614,0.8876012,0.9999826,-0.005722317,0.001421332,0.16014357,0.95710933,-0.24144521,-0.5184337,0.28970382,0.8045485,0.8399884,-0.0036699378,0.5425919,10.065414,-0.07537842,-0.015548706,9.806479,-0.05611676,0.013938506,-0.003250122,-0.012710571,-6.1035156E-4,-60.058594,-15.299988,30.059814,0,0.0,0.0,0.0,0.0
0.265625,0.004500671,0.88752854,0.46073073,-0.0037537403,-0.46071714,0.887539,0.9999828,-0.0057239844,0.0012580155,0.14951743,0.96147114,-0.23068951,-0.51155555,0.2748806,0.81409556,0.8461415,-0.0037109854,0.53294533,10.065414,-0.07537842,-0.015548706,9.806482,-0.056133118,0.012336919,-0.012557983,-0.02217102,-0.001663208,-60.058594,-15.299988,30.059814,0,0.0,0.0,0.0,0.0
0.273925781,0.004555927,0.887483,0.46081796,-0.0036126235,-0.46080512,0.88749397,0.9999831,-0.00570812,0.0011067473,0.12956658,0.96928054,-0.20906386,-0.49744064,0.2459285,0.83190864,0.8577676,-0.0037907006,0.51402366,10.039093,-0.050247192,0.010772705,9.806484,-0.055977535,0.010853484,-0.008132935,-0.018051147,0.0027618408,-60.058594,-15.299988,30.059814,0,0.0,0.0,0.0,0.0
0.282226562,0.0046083853,0.88306946,0.46921974,-0.0034977868,-0.4692076,0.883081,0.99998325,-0.0057108076,9.264993E-4,0.111277334,0.9759611,-0.1873962,-0.48296884,0.2179106,0.84808964,0.8685381,-0.0038666308,0.49560732,10.019943,-0.06700134,-0.022735596,9.806486,-0.056003895,0.0090858545,-0.008285522,-0.0040130615,-0.005340576,-60.11963,-15.658569,30.059814,0,0.0,0.0,0.0,0.0
0.290527343,0.004651286,0.8830336,0.4692869,-0.0033918915,-0.46927536,0.8830455,0.9999835,-0.005699067,8.124199E-4,0.102637336,0.97894895,-0.17642158,-0.47565767,0.20406803,0.855632,0.873622,-0.0039035142,0.48658952,10.019943,-0.06700134,-0.022735596,9.806488,-0.055888757,0.007967118,-0.007827759,-0.0041656494,-0.0010528564,-60.11963,-15.658569,30.059814,0,0.0,0.0,0.0,0.0
0.298828125,0.0046019354,0.8731013,0.48751706,-0.0034185231,-0.48750564,0.8731131,0.99998355,-0.005684599,7.4124755E-4,0.086501166,0.9841865,-0.15457831,-0.4609097,0.17709067,0.86959827,0.88322127,-0.003974619,0.46893963,10.042679,-0.06341553,-0.025131226,9.806489,-0.055746872,0.0072691552,-0.00340271,0.0051574707,-0.003967285,-60.238647,-16.19873,29.579163,0,0.0,0.0,0.0,0.0
0.307128906,0.004679802,0.8775643,0.479436,-0.0034166356,-0.47942442,0.8775765,0.9999832,-0.005744942,7.547065E-4,0.07144727,0.9886409,-0.13222905,-0.44614118,0.15024279,0.8822614,0.8921061,-0.004042334,0.45180783,10.083359,-0.12322998,0.007171631,9.806485,-0.056338638,0.0074011427,-0.010726929,0.007751465,-0.006866455,-60.238647,-15.838623,29.579163,0,0.0,0.0,0.0,0.0
0.315429687,0.0046969056,0.8775496,0.47946295,-0.0034777708,-0.47945103,0.8775618,0.99998295,-0.005789287,7.999803E-4,0.0645314,0.99051255,-0.1213284,-0.43873563,0.13736181,0.8880556,0.89629614,-0.004076387,0.4434373,10.083359,-0.12322998,0.007171631,9.806483,-0.056773514,0.007845127,-0.010726929,0.003479004,-0.002746582,-60.238647,-15.838623,29.579163,0,0.0,0.0,0.0,0.0
0.323730468,0.0047079697,0.87754,0.47948036,-0.0035092395,-0.47946823,0.8775522,0.9999828,-0.0058141006,8.221762E-4,0.051687006,0.9936655,-0.09978655,-0.42396757,0.11230195,0.8986878,0.90420127,-0.004144218,0.4270865,10.066605,-0.10169983,0.0,9.806481,-0.057016853,0.008062795,-0.00843811,0.0065307617,-0.0038146973,-60.238647,-15.838623,29.579163,0,0.0,0.0,0.0,0.0
0.33203125,0.004748512,0.8804348,0.4741433,-0.003515401,-0.47413105,0.88044727,0.9999826,-0.005847619,8.4366463E-4,0.04573528,0.9949667,-0.08916089,-0.41662288,0.10011957,0.9035494,0.9079282,-0.0041776155,0.4191049,10.066605,-0.10169983,0.0,9.806479,-0.057345554,0.008273524,-0.009048462,0.0056152344,-0.00289917,-60.238647,-15.539551,29.458618,0,0.0,0.0,0.0,0.0
0.340332031,0.0047670077,0.88041896,0.47417277,-0.0035355682,-0.47416037,0.8804315,0.9999824,-0.0058734934,8.524552E-4,0.03481401,0.99704677,-0.06845201,-0.40204373,0.07667909,0.91240406,0.9149584,-0.0042437483,0.4035259,10.061813,-0.08973694,-0.011962891,9.806478,-0.057599295,0.00835973,-0.010726929,0.0036315918,-0.0025787354,-60.238647,-15.539551,29.458618,0,0.0,0.0,0.0,0.0
0.348632812,0.0047749733,0.88204443,0.47114217,-0.003556346,-0.4711296,0.88205695,0.9999823,-0.005887342,8.872239E-4,0.024989724,0.99852484,-0.04820418,-0.38767236,0.05412548,0.92020684,0.9214584,-0.004308286,0.38845307,10.04866,-0.088531494,0.0047912598,9.806477,-0.057735104,0.008700695,-0.010116577,0.0082092285,-0.009155273,-59.939575,-15.539551,29.699707,0,0.0,0.0,0.0,0.0
0.356933593,0.004739521,0.8820744,0.4710863,-0.0035899521,-0.4710735,0.88208663,0.9999823,-0.0058718454,9.3394186E-4,0.020489346,0.9990551,-0.038328256,-0.38057825,0.043243892,0.923737,0.9245217,-0.0043398677,0.3811047,10.04866,-0.088531494,0.0047912598,9.806477,-0.057583135,0.009158841,-0.013473511,0.0040893555,-0.006713867,-59.939575,-15.539551,29.699707,0,0.0,0.0,0.0,0.0
0.365234375,0.0047799284,0.8912596,0.4534681,-0.0035355475,-0.45345542,0.89127195,0.9999824,-0.0058634747,9.836066E-4,0.012205488,0.9997457,-0.01896324,-0.36660242,0.022118175,0.9301148,0.9302977,-0.0044005346,0.36677915,10.0785675,-0.08973694,0.020339966,9.806478,-0.057501044,0.009645886,-0.003250122,-0.0015563965,-0.003967285,-59.698486,-14.759827,29.638672,0,0.0,0.0,0.0,0.0
0.373535156,0.004701573,0.8913241,0.45334235,-0.003513005,-0.45332983,0.8913359,0.9999828,-0.005783275,9.998627E-4,0.005091504,0.99998665,-8.652534E-4,-0.35293168,0.002606558,0.9356455,0.93563527,-0.004458467,0.35294023,10.053452,-0.04067993,0.035888672,9.806481,-0.056714553,0.009805303,-0.011489868,-0.013168335,-0.00869751,-59.698486,-14.759827,29.638672,0,0.0,0.0,0.0,0.0
0.381835937,0.004638392,0.8910389,0.45390326,-0.0034171862,-0.45389137,0.8910504,0.9999834,-0.0056841136,9.3951967E-4,0.0018340815,0.99996644,0.007984317,-0.3462241,-0.0068555283,0.93812674,0.93815,-0.0044849636,0.3461999,10.053452,-0.04067993,0.035888672,9.806487,-0.055742115,0.009213541,-0.020965576,-0.020187378,-0.010223389,-59.75952,-14.878845,29.818726,0,0.0,0.0,0.0,0.0
0.390136718,0.004646141,0.8910325,0.45391563,-0.0032803647,-0.4539045,0.8910443,0.99998385,-0.005628926,8.140074E-4,-0.004133888,0.9996712,0.02530646,-0.3330731,-0.025238123,0.9425632,0.94289196,-0.0045324503,0.33306792,10.022339,-0.056228638,0.033493042,9.806491,-0.05520091,0.007982685,-0.007369995,-0.026153564,-7.4768066E-4,-59.75952,-14.878845,29.818726,0,0.0,0.0,0.0,0.0
0.3984375,0.004703126,0.8917411,0.4525216,-0.0030839213,-0.4525115,0.89175326,0.99998415,-0.005589568,6.218408E-4,-0.0068548582,0.9994063,0.033765905,-0.32663214,-0.03415235,0.94453436,0.9451267,-0.0045543797,0.3266723,10.022339,-0.056228638,0.033493042,9.806495,-0.05481494,0.0060981754,-0.013015747,-0.026153564,-7.4768066E-4,-59.579468,-14.93988,30.059814,0,0.0,0.0,0.0,0.0
0.406738281,0.0047390675,0.891712,0.4525784,-0.0029410194,-0.4525691,0.89172447,0.99998444,-0.005556984,4.7778705E-4,-0.011787393,0.9986687,0.050219245,-0.314025,-0.051378958,0.94802344,0.94934154,-0.004595373,0.31421256,10.036697,-0.041870117,0.0059814453,9.806498,-0.054495398,0.0046854904,-0.012557983,-0.00920105,-0.004425049,-59.579468,-14.93988,30.059814,0,0.0,0.0,0.0,0.0
0.415039062,0.004749952,0.8924231,0.45117447,-0.0028020465,-0.45116588,0.89243567,0.99998474,-0.0055032386,3.5759486E-4,-0.016116047,0.99768054,0.06613436,-0.30179507,-0.067911796,0.950951,0.9532366,-0.004633453,0.30218953,10.02713,-0.039474487,-0.013153076,9.806501,-0.05396834,0.003506808,-0.011642456,-0.012557983,-0.005493164,-59.51996,-14.819336,29.93927,0,0.0,0.0,0.0,0.0
0.423339843,0.0048297886,0.8923586,0.45130128,-0.0026634121,-0.45129347,0.89237165,0.9999848,-0.0055119675,1.9706675E-4,-0.01987534,0.9964792,0.08145045,-0.28994963,-0.083710305,0.9533739,0.9568355,-0.004667897,0.29059255,10.073776,-0.09211731,-0.04067993,9.806501,-0.054053936,0.0019325647,-0.011489868,-0.0096588135,-0.0048828125,-59.51996,-14.819336,29.93927,0,0.0,0.0,0.0,0.0
0.431640625,0.0049502016,0.90181065,0.43210322,-0.002437292,-0.43209633,0.9018242,0.99998474,-0.0055173724,5.901205E-5,-0.021564275,0.9958061,0.088911295,-0.28417024,-0.09136897,0.95441025,0.9585313,-0.004684778,0.28494877,10.073776,-0.09211731,-0.04067993,9.806501,-0.054106947,5.787106E-4,-0.009811401,-0.002029419,-0.008087158,-59.21936,-14.279175,30.479431,0,0.0,0.0,0.0,0.0
0.439941406,0.0049928008,0.901778,0.4321707,-0.0023496735,-0.4321643,0.90179175,0.99998474,-0.0055179265,-3.882607E-5,-0.024356637,0.9944217,0.10262613,-0.27292025,-0.1053713,0.95624864,0.9617283,-0.0047177486,0.27396435,10.034302,-0.10169983,-0.049057007,9.806501,-0.05411238,-3.807537E-4,-0.010421753,0.0014953613,-0.0073242188,-59.21936,-14.279175,30.479431,0,0.0,0.0,0.0,0.0
0.448242187,0.0049783546,0.89728034,0.44143307,-0.0023423634,-0.44142684,0.89729404,0.9999848,-0.0055010454,-9.582275E-5,-0.026741356,0.9929065,0.1158513,-0.2620595,-0.11880263,0.9577112,0.9646812,-0.004749436,0.26337752,10.040283,-0.086135864,-0.046661377,9.806501,-0.053946827,-9.3970017E-4,-0.0070648193,8.8500977E-4,-0.0076293945,-59.339905,-14.4592285,30.059814,0,0.0,0.0,0.0,0.0
0.456542968,0.004992067,0.89726955,0.44145495,-0.002295029,-0.44144902,0.89728343,0.9999849,-0.0054924507,-1.4448349E-4,-0.02784571,0.99208045,0.12247893,-0.25676808,-0.12551405,0.9582882,0.9660718,-0.004764468,0.25822964,10.040283,-0.086135864,-0.046661377,9.806502,-0.053862542,-0.001416899,-0.008895874,0.0031738281,-0.00793457,-59.339905,-14.4592285,30.059814,0,0.0,0.0,0.0,0.0
0.46484375,0.005045666,0.8989994,0.43792075,-0.0022574603,-0.43791497,0.8990136,0.99998474,-0.0055247108,-1.80117E-4,-0.029785756,0.99034786,0.13536586,-0.24647117,-0.13852122,0.9591996,0.9686923,-0.0047932966,0.24821815,10.036697,-0.1040802,-0.041870117,9.8065,-0.054178905,-0.0017663444,-0.0043182373,0.0016479492,-0.0010528564,-59.339905,-14.338684,30.119324,0,0.0,0.0,0.0,0.0
0.473144531,0.0050863423,0.8989676,0.43798578,-0.002277788,-0.43797988,0.8989819,0.99998444,-0.005570168,-1.8005821E-4,-0.03135754,0.9885469,0.1476201,-0.23655604,-0.15083678,0.9598383,0.9711117,-0.0048222607,0.23857662,10.035492,-0.09451294,-0.0143585205,9.806498,-0.05462469,-0.0017657679,-0.014083862,-0.0038604736,-6.1035156E-4,-59.339905,-14.338684,30.119324,0,0.0,0.0,0.0,0.0
0.481445312,0.005145212,0.90066165,0.43449074,-0.0022443342,-0.43448502,0.9006763,0.99998426,-0.0056093126,-2.1413172E-4,-0.032031022,0.98761797,0.15357338,-0.2317383,-0.15680361,0.9600573,0.97225064,-0.0048372187,0.23389149,10.035492,-0.09451294,-0.0143585205,9.806496,-0.055008568,-0.002099915,-0.0067596436,-0.008895874,-0.006713867,-59.339905,-14.219666,30.178833,0,0.0,0.0,0.0,0.0
0.489746093,0.0051710983,0.9006415,0.4345321,-0.002223966,-0.43452647,0.9006563,0.99998415,-0.005623767,-2.4398316E-4,-0.033136956,0.9857385,0.16498934,-0.22238106,-0.16821368,0.9603389,0.9743965,-0.0048677935,0.22478366,10.07019,-0.093322754,0.015548706,9.806495,-0.05515032,-0.0023926576,-0.013320923,-0.007827759,-0.0022735596,-59.339905,-14.219666,30.178833,0,0.0,0.0,0.0,0.0
0.498046875,0.0051874183,0.89813244,0.43969434,-0.0021744785,-0.4396891,0.8981474,0.9999842,-0.005615173,-3.2788177E-4,-0.033996165,0.9838091,0.17596559,-0.2133811,-0.17915256,0.9604024,0.97637737,-0.00489773,0.21601677,10.045074,-0.07777405,-0.0143585205,9.806495,-0.055066034,-0.0032154217,-0.0124053955,-0.011947632,-0.009002686,-59.75952,-14.4592285,30.239868,0,0.0,0.0,0.0,0.0
0.506347656,0.0052210577,0.8981059,0.43974817,-0.0020843914,-0.43974346,0.89812106,0.99998426,-0.0056057493,-4.2392174E-4,-0.034365233,0.98280835,0.18140236,-0.2090071,-0.18456341,0.9603397,0.9773102,-0.004912079,0.21175648,10.045074,-0.07777405,-0.0143585205,9.806496,-0.05497362,-0.004157252,-0.011489868,-0.011184692,-0.002746582,-59.75952,-14.4592285,30.239868,0,0.0,0.0,0.0,0.0
0.514648437,0.0052569574,0.8977084,0.44055858,-0.0020095946,-0.4405543,0.8977236,0.99998415,-0.00560464,-5.119453E-4,-0.034945138,0.9807811,0.19195653,-0.20051219,-0.1950489,0.96007854,0.97906774,-0.0049395477,0.20347457,10.067795,-0.086135864,-0.01914978,9.806495,-0.054962743,-0.0050204685,-0.010879517,1.2207031E-4,-0.007171631,-60.17914,-14.399719,30.059814,0,0.0,0.0,0.0,0.0
0.522949218,0.005257869,0.89770776,0.44056007,-0.001977976,-0.44055596,0.897723,0.99998426,-0.0055915266,-5.4074114E-4,-0.03533873,0.97872144,0.20212723,-0.19234717,-0.20513308,0.9596473,0.9806904,-0.0049658846,0.19550346,10.0247345,-0.06819153,0.011962891,9.806496,-0.054834146,-0.0053028595,-0.015014648,-0.0014038086,-0.0065612793,-60.17914,-14.399719,30.059814,0,0.0,0.0,0.0,0.0
0.53125,0.005214977,0.89633316,0.4433506,-0.0019949446,-0.44334647,0.8963482,0.99998444,-0.0055588945,-5.2390655E-4,-0.03546976,0.97768515,0.2070597,-0.18838654,-0.21001674,0.95937663,0.98145425,-0.0049783974,0.19163196,10.0247345,-0.06819153,0.011962891,9.806498,-0.054514136,-0.0051377686,-0.012252808,-0.0027770996,-1.373291E-4,-60.058594,-14.399719,29.818726,0,0.0,0.0,0.0,0.0
0.539550781,0.005192561,0.8963512,0.44331416,-0.0019791978,-0.44331002,0.89636606,0.9999845,-0.005531843,-5.2785827E-4,-0.035635658,0.9755776,0.21674499,-0.18069915,-0.219598,0.9587098,0.98289263,-0.005001385,0.18411157,10.02832,-0.053833008,0.0035858154,9.806499,-0.054248847,-0.0051765214,-0.0035552979,-0.004470825,-0.004119873,-60.058594,-14.399719,29.818726,0,0.0,0.0,0.0,0.0
0.547851562,0.005229054,0.897387,0.44121328,-0.0018977914,-0.4412096,0.89740205,0.9999845,-0.005529895,-6.0405553E-4,-0.035655014,0.9734655,0.22603895,-0.17332065,-0.22877863,0.95792496,0.9842198,-0.0050223917,0.17687878,10.057037,-0.06700134,-0.03111267,9.806499,-0.054229748,-0.005923761,-0.010726929,-0.007369995,-0.0021362305,-59.999084,-14.399719,29.99878,0,0.0,0.0,0.0,0.0
0.556152343,0.005265456,0.89735794,0.44127214,-0.0018043373,-0.441269,0.89737314,0.9999845,-0.005521282,-7.0434634E-4,-0.0356065,0.9724209,0.23049918,-0.16974428,-0.23317884,0.9575043,0.9848447,-0.005032541,0.17336556,10.057037,-0.06700134,-0.03111267,9.806498,-0.054145277,-0.0069072777,-0.016235352,-0.009353638,-0.004119873,-59.999084,-14.399719,29.99878,0,0.0,0.0,0.0,0.0
0.564453125,0.0053235316,0.8900491,0.4558336,-0.001782213,-0.4558309,0.89006466,0.99998426,-0.0055506798,-8.403732E-4,-0.03542067,0.9703364,0.23914976,-0.16280636,-0.24170583,0.9565941,0.98602206,-0.005051895,0.16653833,10.045074,-0.09690857,-0.058624268,9.806496,-0.054433577,-0.008241246,-0.008285522,-9.460449E-4,-7.4768066E-4,-60.17914,-14.819336,29.638672,0,0.0,0.0,0.0,0.0
0.572753906,0.0053881085,0.88999534,0.45593783,-0.0017294257,-0.45593548,0.8900112,0.99998397,-0.005583987,-9.174489E-4,-0.035226796,0.9681027,0.24806488,-0.15612403,-0.2505023,0.9554443,0.98710907,-0.005071647,0.1599685,10.046265,-0.098098755,-0.04067993,9.806493,-0.05476021,-0.0089971,-0.009353638,0.0056152344,-0.0045776367,-60.17914,-14.819336,29.638672,0,0.0,0.0,0.0,0.0
0.581054687,0.0054330993,0.89143854,0.453109,-0.0017053693,-0.45310676,0.8914546,0.9999837,-0.00561608,-9.415423E-4,-0.03508888,0.96698993,0.25238705,-0.15288503,-0.25476384,0.95484114,0.98762083,-0.005081894,0.15677767,10.046265,-0.098098755,-0.04067993,9.806491,-0.05507493,-0.009233376,-0.0055389404,0.008361816,-0.0047302246,-60.4187,-14.819336,29.87976,0,0.0,0.0,0.0,0.0
0.589355468,0.0054392074,0.8914335,0.4531188,-0.001722226,-0.4531165,0.89144963,0.9999837,-0.005629153,-9.2934474E-4,-0.03472092,0.9648103,0.26064464,-0.14661184,-0.26289755,0.95361936,0.9885846,-0.005103048,0.15058066,10.021133,-0.093322754,-0.041870117,9.806491,-0.055203136,-0.009113759,-0.008590698,0.005004883,-0.0010528564,-60.4187,-14.819336,29.87976,0,0.0,0.0,0.0,0.0
0.59765625,0.005405154,0.88594884,0.46375152,-0.0018978557,-0.46374837,0.8859649,0.99998355,-0.00566891,-8.252284E-4,-0.034268867,0.9626524,0.26856297,-0.14059873,-0.27069202,0.95234334,0.9894734,-0.0051238816,0.14462401,10.052246,-0.107681274,0.009567261,9.806489,-0.055593017,-0.008092727,-0.010726929,0.0016479492,-0.0035095215,-60.598755,-15.238953,29.818726,0,0.0,0.0,0.0,0.0
0.605957031,0.0054273256,0.8859301,0.46378696,-0.0019692618,-0.46378338,0.88594633,0.99998325,-0.0057216375,-7.724752E-4,-0.03404769,0.96151733,0.27262652,-0.13768044,-0.27469638,0.95162284,0.98989135,-0.0051347823,0.14173491,10.052246,-0.107681274,0.009567261,9.806486,-0.0561101,-0.007575394,-0.008285522,-9.460449E-4,-0.0024414063,-60.598755,-15.238953,29.818726,0,0.0,0.0,0.0,0.0
0.614257812,0.0055110627,0.89136606,0.45325074,-0.0019090194,-0.4532474,0.8913827,0.99998295,-0.0057777297,-7.962396E-4,-0.033807084,0.96038854,0.27660608,-0.1348249,-0.27861688,0.9508916,0.99029255,-0.0051465193,0.13890353,10.04866,-0.105285645,-0.026321411,9.806483,-0.056660175,-0.007808443,-0.00843811,-0.0014038086,0.002609253,-60.238647,-14.759827,29.759216,0,0.0,0.0,0.0,0.0
0.622558593,0.0055665327,0.89132005,0.4533403,-0.0019542433,-0.45333675,0.8913371,0.9999826,-0.0058475947,-7.816576E-4,-0.03321153,0.9582869,0.28387177,-0.12930866,-0.28576118,0.9495366,0.9910481,-0.0051715155,0.13340536,10.04866,-0.105285645,-0.009567261,9.806479,-0.057345316,-0.007665443,-0.009506226,0.006072998,4.7302246E-4,-60.238647,-14.759827,29.759216,0,0.0,0.0,0.0,0.0
0.630859375,0.0055673057,0.8928153,0.4503884,-0.0019633858,-0.45038477,0.89283234,0.9999826,-0.005854957,-7.5448863E-4,-0.032561023,0.9562173,0.29084057,-0.12402383,-0.2926114,0.94815433,0.9917449,-0.0051982882,0.12812147,10.061813,-0.07537842,-0.009567261,9.806479,-0.057417516,-0.0073990063,-0.008285522,-0.0070648193,-0.005645752,-59.81903,-14.639282,29.759216,0,0.0,0.0,0.0,0.0
0.639160156,0.0055599026,0.89282143,0.45037657,-0.0019581176,-0.45037293,0.89283836,0.9999826,-0.005845984,-7.5578014E-4,-0.032210536,0.95521533,0.29415315,-0.12146769,-0.29586557,0.94747514,0.99207264,-0.0052114213,0.12555778,10.025925,-0.08135986,-0.008377075,9.806479,-0.05732952,-0.007411672,-0.008285522,0.0025634766,-0.0051879883,-59.81903,-14.639282,29.759216,0,0.0,0.0,0.0,0.0
0.647460937,0.0055569173,0.8928238,0.4503717,-0.0019635307,-0.45036805,0.89284074,0.9999826,-0.0058457614,-7.4957096E-4,-0.0314815,0.95323986,0.30057058,-0.116516404,-0.30216938,0.94610655,0.9926897,-0.00523655,0.12058083,10.034302,-0.086135864,-0.027511597,9.80648,-0.05732734,-0.0073507805,-0.0035552979,0.0051574707,-0.0018310547,-59.81903,-14.639282,29.759216,0,0.0,0.0,0.0,0.0
0.655761718,0.0055479626,0.89826065,0.4394279,-0.0019251925,-0.43942428,0.8982775,0.9999828,-0.0058295936,-7.085844E-4,-0.0307204,0.9513035,0.30672118,-0.11177294,-0.30821088,0.944729,0.99325883,-0.0052606747,0.115798354,10.042679,-0.055038452,-0.01675415,9.80648,-0.05716878,-0.0069488385,-0.013473511,0.012481689,0.002456665,-59.51996,-14.219666,29.818726,0,0.0,0.0,0.0,0.0
0.6640625,0.005477934,0.9004825,0.43485773,-0.0020056684,-0.43485346,0.9004989,0.99998295,-0.0058050547,-5.760295E-4,-0.03030353,0.9504265,0.30946925,-0.10948436,-0.31090468,0.9441141,0.9935265,-0.005272053,0.11347834,10.055832,-0.04547119,0.03111267,9.806483,-0.05692814,-0.00564892,-0.015457153,0.007446289,-0.005340576,-59.81903,-13.978577,29.699707,0,0.0,0.0,0.0,0.0
0.672363281,0.005400819,0.9005439,0.4347314,-0.002071788,-0.43472672,0.90055996,0.99998325,-0.005764433,-4.8214415E-4,-0.029439364,0.9487665,0.31460366,-0.105062045,-0.31593373,0.9429464,0.9940298,-0.0052931593,0.10898023,10.042679,-0.06819153,-0.013153076,9.806486,-0.05652978,-0.004728219,-0.008743286,-3.3569336E-4,-0.0035095215,-59.81903,-13.978577,29.699707,0,0.0,0.0,0.0,0.0
0.680664062,0.0053823027,0.899467,0.4369555,-0.0020702542,-0.43695086,0.89948297,0.9999834,-0.0057458985,-4.8967655E-4,-0.028567625,0.94714904,0.31951928,-0.10082739,-0.32074985,0.941782,0.99449366,-0.005311822,0.10466163,10.042679,-0.06819153,-0.013153076,9.806487,-0.056348015,-0.004802087,-0.0053863525,-0.0015563965,-0.0025787354,-59.939575,-14.039612,29.638672,0,0.0,0.0,0.0,0.0
0.688964843,0.005397376,0.8994549,0.43698025,-0.0020617736,-0.43697563,0.89947087,0.99998325,-0.0057557374,-5.0404953E-4,-0.02813456,0.9463398,0.32194647,-0.09877528,-0.32312965,0.94118583,0.994712,-0.005320504,0.10256609,10.031906,-0.08255005,-0.009567261,9.806486,-0.056444503,-0.0049430374,-0.0050811768,-0.0035552979,-0.0021362305,-59.939575,-14.039612,29.638672,0,0.0,0.0,0.0,0.0
0.697265625,0.005420329,0.8994365,0.43701795,-0.0020455937,-0.43701348,0.8994526,0.9999832,-0.0057692896,-5.288749E-4,-0.027264565,0.9447519,0.3266503,-0.09479985,-0.3277427,0.93999875,0.9951229,-0.005337739,0.0984981,10.069,-0.07537842,-0.013153076,9.806485,-0.056577407,-0.005186491,-0.007369995,-0.0035552979,-1.373291E-4,-59.939575,-14.039612,29.638672,0,0.0,0.0,0.0,0.0
0.705566406,0.005465386,0.906823,0.4214763,-0.0019834968,-0.42147195,0.90683925,0.9999831,-0.005792224,-5.048266E-4,-0.026392031,0.9432053,0.33116043,-0.09098984,-0.33216727,0.93882143,0.995502,-0.0053548277,0.09458867,10.043869,-0.07896423,0.008377075,9.806484,-0.056802314,-0.004950658,-0.014083862,0.007293701,-0.005340576,-59.698486,-13.499451,29.818726,0,0.0,0.0,0.0,0.0
0.713867187,0.005508117,0.91397315,0.40573722,-0.0019126486,-0.405733,0.9139896,0.99998295,-0.0058103944,-4.867155E-4,-0.025925063,0.94256264,0.33302197,-0.08915451,-0.3339865,0.93835205,0.9956804,-0.0053635756,0.09269233,10.039093,-0.08734131,-0.01675415,9.806483,-0.056980506,-0.0047730487,-0.008590698,0.004852295,-0.0022735596,-59.399414,-12.95929,29.99878,0,0.0,0.0,0.0,0.0
0.722167968,0.005515255,0.91396785,0.40574908,-0.0019929195,-0.40574437,0.91398436,0.9999828,-0.005849482,-4.163194E-4,-0.024939757,0.94153637,0.33598703,-0.085616566,-0.3368684,0.9376511,0.99601597,-0.0053812694,0.089012526,10.051056,-0.093322754,0.01914978,9.806481,-0.057363823,-0.004082699,-0.00630188,0.0024108887,0.0029144287,-59.399414,-12.95929,29.99878,0,0.0,0.0,0.0,0.0
0.73046875,0.0055593075,0.9151692,0.40303162,-0.0020351403,-0.40302667,0.915186,0.9999825,-0.0059080264,-3.780517E-4,-0.023972498,0.9405423,0.3388297,-0.08222715,-0.33963376,0.9369566,0.99632525,-0.005399811,0.085479975,10.051056,-0.093322754,0.01914978,9.8064785,-0.05793795,-0.003707421,-0.0026397705,-0.0027770996,-0.0012207031,-59.21936,-12.719727,29.699707,0,0.0,0.0,0.0,0.0
0.738769531,0.0055988883,0.91513973,0.4030979,-0.0020577633,-0.4030928,0.9151567,0.9999822,-0.005953341,-3.7373067E-4,-0.023490503,0.9400774,0.3401509,-0.0805876,-0.3409181,0.9366326,0.9964707,-0.005409975,0.08376692,10.08934,-0.102890015,0.0023956299,9.806476,-0.05838233,-0.0036650458,-0.0030975342,-0.0096588135,-0.0012207031,-59.21936,-12.719727,29.699707,0,0.0,0.0,0.0,0.0
0.747070312,0.0056618466,0.9150928,0.4032034,-0.0020206315,-0.40319857,0.91511035,0.999982,-0.0059959395,-4.3378316E-4,-0.022541009,0.9391694,0.3427138,-0.07741048,-0.34341133,0.9359895,0.9967445,-0.0054314923,0.0804424,10.051056,-0.112457275,-0.028717041,9.806474,-0.058800083,-0.0042539597,-0.0096588135,-0.01499939,-0.0036621094,-59.21936,-12.719727,29.699707,0,0.0,0.0,0.0,0.0
0.755371093,0.005645972,0.90947056,0.41572982,-0.0020687634,-0.4157249,0.90948796,0.9999819,-0.005994991,-4.6569208E-4,-0.02161113,0.93828946,0.34517488,-0.074362025,-0.34580773,0.9353541,0.9969971,-0.005453844,0.077246405,10.043869,-0.07537842,0.037094116,9.806473,-0.05879078,-0.0045668795,-0.009353638,-0.00920105,-0.0019683838,-59.698486,-13.259888,29.818726,0,0.0,0.0,0.0,0.0
0.763671875,0.0056488127,0.90817803,0.41854617,-0.0020649054,-0.41854137,0.90819544,0.9999819,-0.0059944834,-4.8896007E-4,-0.021174235,0.93776524,0.34662372,-0.07287849,-0.34722686,0.93494505,0.997116,-0.005464667,0.07569518,10.066605,-0.090927124,-0.0011901855,9.806473,-0.058785804,-0.0047950605,-0.00920105,-0.009963989,-0.004425049,-59.81903,-13.259888,29.579163,0,0.0,0.0,0.0,0.0
0.771972656,0.005679787,0.90815395,0.418598,-0.002016095,-0.4185935,0.90817153,0.9999818,-0.0060021537,-5.465973E-4,-0.020321943,0.9366989,0.3495457,-0.07000025,-0.35009298,0.93409574,0.99734,-0.005485647,0.07268373,10.042679,-0.071777344,-0.052642822,9.806472,-0.05886102,-0.0053602885,-0.013015747,-0.0018615723,-0.00579834,-59.81903,-13.259888,29.579163,0,0.0,0.0,0.0,0.0
0.780273437,0.005681001,0.90815294,0.41859996,-0.0019262575,-0.418596,0.9081705,0.999982,-0.0059656496,-6.2870805E-4,-0.01990173,0.9361781,0.3509622,-0.06860501,-0.35148308,0.93367714,0.9974454,-0.005495977,0.071221635,10.051056,-0.058624268,-0.008377075,9.806474,-0.05850304,-0.00616552,-0.01210022,0.0036315918,-0.0077819824,-59.81903,-13.259888,29.579163,0,0.0,0.0,0.0,0.0
0.788574218,0.0056632794,0.9080578,0.4188065,-0.0018439111,-0.41880304,0.9080752,0.9999823,-0.0059149256,-6.974206E-4,-0.019074772,0.9351616,0.3537075,-0.06589777,-0.35417852,0.93285316,0.99764407,-0.005514576,0.068380944,10.051056,-0.06700134,-0.08015442,9.806477,-0.05800561,-0.00683936,-0.015151978,0.010345459,-0.0073242188,-59.939575,-13.378906,29.818726,0,0.0,0.0,0.0,0.0
0.796875,0.0056378534,0.9080775,0.41876414,-0.0017848869,-0.418761,0.90809464,0.9999825,-0.005867152,-7.400975E-4,-0.018267315,0.9341747,0.35634792,-0.06329874,-0.35677296,0.93204415,0.9978274,-0.0055304295,0.06564937,10.051056,-0.06700134,-0.08015442,9.8064785,-0.05753711,-0.007257877,-0.010116577,0.008666992,-0.008392334,-59.939575,-13.378906,29.818726,0,0.0,0.0,0.0,0.0
0.805175781,0.005625944,0.90912867,0.4164771,-0.0017096982,-0.41647434,0.90914565,0.99998266,-0.005826854,-7.887258E-4,-0.017870978,0.9336939,0.35762602,-0.06203857,-0.35802945,0.931647,0.9979138,-0.005537164,0.06432337,10.061813,-0.058624268,-0.0382843,9.80648,-0.057141922,-0.007734758,-0.005996704,0.0025634766,-0.0045776367,-59.579468,-13.319397,29.87976,0,0.0,0.0,0.0,0.0
0.813476562,0.005592327,0.9091545,0.4164216,-0.0016742481,-0.416419,0.9091713,0.99998295,-0.0057815756,-8.066008E-4,-0.01708716,0.9327918,0.36001036,-0.059595834,-0.36037293,0.9309026,0.9980763,-0.0055486364,0.061748255,10.059433,-0.08494568,-0.041870117,9.806482,-0.056697886,-0.007910051,-0.01576233,0.0018005371,-0.0024414063,-59.579468,-13.319397,29.87976,0,0.0,0.0,0.0,0.0
0.821777343,0.0056187515,0.91204304,0.410056,-0.0016182438,-0.41005364,0.91205996,0.9999829,-0.005788209,-8.2808157E-4,-0.016324092,0.9319209,0.3622942,-0.057252254,-0.36261916,0.9301772,0.9982263,-0.005557861,0.059273995,10.047455,-0.08135986,-0.023925781,9.806482,-0.05676294,-0.008120706,-0.0110321045,0.0066833496,-0.0022735596,-59.458923,-12.95929,29.638672,0,0.0,0.0,0.0,0.0
0.830078125,0.0056159324,0.9120452,0.4100513,-0.001639564,-0.4100488,0.9120621,0.9999829,-0.005794385,-8.0745004E-4,-0.01594176,0.9315473,0.3632706,-0.05611867,-0.3635777,0.9298721,0.9982968,-0.005562468,0.05807326,10.043869,-0.052642822,-0.0059814453,9.806482,-0.056823507,-0.00791838,-0.0110321045,0.0043945313,-0.0051879883,-59.458923,-12.95929,29.638672,0,0.0,0.0,0.0,0.0
0.838378906,0.0055659628,0.91056657,0.41332495,-0.0016850375,-0.4133222,0.9105832,0.9999831,-0.005764741,-7.6619745E-4,-0.015193346,0.9308197,0.3651628,-0.053922314,-0.36543626,0.9292732,0.99842954,-0.005571652,0.055744153,10.02713,-0.0382843,0.021530151,9.806484,-0.056532796,-0.0075138304,-0.00630188,0.0030212402,-0.0019683838,-59.579468,-13.198853,29.87976,0,0.0,0.0,0.0,0.0
0.846679687,0.005499402,0.9106172,0.41321453,-0.0017310901,-0.41321146,0.9106335,0.9999834,-0.0057232506,-6.9605553E-4,-0.014475329,0.9300652,0.36710918,-0.051814646,-0.3673521,0.92863756,0.9985518,-0.0055792984,0.053508542,10.039093,-0.07777405,-0.010772705,9.806487,-0.056125917,-0.0068259733,-0.007827759,0.004699707,-0.0036621094,-59.579468,-13.198853,29.87976,0,0.0,0.0,0.0,0.0
0.854980468,0.0054708505,0.9065345,0.42209628,-0.0018215559,-0.42209285,0.90655077,0.9999834,-0.0057284757,-6.5790385E-4,-0.014125111,0.9296987,0.36804998,-0.050794452,-0.36827862,0.9283269,0.99860924,-0.0055821775,0.052425515,10.039093,-0.07777405,-0.010772705,9.806487,-0.056177158,-0.006451833,-0.011184692,0.009735107,-0.0032043457,-59.698486,-13.439941,29.638672,0,0.0,0.0,0.0,0.0
0.86328125,0.0054478226,0.9108843,0.41262567,-0.0018326722,-0.412622,0.9109005,0.9999835,-0.005718632,-5.785392E-4,-0.013458958,0.92884165,0.3702325,-0.048813015,-0.37043488,0.92757493,0.99871725,-0.005587971,0.05032523,10.072586,-0.088531494,-0.029907227,9.806488,-0.056080624,-0.0056735314,-0.007827759,0.012939453,-0.0064086914,-59.698486,-13.259888,30.059814,0,0.0,0.0,0.0,0.0
0.871582031,0.0054065776,0.91091543,0.41255748,-0.0019392343,-0.41255316,0.91093135,0.9999835,-0.0057250676,-4.640224E-4,-0.012792719,0.92816746,0.37194294,-0.046921074,-0.37212086,0.92699754,0.99881667,-0.005593144,0.04831105,10.054642,-0.09451294,0.007171631,9.806488,-0.056143735,-0.0045505054,-0.017303467,0.007904053,-0.0035095215,-59.698486,-13.259888,30.059814,0,0.0,0.0,0.0,0.0
0.879882812,0.0053785294,0.9109367,0.4125111,-0.0020149783,-0.41250634,0.9109525,0.9999835,-0.005730786,-3.8316002E-4,-0.012467764,0.9278399,0.37277034,-0.046006486,-0.37293682,0.9267155,0.9988633,-0.0055957823,0.047336336,10.042679,-0.12083435,0.023925781,9.806488,-0.056199815,-0.0037575164,-0.018981934,0.003479004,-0.008392334,-59.698486,-13.259888,30.059814,0,0.0,0.0,0.0,0.0
0.888183593,0.0054211337,0.9162776,0.4005073,-0.0020134752,-0.40050235,0.91629356,0.99998325,-0.0057737604,-3.262744E-4,-0.011833493,0.927203,0.3743723,-0.044236407,-0.37451738,0.9261641,0.998951,-0.005601128,0.04544798,10.036697,-0.08135986,0.017944336,9.806486,-0.05662125,-0.003199659,-0.014709473,-0.0041656494,-0.0047302246,-59.579468,-12.838745,30.178833,0,0.0,0.0,0.0,0.0
0.896484375,0.005408391,0.9162869,0.40048608,-0.0020144281,-0.40048116,0.9163028,0.9999834,-0.0057624737,-3.2016437E-4,-0.011195848,0.9267842,0.37542722,-0.042547125,-0.37555227,0.9258241,0.9990317,-0.005607964,0.04363663,10.040283,-0.1040802,0.0143585205,9.806487,-0.056510564,-0.00313974,-0.007827759,-0.011642456,-0.0073242188,-59.579468,-12.838745,30.178833,0,0.0,0.0,0.0,0.0
0.904785156,0.0054518925,0.91807985,0.396358,-0.0019566691,-0.39635336,0.918096,0.99998325,-0.005780902,-3.644975E-4,-0.010885405,0.9265809,0.37593785,-0.04172821,-0.37605357,0.9256578,0.9990697,-0.005611054,0.04275806,10.040283,-0.1040802,0.0143585205,9.806486,-0.056691285,-0.0035744996,-0.007675171,-0.012557983,-0.0030517578,-59.579468,-12.779236,30.419922,0,0.0,0.0,0.0,0.0
0.913085937,0.0054824054,0.91633266,0.40038025,-0.0018814318,-0.4003761,0.91634893,0.9999832,-0.0057770847,-4.7100676E-4,-0.0102719525,0.9262528,0.37676296,-0.04014047,-0.37686107,0.92539966,0.9991412,-0.00561778,0.041051317,10.039093,-0.08734131,-0.03111267,9.806485,-0.05665385,-0.0046189986,-0.015457153,0.003479004,-0.0074768066,-59.339905,-12.779236,30.059814,0,0.0,0.0,0.0,0.0
0.921386718,0.005490176,0.916327,0.4003932,-0.0018454855,-0.40038925,0.91634333,0.99998325,-0.0057698064,-5.0713966E-4,-0.009976093,0.92606026,0.3772438,-0.039367773,-0.37733382,0.92524016,0.99917495,-0.0056209657,0.040221244,10.039093,-0.08734131,-0.03111267,9.806486,-0.056582473,-0.0049733412,-0.010116577,0.0057678223,-0.0051879883,-59.339905,-12.779236,30.059814,0,0.0,0.0,0.0,0.0
0.9296875,0.005486866,0.9163294,0.4003877,-0.0018428338,-0.4003838,0.9163457,0.99998325,-0.005765714,-5.0820963E-4,-0.009399527,0.92568576,0.3781765,-0.03786788,-0.37825146,0.92492795,0.9992385,-0.005626859,0.038609147,10.061813,-0.088531494,-0.039474487,9.806486,-0.05654234,-0.004983834,-0.010726929,0.007904053,-0.0050354004,-59.339905,-12.779236,30.059814,0,0.0,0.0,0.0,0.0
0.937988281,0.005483414,0.9150354,0.40333626,-0.0018745381,-0.4033322,0.91505176,0.99998325,-0.0057736766,-4.963686E-4,-0.008843116,0.92532545,0.3790708,-0.036428355,-0.3791321,0.9246253,0.99929714,-0.005632358,0.037060793,10.060623,-0.093322754,-0.027511597,9.806486,-0.056620426,-0.0048677134,-0.011184692,0.013397217,-0.004425049,-59.75952,-12.838745,29.93927,0,0.0,0.0,0.0,0.0
0.946289062,0.0054756203,0.91504127,0.4033232,-0.0019350775,-0.4033188,0.91505754,0.99998313,-0.0057909684,-4.3774472E-4,-0.008574469,0.9251259,0.3795637,-0.035730172,-0.3796187,0.9244528,0.9993247,-0.0056351847,0.036309935,10.060623,-0.093322754,-0.027511597,9.806484,-0.056789998,-0.004292809,-0.0096588135,0.014770508,-0.004425049,-59.75952,-12.838745,29.93927,0,0.0,0.0,0.0,0.0
0.954589843,0.005431326,0.914614,0.4042916,-0.0020012185,-0.40428683,0.91463006,0.99998325,-0.00577673,-3.654709E-4,-0.008051358,0.9247381,0.3805188,-0.0343787,-0.3805622,0.9241161,0.9993764,-0.005641354,0.034855336,10.0247345,-0.053833008,-0.0023956299,9.806486,-0.05665037,-0.0035840455,-0.0110321045,0.013549805,-0.004425049,-59.698486,-12.95929,30.119324,0,0.0,0.0,0.0,0.0
0.962890625,0.005357852,0.9132252,0.4074202,-0.0021163917,-0.40741476,0.9132408,0.9999834,-0.0057552694,-2.501259E-4,-0.007549371,0.92434895,0.3814736,-0.033083882,-0.3815065,0.923774,0.9994241,-0.005646715,0.033461183,10.039093,-0.058624268,-0.0047912598,9.806487,-0.056439914,-0.0024528971,-0.01133728,0.010040283,0.0035247803,-59.698486,-12.89978,29.699707,0,0.0,0.0,0.0,0.0
0.971191406,0.0053203413,0.9132535,0.4073571,-0.0021998773,-0.4073512,0.91326904,0.9999835,-0.005755038,-1.5820189E-4,-0.0073084175,0.92413354,0.38199958,-0.032457624,-0.38202772,0.9235807,0.9994464,-0.0056488854,0.032787196,10.039093,-0.058624268,-0.0047912598,9.806488,-0.056437645,-0.0015514306,-0.013015747,0.007751465,-0.0025787354,-59.698486,-12.89978,29.699707,0,0.0,0.0,0.0,0.0
0.979492187,0.0052995314,0.9132693,0.4073221,-0.0022561091,-0.40731588,0.9132847,0.9999835,-0.0057589426,-9.81479E-5,-0.006840179,0.923716,0.38301682,-0.031246603,-0.3830362,0.92320466,0.9994883,-0.005653089,0.031483024,10.045074,-0.06460571,0.009567261,9.806488,-0.056475937,-9.6250215E-4,-0.010421753,0.011108398,1.6784668E-4,-59.698486,-12.89978,29.699707,0,0.0,0.0,0.0,0.0
0.987792968,0.0053229183,0.9135517,0.40668786,-0.002325512,-0.4066812,0.9135672,0.99998313,-0.0058086007,-4.0255425E-5,-0.0063887415,0.92331463,0.3839913,-0.030086821,-0.38400277,0.9228416,0.9995269,-0.0056572813,0.030232899,10.061813,-0.100494385,-0.013153076,9.806484,-0.05696291,-3.9477085E-4,-0.010726929,0.011108398,-0.0051879883,-59.75952,-12.89978,29.759216,0,0.0,0.0,0.0,0.0
0.99609375,0.005318571,0.91355497,0.40668055,-0.0023945775,-0.4066735,0.9135704,0.99998295,-0.005832717,2.4656401E-5,-0.006168037,0.92312485,0.38445094,-0.029526189,-0.38445872,0.9226699,0.999545,-0.005660308,0.029627712,10.061813,-0.100494385,-0.013153076,9.806483,-0.057199415,2.417967E-4,-0.01423645,0.0057678223,-0.0073242188,-59.75952,-12.89978,29.759216,0,0.0,0.0,0.0,0.0
1.004394531,0.005323413,0.9140165,0.40564218,-0.0024320413,-0.4056349,0.91403204,0.9999829,-0.005852308,6.356368E-5,-0.0057382397,0.92275614,0.3853417,-0.028441548,-0.38534278,0.9223351,0.999579,-0.005667135,0.028455803,10.060623,-0.09690857,-0.01675415,9.806482,-0.05739154,6.2334683E-4,-0.007369995,0.0056152344,1.5258789E-5,-59.75952,-12.779236,29.579163,0,0.0,0.0,0.0,0.0
1.012695312,0.0053357314,0.9134208,0.40698162,-0.0024818825,-0.40697405,0.91343635,0.99998266,-0.0058839316,9.549854E-5,-0.005322134,0.92241853,0.38615498,-0.027402543,-0.38614997,0.92202884,0.9996103,-0.005674468,0.027331756,10.053452,-0.0765686,0.011962891,9.80648,-0.05770166,9.3652075E-4,-0.013015747,0.0054626465,-0.0033569336,-59.27887,-12.779236,29.458618,0,0.0,0.0,0.0,0.0
1.020996093,0.0053045587,0.91344434,0.40692908,-0.002545323,-0.40692112,0.91345966,0.99998266,-0.005881267,1.6647369E-4,-0.005120058,0.9222432,0.38657627,-0.026899416,-0.38656843,0.9218683,0.999625,-0.0056786565,0.026787058,10.053452,-0.0765686,0.011962891,9.80648,-0.05767553,0.0016325493,-0.008590698,0.007904053,-0.0035095215,-59.27887,-12.779236,29.458618,0,0.0,0.0,0.0,0.0
1.029296875,0.005281183,0.91346204,0.4068897,-0.0025957047,-0.40688148,0.91347724,0.99998266,-0.005880406,2.2226224E-4,-0.004727817,0.9219034,0.387391,-0.025926337,-0.38737813,0.9215563,0.9996527,-0.00568668,0.025733031,10.039093,-0.08015442,-0.007171631,9.80648,-0.057667088,0.002179648,-0.007217407,0.01600647,-0.0048828125,-59.27887,-12.779236,29.458618,0,0.0,0.0,0.0,0.0
1.037597656,0.00526995,0.915759,0.40169334,-0.00267469,-0.40168458,0.9157742,0.9999826,-0.0059004896,3.325139E-4,-0.0043504043,0.9215769,0.38817137,-0.024994595,-0.38815397,0.9212555,0.99967813,-0.0056943516,0.02472307,10.058228,-0.10169983,-0.0047912598,9.806479,-0.05786404,0.0032608476,-0.0096588135,0.021652222,-0.006713867,-59.458923,-12.658691,29.638672,0,0.0,0.0,0.0,0.0
1.045898437,0.0052243248,0.9157931,0.40161633,-0.0028071448,-0.4016068,0.9158079,0.9999824,-0.005911873,4.7263937E-4,-0.0041644378,0.92146254,0.38844487,-0.024545461,-0.3884254,0.9211532,0.99969006,-0.005698474,0.024235299,10.058228,-0.10169983,-0.0047912598,9.806478,-0.057975672,0.004635009,-0.010879517,0.011413574,-0.0047302246,-59.458923,-12.658691,29.638672,0,0.0,0.0,0.0,0.0
1.054199218,0.005183065,0.9168922,0.3991016,-0.0028696682,-0.39909166,0.91690665,0.9999825,-0.0058976747,5.626581E-4,-0.003804565,0.92124164,0.3889721,-0.023679735,-0.38894886,0.92095494,0.99971235,-0.005706924,0.02329454,10.079758,-0.08255005,0.028717041,9.806478,-0.05783643,0.005517791,-0.00920105,0.011566162,-0.008392334,-59.339905,-12.539673,29.579163,0,0.0,0.0,0.0,0.0
1.0625,0.00513282,0.917235,0.39831352,-0.0029808246,-0.39830297,0.91724914,0.9999824,-0.0058953767,6.8969926E-4,-0.0034574168,0.9210715,0.38937807,-0.022852048,-0.38935152,0.9208057,0.99973285,-0.0057144775,0.022394521,10.065414,-0.0993042,0.032302856,9.806478,-0.057813898,0.0067636394,-0.008590698,0.006072998,-0.006866455,-59.15985,-12.539673,29.638672,0,0.0,0.0,0.0,0.0
1.070800781,0.0050857756,0.9172696,0.39823422,-0.003074414,-0.39822316,0.9172834,0.9999824,-0.0058894353,7.94793E-4,-0.0032894062,0.9209957,0.389559,-0.022453038,-0.38953093,0.9207397,0.9997425,-0.0057180957,0.021960475,10.065414,-0.0993042,0.032302856,9.806478,-0.057755634,0.0077942573,-0.01210022,0.006378174,-0.005645752,-59.15985,-12.539673,29.638672,0,0.0,0.0,0.0,0.0
1.079101562,0.0050563277,0.91729134,0.39818466,-0.003115556,-0.3981734,0.91730493,0.9999824,-0.005878761,8.445774E-4,-0.0029647653,0.9208497,0.3899066,-0.021682834,-0.38987583,0.92061216,0.9997605,-0.0057248813,0.02112252,10.036697,-0.08375549,0.011962891,9.806478,-0.057650954,0.008282475,-0.007369995,0.009277344,-0.0062561035,-59.15985,-12.539673,29.638672,0,0.0,0.0,0.0,0.0
1.087402343,0.005009343,0.91635764,0.4003292,-0.0031747578,-0.40031764,0.9163709,0.9999824,-0.0058613652,9.0388523E-4,-0.0028076535,0.9207792,0.39007404,-0.021310173,-0.3900421,0.92055035,0.999769,-0.005727959,0.020717068,10.036697,-0.08375549,0.011962891,9.806478,-0.057480358,0.008864086,-0.00920105,0.00881958,-0.009918213,-59.098816,-12.599182,29.579163,0,0.0,0.0,0.0,0.0
1.095703125,0.0049129594,0.91642904,0.4001671,-0.0032562562,-0.40015513,0.9164416,0.9999826,-0.005805487,0.0010181818,-0.002505844,0.9206063,0.390484,-0.02058882,-0.39044994,0.92039394,0.9997849,-0.005733242,0.019932605,10.030716,-0.06819153,0.037094116,9.806479,-0.05693238,0.009984952,-0.016540527,0.009277344,-0.008239746,-59.098816,-12.599182,29.579163,0,0.0,0.0,0.0,0.0
1.104003906,0.0048212497,0.91297954,0.40797678,-0.0033602351,-0.40796444,0.91299164,0.9999828,-0.005772659,0.0011009276,-0.002219019,0.9204429,0.3908708,-0.019899528,-0.390835,0.92024565,0.99979955,-0.0057361024,0.01918365,10.060623,-0.06939697,0.028717041,9.806481,-0.056610446,0.010796412,-0.008132935,0.0031738281,-0.002746582,-59.15985,-12.95929,29.699707,0,0.0,0.0,0.0,0.0
1.112304687,0.0048047625,0.9129919,0.40794933,-0.0034072264,-0.4079367,0.91300374,0.9999826,-0.005776742,0.0011507315,-0.0020842873,0.9202967,0.3912155,-0.0195662,-0.39117897,0.9201066,0.9998064,-0.0057368334,0.01882204,10.07019,-0.07417297,0.025131226,9.806479,-0.05665049,0.011284821,-0.01133728,4.272461E-4,0.0033721924,-59.15985,-12.95929,29.699707,0,0.0,0.0,0.0,0.0
1.120605468,0.0048393006,0.91699284,0.39887437,-0.0034030152,-0.39886162,0.91700476,0.9999825,-0.005795038,0.001190329,-0.0019523129,0.9201536,0.3915527,-0.019240582,-0.39151552,0.9199703,0.99981296,-0.0057376316,0.018468652,10.0785675,-0.08015442,0.04067993,9.8064785,-0.05682991,0.01167314,-0.018051147,2.746582E-4,-0.0050354004,-59.098816,-12.658691,29.818726,0,0.0,0.0,0.0,0.0
1.12890625,0.0048312247,0.9169988,0.39886093,-0.0034194752,-0.3988481,0.9170107,0.9999825,-0.0057941787,0.0012087295,-0.0015599458,0.9199693,0.39198726,-0.018306343,-0.39194834,0.91980505,0.99983126,-0.005741007,0.017452693,10.047455,-0.0657959,0.022735596,9.8064785,-0.056821484,0.011853587,-0.010879517,-0.0052337646,-0.011291504,-59.098816,-12.658691,29.818726,0,0.0,0.0,0.0,0.0
1.137207031,0.0047915317,0.9155441,0.40218902,-0.0033779154,-0.40217653,0.91555583,0.9999828,-0.005745475,0.0011655892,-0.0014342899,0.91991043,0.3921259,-0.018007638,-0.39208648,0.9197521,0.9998368,-0.0057420703,0.01712778,10.047455,-0.0657959,0.022735596,9.806481,-0.056343865,0.011430526,-0.00843811,-0.009353638,-0.010528564,-59.039307,-12.658691,29.519653,0,0.0,0.0,0.0,0.0
1.145507812,0.0047154506,0.9156007,0.4020611,-0.0033471347,-0.40204886,0.9156121,0.99998325,-0.0056632757,0.0011687975,-0.0011938638,0.9197396,0.3925271,-0.017425733,-0.39248693,0.91959244,0.9998474,-0.005742205,0.016495714,10.034302,-0.047851563,0.056228638,9.806486,-0.055537764,0.011461988,-0.011947632,-0.009353638,-0.0048828125,-59.039307,-12.658691,29.519653,0,0.0,0.0,0.0,0.0
1.153808593,0.0046461215,0.9105057,0.41347045,-0.0033223159,-0.41345856,0.9105169,0.99998367,-0.0056040515,0.0011040086,-9.653806E-4,0.91957766,0.3929071,-0.016865792,-0.39286637,0.91944087,0.9998573,-0.0057390793,0.015888672,10.043869,-0.046661377,0.011962891,9.80649,-0.054956973,0.010826627,-0.011795044,-0.005996704,-0.0065612793,-59.698486,-13.018799,29.3396,0,0.0,0.0,0.0,0.0
1.162109375,0.004619805,0.91052604,0.41342592,-0.00325499,-0.41341445,0.9105371,0.999984,-0.0055522015,0.0010538589,-8.5917395E-4,0.91940075,0.3933212,-0.016592521,-0.3932803,0.9192689,0.99986196,-0.0057363785,0.015593073,10.043869,-0.046661377,0.011962891,9.806494,-0.054448497,0.010334826,-0.010116577,-1.8310547E-4,-9.1552734E-4,-59.698486,-13.018799,29.3396,0,0.0,0.0,0.0,0.0
1.170410156,0.0046814634,0.91398823,0.40571374,-0.0031952672,-0.40570244,0.9139996,0.9999839,-0.005575219,0.0010211555,-6.533563E-4,0.9190578,0.3941222,-0.016059682,-0.39408112,0.9189353,0.99987084,-0.0057290853,0.0150172515,10.084549,-0.08135986,0.0023956299,9.806492,-0.05467422,0.010014114,-0.015625,-0.0017242432,0.0018463135,-59.339905,-12.719727,29.3396,0,0.0,0.0,0.0,0.0
1.178710937,0.0046954225,0.9139777,0.4057374,-0.003212888,-0.405726,0.9139892,0.99998385,-0.005595153,0.0010314533,-4.4833822E-4,0.91885984,0.3945838,-0.015547778,-0.39454255,0.9187461,0.999879,-0.0057229926,0.014463116,10.072586,-0.061019897,0.027511597,9.806492,-0.05486971,0.010115101,-0.012863159,-7.9345703E-4,-0.003967285,-59.339905,-12.719727,29.3396,0,0.0,0.0,0.0,0.0
1.187011718,0.0046709743,0.9118175,0.41056916,-0.0032483013,-0.41055763,0.9118289,0.99998385,-0.005592782,0.0010441536,-3.4839613E-4,0.9187635,0.39480805,-0.0152998185,-0.39476675,0.91865396,0.9998829,-0.0057204356,0.01419445,10.072586,-0.061019897,0.027511597,9.806492,-0.054846458,0.01023965,-0.013320923,-6.4086914E-4,-0.0048828125,-59.579468,-12.95929,29.458618,0,0.0,0.0,0.0,0.0
1.1953125,0.00467506,0.91181433,0.41057605,-0.0031812047,-0.4105649,0.91182584,0.999984,-0.0055689677,9.812523E-4,-1.5758444E-4,0.9184937,0.3954355,-0.014819367,-0.39539424,0.91839194,0.99989015,-0.0057153804,0.013673804,10.047455,-0.058624268,0.0,9.806493,-0.054612912,0.009622797,-0.007827759,-0.014541626,-0.0059509277,-59.579468,-12.95929,29.458618,0,0.0,0.0,0.0,0.0
1.203613281,0.004721212,0.9079243,0.4191077,-0.0031007263,-0.41909704,0.90793616,0.999984,-0.005586097,8.365784E-4,2.6453752E-5,0.918234,0.39603835,-0.014355414,-0.3959972,0.9181395,0.999897,-0.005709582,0.013171153,10.035492,-0.08255005,-0.017944336,9.806494,-0.0547809,0.008204032,-0.012863159,-0.013320923,-0.0010528564,-59.81903,-13.259888,29.399109,0,0.0,0.0,0.0,0.0
1.211914062,0.004800018,0.90786266,0.41924018,-0.002979096,-0.41923013,0.9078751,0.999984,-0.005606774,6.9229753E-4,1.1471892E-4,0.91803354,0.39650273,-0.014128041,-0.3964617,0.9179426,0.9999002,-0.005707112,0.012924534,10.035492,-0.08255005,-0.017944336,9.806494,-0.054983668,0.00678912,-0.009048462,-0.007217407,-0.00289917,-59.81903,-13.259888,29.399109,0,0.0,0.0,0.0,0.0
1.220214843,0.004803856,0.90294194,0.42973557,-0.0029753577,-0.42972574,0.9029545,0.999984,-0.0056162816,6.2223454E-4,2.896972E-4,0.9176415,0.39740902,-0.013681935,-0.3973682,0.9175573,0.99990636,-0.0057031387,0.012439996,10.033112,-0.07417297,0.0047912598,9.806494,-0.05507691,0.0061020367,-0.008285522,-4.8828125E-4,3.2043457E-4,-59.939575,-13.55896,29.159546,0,0.0,0.0,0.0,0.0
1.228515625,0.004815358,0.90293276,0.42975497,-0.002941837,-0.4297453,0.90294534,0.999984,-0.0056122737,5.8690377E-4,4.5388564E-4,0.9170814,0.3986998,-0.013251787,-0.39865926,0.91700345,0.9999121,-0.005699699,0.011972022,10.0295105,-0.062210083,-0.0047912598,9.806494,-0.055037607,0.00575556,-0.012710571,-0.002029419,-0.0033569336,-59.939575,-13.55896,29.159546,0,0.0,0.0,0.0,0.0
1.236816406,0.0048043835,0.90154403,0.4326608,-0.0029342475,-0.43265122,0.9015566,0.99998415,-0.005600957,5.66731E-4,5.341512E-4,0.9168089,0.39932603,-0.013042666,-0.39928573,0.9167338,0.9999148,-0.0056979503,0.011744353,10.0295105,-0.062210083,-0.0047912598,9.806495,-0.05492663,0.0055577327,-0.009048462,-6.4086914E-4,-0.005493164,-60.058594,-13.55896,28.919983,0,0.0,0.0,0.0,0.0
1.245117187,0.004832222,0.90152127,0.43270794,-0.0028587978,-0.4326988,0.9015341,0.99998426,-0.0055934372,4.8637035E-4,6.890679E-4,0.9162277,0.40065733,-0.0126362685,-0.40061748,0.9161582,0.9999199,-0.005694109,0.011301646,10.0785675,-0.086135864,-0.04067993,9.806496,-0.05485288,0.004769664,-0.016677856,-0.0014038086,-0.0047302246,-60.058594,-13.55896,28.919983,0,0.0,0.0,0.0,0.0
1.253417968,0.004805926,0.8978792,0.4402159,-0.0028396952,-0.44020694,0.897892,0.99998444,-0.00556528,4.341014E-4,8.3991326E-4,0.91566694,0.40193704,-0.012243447,-0.4018976,0.9156028,0.99992466,-0.005690122,0.010873361,10.058228,-0.07417297,-0.01914978,9.806498,-0.054576755,0.0042570806,-0.015151978,-0.007522583,-0.007019043,-60.11963,-13.739014,28.678894,0,0.0,0.0,0.0,0.0
1.26171875,0.004816006,0.8978707,0.44023293,-0.002775757,-0.44022432,0.89788353,0.9999845,-0.005546192,3.721479E-4,9.113918E-4,0.9153271,0.40271023,-0.01205199,-0.4026711,0.9152654,0.999927,-0.005687625,0.010664522,10.058228,-0.07417297,-0.01914978,9.806499,-0.054389566,0.0036495242,-0.011947632,-7.9345703E-4,-0.0038146973,-60.11963,-13.739014,28.678894,0,0.0,0.0,0.0,0.0
1.270019531,0.004824683,0.89486706,0.4463068,-0.0027484682,-0.44629845,0.89488006,0.9999846,-0.005544172,3.0626508E-4,0.0010512476,0.9146654,0.40421042,-0.011678433,-0.40417185,0.9146085,0.9999312,-0.005682024,0.010256974,10.039093,-0.08375549,-0.03111267,9.8064995,-0.05436976,0.0030034345,-0.0096588135,0.0014953613,-0.004272461,-60.17914,-14.099121,28.919983,0,0.0,0.0,0.0,0.0
1.278320312,0.0048161764,0.8948741,0.44629246,-0.0027254764,-0.44628423,0.8948871,0.99998474,-0.0055262945,2.8957476E-4,0.0011846451,0.9139188,0.40589532,-0.011318085,-0.40585735,0.91386634,0.99993527,-0.005676565,0.009863014,10.054642,-0.07058716,-0.01914978,9.8065,-0.05419444,0.0028397585,-0.012863159,0.0056152344,-0.005493164,-60.17914,-14.099121,28.919983,0,0.0,0.0,0.0,0.0
1.286621093,0.0048155547,0.89750403,0.4409801,-0.0026924373,-0.44097197,0.89751685,0.99998474,-0.0055093523,2.929487E-4,0.0012496482,0.9135557,0.40671173,-0.011143027,-0.40667406,0.9135054,0.9999371,-0.00567356,0.009671576,10.054642,-0.07058716,-0.01914978,9.8065,-0.05402829,0.0028728456,-0.011489868,0.0066833496,6.2561035E-4,-60.11963,-13.798523,28.73993,0,0.0,0.0,0.0,0.0
1.294921875,0.004800356,0.89751667,0.44095445,-0.0027293065,-0.4409461,0.8975294,0.99998474,-0.0055119605,3.3289954E-4,0.0013785362,0.9129449,0.40808058,-0.010803242,-0.40804353,0.91289854,0.9999407,-0.005667057,0.009300263,10.060623,-0.07777405,-0.0011901855,9.806501,-0.054053873,0.0032646295,-0.012863159,0.0022583008,0.0013885498,-60.11963,-13.798523,28.73993,0,0.0,0.0,0.0,0.0
1.303222656,0.004767544,0.89264023,0.45074454,-0.002835284,-0.45073578,0.8926529,0.9999846,-0.0055337506,3.8198588E-4,0.0015028196,0.9123568,0.4093933,-0.010478608,-0.40935692,0.9123142,0.999944,-0.0056609153,0.0089450395,10.084549,-0.08255005,0.01675415,9.8064995,-0.05426756,0.003746002,-0.010269165,-0.004928589,-0.0038146973,-60.35919,-14.099121,28.559875,0,0.0,0.0,0.0,0.0
1.311523437,0.004780586,0.892629,0.45076662,-0.0028561351,-0.45075774,0.8926417,0.99998444,-0.0055548004,3.9458324E-4,0.0015611667,0.9119811,0.41022918,-0.010322719,-0.41019312,0.9119402,0.99994546,-0.005658372,0.008773745,10.084549,-0.08255005,0.01675415,9.806498,-0.054473985,0.0038695398,-0.011184692,-0.0014038086,-0.0012207031,-60.35919,-14.099121,28.559875,0,0.0,0.0,0.0,0.0
1.319824218,0.004792833,0.8937613,0.44851735,-0.00285709,-0.44850844,0.89377403,0.99998444,-0.0055651637,4.0393043E-4,0.0016756407,0.91124964,0.41185114,-0.010021599,-0.41181573,0.911212,0.9999484,-0.0056542708,0.0084421225,10.039093,-0.08015442,0.037094116,9.806498,-0.054575615,0.0039612046,-0.014389038,-0.008285522,-0.0045776367,-60.238647,-13.978577,28.49884,0,0.0,0.0,0.0,0.0
1.328125,0.0047742757,0.8937771,0.44848585,-0.0028203502,-0.44847715,0.8937897,0.9999846,-0.005532087,3.796111E-4,0.0017878956,0.91058546,0.4133169,-0.009732898,-0.41328213,0.910551,0.999951,-0.005650742,0.008123731,10.030716,-0.047851563,0.0143585205,9.8064995,-0.05425124,0.0037227133,-0.0096588135,-9.460449E-4,0.0027618408,-60.238647,-13.978577,28.49884,0,0.0,0.0,0.0,0.0
1.336425781,0.004800528,0.90051585,0.43479645,-0.0027380742,-0.434788,0.90052855,0.99998474,-0.005513518,3.784677E-4,0.0018422562,0.9102628,0.41402683,-0.009592357,-0.41399238,0.9102298,0.99995226,-0.005648369,0.007968885,10.030716,-0.047851563,0.0143585205,9.8065,-0.054069143,0.0037115004,-0.00630188,0.0016479492,-0.0036621094,-60.058594,-13.439941,28.49884,0,0.0,0.0,0.0,0.0
1.344726562,0.004786213,0.9005279,0.43477196,-0.0027696798,-0.43476334,0.90054053,0.99998474,-0.0055143577,4.1330382E-4,0.001953347,0.90988594,0.41485384,-0.009318378,-0.41482005,0.9098557,0.9999547,-0.0056430288,0.0076683736,10.023529,-0.07298279,0.0143585205,9.8065,-0.054077376,0.004053126,-0.010879517,0.00881958,-0.0051879883,-60.058594,-13.439941,28.49884,0,0.0,0.0,0.0,0.0
1.353027343,0.0047957026,0.90945566,0.41577318,-0.002744794,-0.41576442,0.9094682,0.99998474,-0.0055027506,5.0238596E-4,0.002059995,0.90952367,0.4156469,-0.009056668,-0.41561377,0.90949607,0.99995685,-0.0056379335,0.007381092,10.074982,-0.07298279,0.028717041,9.8065,-0.05396355,0.0049267234,-0.010421753,0.014923096,-0.0073242188,-59.999084,-12.95929,29.039001,0,0.0,0.0,0.0,0.0
1.361328125,0.0047355634,0.90950316,0.41567013,-0.0028477898,-0.41566083,0.90951526,0.99998474,-0.005490808,6.216855E-4,0.0021146857,0.90952235,0.41564965,-0.008930434,-0.41561684,0.90949595,0.9999579,-0.00563523,0.0072435304,10.071396,-0.08255005,0.027511597,9.8065,-0.05384643,0.0060966527,-0.0052337646,0.009124756,-0.0059509277,-59.999084,-12.95929,29.039001,0,0.0,0.0,0.0,0.0
1.369628906,0.004706411,0.9141809,0.40527907,-0.0028887896,-0.4052694,0.9141927,0.99998474,-0.0054733325,7.3351176E-4,0.0021670992,0.90952194,0.41565022,-0.00880878,-0.4156177,0.9094967,0.9999589,-0.0056323414,0.0071110944,10.063019,-0.08135986,0.027511597,9.8065,-0.05367506,0.0071932934,-0.011184692,0.006225586,-0.006713867,-59.75952,-12.539673,28.979492,0,0.0,0.0,0.0,0.0
1.377929687,0.004663049,0.9142144,0.40520412,-0.0029695404,-0.4051941,0.91422594,0.99998474,-0.0054663504,8.2535646E-4,0.002270222,0.9097087,0.41524082,-0.008575401,-0.4152089,0.9096857,0.9999606,-0.0056260447,0.0068585,10.063019,-0.08135986,0.027511597,9.8065,-0.053606585,0.008093982,-0.010726929,0.008514404,-0.003967285,-59.75952,-12.539673,28.979492,0,0.0,0.0,0.0,0.0
1.386230468,0.004602275,0.9075961,0.41981927,-0.0031128614,-0.41980866,0.90760726,0.9999845,-0.0054838974,8.93146E-4,0.0023672995,0.90988916,0.41484472,-0.008354426,-0.4148134,0.9098681,0.9999623,-0.0056197206,0.006619614,10.0295105,-0.07896423,0.0143585205,9.806499,-0.053778663,0.00875877,-0.005844116,0.0027160645,-0.002746582,-59.698486,-13.018799,28.799438,0,0.0,0.0,0.0,0.0
1.39453125,0.0045880917,0.9076074,0.41979495,-0.0031709673,-0.41978404,0.90761846,0.99998444,-0.005495393,9.519853E-4,0.0024114472,0.90984356,0.4149444,-0.008249331,-0.4149134,0.90982354,0.99996305,-0.005617005,0.0065050586,10.041473,-0.039474487,0.027511597,9.806498,-0.053891398,0.009335787,-0.009048462,0.009277344,-0.00793457,-59.698486,-13.018799,28.799438,0,0.0,0.0,0.0,0.0
1.402832031,0.004505327,0.90767336,0.41965324,-0.0032064219,-0.41964224,0.907684,0.99998474,-0.005434998,0.0010197583,0.0024966204,0.9097555,0.4151369,-0.008047754,-0.41510648,0.9097372,0.99996454,-0.0056121885,0.006285126,10.034302,-0.08375549,0.0023956299,9.8065,-0.05329912,0.010000413,-0.016677856,0.0014953613,-6.1035156E-4,-59.698486,-13.018799,28.799438,0,0.0,0.0,0.0,0.0
1.411132812,0.0045661647,0.9128122,0.4083542,-0.003188375,-0.4083431,0.912823,0.9999845,-0.0054700864,0.0010458255,0.0025752876,0.90967345,0.41531625,-0.007855565,-0.4152864,0.9096568,0.9999658,-0.0056051714,0.006076517,10.04985,-0.095718384,0.01675415,9.806499,-0.053643223,0.0102560455,-0.009506226,-0.0010986328,4.7302246E-4,-59.51996,-12.719727,29.09851,0,0.0,0.0,0.0,0.0
1.419433593,0.004653751,0.91650635,0.39999324,-0.0031298853,-0.39998227,0.9165176,0.99998426,-0.005517177,0.0010071419,0.0026157985,0.90973675,0.41517738,-0.0077625215,-0.41514784,0.90972084,0.99996644,-0.0056024697,0.005975908,10.072586,-0.095718384,-0.0059814453,9.806496,-0.054105025,0.009876688,-0.011184692,-0.0067596436,-0.0021362305,-58.979797,-12.478638,29.278564,0,0.0,0.0,0.0,0.0
1.427734375,0.0047146133,0.9164609,0.40009648,-0.0030860968,-0.4000857,0.9164725,0.99998415,-0.00555555,9.4203796E-4,0.0026994238,0.91000956,0.41457856,-0.0075803,-0.41454953,0.9099952,0.99996763,-0.005599092,0.0057790997,10.054642,-0.088531494,0.0059814453,9.806495,-0.054481335,0.009238237,-0.005844116,-0.012557983,-0.0038146973,-58.979797,-12.478638,29.278564,0,0.0,0.0,0.0,0.0
1.436035156,0.0047618584,0.9147141,0.40407345,-0.003021948,-0.404063,0.9147261,0.999984,-0.005576886,8.4012776E-4,0.0027819693,0.91026944,0.4140071,-0.0074034054,-0.4139786,0.91025656,0.9999687,-0.005597368,0.0055874176,10.054642,-0.088531494,0.0059814453,9.806494,-0.054690566,0.008238839,-0.013015747,-0.010116577,-0.0045776367,-59.21936,-12.599182,29.219055,0,0.0,0.0,0.0,0.0
1.444335937,0.0047989003,0.9146861,0.40413645,-0.0029370394,-0.40412647,0.91469836,0.99998415,-0.005576511,7.471067E-4,0.002822521,0.9103594,0.41380903,-0.0073161395,-0.41378078,0.9103472,0.99996924,-0.005596958,0.0054924106,10.045074,-0.090927124,0.028717041,9.806495,-0.054686893,0.007326614,-0.011184692,-0.0070648193,-0.008392334,-59.21936,-12.599182,29.219055,0,0.0,0.0,0.0,0.0
1.452636718,0.0048160325,0.91467315,0.40416557,-0.002917447,-0.40415567,0.91468555,0.99998415,-0.005584287,7.2208355E-4,0.00290252,0.9105326,0.41342708,-0.007143558,-0.4133994,0.91052175,0.99997026,-0.005596148,0.0053045424,10.023529,-0.062210083,-0.0011901855,9.806495,-0.05476315,0.007081221,-0.01423645,-0.0038604736,-0.002746582,-59.21936,-12.599182,29.219055,0,0.0,0.0,0.0,0.0
1.4609375,0.0048385006,0.91581756,0.4015655,-0.002831984,-0.40155602,0.9158301,0.99998426,-0.005568471,6.5065175E-4,0.002979902,0.91069835,0.41306117,-0.0069769663,-0.41303402,0.9106889,0.9999712,-0.0055956775,0.0051231114,10.013962,-0.07537842,-0.026321411,9.806496,-0.054608047,0.006380714,-0.011489868,0.0014953613,-0.0077819824,-59.399414,-12.419128,29.039001,0,0.0,0.0,0.0,0.0
1.469238281,0.0048373877,0.91703624,0.39877453,-0.0027933812,-0.39876527,0.9170488,0.99998444,-0.00555005,6.326496E-4,0.003018069,0.9108021,0.41283202,-0.006894561,-0.41280514,0.91079324,0.9999716,-0.005595133,0.005033707,10.051056,-0.08255005,-0.007171631,9.806498,-0.0544274,0.006204173,-0.009353638,0.0028686523,-0.0048828125,-59.27887,-12.419128,29.278564,0,0.0,0.0,0.0,0.0
1.477539062,0.0048794015,0.9170049,0.39884627,-0.0027342974,-0.39883727,0.9170177,0.9999843,-0.0055650612,5.6127674E-4,0.00309249,0.9110531,0.41227737,-0.0067332075,-0.41225103,0.91104543,0.9999726,-0.0055933483,0.004859428,10.076172,-0.10169983,-0.062210083,9.806497,-0.05457461,0.0055042445,-0.007369995,0.0040893555,-0.0051879883,-59.27887,-12.419128,29.278564,0,0.0,0.0,0.0,0.0
1.485839843,0.004888328,0.91384405,0.40603575,-0.0027384954,-0.40602684,0.91385704,0.9999843,-0.00557916,5.177653E-4,0.0031654253,0.91129255,0.4117473,-0.006575928,-0.4117215,0.911286,0.9999734,-0.0055922284,0.004689321,10.076172,-0.10169983,-0.062210083,9.806497,-0.054712873,0.005077543,-0.007217407,0.010192871,-0.0074768066,-59.339905,-12.478638,28.799438,0,0.0,0.0,0.0,0.0
1.494140625,0.0048791463,0.91385114,0.4060199,-0.0027735014,-0.4060108,0.913864,0.99998426,-0.0055849734,5.5358163E-4,0.0032003573,0.91134393,0.41163328,-0.006499377,-0.41160774,0.9113379,0.9999738,-0.005591967,0.0046058767,10.09053,-0.102890015,-0.01914978,9.806496,-0.05476988,0.0054287813,-0.007217407,0.0057678223,-0.0074768066,-59.339905,-12.478638,28.799438,0,0.0,0.0,0.0,0.0
1.502441406,0.0048248735,0.9138931,0.40592623,-0.0028076314,-0.40591696,0.9139056,0.9999844,-0.0055491705,6.0737686E-4,0.0032677455,0.9114439,0.41141143,-0.0063521327,-0.41138643,0.9114389,0.9999745,-0.0055916905,0.004445306,10.039093,-0.06819153,0.0,9.806497,-0.05441877,0.005956332,-0.012252808,0.0069885254,-0.0051879883,-59.339905,-12.478638,28.799438,0,0.0,0.0,0.0,0.0
1.510742187,0.0047923643,0.9142223,0.4051845,-0.0028689092,-0.4051749,0.91423464,0.99998444,-0.0055437833,6.810751E-4,0.0033302172,0.9115415,0.4111945,-0.006212117,-0.41117,0.91153747,0.99997514,-0.0055900067,0.004293318,10.052246,-0.08734131,0.01914978,9.806498,-0.054365944,0.006679065,-0.012863159,0.004699707,-0.0035095215,-59.458923,-12.478638,28.858948,0,0.0,0.0,0.0,0.0
1.519042968,0.0047873235,0.91784704,0.39690554,-0.0028465122,-0.39689597,0.9178592,0.99998444,-0.0055238847,7.1259344E-4,0.0033598875,0.9115955,0.41107455,-0.006145446,-0.41105026,0.91159195,0.9999755,-0.005589083,0.0042210785,10.041473,-0.071777344,-0.0059814453,9.806498,-0.054170806,0.0069881547,-0.019744873,0.0051574707,-0.0033569336,-59.339905,-12.11853,28.73993,0,0.0,0.0,0.0,0.0
1.52734375,0.004794036,0.91784185,0.39691722,-0.0029309292,-0.39690718,0.9178541,0.99998426,-0.005563562,7.8734243E-4,0.003418359,0.91184723,0.4105154,-0.006015582,-0.41049162,0.9118445,0.99997604,-0.005586501,0.004082084,10.054642,-0.10169983,0.041870117,9.806496,-0.054559905,0.0077211917,-0.010574341,-0.0033874512,-0.0012207031,-59.339905,-12.11853,28.73993,0,0.0,0.0,0.0,0.0
1.535644531,0.004829555,0.9178149,0.39697918,-0.0029306544,-0.3969691,0.91782725,0.999984,-0.0055961055,7.726145E-4,0.0034467718,0.9119691,0.41024438,-0.005954259,-0.4102208,0.91196686,0.99997634,-0.0055860425,0.004016163,10.045074,-0.08973694,0.0,9.806494,-0.05487905,0.00757676,-0.013168335,-0.002029419,-0.0013580322,-59.339905,-12.11853,28.73993,0,0.0,0.0,0.0,0.0
1.543945312,0.004794239,0.9107093,0.41302022,-0.0030037528,-0.41301,0.91072166,0.999984,-0.0056068273,7.5547677E-4,0.0035031536,0.91220427,0.40972072,-0.0058353283,-0.4096976,0.9122027,0.9999768,-0.005586441,0.0038877774,10.067795,-0.07896423,0.015548706,9.806494,-0.054984193,0.007408696,-0.009811401,-0.0023345947,-0.00289917,-59.87854,-12.419128,28.079224,0,0.0,0.0,0.0,0.0
1.552246093,0.004802414,0.9107026,0.41303474,-0.0029684522,-0.4130247,0.9107149,0.999984,-0.0055997046,7.1986136E-4,0.0035539106,0.91214526,0.40985164,-0.005722969,-0.40982896,0.91214436,0.9999773,-0.005587248,0.0037636836,10.067795,-0.07896423,0.015548706,9.806494,-0.054914344,0.007059429,-0.0070648193,-0.0124053955,-0.00793457,-59.87854,-12.419128,28.079224,0,0.0,0.0,0.0,0.0
1.560546875,0.0047293217,0.90296674,0.42968428,-0.0029677795,-0.42967454,0.9029789,0.99998444,-0.005545687,6.47737E-4,0.0035787066,0.91211647,0.40991548,-0.005667758,-0.409893,0.912116,0.9999775,-0.0055874977,0.003702769,10.039093,-0.058624268,0.0,9.806498,-0.05438461,0.0063521303,-0.012557983,-0.0055389404,-0.00869751,-60.479736,-12.95929,27.89917,0,0.0,0.0,0.0,0.0
1.568847656,0.004715468,0.9052332,0.42488882,-0.0028954078,-0.4248794,0.9052453,0.99998474,-0.005498882,6.1751436E-4,0.0036219973,0.9117623,0.4107022,-0.0055598444,-0.4106802,0.9117625,0.99997795,-0.005585842,0.0035817742,10.033112,-0.07058716,0.020339966,9.8065,-0.05392561,0.006055747,-0.008743286,-0.0040130615,-0.006866455,-60.058594,-12.838745,28.019714,0,0.0,0.0,0.0,0.0
1.577148437,0.0047057313,0.9052414,0.42487165,-0.002838201,-0.42486256,0.90525347,0.9999849,-0.0054657506,5.6996767E-4,0.003663659,0.911508,0.41126603,-0.005453747,-0.41124445,0.9115088,0.9999784,-0.0055823983,0.003464475,10.016357,-0.06939697,0.007171631,9.806502,-0.053600702,0.0055894735,-0.014709473,-0.0096588135,-0.003967285,-60.058594,-12.838745,28.019714,0,0.0,0.0,0.0,0.0
1.585449218,0.004655136,0.90528345,0.42478254,-0.0027212158,-0.4247741,0.90529525,0.99998546,-0.005370197,4.8609075E-4,0.0036837405,0.9113847,0.41153905,-0.005401084,-0.4115177,0.91138583,0.99997866,-0.0055800653,0.0034065405,10.017548,-0.008377075,-0.007171631,9.806508,-0.052663647,0.0047669224,-0.014709473,-0.0070648193,-0.0021362305,-60.058594,-12.838745,28.019714,0,0.0,0.0,0.0,0.0
1.59375,0.0046689045,0.9010462,0.43369797,-0.0026896135,-0.43368983,0.90105826,0.9999855,-0.0053734346,3.9860958E-4,0.0037206942,0.9111468,0.41206515,-0.005294428,-0.4120443,0.9111484,0.9999791,-0.005571754,0.0032909103,10.079758,-0.07777405,-0.010772705,9.806508,-0.052695394,0.003909025,-0.011489868,-0.007980347,-0.0047302246,-60.058594,-13.319397,28.318787,0,0.0,0.0,0.0,0.0
1.602050781,0.004703683,0.9010171,0.43375808,-0.0026181547,-0.4337503,0.90102935,0.9999855,-0.0053738016,3.1877862E-4,0.0037558358,0.9107566,0.4129265,-0.005190366,-0.41290608,0.91075885,0.99997944,-0.0055639003,0.0031763525,10.088135,-0.08973694,-0.022735596,9.806508,-0.052698992,0.0031261505,-0.014389038,-0.0040130615,-0.0021362305,-60.058594,-13.319397,28.318787,0,0.0,0.0,0.0,0.0
1.610351562,0.0047406685,0.8968514,0.44230646,-0.0026042375,-0.44229883,0.8968639,0.99998534,-0.0054036058,2.3882206E-4,0.0037735878,0.91056657,0.41334528,-0.0051385276,-0.41332513,0.910569,0.9999797,-0.005560098,0.0031192526,10.088135,-0.08973694,-0.022735596,9.806506,-0.05299127,0.0023420444,-0.009963989,-0.0041656494,-4.4250488E-4,-60.238647,-13.55896,28.138733,0,0.0,0.0,0.0,0.0
1.618652343,0.004773262,0.89300835,0.45001483,-0.0026137582,-0.4500073,0.89302117,0.9999852,-0.0054388535,1.8610517E-4,0.0038087594,0.9100411,0.41450045,-0.005036816,-0.41448072,0.91004413,0.99998003,-0.0055539017,0.0030050525,10.061813,-0.09451294,-0.023925781,9.806505,-0.053336933,0.0018250684,-0.012252808,0.0042419434,-0.0030517578,-60.17914,-13.919067,28.259277,0,0.0,0.0,0.0,0.0
1.626953125,0.0047410787,0.8930362,0.44996002,-0.0026659705,-0.44995221,0.89304876,0.9999852,-0.0054335934,2.4754956E-4,0.0038431613,0.90939337,0.4159194,-0.0049393876,-0.4159001,0.9093969,0.99998045,-0.005549346,0.002893475,10.053452,-0.06939697,0.032302856,9.806505,-0.05328535,0.002427632,-0.005844116,0.004852295,-0.0051879883,-60.17914,-13.919067,28.259277,0,0.0,0.0,0.0,0.0
1.635253906,0.004717134,0.89305687,0.44991916,-0.0027588243,-0.44991085,0.8930693,0.9999851,-0.0054539745,3.414975E-4,0.0038593737,0.90907884,0.41660625,-0.004893209,-0.4165872,0.9090826,0.99998057,-0.005547031,0.002840547,10.040283,-0.098098755,0.046661377,9.806503,-0.05348522,0.0033489463,-0.007522583,0.0014953613,-0.0059509277,-60.17914,-13.919067,28.259277,0,0.0,0.0,0.0,0.0
1.643554687,0.004688236,0.88918066,0.45753226,-0.0028323818,-0.4575236,0.88919294,0.999985,-0.005464652,3.735203E-4,0.0038902084,0.9084679,0.41793662,-0.0048074275,-0.41791797,0.90847206,0.99998087,-0.0055433456,0.0027416053,10.0247345,-0.10647583,0.020339966,9.806502,-0.05358993,0.0036629827,-0.0027923584,-0.004928589,-0.011291504,-60.4187,-14.099121,28.019714,0,0.0,0.0,0.0,0.0
1.651855468,0.0046466067,0.8892176,0.45746106,-0.0027986446,-0.45745265,0.8892297,0.99998534,-0.005412171,3.6300125E-4,0.0039182943,0.9077374,0.41952068,-0.004727846,-0.4195024,0.9077419,0.99998116,-0.0055402294,0.0026479086,10.059433,-0.07537842,0.01914978,9.806506,-0.05307527,0.0035598264,-0.009506226,-0.008590698,-0.004425049,-60.4187,-14.099121,28.019714,0,0.0,0.0,0.0,0.0
1.66015625,0.0046422035,0.8904135,0.4551287,-0.002740283,-0.4551206,0.8904256,0.9999855,-0.0053807185,3.2722286E-4,0.003931215,0.90738267,0.42028713,-0.0046885414,-0.42026904,0.9073874,0.9999813,-0.0055376682,0.0026021332,10.059433,-0.07537842,0.01914978,9.806508,-0.052766822,0.0032089602,-0.0066070557,-0.0055389404,-0.004272461,-60.4187,-14.099121,28.199768,0,0.0,0.0,0.0,0.0
1.668457031,0.004775507,0.89568883,0.4446558,-0.002620079,-0.44464812,0.89570147,0.9999851,-0.0054424615,2.233554E-4,0.0039563794,0.90673643,0.42167926,-0.004610232,-0.42166153,0.9067416,0.9999815,-0.005531453,0.0025120126,10.077377,-0.11843872,-0.026321411,9.806504,-0.053372316,0.0021903683,-0.014846802,-0.007522583,-0.004119873,-59.75952,-13.978577,28.799438,0,0.0,0.0,0.0,0.0
1.676757812,0.0048599234,0.8956183,0.44479674,-0.002490259,-0.4447898,0.8956315,0.9999851,-0.00546036,6.86775E-5,0.003986813,0.90631,0.42259467,-0.0045306263,-0.42257732,0.90631557,0.9999818,-0.0055279294,0.0024214152,10.02832,-0.09211731,-0.0657959,9.806503,-0.053547837,6.7349616E-4,-0.007980347,-0.005844116,-0.0074768066,-59.75952,-13.978577,28.799438,0,0.0,0.0,0.0,0.0
1.685058593,0.0049055866,0.89558023,0.44487298,-0.00234702,-0.44486678,0.8955937,0.9999852,-0.005437538,-8.038781E-5,0.004003275,0.9061016,0.42304125,-0.0044893534,-0.4230241,0.9061073,0.99998194,-0.005526578,0.0023743284,10.077377,-0.0765686,-0.06819153,9.806505,-0.053324033,-7.883351E-4,-0.007980347,-0.007369995,-0.0059509277,-59.75952,-13.978577,28.799438,0,0.0,0.0,0.0,0.0
1.693359375,0.0050031664,0.9057435,0.42379692,-0.002086271,-0.42379186,0.9057573,0.99998534,-0.005415809,-2.3067469E-4,0.0040369537,0.905695,0.42391062,-0.004403706,-0.42389387,0.90570116,0.9999821,-0.0055230516,0.0022771747,10.02832,-0.0657959,-0.0657959,9.806506,-0.053110942,-0.002262146,-0.013320923,-0.0043182373,-0.001663208,-59.27887,-13.259888,29.039001,0,0.0,0.0,0.0,0.0
1.701660156,0.005061551,0.9056972,0.42389497,-0.0019605048,-0.4238906,0.90571123,0.9999852,-0.005415351,-3.6991987E-4,0.0040562446,0.9056959,0.42390847,-0.0043574413,-0.42389193,0.9057023,0.99998224,-0.0055209068,0.0022271075,10.02832,-0.0657959,-0.0657959,9.806505,-0.053106453,-0.003627675,-0.005996704,-0.0043182373,-0.001663208,-59.27887,-13.259888,29.039001,0,0.0,0.0,0.0,0.0
1.709960937,0.005055297,0.90211856,0.4314586,-0.0020078516,-0.4314541,0.90213263,0.9999852,-0.005426854,-3.6980864E-4,0.0040960694,0.905696,0.42390805,-0.004262493,-0.42389196,0.90570277,0.99998254,-0.0055167265,0.0021242318,10.023529,-0.07298279,0.0011901855,9.806505,-0.05321926,-0.0036265838,-0.014083862,0.006225586,-0.0030517578,-59.27887,-13.499451,28.919983,0,0.0,0.0,0.0,0.0
1.718261718,0.005071222,0.9047534,0.42590562,-0.0020196536,-0.42590097,0.9047676,0.9999851,-0.0054484587,-3.3254994E-4,0.0041333567,0.9055554,0.42420778,-0.004172849,-0.4241921,0.90556264,0.9999828,-0.005513168,0.0020254091,10.07019,-0.088531494,-0.015548706,9.806504,-0.05343113,-0.0032612009,-0.0053863525,0.009429932,-0.0024414063,-58.918762,-13.198853,28.73993,1,0.0,0.0,0.0,0.0
1.7265625,0.005044452,0.9047747,0.42586052,-0.002084586,-0.4258555,0.90478873,0.9999851,-0.0054519065,-2.621269E-4,0.004152003,0.90553945,0.42424166,-0.0041298154,-0.4242262,0.9055468,0.99998283,-0.0055118734,0.0019783224,10.07019,-0.088531494,-0.015548706,9.806504,-0.053464938,-0.002570587,-0.011184692,0.012786865,-0.010375977,-58.918762,-13.198853,28.73993,1,0.0,0.0,0.0,0.0
1.734863281,0.00498127,0.90482515,0.4257542,-0.0021723586,-0.42574868,0.90483886,0.9999852,-0.005432137,-1.5516403E-4,0.004187242,0.90550923,0.42430586,-0.004048684,-0.42429075,0.905517,0.999983,-0.005509499,0.0018895129,10.065414,-0.08135986,-0.0143585205,9.806505,-0.053271066,-0.0015216394,-0.010116577,0.02470398,-0.0074768066,-58.918762,-13.198853,28.73993,1,0.0,0.0,0.0,0.0
1.743164062,0.00489383,0.90966016,0.41532445,-0.0022928577,-0.4153181,0.90967333,0.9999854,-0.0054040668,5.3224954E-5,0.004218609,0.9054822,0.4243634,-0.0039742505,-0.42434862,0.9054902,0.99998325,-0.005506435,0.0018084521,10.060623,-0.08375549,0.01914978,9.806507,-0.052995794,5.219585E-4,-0.010421753,0.022720337,-0.006866455,-58.499146,-12.779236,28.678894,1,0.0,0.0,0.0,0.0
1.751464843,0.0047909925,0.9097402,0.41515037,-0.0024737178,-0.41514307,0.9097527,0.9999854,-0.0053855833,2.614934E-4,0.0042324625,0.90556663,0.42418298,-0.003940696,-0.42416838,0.9055748,0.9999833,-0.0055043874,0.0017732859,10.060623,-0.08375549,0.01914978,9.806507,-0.052814532,0.0025643744,-0.010116577,0.016143799,-0.0033569336,-58.499146,-12.779236,28.678894,1,0.0,0.0,0.0,0.0
1.759765625,0.0048018657,0.91711336,0.39859766,-0.0024930504,-0.39859006,0.9171259,0.9999854,-0.0053976392,3.724337E-4,0.0042551663,0.90573364,0.42382598,-0.0038827239,-0.42381167,0.905742,0.9999834,-0.0054996824,0.0017133246,10.047455,-0.102890015,-0.0143585205,9.806507,-0.052932758,0.003652327,-0.014389038,0.016143799,-0.0073242188,-58.439636,-12.419128,29.278564,1,0.0,0.0,0.0,0.0
1.768066406,0.0047649676,0.9212609,0.38891613,-0.002587894,-0.3889079,0.92127305,0.99998534,-0.0053963093,5.3099205E-4,0.0042781876,0.90619755,0.42283303,-0.003828278,-0.42281896,0.9062061,0.99998355,-0.005495642,0.0016602775,10.043869,-0.07777405,0.01675415,9.806506,-0.05291972,0.005207253,-0.0035552979,0.021499634,-0.0022735596,-57.77893,-12.239075,29.699707,1,0.0,0.0,0.0,0.0
1.776367187,0.0046935864,0.921311,0.38879794,-0.0027557493,-0.38878885,0.92132276,0.9999852,-0.005395738,7.140883E-4,0.004288789,0.9065111,0.4221602,-0.003803731,-0.42214623,0.9065198,0.9999836,-0.0054936553,0.0016376281,10.043869,-0.07777405,0.01675415,9.806505,-0.052914117,0.0070028147,0.0025482178,0.025009155,-0.005493164,-57.77893,-12.239075,29.699707,1,0.0,0.0,0.0,0.0
1.784667968,0.0046195555,0.9213632,0.38867542,-0.00296923,-0.3886652,0.92137426,0.9999849,-0.0054104063,9.4027875E-4,0.0043061655,0.9071202,0.4208494,-0.0037626978,-0.42083564,0.90712905,0.9999836,-0.0054897773,0.0016010315,10.069,-0.093322754,0.034698486,9.806502,-0.05305796,0.009220985,-0.008743286,0.01890564,-0.0073242188,-57.77893,-12.239075,29.699707,1,0.0,0.0,0.0,0.0
1.79296875,0.0045648552,0.9226166,0.38569126,-0.0031367766,-0.38568014,0.92262715,0.9999846,-0.005421487,0.0011334681,0.004319554,0.90770566,0.41958517,-0.0037315707,-0.41957155,0.9077146,0.99998367,-0.005486634,0.0015748058,10.0785675,-0.10887146,0.008377075,9.8064995,-0.053166628,0.011115526,-0.0069122314,0.0040893555,-0.0048828125,-57.77893,-12.179565,29.818726,1,0.0,0.0,0.0,0.0
1.801269531,0.0045690695,0.9226137,0.38569823,-0.0032116543,-0.38568676,0.92262423,0.99998444,-0.0054542636,0.0012008867,0.0043248283,0.90801615,0.41891283,-0.0037198148,-0.41889927,0.9080251,0.9999837,-0.005485331,0.0015659846,10.0785675,-0.10887146,0.008377075,9.806498,-0.053488057,0.0117766755,-0.005996704,-0.0026397705,-0.00793457,-57.77893,-12.179565,29.818726,1,0.0,0.0,0.0,0.0
1.809570312,0.00451703,0.91851556,0.395359,-0.0033225324,-0.39534706,0.9185258,0.99998426,-0.005462602,0.001266003,0.004335075,0.9086171,0.41760775,-0.0036999779,-0.41759428,0.9086261,0.9999838,-0.0054841014,0.0015515605,10.045074,-0.11366272,0.07058716,9.806496,-0.053569827,0.012415249,-0.008285522,-0.0067596436,-0.0061035156,-58.3786,-12.419128,29.519653,1,0.0,0.0,0.0,0.0
1.817871093,0.0044109365,0.9110639,0.4122413,-0.0034015193,-0.41222927,0.9110737,0.9999845,-0.0054209353,0.0012806848,0.0043425867,0.90901935,0.41673127,-0.0036851459,-0.41671783,0.9090284,0.9999838,-0.00548325,0.0015402357,10.039093,-0.06341553,0.055038452,9.806499,-0.05316122,0.012559229,-9.613037E-4,-0.017440796,-0.0022735596,-58.61969,-13.018799,29.399109,1,0.0,0.0,0.0,0.0
1.826171875,0.004405007,0.9110685,0.41223148,-0.0033581,-0.4122197,0.9110784,0.99998474,-0.0053976206,0.0012436288,0.0043440023,0.9090605,0.4166415,-0.0036794296,-0.4166281,0.90906954,0.9999838,-0.0054820036,0.0015349906,10.039093,-0.06341553,0.055038452,9.8065,-0.05293258,0.012195832,-0.006454468,-0.016830444,-0.003967285,-58.61969,-13.018799,29.399109,1,0.0,0.0,0.0,0.0
1.834472656,0.0044293413,0.91105014,0.41227183,-0.0032519156,-0.41226056,0.9110603,0.9999849,-0.0053760703,0.0011366152,0.0043464857,0.90914035,0.4164672,-0.0036666924,-0.4164538,0.9091495,0.99998385,-0.005478662,0.0015234274,10.042679,-0.06341553,0.023925781,9.806502,-0.05272124,0.011146388,-0.01423645,-0.005996704,-0.0051879883,-58.61969,-13.018799,29.399109,1,0.0,0.0,0.0,0.0
1.842773437,0.0044374685,0.91102344,0.4123306,-0.0031884087,-0.41231966,0.9110336,0.99998504,-0.005357362,0.0010750595,0.0043481844,0.9091788,0.41638327,-0.0036583922,-0.41636994,0.909188,0.99998385,-0.00547661,0.0015156791,10.042679,-0.06341553,0.023925781,9.806504,-0.052537777,0.010542734,-0.01423645,-0.0052337646,-4.4250488E-4,-58.979797,-13.018799,29.399109,1,0.0,0.0,0.0,0.0
1.851074218,0.0044479473,0.9110155,0.4123481,-0.0031186515,-0.4123375,0.91102576,0.9999852,-0.005338165,0.0010070844,0.004351779,0.90925217,0.41622296,-0.003639835,-0.41620976,0.90926135,0.9999839,-0.0054718875,0.0014982749,10.037888,-0.055038452,-0.010772705,9.806506,-0.05234952,0.009876125,-0.007980347,-0.003250122,-0.0038146973,-58.979797,-13.018799,29.399109,1,0.0,0.0,0.0,0.0
1.859375,0.0044640847,0.9107412,0.41295362,-0.003024143,-0.41294357,0.91075176,0.9999855,-0.0053145033,9.1079617E-4,0.004355711,0.90932226,0.41606975,-0.003619121,-0.4160566,0.90933156,0.99998397,-0.005466592,0.0014787249,10.072586,-0.07537842,-0.034698486,9.806508,-0.052117474,0.008931859,-0.0124053955,-0.01133728,-0.0013580322,-59.039307,-12.95929,29.219055,1,0.0,0.0,0.0,0.0
1.867675781,0.004491918,0.9107198,0.41300038,-0.0029051257,-0.41299093,0.91073054,0.9999857,-0.005290745,7.9063413E-4,0.0043579037,0.9093508,0.41600746,-0.0036072591,-0.4159944,0.90936005,0.999984,-0.0054635503,0.0014674002,10.084549,-0.050247192,-0.020339966,9.80651,-0.051884484,0.0077534723,-0.018218994,-0.008285522,-0.004119873,-59.039307,-12.95929,29.219055,1,0.0,0.0,0.0,0.0
1.875976562,0.004475362,0.90250933,0.43064693,-0.002897566,-0.43063775,0.9025202,0.9999858,-0.0052869325,6.878208E-4,0.0043633073,0.9094052,0.41588843,-0.0035794508,-0.4158755,0.9094145,0.9999841,-0.0054567074,0.0014405786,10.052246,-0.06939697,-0.023925781,9.806511,-0.051847097,0.006745218,-0.010574341,-0.004470825,-0.0021362305,-59.27887,-13.619995,29.159546,1,0.0,0.0,0.0,0.0
1.884277343,0.0044699376,0.9025137,0.4306379,-0.0028865086,-0.43062875,0.9025245,0.9999858,-0.005277269,6.802299E-4,0.0043672966,0.9091368,0.4164749,-0.0035523707,-0.41646215,0.90914613,0.99998415,-0.005449984,0.0014107769,10.025925,-0.061019897,0.023925781,9.806512,-0.051752336,0.006670777,-0.01210022,0.0025634766,0.0012359619,-59.27887,-13.619995,29.159546,1,0.0,0.0,0.0,0.0
1.892578125,0.004430528,0.8971535,0.4416967,-0.0029580626,-0.44168735,0.89716417,0.9999858,-0.005281477,6.969284E-4,0.0043691066,0.9090064,0.41675922,-0.0035390768,-0.4167465,0.90901583,0.9999842,-0.00544653,0.0013962336,10.025925,-0.061019897,0.023925781,9.806511,-0.051793598,0.006834533,-0.010116577,1.2207031E-4,-0.0021362305,-59.098816,-13.739014,28.49884,1,0.0,0.0,0.0,0.0
1.900878906,0.0044310912,0.897153,0.44169757,-0.0028882152,-0.44168857,0.8971637,0.999986,-0.005251133,6.340086E-4,0.0043717884,0.90832853,0.4182346,-0.003504642,-0.4182221,0.908338,0.9999843,-0.0054368237,0.0013549878,10.037888,-0.04067993,-0.04547119,9.806513,-0.05149602,0.0062175007,-0.007827759,0.0031738281,-0.0019683838,-59.098816,-13.739014,28.49884,1,0.0,0.0,0.0,0.0
1.909179687,0.0044177654,0.89337856,0.4492831,-0.0029487375,-0.44927388,0.8933892,0.9999859,-0.0052716015,6.4955227E-4,0.0043726326,0.908111,0.41870677,-0.0034922608,-0.41869435,0.9081205,0.9999843,-0.00543311,0.0013405638,10.071396,-0.08255005,0.0,9.806512,-0.05169675,0.006369932,-0.007827759,0.013092041,-0.0024414063,-59.399414,-13.978577,28.379822,1,0.0,0.0,0.0,0.0
1.917480468,0.004408757,0.8933862,0.44926798,-0.0030166102,-0.4492584,0.8933968,0.9999857,-0.0052940357,7.143265E-4,0.0043731257,0.9078265,0.4193232,-0.0034813206,-0.4193109,0.90783596,0.9999844,-0.0054298798,0.0013267357,10.071396,-0.08255005,0.0,9.80651,-0.051916756,0.00700515,-0.012557983,0.013092041,-0.0024414063,-59.399414,-13.978577,28.379822,1,0.0,0.0,0.0,0.0
1.92578125,0.004428966,0.89564276,0.44475204,-0.003074532,-0.44474208,0.8956533,0.99998546,-0.0053342227,7.839349E-4,0.004374275,0.9070049,0.42109734,-0.003453739,-0.42108515,0.90701455,0.99998444,-0.0054218913,0.0012906159,10.059433,-0.105285645,0.029907227,9.806508,-0.05231086,0.007687776,-0.01210022,-0.0024719238,-0.0032043457,-59.15985,-13.919067,28.619385,1,0.0,0.0,0.0,0.0
1.934082031,0.004421804,0.8956487,0.44474012,-0.003108422,-0.44473,0.89565927,0.9999854,-0.0053428696,8.175454E-4,0.004375143,0.90678376,0.4215734,-0.0034461077,-0.4215613,0.90679336,0.9999845,-0.005420138,0.0012804834,10.04866,-0.08255005,0.017944336,9.806507,-0.052395653,0.008017382,-0.009963989,5.79834E-4,-0.0077819824,-59.15985,-13.919067,28.619385,1,0.0,0.0,0.0,0.0
1.942382812,0.0044523417,0.90226656,0.43115577,-0.0030556782,-0.43114576,0.9022771,0.9999854,-0.005334719,8.374281E-4,0.004375844,0.9065669,0.42203942,-0.0034393822,-0.42202732,0.9065765,0.9999845,-0.0054185926,0.0012713044,10.04866,-0.08255005,0.017944336,9.806507,-0.052315723,0.008212364,-0.011642456,0.004547119,-0.0059509277,-58.979797,-13.499451,28.858948,1,0.0,0.0,0.0,0.0
1.950683593,0.004429324,0.9022849,0.43111733,-0.0030954315,-0.43110713,0.90229535,0.9999854,-0.0053310534,8.8344817E-4,0.00437871,0.9063983,0.42240137,-0.0034241667,-0.42238933,0.906408,0.99998456,-0.0054152706,0.0012541385,10.055832,-0.095718384,0.008377075,9.806507,-0.052279778,0.008663667,-0.008895874,0.01461792,-0.009613037,-58.979797,-13.499451,28.858948,1,0.0,0.0,0.0,0.0
1.958984375,0.0043703183,0.9016562,0.43243155,-0.003209387,-0.43242082,0.9016663,0.99998534,-0.005328408,0.0010039471,0.004380578,0.90623695,0.42274746,-0.003411141,-0.4227355,0.90624666,0.99998456,-0.0054119355,0.001239476,10.058228,-0.098098755,0.021530151,9.806506,-0.05225383,0.009845358,-0.009811401,0.01461792,-0.0077819824,-58.61969,-13.499451,28.73993,1,0.0,0.0,0.0,0.0
1.967285156,0.004311656,0.9017033,0.43233398,-0.003336233,-0.43232262,0.9017129,0.99998516,-0.0053302418,0.001144266,0.004380299,0.9061463,0.42294165,-0.0034071603,-0.42292973,0.90615606,0.99998456,-0.0054102647,0.0012348269,10.058228,-0.098098755,0.021530151,9.806505,-0.05227182,0.011221417,-0.00843811,0.014312744,-0.0059509277,-58.61969,-13.499451,28.73993,1,0.0,0.0,0.0,0.0
1.975585937,0.0042150985,0.8962577,0.44351363,-0.0034869676,-0.44350168,0.89626676,0.99998504,-0.00532437,0.0012558182,0.00437759,0.90597224,0.42331448,-0.003404273,-0.42330262,0.90598196,0.9999846,-0.005407096,0.0012311316,10.061813,-0.088531494,0.008377075,9.806503,-0.05221424,0.012315369,-0.006454468,0.012329102,-0.0036621094,-58.3786,-13.739014,28.318787,1,0.0,0.0,0.0,0.0
1.983886718,0.0042129746,0.89625955,0.44351017,-0.0035364223,-0.44349802,0.89626855,0.9999849,-0.0053443946,0.0013011062,0.004371196,0.90559614,0.42411852,-0.003407632,-0.42410663,0.90560585,0.9999846,-0.0054038204,0.0012320852,10.072586,-0.07058716,0.022735596,9.806502,-0.05241061,0.012759494,-0.0037078857,0.0027160645,-0.0015258789,-58.3786,-13.739014,28.318787,1,0.0,0.0,0.0,0.0
1.9921875,0.0042130966,0.89922357,0.43746904,-0.0035545693,-0.4374567,0.89923245,0.9999848,-0.0053435676,0.0013533053,0.004368046,0.9054135,0.42450818,-0.0034103035,-0.4244963,0.9054232,0.9999846,-0.005402632,0.0012335157,10.072586,-0.07058716,0.022735596,9.806501,-0.052402496,0.013271391,-0.008285522,-0.007217407,-9.1552734E-4,-58.198547,-13.679504,28.678894,1,0.0,0.0,0.0,0.0
2.000488281,0.0041983407,0.8992355,0.4374448,-0.003577971,-0.43743232,0.8992442,0.99998474,-0.005340498,0.0013809483,0.004362012,0.9051719,0.42502323,-0.0034160018,-0.4250113,0.9051815,0.9999846,-0.005400293,0.0012381648,10.041473,-0.057434082,0.08255005,9.806501,-0.0523724,0.013542479,-0.007369995,-0.022033691,1.5258789E-5,-58.198547,-13.679504,28.678894,1,0.0,0.0,0.0,0.0
2.008789062,0.004314373,0.9057397,0.4238124,-0.0033824355,-0.4238007,0.90574926,0.99998504,-0.0053412574,0.0012351722,0.004355622,0.90494007,0.42551675,-0.0034224428,-0.4255048,0.90494967,0.9999847,-0.0053979256,0.0012437677,10.034302,-0.056228638,0.026321411,9.806503,-0.052379843,0.012112902,-0.011795044,-0.034851074,-0.0024414063,-58.139038,-13.198853,28.799438,1,0.0,0.0,0.0,0.0
2.017089843,0.0044016046,0.90567154,0.42395723,-0.0031869137,-0.42394647,0.9056816,0.9999852,-0.0053375675,0.0010202522,0.004354776,0.9049561,0.42548266,-0.0034216885,-0.4254707,0.9049657,0.9999847,-0.005396792,0.0012436485,10.034302,-0.056228638,0.026321411,9.806505,-0.05234366,0.010005257,-0.0096588135,-0.0345459,-2.89917E-4,-58.139038,-13.198853,28.799438,1,0.0,0.0,0.0,0.0
2.025390625,0.004456269,0.89900184,0.4379222,-0.0030380127,-0.43791232,0.8990125,0.9999854,-0.005336655,7.7972363E-4,0.004356584,0.9049844,0.4254224,-0.003412526,-0.4254105,0.904994,0.9999847,-0.0053944476,0.0012349463,10.0247345,-0.053833008,0.028717041,9.806507,-0.052334707,0.007646477,-0.004928589,-0.029815674,0.0018463135,-58.61969,-13.679504,28.678894,1,0.0,0.0,0.0,0.0
2.033691406,0.004617592,0.8988708,0.43818948,-0.0028299917,-0.43818063,0.89888257,0.99998534,-0.0053907447,5.2045763E-4,0.004360357,0.90475076,0.42591897,-0.0033975474,-0.42590714,0.9047605,0.99998474,-0.0053921584,0.0012168267,10.074982,-0.08494568,0.0059814453,9.806506,-0.052865148,0.005103946,-0.00920105,-0.036987305,-0.0019683838,-58.61969,-13.679504,28.678894,1,0.0,0.0,0.0,0.0
2.041992187,0.0047570122,0.8968698,0.44226927,-0.002625203,-0.44226155,0.89688236,0.9999852,-0.005427526,2.5062176E-4,0.0043653506,0.9046348,0.42616525,-0.0033861052,-0.42615348,0.90464455,0.99998474,-0.0053921305,0.0012028795,10.074982,-0.08494568,0.0059814453,9.806505,-0.05322585,0.00245776,-0.012710571,-0.030426025,-0.0065612793,-58.979797,-13.859558,28.73993,1,0.0,0.0,0.0,0.0
2.050292968,0.0048846966,0.89676476,0.44248065,-0.0023759971,-0.44247428,0.89677805,0.9999852,-0.005431821,-3.0641997E-5,0.004380347,0.9043328,0.4268056,-0.003355619,-0.42679396,0.9043427,0.9999848,-0.0053935316,0.0011650906,10.065414,-0.08015442,-0.020339966,9.806505,-0.05326797,-3.0049533E-4,-0.010879517,-0.024017334,-0.0073242188,-58.979797,-13.859558,28.73993,1,0.0,0.0,0.0,0.0
2.05859375,0.004950538,0.8929391,0.45015028,-0.002206219,-0.45014498,0.8929528,0.99998534,-0.0054137264,-2.584403E-4,0.0043996824,0.9040382,0.427429,-0.003316395,-0.42741758,0.90404826,0.99998486,-0.0053950483,0.0011176461,10.080963,-0.07896423,-0.025131226,9.806506,-0.053090524,-0.0025344335,-0.017608643,-0.020187378,-0.009002686,-59.21936,-13.978577,28.379822,1,0.0,0.0,0.0,0.0
2.066894531,0.005012453,0.8928866,0.45025364,-0.0020133012,-0.45024934,0.8929005,0.9999854,-0.0053821183,-4.592039E-4,0.0044101244,0.9038218,0.4278862,-0.0032938912,-0.42787492,0.90383196,0.99998486,-0.005395422,0.0010901092,10.080963,-0.07896423,-0.025131226,9.806507,-0.05278055,-0.004503252,-0.016067505,-0.02217102,-0.00579834,-59.21936,-13.978577,28.379822,1,0.0,0.0,0.0,0.0
2.075195312,0.005076999,0.8886394,0.45857838,-0.0018315697,-0.45857522,0.8886536,0.9999854,-0.005351612,-7.005809E-4,0.0044327225,0.9033995,0.42877698,-0.0032425497,-0.42876598,0.9034098,0.9999849,-0.005394895,0.0010287173,10.053452,-0.07537842,-0.06819153,9.806507,-0.052481387,-0.0068703517,-0.0066070557,-0.007827759,-0.0074768066,-59.039307,-14.338684,28.439331,1,0.0,0.0,0.0,0.0
2.083496093,0.0050537637,0.88865936,0.45854014,-0.0017164375,-0.45853764,0.8886734,0.9999858,-0.005278201,-7.9201255E-4,0.0044563203,0.90283394,0.42996633,-0.0031858706,-0.4299556,0.9028444,0.999985,-0.005393181,9.6029224E-4,10.021133,-0.037094116,0.0023956299,9.806511,-0.05176147,-0.00776699,-0.011184692,-0.014541626,-0.0022735596,-59.039307,-14.338684,28.439331,1,0.0,0.0,0.0,0.0
2.091796875,0.005036883,0.8874273,0.46092018,-0.0016272459,-0.46091813,0.8874411,0.999986,-0.005219968,-8.7752833E-4,0.004467301,0.90255946,0.4305421,-0.0031560902,-0.43053153,0.90257007,0.99998504,-0.0053908816,9.2524523E-4,10.021133,-0.037094116,0.0023956299,9.806513,-0.051190402,-0.008605613,-0.01637268,-0.024932861,-0.004425049,-59.15985,-14.279175,28.138733,1,0.0,0.0,0.0,0.0
2.100097656,0.005131771,0.88734484,0.4610778,-0.0015333889,-0.46107632,0.887359,0.9999856,-0.0052607353,-0.0010054935,0.00448783,0.90197986,0.43175486,-0.0030946562,-0.4317446,0.90199065,0.99998516,-0.0053841136,8.5372076E-4,10.057037,-0.10647583,0.039474487,9.806509,-0.051590193,-0.009860523,-0.025848389,-0.036834717,-0.0032043457,-59.15985,-14.279175,28.138733,1,0.0,0.0,0.0,0.0
2.108398437,0.0053524547,0.88954663,0.45681304,-0.0012216656,-0.45681342,0.8895617,0.9999849,-0.0053194114,-0.0013583447,0.004511248,0.90141857,0.43292513,-0.0030320624,-0.4329152,0.90142953,0.9999852,-0.005379228,7.8016974E-4,10.051056,-0.12083435,-0.06341553,9.806502,-0.052165605,-0.013320811,-0.03225708,-0.023712158,-0.005645752,-59.15985,-14.279175,28.49884,1,0.0,0.0,0.0,0.0
2.116699218,0.00555568,0.8893733,0.45714808,-9.642914E-4,-0.45715013,0.88938904,0.999984,-0.005381984,-0.0016821647,0.0045270985,0.90118736,0.43340605,-0.0029953837,-0.4333963,0.9011984,0.9999852,-0.0053780316,7.3737424E-4,10.051056,-0.12083435,-0.06341553,9.806494,-0.052779235,-0.016496401,-0.05531311,-0.022033691,7.7819824E-4,-59.15985,-14.279175,28.49884,1,0.0,0.0,0.0,0.0
2.125,0.0055889436,0.8834608,0.46847174,-9.543401E-4,-0.46847415,0.88347673,0.99998397,-0.005384783,-0.0017751533,0.0045465785,0.9009572,0.43388408,-0.0029542143,-0.43387455,0.90096843,0.9999853,-0.0053781103,6.8897597E-4,10.073776,-0.06700134,0.049057007,9.806493,-0.052806683,-0.017408308,-0.06661987,-0.016830444,3.2043457E-4,-59.638977,-14.639282,28.318787,1,0.0,0.0,0.0,0.0
2.133300781,0.0056950795,0.88336724,0.46864688,-7.9410814E-4,-0.46865034,0.8833834,0.9999835,-0.005403095,-0.0019675118,0.0046033245,0.8999654,0.4359369,-0.0028343943,-0.43592802,0.8999771,0.9999854,-0.0053785034,5.4413883E-4,10.0295105,-0.07777405,-0.032302856,9.806488,-0.05298626,-0.019294702,-0.08067322,-0.035461426,-0.0065612793,-59.638977,-14.639282,28.318787,1,0.0,0.0,0.0,0.0
2.141601562,0.005808291,0.886081,0.46349406,-5.3445925E-4,-0.46349904,0.88609725,0.99998295,-0.005394429,-0.002218563,0.004623649,0.89964527,0.436597,-0.0027927281,-0.43658835,0.8996571,0.9999854,-0.005378995,4.938332E-4,10.0295105,-0.07777405,-0.032302856,9.806483,-0.05290128,-0.021756671,-0.055007935,-0.034088135,-0.005645752,-59.579468,-14.579773,28.619385,1,0.0,0.0,0.0,0.0
2.149902343,0.005907838,0.8859949,0.4636574,-2.2337167E-4,-0.4636643,0.88601094,0.9999825,-0.0053379773,-0.0025413476,0.004645953,0.89938194,0.4371389,-0.0027468659,-0.4371305,0.89939386,0.9999854,-0.005379304,4.3959377E-4,10.003189,-0.052642822,-0.06939697,9.8064785,-0.052347675,-0.024922108,-0.059448242,-0.024017334,-0.008239746,-59.579468,-14.579773,28.619385,1,0.0,0.0,0.0,0.0
2.158203125,0.006075636,0.8858496,0.4639327,4.2274594E-5,-0.46394145,0.8858658,0.9999815,-0.005362586,-0.0028561887,0.0046929605,0.89886695,0.43819648,-0.0026455307,-0.4381886,0.8988791,0.99998546,-0.005377667,3.215783E-4,10.079758,-0.09451294,-0.093322754,9.806469,-0.052589007,-0.028009644,-0.06173706,-0.026611328,0.0033721924,-59.579468,-14.579773,28.619385,1,0.0,0.0,0.0,0.0
2.166503906,0.0062764124,0.8978025,0.44035363,4.7701364E-4,-0.44036493,0.8978187,0.99998015,-0.0054250257,-0.0031921759,0.0047446894,0.8983656,0.4392228,-0.0025375374,-0.4392155,0.89837813,0.9999855,-0.0053770696,1.956951E-4,10.083359,-0.093322754,-0.11126709,9.806456,-0.05320133,-0.031304553,-0.06036377,-0.031188965,-2.89917E-4,-58.918762,-13.978577,29.3396,1,0.0,0.0,0.0,0.0
2.174804687,0.006480227,0.8954414,0.44513226,7.346021E-4,-0.44514573,0.8954578,0.9999787,-0.005475775,-0.0035424384,0.0047752284,0.8983544,0.4392454,-0.0024772505,-0.43923843,0.8983671,0.9999855,-0.005378029,1.2798521E-4,10.080963,-0.10647583,-0.037094116,9.806442,-0.053699013,-0.034739457,-0.062805176,-0.028137207,-0.005645752,-58.799744,-14.039612,29.09851,1,0.0,0.0,0.0,0.0
2.183105468,0.0066283573,0.8953205,0.44537324,9.314576E-4,-0.44538838,0.89533705,0.99997765,-0.0055197678,-0.0037861464,0.004841975,0.89823973,0.43947923,-0.0023495608,-0.43947294,0.8982528,0.9999855,-0.0053819004,-1.7448016E-5,10.057037,-0.100494385,-0.119644165,9.806431,-0.05413043,-0.037129413,-0.03730774,-0.028900146,-0.003967285,-58.799744,-14.039612,29.09851,1,0.0,0.0,0.0,0.0
2.19140625,0.0068053217,0.8921963,0.45159656,0.0011583858,-0.45161375,0.8922128,0.99997616,-0.0055486723,-0.0041068844,0.0049118917,0.89812493,0.439713,-0.0022191785,-0.43970743,0.89813834,0.9999855,-0.0053873598,-1.6669589E-4,10.057037,-0.100494385,-0.119644165,9.8064165,-0.05441389,-0.040274777,-0.017913818,-0.018051147,-0.004272461,-58.918762,-14.279175,29.09851,1,0.0,0.0,0.0,0.0
2.199707031,0.0069503686,0.89207625,0.4518314,0.0013783115,-0.45185044,0.8920926,0.9999749,-0.0055776085,-0.0043700864,0.004948865,0.89800787,0.43995154,-0.002151143,-0.43994635,0.89802146,0.9999854,-0.0053905863,-2.4549206E-4,10.023529,-0.086135864,-0.06700134,9.806404,-0.054697655,-0.042855907,-0.022338867,-0.013473511,-0.0019683838,-58.918762,-14.279175,29.09851,1,0.0,0.0,0.0,0.0
2.208007812,0.0070317327,0.8920089,0.45196304,0.0015297409,-0.4519833,0.89202505,0.99997413,-0.0055810963,-0.0045427685,0.0050263098,0.8977761,0.44042343,-0.0020103855,-0.44041902,0.8977901,0.9999854,-0.005397992,-4.0880643E-4,10.033112,-0.08015442,-0.098098755,9.8063965,-0.054731857,-0.044549342,-0.024475098,-0.0066070557,-0.004272461,-58.918762,-14.279175,29.09851,1,0.0,0.0,0.0,0.0
2.216308593,0.0070622345,0.89267117,0.450653,0.0015860025,-0.45067364,0.8926872,0.9999738,-0.005589631,-0.0045985426,0.005104002,0.89755064,0.44088188,-0.0018691381,-0.4408783,0.89756495,0.9999852,-0.0054052426,-5.725975E-4,10.034302,-0.086135864,-0.08494568,9.806394,-0.05481556,-0.045096304,-0.012557983,0.0152282715,-0.007019043,-59.399414,-14.099121,28.858948,1,0.0,0.0,0.0,0.0
2.224609375,0.007026657,0.89858955,0.43873397,0.0016600522,-0.4387547,0.8986054,0.99997395,-0.0055858707,-0.004574684,0.005142394,0.8974541,0.4410779,-0.0017996659,-0.44107473,0.8974685,0.99998516,-0.0054089306,-6.530626E-4,10.079758,-0.07298279,-0.03111267,9.806395,-0.05477868,-0.044862326,-0.010726929,0.00592041,-0.006866455,-59.51996,-13.859558,29.3396,1,0.0,0.0,0.0,0.0
2.232910156,0.0070276666,0.8985888,0.43873572,0.0016293088,-0.43875626,0.8986047,0.99997395,-0.0056002573,-0.0045475103,0.005217365,0.897499,0.44098553,-0.0016628207,-0.44098312,0.89751387,0.99998504,-0.005415937,-8.083899E-4,10.086945,-0.110076904,-0.08375549,9.806395,-0.054919764,-0.044595845,-0.0069122314,0.008361816,-0.0077819824,-59.51996,-13.859558,29.3396,1,0.0,0.0,0.0,0.0
2.241210937,0.007020428,0.90007365,0.43568134,0.0016224249,-0.43570176,0.9000897,0.999974,-0.0056121536,-0.0045191143,0.00528941,0.8975423,0.44089657,-0.0015325284,-0.44089493,0.8975574,0.9999848,-0.0054232357,-9.565648E-4,10.086945,-0.110076904,-0.08375549,9.806396,-0.055036426,-0.044317372,-0.01637268,0.02394104,-0.010528564,-59.339905,-13.739014,29.3396,1,0.0,0.0,0.0,0.0
2.249511718,0.0069580562,0.9001238,0.43557867,0.0015512074,-0.43559837,0.9001397,0.9999745,-0.00558755,-0.004427197,0.0053244014,0.89759326,0.44079238,-0.0014695945,-0.44079113,0.89760846,0.99998474,-0.005427014,-0.0010278509,10.047455,-0.090927124,-0.09211731,9.8064,-0.054795146,-0.04341597,-0.014083862,0.031570435,-0.009613037,-59.339905,-13.739014,29.3396,1,0.0,0.0,0.0,0.0
2.2578125,0.0068711713,0.9001936,0.43543562,0.0014428708,-0.43545437,0.9002096,0.9999754,-0.0055572176,-0.0042909454,0.0053897416,0.897694,0.44058642,-0.0013503577,-0.44058585,0.8977095,0.99998456,-0.0054333713,-0.001162436,10.0295105,-0.035888672,-0.015548706,9.806409,-0.05449769,-0.042079803,-0.014541626,0.015838623,-0.0073242188,-59.339905,-13.739014,29.3396,1,0.0,0.0,0.0,0.0
2.266113281,0.0067324047,0.90105677,0.43364894,0.0012898217,-0.4336662,0.9010726,0.99997646,-0.0055070557,-0.0040818187,0.0054490473,0.89779353,0.44038284,-0.0012399909,-0.440383,0.89780915,0.9999844,-0.0054382756,-0.0012864118,10.00798,-0.059814453,0.009567261,9.806419,-0.05400577,-0.04002897,-0.003250122,0.008666992,-0.0073242188,-58.979797,-13.679504,29.3396,1,0.0,0.0,0.0,0.0
2.274414062,0.0066764504,0.8985494,0.43882167,0.0012387305,-0.43883854,0.89856505,0.99997693,-0.005455643,-0.004042944,0.005475082,0.8978593,0.44024852,-0.0011895839,-0.44024897,0.897875,0.9999843,-0.005439651,-0.0013423201,10.053452,-0.049057007,-0.07298279,9.806424,-0.05350158,-0.03964774,-0.006454468,0.012481689,-0.0035095215,-59.098816,-13.859558,29.278564,1,0.0,0.0,0.0,0.0
2.282714843,0.0065817786,0.8986258,0.4386667,0.0011879008,-0.4386829,0.8986412,0.99997765,-0.0053935647,-0.003954792,0.005522794,0.89788663,0.44019204,-0.0010935086,-0.44019312,0.8979024,0.99998415,-0.0054402845,-0.0014492491,10.0785675,-0.07417297,-0.06460571,9.806431,-0.0528928,-0.03878326,-0.014083862,0.030807495,-0.012207031,-59.098816,-13.859558,29.278564,1,0.0,0.0,0.0,0.0
2.291015625,0.0064525697,0.8987299,0.43845522,9.945075E-4,-0.43846992,0.8987454,0.9999787,-0.00536317,-0.003723051,0.0055440306,0.8979015,0.4401616,-0.001047955,-0.44016293,0.89791733,0.9999841,-0.0054393504,-0.0014993163,10.08934,-0.088531494,-0.021530151,9.806441,-0.052594732,-0.036510658,-0.013168335,0.026687622,-0.011138916,-59.098816,-13.859558,29.278564,1,0.0,0.0,0.0,0.0
2.299316406,0.006316054,0.8929376,0.45013613,7.27199E-4,-0.4501491,0.8929531,0.9999798,-0.0053126016,-0.0034925095,0.005580117,0.8979343,0.4400941,-9.672147E-4,-0.4400959,0.8979503,0.99998397,-0.0054363334,-0.0015872912,10.064209,-0.07417297,-0.013153076,9.806452,-0.052098826,-0.03424982,-0.013626099,0.017837524,-0.0033569336,-59.21936,-14.099121,28.799438,1,0.0,0.0,0.0,0.0
2.307617187,0.006224294,0.89301443,0.4499851,5.760025E-4,-0.44999692,0.8930299,0.99998045,-0.0052992883,-0.0033152916,0.0056085796,0.8977386,0.44049293,-8.996866E-4,-0.44049513,0.89775455,0.9999839,-0.0054314337,-0.0016628689,10.064209,-0.07417297,-0.013153076,9.806458,-0.051968265,-0.032511905,-0.008590698,0.014923096,-0.0022735596,-59.21936,-14.099121,28.799438,1,0.0,0.0,0.0,0.0
2.315917968,0.006124867,0.89794934,0.440056,5.009747E-4,-0.44006693,0.8979647,0.9999811,-0.0052794586,-0.003145202,0.0056205685,0.89764506,0.44068325,-8.7007054E-4,-0.44068563,0.89766103,0.99998385,-0.005428791,-0.0016958893,10.052246,-0.061019897,0.015548706,9.806465,-0.051773805,-0.030843897,-0.008590698,0.0065307617,-0.0062561035,-58.6792,-13.919067,29.219055,1,0.0,0.0,0.0,0.0
2.32421875,0.006045095,0.90659654,0.42195538,5.514403E-4,-0.42196608,0.9066116,0.99998164,-0.005247869,-0.0030507583,0.0056306645,0.8976512,0.44067064,-8.42673E-4,-0.4406732,0.8976672,0.9999838,-0.0054258043,-0.0017248567,10.052246,-0.061019897,0.015548706,9.80647,-0.051464017,-0.029917719,-0.01423645,-0.0026397705,-0.005493164,-58.198547,-13.378906,29.579163,1,0.0,0.0,0.0,0.0
2.332519531,0.0059827715,0.906644,0.42185417,4.984946E-4,-0.42186436,0.9066588,0.999982,-0.0052140406,-0.0029758753,0.0056565595,0.898188,0.4395752,-7.6117925E-4,-0.43957824,0.898204,0.9999837,-0.00541534,-0.0018028184,10.033112,-0.06819153,0.047851563,9.806474,-0.051132273,-0.02918337,-0.0124053955,-0.00630188,-0.009155273,-58.198547,-13.378906,29.579163,1,0.0,0.0,0.0,0.0
2.340820312,0.0059473827,0.9066709,0.4217967,5.018383E-4,-0.4218068,0.9066856,0.9999822,-0.0051807323,-0.0029636489,0.0056635565,0.89836055,0.4392223,-7.3609187E-4,-0.4392255,0.8983766,0.99998367,-0.005411314,-0.0018263023,10.072586,-0.07537842,0.034698486,9.806476,-0.050805632,-0.029063469,-0.0124053955,-0.016983032,-0.007019043,-58.198547,-13.378906,29.579163,1,0.0,0.0,0.0,0.0
2.349121093,0.0059316265,0.9100415,0.41447452,5.9472234E-4,-0.41448492,0.9100559,0.9999822,-0.005151615,-0.0029997923,0.0056756726,0.89869606,0.43853527,-6.872618E-4,-0.4385387,0.89871204,0.99998367,-0.0054021836,-0.0018713627,10.116852,-0.117248535,0.0023956299,9.806476,-0.050520085,-0.029417915,-0.008743286,-0.019424438,-0.007171631,-57.659912,-13.259888,29.93927,1,0.0,0.0,0.0,0.0
2.357421875,0.0060156966,0.90997976,0.4146091,6.9755013E-4,-0.41462034,0.90999424,0.99998164,-0.005185038,-0.003128986,0.005687033,0.89915746,0.43758833,-6.367458E-4,-0.43759206,0.8991734,0.9999836,-0.005392261,-0.0019160656,10.09053,-0.12322998,-0.044265747,9.80647,-0.050847854,-0.030684873,-0.008590698,-0.026611328,-0.0074768066,-57.659912,-13.259888,29.93927,1,0.0,0.0,0.0,0.0
2.365722656,0.006150633,0.9064489,0.4222707,8.345817E-4,-0.42228317,0.90646356,0.99998075,-0.0052229054,-0.0033538146,0.0056942576,0.89937955,0.43713152,-6.101737E-4,-0.43713543,0.89939547,0.99998355,-0.005388116,-0.0019403839,10.09053,-0.12322998,-0.044265747,9.806461,-0.051219206,-0.032889687,-0.013015747,-0.024932861,-0.008239746,-57.71942,-13.499451,29.818726,1,0.0,0.0,0.0,0.0
2.374023437,0.006270523,0.90634435,0.42249328,0.0010003333,-0.42250705,0.9063591,0.99997985,-0.0052607115,-0.0035559868,0.0057131746,0.8996641,0.4365453,-5.533082E-4,-0.4365495,0.8996801,0.99998355,-0.0053815735,-0.0019962923,10.013962,-0.08973694,-0.07537842,9.806452,-0.051589955,-0.034872316,-0.010116577,-0.012557983,-0.0074768066,-57.899475,-13.499451,29.818726,1,0.0,0.0,0.0,0.0
2.382324218,0.006340916,0.90629137,0.42260602,0.0011728676,-0.42262095,0.90630585,0.9999792,-0.005251147,-0.0037427633,0.0057360777,0.8999327,0.43599105,-4.922395E-4,-0.4359956,0.89994866,0.9999834,-0.0053767874,-0.0020579223,10.003189,-0.062210083,-0.08255005,9.806446,-0.05149616,-0.03670397,-0.009811401,-0.004470825,-0.007171631,-57.899475,-13.499451,29.818726,1,0.0,0.0,0.0,0.0
2.390625,0.006342173,0.90629035,0.42260793,0.0013050244,-0.42262357,0.90630436,0.9999791,-0.0051964256,-0.0038630832,0.0057486612,0.9000618,0.43572432,-4.5908068E-4,-0.43572912,0.9000777,0.9999834,-0.0053742747,-0.002091658,10.047455,-0.06341553,-0.08973694,9.806444,-0.050959524,-0.037883904,-0.013168335,0.004547119,-0.010070801,-57.899475,-13.499451,29.818726,1,0.0,0.0,0.0,0.0
2.398925781,0.006294308,0.9087332,0.41733012,0.0013973578,-0.41734597,0.9087466,0.9999792,-0.005136771,-0.003896729,0.00577309,0.900312,0.4352067,-3.8960425E-4,-0.4352119,0.900328,0.99998325,-0.005367233,-0.0021617522,10.059433,-0.08135986,-0.10887146,9.806446,-0.05037452,-0.03821386,-0.0124053955,0.013244629,-0.00289917,-58.139038,-13.319397,29.87976,1,0.0,0.0,0.0,0.0
2.407226562,0.0062858444,0.9087395,0.41731644,0.0014217452,-0.4173324,0.90875286,0.99997926,-0.0051189605,-0.003915282,0.005795008,0.9006523,0.43450192,-3.192781E-4,-0.43450752,0.90066814,0.99998313,-0.005358106,-0.0022304156,10.080963,-0.0993042,-0.098098755,9.806446,-0.05019985,-0.038395796,-0.010421753,0.0068359375,-0.004119873,-58.139038,-13.319397,29.87976,1,0.0,0.0,0.0,0.0
2.415527343,0.0063094683,0.9067359,0.4216518,0.0013878604,-0.42166772,0.90674937,0.9999791,-0.005135913,-0.003918922,0.005805467,0.9008173,0.43415964,-2.8461032E-4,-0.43416545,0.9008331,0.99998313,-0.0053533227,-0.0022641513,10.080963,-0.0993042,-0.098098755,9.806445,-0.0503661,-0.0384315,-0.0096588135,0.010650635,-0.010375977,-58.018494,-13.378906,29.638672,1,0.0,0.0,0.0,0.0
2.423828125,0.006331705,0.9069793,0.4211277,0.0014142466,-0.42114386,0.90699285,0.99997896,-0.0051472327,-0.003949251,0.005826246,0.9010549,0.43366584,-2.1872553E-4,-0.43367204,0.9010708,0.99998295,-0.0053447136,-0.0023295963,10.047455,-0.08135986,-0.056228638,9.806444,-0.05047711,-0.038728923,-0.015151978,-0.007675171,-0.007019043,-58.07953,-13.439941,29.818726,1,0.0,0.0,0.0,0.0
2.432128906,0.0063442695,0.90696985,0.42114785,0.0014568628,-0.42116424,0.9069832,0.9999788,-0.0051405914,-0.00399331,0.0058470983,0.90129274,0.4331711,-1.5433668E-4,-0.43317768,0.90130854,0.9999829,-0.0053368937,-0.00239373,10.084549,-0.062210083,-0.010772705,9.806442,-0.05041198,-0.039160997,-0.012710571,-0.0096588135,-0.004425049,-58.07953,-13.439941,29.818726,1,0.0,0.0,0.0,0.0
2.440429687,0.0063406625,0.9069726,0.42114213,0.0015666483,-0.42115906,0.90698546,0.9999786,-0.005091106,-0.0040913336,0.005857483,0.9014079,0.43293133,-1.2217625E-4,-0.43293807,0.9014237,0.99998283,-0.0053329673,-0.0024257968,10.003189,-0.044265747,-0.06819153,9.80644,-0.0499267,-0.040122278,-0.012710571,-1.8310547E-4,-0.0036621094,-58.07953,-13.439941,29.818726,1,0.0,0.0,0.0,0.0
2.448730468,0.006359048,0.9059549,0.42332646,0.0016495744,-0.42334396,0.90596753,0.9999784,-0.0050627827,-0.0041865045,0.0058774184,0.9016311,0.43246582,-5.5573182E-5,-0.43247297,0.90164685,0.9999827,-0.0053233895,-0.0024917184,10.010376,-0.058624268,-0.12083435,9.806438,-0.04964894,-0.041055586,-0.0137786865,0.012481689,-0.005645752,-58.31909,-13.439941,29.638672,1,0.0,0.0,0.0,0.0
2.45703125,0.006321199,0.9059838,0.42326513,0.0016504857,-0.42328244,0.9059962,0.9999786,-0.0050283894,-0.004170966,0.0058873645,0.9017185,0.43228352,-2.1604123E-5,-0.4322909,0.9017341,0.99998266,-0.0053181774,-0.0025255734,10.010376,-0.058624268,-0.12083435,9.80644,-0.049311657,-0.040903203,-0.0137786865,0.028366089,-0.005645752,-58.31909,-13.439941,29.638672,1,0.0,0.0,0.0,0.0
2.465332031,0.0062266868,0.90148395,0.43276766,0.001294649,-0.43278298,0.9014972,0.9999798,-0.0050530587,-0.0038619095,0.0059051365,0.9018892,0.43192714,4.4380315E-5,-0.4319349,0.9019048,0.9999826,-0.0053067016,-0.0025906605,10.0295105,-0.09690857,0.01675415,9.806452,-0.04955358,-0.037872396,-0.0027923584,0.033554077,-0.004119873,-58.6792,-13.679504,29.3396,1,0.0,0.0,0.0,0.0
2.473632812,0.006104188,0.90048254,0.4348494,9.629838E-4,-0.4348626,0.90049636,0.9999809,-0.005078046,-0.0035216333,0.005917861,0.9018732,0.43196037,9.397813E-5,-0.43196845,0.90188867,0.9999825,-0.0052966573,-0.0026410855,10.079758,-0.13998413,-0.041870117,9.806463,-0.049798623,-0.034535427,-0.018829346,0.021652222,-0.00869751,-58.979797,-13.739014,29.278564,1,0.0,0.0,0.0,0.0
2.481933593,0.0060728337,0.90050757,0.43479797,7.6078484E-4,-0.43481,0.9005218,0.9999812,-0.0051379316,-0.0033256214,0.005921546,0.90184546,0.43201813,1.1139875E-4,-0.4320263,0.901861,0.9999825,-0.005292285,-0.002658728,10.079758,-0.13998413,-0.041870117,9.806466,-0.0503859,-0.032613207,-0.012557983,0.018753052,-0.01083374,-58.979797,-13.739014,29.278564,1,0.0,0.0,0.0,0.0
2.490234375,0.006042746,0.90053153,0.43474865,5.621149E-4,-0.43475953,0.9005463,0.9999815,-0.005197394,-0.003133344,0.005927483,0.9017927,0.43212828,1.3718219E-4,-0.43213663,0.9018082,0.9999825,-0.005286172,-0.0026851923,10.098907,-0.098098755,-0.046661377,9.80647,-0.05096903,-0.030727612,-0.007980347,0.03340149,-0.0050354004,-58.979797,-13.739014,29.278564,1,0.0,0.0,0.0,0.0
2.498535156,0.005966783,0.9042481,0.42696565,3.853424E-4,-0.4269753,0.9042632,0.9999821,-0.0052310145,-0.0028961143,0.0059319544,0.90174294,0.43223205,1.5392876E-4,-0.4322405,0.90175843,0.9999824,-0.0052826563,-0.002702835,10.046265,-0.07058716,0.026321411,9.806475,-0.05129873,-0.02840118,-0.009048462,0.025161743,-0.0018310547,-59.039307,-13.378906,29.159546,1,0.0,0.0,0.0,0.0
2.506835937,0.0058420952,0.9043467,0.42675847,1.0858476E-4,-0.4267663,0.9043618,0.9999829,-0.0052370294,-0.002591408,0.005932705,0.9017933,0.43212688,1.5861448E-4,-0.43213534,0.9018088,0.9999824,-0.0052816235,-0.002706769,10.046265,-0.07058716,0.026321411,9.806483,-0.05135772,-0.025413034,-0.011795044,0.019058228,-0.004119873,-59.039307,-13.378906,29.159546,1,0.0,0.0,0.0,0.0
2.515136718,0.0057897624,0.90402234,0.42744595,-7.8830635E-5,-0.42745268,0.90403765,0.9999832,-0.0052678594,-0.002403585,0.0059290663,0.90189505,0.43191448,1.565814E-4,-0.4319229,0.9019105,0.9999824,-0.005279857,-0.0027021198,10.02832,-0.07058716,-0.01914978,9.806485,-0.051660053,-0.023571117,-0.003250122,0.009124756,-0.005340576,-59.27887,-13.378906,29.09851,1,0.0,0.0,0.0,0.0
2.5234375,0.005732172,0.90113884,0.43349275,-1.9722106E-4,-0.43349886,0.9011541,0.99998355,-0.005251065,-0.0023071666,0.0059235115,0.9019797,0.43173778,1.4730357E-4,-0.43174616,0.9019951,0.9999824,-0.005279382,-0.0026903183,10.101303,-0.098098755,-0.032302856,9.806489,-0.051495355,-0.022625575,-0.009506226,0.009887695,-0.004119873,-59.399414,-13.619995,29.09851,1,0.0,0.0,0.0,0.0
2.531738281,0.0057127313,0.9011545,0.43346044,-2.7976627E-4,-0.43346605,0.9011699,0.99998367,-0.005269408,-0.0022241622,0.005919712,0.90196294,0.4317729,1.4043669E-4,-0.4317812,0.90197843,0.9999825,-0.0052788155,-0.0026826889,10.101303,-0.098098755,-0.032302856,9.80649,-0.051675245,-0.02181158,-0.011642456,0.014465332,-0.0076293945,-59.399414,-13.619995,29.09851,1,0.0,0.0,0.0,0.0
2.540039062,0.0057140943,0.90115345,0.43346268,-3.6559708E-4,-0.43346786,0.90116906,0.99998367,-0.0053078374,-0.0021474173,0.005911561,0.901931,0.43183964,1.2381678E-4,-0.43184787,0.9019464,0.9999825,-0.005278443,-0.0026645693,10.071396,-0.11843872,-0.037094116,9.80649,-0.052052103,-0.02105897,-0.010574341,0.006225586,-0.00579834,-59.399414,-13.619995,29.09851,1,0.0,0.0,0.0,0.0
2.548339843,0.0057177693,0.9068202,0.421479,-3.4773583E-4,-0.42148402,0.90683573,0.99998355,-0.005331641,-0.0020946148,0.0059037646,0.90190023,0.43190408,1.0439986E-4,-0.43191215,0.90191567,0.99998254,-0.005279607,-0.002644066,10.074982,-0.12921143,-0.041870117,9.806489,-0.052285537,-0.020541154,-0.007369995,0.016143799,-0.010528564,-59.75952,-13.259888,29.3396,1,0.0,0.0,0.0,0.0
2.556640625,0.0057186005,0.90681946,0.42148036,-4.1515112E-4,-0.42148504,0.9068352,0.99998355,-0.0053608064,-0.0020338374,0.005899945,0.9019998,0.43169618,9.541889E-5,-0.4317042,0.90201527,0.9999826,-0.005280648,-0.0026330987,10.074982,-0.12921143,-0.041870117,9.806489,-0.052571554,-0.019945132,-0.008895874,0.016143799,-0.0073242188,-59.75952,-13.259888,29.3396,1,0.0,0.0,0.0,0.0
2.564941406,0.005714253,0.9064537,0.42226636,-4.42827E-4,-0.42227092,0.9064695,0.99998355,-0.005366788,-0.002011561,0.005892585,0.9021929,0.43129262,7.5394986E-5,-0.4313005,0.9022084,0.99998266,-0.0052838223,-0.0026094958,10.040283,-0.117248535,-0.15074158,9.806489,-0.05263021,-0.019726677,-0.008590698,0.09434509,-0.014953613,-60.17914,-13.259888,29.278564,1,0.0,0.0,0.0,0.0
2.573242187,0.0054714927,0.90663207,0.42188665,-9.2113076E-4,-0.4218882,0.9066474,0.9999846,-0.0053493273,-0.0014732316,0.0058853487,0.9023634,0.43093586,5.501043E-5,-0.4309436,0.90237886,0.9999827,-0.005287108,-0.0025858926,10.04985,-0.10887146,-0.09690857,9.8064995,-0.052458983,-0.014447467,-0.0027923584,0.13067627,-0.015258789,-59.81903,-13.319397,29.399109,1,0.0,0.0,0.0,0.0
2.581542968,0.005035274,0.906975,0.42115438,-0.0017078373,-0.4211513,0.9069888,0.9999859,-0.005286201,-5.716467E-4,0.0058769095,0.9024496,0.43075526,3.5642646E-5,-0.4307629,0.9024651,0.9999827,-0.0052883527,-0.00256372,10.04985,-0.10887146,-0.09690857,9.806512,-0.051839925,-0.0056059393,0.0025482178,0.14259338,-0.02229309,-59.81903,-13.319397,29.399109,1,0.0,0.0,0.0,0.0
2.58984375,0.0044909418,0.9074018,0.42024025,-0.002694347,-0.420232,0.9074127,0.9999863,-0.0052074105,5.576178E-4,0.005842904,0.90263075,0.4303761,-3.2974873E-5,-0.4303833,0.90264624,0.9999829,-0.005288267,-0.0024849242,10.083359,-0.100494385,-0.023925781,9.806516,-0.051067255,0.005468363,-4.5776367E-5,0.1412201,-0.012664795,-59.81903,-13.319397,29.399109,1,0.0,0.0,0.0,0.0
2.598144531,0.004023601,0.9131828,0.4075303,-0.0036310847,-0.40751758,0.9131901,0.99998534,-0.0051540895,0.0016761563,0.005815247,0.9027273,0.430174,-8.595991E-5,-0.43018082,0.90274274,0.99998313,-0.00528665,-0.0024240094,10.083359,-0.100494385,-0.023925781,9.806506,-0.05054435,0.016437478,0.003768921,0.1315918,-0.011291504,-59.458923,-13.018799,29.759216,1,0.0,0.0,0.0,0.0
2.606445312,0.0037013257,0.91342413,0.406992,-0.004654685,-0.4069746,0.91342753,0.9999823,-0.0052753133,0.0027453566,0.005704852,0.90335786,0.42884976,-2.920453E-4,-0.42885518,0.90337324,0.99998367,-0.0052788537,-0.0021827335,10.128815,-0.69750977,0.29910278,9.806477,-0.05173315,0.026922753,0.08761597,-0.018051147,-0.005340576,-59.458923,-13.018799,29.759216,1,0.0,0.0,0.0,0.0
2.614746093,0.0046336073,0.9151884,0.4029997,-0.00532525,-0.40297574,0.9151951,0.9999751,-0.006386729,0.0030063756,0.005621481,0.9037665,0.42798892,-4.629126E-4,-0.42799327,0.9037818,0.9999841,-0.0052787135,-0.0019875912,10.061813,-0.8925171,0.04547119,9.806406,-0.06263242,0.029482475,0.1943512,-0.09135437,-0.0015258789,-59.039307,-12.779236,29.699707,1,0.0,0.0,0.0,0.0
