Time,Rot1,Rot2,Rot3,Rot4,Rot5,Rot6,Rot7,Rot8,Rot9,FRot1,FRot2,FRot3,FRot4,FRot5,FRot6,FRot7,FRot8,FRot9,AccX,AccY,AccZ,GravX,GravY,GravZ,GyroX,GyroY,GyroZ,MagX,MagY,MagZ,Imid
0.0,0.0,0.0,0.0,0.0,0.0,0.0,0.0,0.0,0.0,1.0,0.0,0.0,0.0,1.0,0.0,0.0,0.0,1.0,0.0,0.0,0.0,9.806335,-0.047803327,0.06244199,0.0,0.0,0.0,0.0,0.0,0.0,0,0.0,0.0,0.0,0.0
0.008300782,0.0,0.0,0.0,0.0,0.0,0.0,0.0,0.0,0.0,1.0,0.0,0.0,0.0,1.0,0.0,0.0,0.0,1.0,10.030716,-0.06700134,0.058624268,9.806337,-0.0475691,0.062296208,-0.006942749,-0.00440979,-0.008621216,0.0,0.0,0.0,0,0.0,0.0,0.0,0.0
0.016601563,-0.004418693,0.32588604,0.94539875,-0.006584252,-0.945397,0.3258547,0.9999686,-0.004784892,0.006323135,1.0,0.0,0.0,0.0,1.0,0.0,0.0,0.0,1.0,10.023529,-0.041870117,0.050247192,9.806342,-0.04692376,0.062008772,-0.01121521,-0.0025787354,-0.011672974,-57.418823,-16.43982,5.3985596,0,0.0,0.0,0.0,0.0
0.024902344,-0.004401081,0.32583082,0.9454179,-0.0064899437,-0.9454164,0.32580012,0.99996924,-0.004701836,0.006275478,0.9979331,0.056163177,-0.031229578,-0.0561327,0.9984216,0.0018525275,0.03128433,-9.569811E-5,0.9995105,10.023529,-0.041870117,0.050247192,9.806349,-0.046109263,0.061541416,-0.0049591064,-0.0039520264,-0.004348755,-57.418823,-16.43982,5.3985596,0,0.0,0.0,0.0,0.0
0.033203125,-0.0045233066,0.2993382,0.9541364,-0.006262175,-0.9541359,0.29930836,0.99997014,-0.004621105,0.0061903573,0.9919113,0.111033395,-0.061510753,-0.11080881,0.9938167,0.007060868,0.061914403,-1.8782113E-4,0.99808145,10.021133,-0.033493042,0.017944336,9.806357,-0.04531756,0.060706668,-8.392334E-4,-0.0011901855,-0.0061798096,-57.47986,-16.738892,4.978943,0,0.0,0.0,0.0,0.0
0.041503907,-0.0044774283,0.29919416,0.95418173,-0.0061809514,-0.9541814,0.29916504,0.9999709,-0.004558261,0.006121583,0.96888506,0.21747349,-0.11818231,-0.21582839,0.9760662,0.026701285,0.12116057,-3.6337966E-4,0.99263287,10.021133,-0.033493042,0.017944336,9.806365,-0.04470127,0.060032222,-0.0046539307,7.9345703E-4,-0.004043579,-57.47986,-16.738892,4.978943,0,0.0,0.0,0.0,0.0
0.049804688,-0.004599539,0.27979958,0.9600474,-0.005993828,-0.96004796,0.27977103,0.9999714,-0.004467542,0.0060928483,0.933257,0.31733543,-0.16831401,-0.31219792,0.94831324,0.056872636,0.17766212,-5.2949745E-4,0.9840914,10.009171,-0.025131226,0.033493042,9.80637,-0.04381162,0.059750434,-0.009231567,0.003540039,-0.0066375732,-57.899475,-16.799927,4.6188354,0,0.0,0.0,0.0,0.0
0.058105469,-0.004621011,0.27986807,0.9600274,-0.0059592845,-0.96002823,0.2798396,0.9999715,-0.004427934,0.006104114,0.91130984,0.36498806,-0.1905203,-0.3571303,0.931012,0.07532985,0.2048712,-6.082585E-4,0.97878873,10.057037,-0.056228638,0.053833008,9.806371,-0.043423202,0.05986091,-0.007858276,0.0033874512,-0.0016021729,-57.899475,-16.799927,4.6188354,0,0.0,0.0,0.0,0.0
0.06640625,-0.0046399604,0.2799285,0.9600097,-0.0059761275,-0.96001065,0.2798999,0.9999714,-0.0044384156,0.0061272993,0.86078674,0.4546673,-0.228744,-0.4391977,0.89066106,0.117593996,0.2571995,-7.5951807E-4,0.966358,10.019943,-0.07777405,0.06939697,9.80637,-0.04352599,0.06008828,-2.2888184E-4,-0.0019683838,-0.004196167,-57.899475,-16.799927,4.6188354,0,0.0,0.0,0.0,0.0
0.074707032,-0.0047756964,0.25958553,0.96570826,-0.0058740666,-0.96570987,0.25955692,0.99997133,-0.0044330703,0.0061367606,0.8032638,0.5366642,-0.25837728,-0.5105565,0.8437954,0.16535217,0.30675617,-9.052028E-4,0.95178765,10.023529,-0.07537842,0.07777405,9.806369,-0.043473568,0.060181066,-0.004043579,-1.2207031E-4,-0.005569458,-57.47986,-16.679382,4.1992188,0,0.0,0.0,0.0,0.0
0.083007813,-0.004837597,0.24915619,0.96845114,-0.005812876,-0.9684531,0.24912767,0.9999714,-0.004424308,0.0061333003,0.7722936,0.5751021,-0.26985198,-0.54251987,0.818081,0.19082873,0.3305068,-9.7576034E-4,0.9438031,10.009171,-0.07537842,0.07058716,9.80637,-0.04338764,0.06014713,-0.004501343,-0.0025787354,-0.005874634,-58.018494,-16.97998,4.0786743,0,0.0,0.0,0.0,0.0
0.091308594,-0.0047763246,0.24895908,0.96850216,-0.0058040656,-0.9685037,0.24893086,0.9999717,-0.0044322764,0.0060708635,0.7072576,0.646433,-0.2862012,-0.59868205,0.76297003,0.24383736,0.3759874,-0.0011123233,0.9266241,10.009171,-0.071777344,0.032302856,9.806373,-0.043465786,0.059534837,-0.0060272217,-0.00440979,-9.765625E-4,-58.018494,-16.97998,4.0786743,0,0.0,0.0,0.0,0.0
0.099609375,-0.0047443695,0.24153411,0.9703808,-0.005779382,-0.9703821,0.24150617,0.999972,-0.004462406,0.005999768,0.6398222,0.710007,-0.2941387,-0.6443645,0.70419353,0.29817083,0.41883397,-0.0012437936,0.908062,10.009171,-0.071777344,0.032302856,9.8063755,-0.043761253,0.05883763,-0.004196167,-5.79834E-4,-0.0023498535,-57.77893,-16.558838,3.8391113,0,0.0,0.0,0.0,0.0
0.107910157,-0.004704458,0.24140249,0.9704137,-0.0057892534,-0.97041476,0.24137469,0.99997216,-0.004482433,0.0059628156,0.6055856,0.73905784,-0.29505885,-0.66354066,0.6736408,0.3254564,0.4392948,-0.0013081661,0.898342,10.030716,-0.06700134,0.041870117,9.806377,-0.043957654,0.05847525,-0.002670288,0.0026245117,-0.0025177002,-57.77893,-16.558838,3.8391113,0,0.0,0.0,0.0,0.0
0.116210938,-0.004683566,0.2413336,0.9704309,-0.0057914304,-0.97043186,0.24130589,0.9999723,-0.0044900114,0.005942748,0.5370944,0.7916397,-0.29126668,-0.69477683,0.61098665,0.37944764,0.47834584,-0.0014338674,0.8781704,10.052246,-0.06460571,0.034698486,9.806378,-0.04403197,0.05827845,0.0020599365,0.0029296875,-0.0023498535,-57.77893,-16.558838,3.8391113,0,0.0,0.0,0.0,0.0
0.124511719,-0.0047679106,0.2301826,0.9731358,-0.005772723,-0.973137,0.2301546,0.999972,-0.004520287,0.0059686094,0.46952322,0.8371589,-0.28055823,-0.71717596,0.54695755,0.4318519,0.5149821,-0.0015548911,0.85719955,10.045074,-0.093322754,0.07058716,9.8063755,-0.044328872,0.058532067,-0.0022125244,-0.001663208,-0.008010864,-57.839966,-16.918945,3.718567,0,0.0,0.0,0.0,0.0
0.1328125,-0.0047509097,0.22714876,0.9738485,-0.0057064365,-0.97384983,0.22712122,0.99997246,-0.004478172,0.005922883,0.4362178,0.8575114,-0.27274197,-0.72542197,0.5144624,0.45726517,0.5324256,-0.0016141991,0.84647524,10.018753,-0.056228638,0.034698486,9.80638,-0.043915864,0.05808364,-0.008773804,-0.0036468506,-0.0066375732,-58.139038,-17.158508,3.718567,0,0.0,0.0,0.0,0.0
0.141113282,-0.0047198217,0.22704853,0.973872,-0.0056438963,-0.9738734,0.2270215,0.99997294,-0.0044249315,0.0058779474,0.3712973,0.89343727,-0.25280064,-0.73634225,0.4491847,0.50599724,0.565631,-0.0017276128,0.82465667,10.043869,-0.050247192,0.041870117,9.806385,-0.043393757,0.057642974,0.0019073486,-0.00440979,-0.0075531006,-58.139038,-17.158508,3.718567,0,0.0,0.0,0.0,0.0
0.149414063,-0.004700978,0.22579621,0.97416323,-0.0055829445,-0.9741648,0.22576961,0.99997336,-0.0043773614,0.0058401343,0.30927116,0.9232747,-0.227849,-0.7404869,0.38413596,0.55146956,0.5966829,-0.0018344269,0.80247504,10.043869,-0.050247192,0.041870117,9.806389,-0.042927254,0.057272155,-0.005722046,-4.272461E-4,-0.007095337,-58.07953,-16.738892,3.5995483,0,0.0,0.0,0.0,0.0
0.157714844,-0.0047048023,0.22580883,0.9741603,-0.005562178,-0.9741619,0.22578233,0.9999734,-0.004356191,0.005839228,0.2794807,0.93606186,-0.21372579,-0.74029565,0.3518304,0.572868,0.6114351,-0.0018852857,0.7912923,10.015152,-0.059814453,0.062210083,9.80639,-0.042719644,0.057263266,-0.005722046,-0.0010528564,2.4414063E-4,-58.07953,-16.738892,3.5995483,0,0.0,0.0,0.0,0.0
0.166015625,-0.004667033,0.22568405,0.9741894,-0.00556354,-0.9741908,0.22565772,0.99997365,-0.0043667895,0.0058021825,0.22261238,0.9576377,-0.18268456,-0.73589206,0.28796872,0.6128106,0.63945806,-0.0019831336,0.76882344,10.052246,-0.071777344,0.052642822,9.806392,-0.04282358,0.056899972,-0.008621216,-0.009140015,-0.0034332275,-58.07953,-16.738892,3.5995483,0,0.0,0.0,0.0,0.0
0.174316407,-0.0045371475,0.23764186,0.9713423,-0.005618551,-0.9713431,0.23761581,0.99997395,-0.004379438,0.0057423287,0.16956279,0.9742651,-0.14851253,-0.72679454,0.22539563,0.6488193,0.6655961,-0.0020775266,0.7463093,10.02832,-0.06819153,0.06700134,9.806395,-0.042947613,0.056313008,-0.008773804,-0.012954712,-0.004501343,-58.139038,-16.558838,3.779602,0,0.0,0.0,0.0,0.0
0.182617188,-0.004627036,0.20880747,0.9779458,-0.0054633887,-0.97794694,0.20878185,0.9999743,-0.0043768566,0.005665792,0.14469856,0.98081505,-0.13062987,-0.72068673,0.19492903,0.66529185,0.6779918,-0.002123565,0.73506635,10.047455,-0.061019897,0.071777344,9.806398,-0.042922303,0.055562444,-0.0046539307,-0.010818481,-0.002960205,-58.139038,-16.738892,3.2989502,0,0.0,0.0,0.0,0.0
0.190917969,-0.0045773103,0.2086418,0.97798145,-0.005435507,-0.9779824,0.20861655,0.9999747,-0.004360922,0.0056106024,0.09713361,0.99096024,-0.09253537,-0.706017,0.13413738,0.6953755,0.70150197,-0.0022127954,0.71266407,10.02713,-0.07417297,0.06341553,9.806402,-0.04276604,0.055021215,-0.008468628,-0.0051727295,-0.00831604,-58.139038,-16.738892,3.2989502,0,0.0,0.0,0.0,0.0
0.19921875,-0.004559695,0.20858309,0.977994,-0.0053958516,-0.9779951,0.20855816,0.9999751,-0.004326149,0.005584843,0.074872755,0.99452764,-0.07286131,-0.69752145,0.10444908,0.7089105,0.7126414,-0.002255758,0.7015248,10.018753,-0.056228638,0.059814453,9.806406,-0.04242503,0.0547686,-0.004501343,7.9345703E-4,-0.0061798096,-58.139038,-16.738892,3.2989502,0,0.0,0.0,0.0,0.0
0.207519532,-0.004519013,0.21789083,0.97596276,-0.005421144,-0.9759637,0.21786594,0.9999751,-0.004306295,0.00559161,0.033372354,0.998911,-0.03260416,-0.6785993,0.046597,0.7330291,0.7337501,-0.0023377456,0.6794154,10.035492,-0.059814453,0.06460571,9.806406,-0.04223033,0.054834962,-0.011383057,-0.003189087,-0.002822876,-58.6792,-16.799927,3.479004,0,0.0,0.0,0.0,0.0
0.215820313,-0.004508626,0.21785617,0.9759705,-0.005414336,-0.97597146,0.21783136,0.9999752,-0.004302112,0.005579836,-0.0039253915,0.99995893,0.008170674,-0.65757656,-0.008736876,0.7533371,0.7533775,-0.0024157003,0.65758383,10.035492,-0.059814453,0.06460571,9.806407,-0.042189308,0.054719504,-0.0016021729,-0.0066986084,-0.0032653809,-58.6792,-16.799927,3.479004,0,0.0,0.0,0.0,0.0
0.224121094,-0.0044551385,0.22174749,0.975094,-0.0054068486,-0.9750948,0.22172296,0.9999755,-0.0042843786,0.0055431365,-0.021141753,0.9993639,0.028720256,-0.646448,-0.03557819,0.76212806,0.7626651,-0.0024534285,0.646789,10.030716,-0.088531494,0.052642822,9.80641,-0.042015404,0.0543596,-0.0016021729,-0.005783081,-0.0090789795,-58.6792,-16.738892,3.5385132,0,0.0,0.0,0.0,0.0
0.232421875,-0.004427556,0.22303341,0.97480077,-0.0054578306,-0.9748011,0.22300872,0.99997526,-0.0043329136,0.005533266,-0.0527113,0.9961689,0.069777966,-0.6232493,-0.087413184,0.77712244,0.7802447,-0.0025259343,0.6254692,10.04866,-0.10887146,0.06819153,9.806408,-0.04249137,0.054262802,6.866455E-4,3.3569336E-4,-0.0011291504,-58.73871,-17.158508,3.6590576,0,0.0,0.0,0.0,0.0
0.240722657,-0.00442247,0.22301684,0.9748045,-0.0054735728,-0.97480476,0.22299208,0.9999752,-0.004349488,0.0055317446,-0.08072728,0.9905782,0.11062523,-0.599135,-0.13692366,0.78885305,0.79656786,-0.0025974906,0.60454357,10.0247345,-0.07058716,0.051452637,9.806407,-0.042653907,0.054247882,-9.918213E-4,0.006134033,-0.004196167,-58.73871,-17.158508,3.6590576,0,0.0,0.0,0.0,0.0
0.249023438,-0.004428457,0.22303638,0.97480005,-0.005470085,-0.97480035,0.22301161,0.9999752,-0.004344642,0.0055368897,-0.09347898,0.9869796,0.13089325,-0.5868466,-0.16082422,0.7935658,0.804284,-0.0026325306,0.5942393,10.030716,-0.06460571,0.04067993,9.806407,-0.042606387,0.05429834,-0.0022125244,0.0038452148,-0.008468628,-58.73871,-17.158508,3.6590576,0,0.0,0.0,0.0,0.0
0.257324219,-0.004439796,0.2285719,0.9735169,-0.0054844953,-0.97351736,0.22854702,0.9999751,-0.004324547,0.0055758203,-0.116602175,0.9783542,0.17095879,-0.5620034,-0.20691952,0.80083483,0.8188749,-0.0027003305,0.57396567,10.053452,-0.07058716,0.051452637,9.806406,-0.04240932,0.05468012,-0.007095337,0.008117676,-0.005569458,-58.799744,-16.97998,3.718567,0,0.0,0.0,0.0,0.0
0.265625,-0.004478568,0.22869958,0.9734867,-0.0054813004,-0.9734875,0.22867455,0.99997497,-0.0043118387,0.0056134015,-0.13661458,0.96810114,0.21003959,-0.5370625,-0.25054446,0.80547583,0.83240634,-0.0027646497,0.5541589,10.053452,-0.07058716,0.051452637,9.806404,-0.04228469,0.05504866,-0.007247925,0.006591797,-0.008926392,-58.799744,-16.97998,3.718567,0,0.0,0.0,0.0,0.0
0.273925782,-0.0045703785,0.22022401,0.97543854,-0.005435615,-0.9754398,0.22019881,0.9999748,-0.004295717,0.005655183,-0.14557323,0.9624269,0.22922221,-0.5246213,-0.27152637,0.8068741,0.8387973,-0.0027955933,0.54443663,10.042679,-0.07417297,0.044265747,9.806403,-0.042126596,0.0554584,-0.0075531006,0.007965088,-0.0077056885,-58.31909,-16.619873,3.479004,0,0.0,0.0,0.0,0.0
0.282226563,-0.0046883808,0.20818476,0.97807825,-0.0053349608,-0.9780803,0.20815963,0.9999748,-0.004242078,0.0056962706,-0.16170797,0.9500147,0.26706284,-0.499866,-0.31219208,0.80788004,0.8508728,-0.0028549982,0.525364,10.018753,-0.055038452,0.049057007,9.806403,-0.041600574,0.05586133,-0.010147095,0.002166748,-0.0049591064,-58.31909,-17.098999,3.3599854,0,0.0,0.0,0.0,0.0
0.290527344,-0.0047137947,0.20826793,0.9780604,-0.0053020036,-0.9780627,0.20824286,0.9999748,-0.004204066,0.0057146247,-0.17562635,0.93630564,0.304117,-0.47540078,-0.35117418,0.8066416,0.86206114,-0.0029099262,0.5067959,10.02832,-0.044265747,0.056228638,9.806403,-0.041227806,0.056041326,-0.008010864,-0.0010528564,-0.005264282,-58.31909,-17.098999,3.3599854,0,0.0,0.0,0.0,0.0
0.298828125,-0.0047176573,0.20828058,0.97805774,-0.005268112,-0.97806025,0.20825571,0.999975,-0.0041700387,0.005711398,-0.18172084,0.9290793,0.32216334,-0.4633517,-0.369869,0.80529636,0.8673424,-0.002935809,0.49770337,10.033112,-0.06700134,0.0657959,9.806405,-0.040894113,0.056009684,-0.0048065186,-0.0034942627,-0.0037384033,-58.31909,-17.098999,3.3599854,0,0.0,0.0,0.0,0.0
0.307128907,-0.0048242644,0.19210881,0.9813618,-0.0052032163,-0.9813647,0.1920838,0.9999748,-0.0041795745,0.005733946,-0.19231199,0.9139954,0.3572512,-0.43969652,-0.40571344,0.80128866,0.8773158,-0.0029846844,0.4799042,10.053452,-0.061019897,0.095718384,9.806403,-0.040987626,0.056230802,-0.01260376,-0.006088257,-0.0022125244,-58.558655,-17.098999,3.0593872,0,0.0,0.0,0.0,0.0
0.315429688,-0.004808259,0.19205585,0.98137224,-0.005213055,-0.981375,0.19203085,0.9999748,-0.004192613,0.005719903,-0.2012107,0.89791995,0.39147672,-0.41658485,-0.44014835,0.79544103,0.88655025,-0.003032002,0.4626224,10.0247345,-0.0657959,0.07896423,9.806403,-0.04111549,0.05609309,-0.0051116943,-0.0051727295,-0.007247925,-58.558655,-17.098999,3.0593872,0,0.0,0.0,0.0,0.0
0.323730469,-0.004838838,0.18514688,0.98269886,-0.0051763635,-0.98270184,0.18512195,0.9999749,-0.004191032,0.0057135234,-0.20496865,0.88965344,0.4080498,-0.4053052,-0.45662618,0.79197234,0.89090717,-0.0030552142,0.45417523,10.0247345,-0.0657959,0.07896423,9.806404,-0.041099988,0.056030527,-0.0051116943,-0.0010528564,0.0014648438,-58.799744,-17.459106,2.999878,0,0.0,0.0,0.0,0.0
0.33203125,-0.004823236,0.18170059,0.98334205,-0.005151883,-0.983345,0.18167585,0.9999751,-0.0041897977,0.0056790053,-0.21132441,0.8726171,0.44031948,-0.38328156,-0.48839495,0.78394234,0.89913136,-0.0031001929,0.43766785,10.041473,-0.051452637,0.056228638,9.806406,-0.04108788,0.055692017,-0.009994507,-0.011123657,-0.0016021729,-58.558655,-17.459106,2.9388428,0,0.0,0.0,0.0,0.0
0.340332032,-0.0047582043,0.1814891,0.98338145,-0.005144317,-0.98338395,0.18146466,0.9999754,-0.00419538,0.0056127794,-0.21393302,0.8639086,0.45595458,-0.37256408,-0.5036389,0.779451,0.9030109,-0.003121985,0.42960632,10.041473,-0.051452637,0.056228638,9.806409,-0.041142624,0.055042565,-0.0104522705,-0.011123657,-0.0016021729,-58.558655,-17.459106,2.9388428,0,0.0,0.0,0.0,0.0
0.348632813,-0.0047031688,0.18131012,0.98341477,-0.005178332,-0.98341686,0.18128574,0.9999755,-0.00423983,0.005564059,-0.2180621,0.8462488,0.4861192,-0.35177007,-0.5327785,0.7696784,0.91033334,-0.0031644912,0.41386378,10.0247345,-0.08375549,0.07417297,9.806411,-0.041578535,0.054564785,-0.004196167,-0.005783081,-0.001739502,-58.558655,-17.459106,2.9388428,0,0.0,0.0,0.0,0.0
0.356933594,-0.0046692337,0.18293591,0.9831137,-0.0052069956,-0.98311555,0.18291153,0.99997556,-0.004265012,0.005542943,-0.22087127,0.828359,0.5148178,-0.33185604,-0.56018853,0.7589865,0.91710824,-0.0032070745,0.39862546,10.052246,-0.0765686,0.058624268,9.80641,-0.04182548,0.054357696,-0.0075531006,0.002166748,-0.005569458,-58.198547,-17.279053,2.9388428,0,0.0,0.0,0.0,0.0
0.365234375,-0.00465411,0.18288656,0.98312306,-0.0052088,-0.9831248,0.1828622,0.99997556,-0.00426983,0.00552819,-0.2218166,0.8193796,0.52859664,-0.32224238,-0.5732422,0.7533612,0.9203028,-0.0032282334,0.3911935,10.052246,-0.0765686,0.058624268,9.806411,-0.04187273,0.05421303,3.8146973E-4,-0.0019683838,-0.002822876,-58.198547,-17.279053,2.9388428,0,0.0,0.0,0.0,0.0
0.373535157,-0.004654633,0.18599238,0.98254013,-0.005211792,-0.9825419,0.18596803,0.99997556,-0.004255182,0.0055427253,-0.22290173,0.80137026,0.5550861,-0.30369055,-0.5981597,0.7416044,0.9263298,-0.0032694805,0.3766994,10.041473,-0.06460571,0.06939697,9.806411,-0.04172908,0.05435557,-0.0061798096,3.3569336E-4,-0.0064849854,-58.139038,-16.97998,2.9388428,0,0.0,0.0,0.0,0.0
0.381835938,-0.0046885614,0.18418135,0.9828811,-0.005232775,-0.9828829,0.18415672,0.99997526,-0.0042797658,0.005572086,-0.22298591,0.7834385,0.5800874,-0.28606638,-0.6214605,0.7293509,0.931903,-0.0033085144,0.36269236,10.039093,-0.09690857,0.06939697,9.806408,-0.041970167,0.0546435,-0.005264282,0.0068969727,-0.00541687,-57.958984,-17.158508,2.9388428,0,0.0,0.0,0.0,0.0
0.390136719,-0.0047298623,0.1843165,0.98285556,-0.0052655404,-0.9828575,0.18429153,0.99997497,-0.004303592,0.005619307,-0.22271608,0.7744725,0.59210634,-0.27758116,-0.6325989,0.7230265,0.93452996,-0.0033279397,0.3558689,10.039093,-0.09690857,0.06939697,9.806404,-0.042203818,0.055106573,-0.00541687,-8.8500977E-4,-0.008773804,-57.958984,-17.158508,2.9388428,0,0.0,0.0,0.0,0.0
0.3984375,-0.0047423276,0.18435729,0.98284787,-0.0052415496,-0.98285,0.1843324,0.999975,-0.0042774808,0.0056273136,-0.22159855,0.7566282,0.6151486,-0.26127404,-0.6538367,0.710094,0.9394839,-0.0033665758,0.34257656,10.043869,-0.08015442,0.062210083,9.806405,-0.04194776,0.0551851,-0.008926392,-0.0037994385,-0.012893677,-57.958984,-17.158508,2.9388428,0,0.0,0.0,0.0,0.0
0.406738282,-0.0046817446,0.1909729,0.9815842,-0.0052362536,-0.98158616,0.1909483,0.99997526,-0.004245852,0.0055955173,-0.219798,0.73894334,0.6369078,-0.24583061,-0.673759,0.6968616,0.9440636,-0.0034026478,0.32974577,10.004395,-0.06460571,0.053833008,9.806408,-0.04163759,0.05487328,-0.008010864,-0.01020813,-0.005874634,-58.259583,-17.459106,3.1188965,0,0.0,0.0,0.0,0.0
0.415039063,-0.0046129967,0.19075125,0.98162764,-0.005194011,-0.9816294,0.19072719,0.99997586,-0.0042187604,0.0055190157,-0.21863914,0.7302677,0.64722943,-0.2384544,-0.6831525,0.6902479,0.9462222,-0.0034195117,0.32349944,10.004395,-0.06460571,0.053833008,9.806414,-0.041371908,0.05412306,-0.008621216,-0.013412476,-0.005722046,-58.259583,-17.459106,3.1188965,0,0.0,0.0,0.0,0.0
0.423339844,-0.004372148,0.20371966,0.9790195,-0.0051874747,-0.97902024,0.20369665,0.99997693,-0.004188047,0.005337212,-0.21593106,0.7130881,0.66699266,-0.22431195,-0.70106596,0.6768978,0.9502936,-0.0034511623,0.3113361,10.033112,-0.039474487,0.026321411,9.806424,-0.04107071,0.05234017,-0.0034332275,-0.0077667236,-0.002960205,-58.018494,-17.098999,3.2989502,0,0.0,0.0,0.0,0.0
0.431640625,-0.004149473,0.22811672,0.97362494,-0.0052309977,-0.97362494,0.22809443,0.9999777,-0.004146558,0.0052333083,-0.21265195,0.69655085,0.6852707,-0.21107118,-0.71749896,0.6638104,0.95405877,-0.0034803427,0.29959938,10.051056,-0.08255005,0.017944336,9.806432,-0.040663846,0.051321223,-0.009994507,9.460449E-4,-0.0023498535,-57.598877,-16.918945,3.718567,0,0.0,0.0,0.0,0.0
0.439941407,-0.0040741265,0.22787283,0.97368246,-0.0052363155,-0.9736821,0.22785084,0.999978,-0.0041702148,0.005160118,-0.21076721,0.6887549,0.6936815,-0.20484027,-0.7249859,0.6575986,0.95583355,-0.0034936669,0.29388797,10.051056,-0.08255005,0.017944336,9.806435,-0.04089584,0.05060347,-0.008621216,-0.0054779053,-0.005569458,-57.598877,-16.918945,3.718567,0,0.0,0.0,0.0,0.0
0.448242188,-0.0040135756,0.22767682,0.9737284,-0.0052180826,-0.97372776,0.22765517,0.9999783,-0.004167285,0.005096167,-0.20677641,0.6733916,0.7097798,-0.19291568,-0.7392776,0.6451761,0.9591804,-0.0035204582,0.28277296,10.013962,-0.0657959,0.026321411,9.8064375,-0.040867105,0.049976327,-0.009689331,-0.0048675537,-0.004501343,-57.598877,-16.918945,3.718567,0,0.0,0.0,0.0,0.0
0.456542969,-0.0038076984,0.25319827,0.9674069,-0.0053025247,-0.9674055,0.25317702,0.9999787,-0.0041656774,0.005026178,-0.20253614,0.6583514,0.7249501,-0.18168168,-0.7527024,0.6327961,0.96227384,-0.0035460726,0.27205983,10.045074,-0.071777344,0.059814453,9.806441,-0.04085134,0.04928997,-0.0031280518,0.002319336,-0.007858276,-57.359314,-16.679382,4.1397095,0,0.0,0.0,0.0,0.0
0.46484375,-0.0038142542,0.25321946,0.96740144,-0.0052936217,-0.9674001,0.2531982,0.9999787,-0.004155294,0.0050303563,-0.20024423,0.6513585,0.7318705,-0.17641924,-0.7587618,0.62702215,0.9637316,-0.0035584648,0.26684985,10.045074,-0.071777344,0.059814453,9.806441,-0.040749516,0.049330946,-0.008621216,1.8310547E-4,-0.012893677,-57.359314,-16.679382,4.1397095,0,0.0,0.0,0.0,0.0
0.473144532,-0.0037753687,0.2657469,0.9640354,-0.005329834,-0.96403384,0.26572558,0.9999786,-0.0041349367,0.00505597,-0.19555353,0.63763183,0.74510705,-0.16636078,-0.77033293,0.61555773,0.96647966,-0.0035820992,0.25671825,10.021133,-0.08734131,0.050247192,9.80644,-0.040549878,0.04958213,-0.007095337,0.006286621,-0.0118255615,-57.058716,-16.259766,4.258728,0,0.0,0.0,0.0,0.0
0.481445313,-0.0036878372,0.27913547,0.9602447,-0.005378685,-0.96024287,0.27911428,0.9999787,-0.0041355253,0.0050426004,-0.19067183,0.6246564,0.75726396,-0.15699583,-0.7808914,0.6046163,0.96901834,-0.0036039916,0.24696244,10.016357,-0.09690857,0.015548706,9.806441,-0.04055565,0.04945102,-0.0118255615,0.005065918,-0.008926392,-57.17926,-16.43982,4.559326,0,0.0,0.0,0.0,0.0
0.489746094,-0.003672393,0.2790858,0.9602592,-0.005386736,-0.96025723,0.27906463,0.9999787,-0.004147827,0.005029803,-0.18816139,0.61851805,0.76290935,-0.15257564,-0.78576225,0.599415,0.97021437,-0.0036146224,0.24222091,10.016357,-0.09690857,0.015548706,9.806441,-0.040676292,0.04932552,-0.005874634,0.006439209,-0.008163452,-57.17926,-16.43982,4.559326,0,0.0,0.0,0.0,0.0
0.498046875,-0.0036216609,0.2789225,0.9603068,-0.0054239137,-0.96030444,0.27890137,0.9999787,-0.004198535,0.0049907486,-0.18311375,0.6064979,0.7737117,-0.14412914,-0.79507685,0.5891347,0.9724691,-0.0036357373,0.2330035,10.02832,-0.114852905,-0.009567261,9.806441,-0.041173562,0.048942525,-0.005569458,0.008270264,-0.002822876,-57.17926,-16.43982,4.559326,0,0.0,0.0,0.0,0.0
0.506347657,-0.0036147435,0.2733195,0.96191657,-0.005464434,-0.9619138,0.2732982,0.9999785,-0.0042684264,0.004970608,-0.18058212,0.6006141,0.7788792,-0.14009546,-0.79953074,0.58405805,0.97353137,-0.003646993,0.22852425,10.02832,-0.114852905,-0.009567261,9.806439,-0.041858964,0.04874501,-0.0048065186,0.010864258,-0.0038909912,-57.23877,-16.378784,4.4387817,0,0.0,0.0,0.0,0.0
0.514648438,-0.00362847,0.27336404,0.9619038,-0.0054968647,-0.96190107,0.27334252,0.9999783,-0.0042956397,0.0049928743,-0.17554675,0.5889177,0.78889745,-0.13235138,-0.8081847,0.5738647,0.97553396,-0.003671602,0.21981828,10.043869,-0.088531494,0.01675415,9.8064375,-0.042125836,0.04896337,-0.007858276,0.0056762695,-0.005264282,-57.23877,-16.378784,4.4387817,0,0.0,0.0,0.0,0.0
0.522949219,-0.0037191554,0.27796733,0.96058327,-0.0055495347,-0.9605808,0.27794516,0.99997765,-0.0042970693,0.0051151393,-0.17052235,0.57756877,0.7983335,-0.12507275,-0.81633365,0.56387603,0.97738373,-0.0036963136,0.21144125,10.030716,-0.07896423,0.0993042,9.806431,-0.042139854,0.050162382,-0.00831604,0.008270264,-0.0104522705,-57.47986,-16.319275,4.499817,0,0.0,0.0,0.0,0.0
0.53125,-0.0038279945,0.27832222,0.9604801,-0.005570266,-0.96047825,0.27829948,0.99997723,-0.004284801,0.0052270344,-0.16801046,0.5721016,0.8027903,-0.121616505,-0.82017446,0.5590379,0.9782545,-0.0037083286,0.20737487,10.030716,-0.07896423,0.0993042,9.806427,-0.042019546,0.0512597,-0.0034332275,0.0014038086,-0.007095337,-57.47986,-16.319275,4.499817,0,0.0,0.0,0.0,0.0
0.539550782,-0.0039471015,0.2697731,0.96291584,-0.005545409,-0.96291447,0.26975,0.9999769,-0.0042750314,0.0052967235,-0.16302076,0.5614324,0.8113063,-0.11502074,-0.8275142,0.5495367,0.9798951,-0.003731157,0.19947836,10.051056,-0.07298279,0.090927124,9.806423,-0.041923735,0.051943112,-0.0038909912,-0.004562378,-0.0020446777,-57.47986,-16.259766,4.319763,0,0.0,0.0,0.0,0.0
0.547851563,-0.003953153,0.26979297,0.9629102,-0.0055252053,-0.96290886,0.26976994,0.99997693,-0.004253835,0.005297189,-0.15812615,0.5508035,0.8195191,-0.10876645,-0.83462656,0.53997076,0.9814102,-0.0037526942,0.19188522,10.016357,-0.046661377,0.07298279,9.806424,-0.04171587,0.05194768,0.0011444092,-0.010513306,-0.005569458,-57.47986,-16.259766,4.319763,0,0.0,0.0,0.0,0.0
0.556152344,-0.003933343,0.26932845,0.96304035,-0.0054875296,-0.96303904,0.26930565,0.9999771,-0.004225441,0.00526591,-0.15570094,0.54561555,0.8234445,-0.105782144,-0.8380271,0.53527623,0.98212385,-0.0037627171,0.18819799,10.016357,-0.046661377,0.07298279,9.806426,-0.04143742,0.05164094,-0.0051116943,-0.006088257,-0.005569458,-57.539368,-16.499329,4.3792725,0,0.0,0.0,0.0,0.0
0.564453125,-0.0038657198,0.26910895,0.9631019,-0.005437686,-0.9631005,0.26908675,0.9999777,-0.004196833,0.0051864074,-0.15090252,0.5354734,0.8309613,-0.10008107,-0.84454364,0.52605116,0.9834695,-0.003781041,0.18103452,10.046265,-0.053833008,0.0382843,9.806432,-0.041156873,0.050861284,-0.008621216,-0.0065460205,-0.0031280518,-57.539368,-16.499329,4.3792725,0,0.0,0.0,0.0,0.0
0.572753907,-0.0037937034,0.2753698,0.9613309,-0.0054070503,-0.9613294,0.275348,0.9999782,-0.0041533755,0.0051359376,-0.14617783,0.52565193,0.8380466,-0.09472076,-0.85069126,0.51706135,0.9847132,-0.0037975064,0.17414236,10.042679,-0.034698486,0.061019897,9.806436,-0.0407307,0.05036634,-0.010910034,-0.009750366,-0.001739502,-57.359314,-16.499329,4.499817,0,0.0,0.0,0.0,0.0
0.581054688,-0.0037326235,0.27517292,0.96138746,-0.005358924,-0.9613859,0.27515167,0.9999787,-0.004124965,0.0050631226,-0.14383382,0.52097374,0.8413669,-0.092180915,-0.85356426,0.51276773,0.9852992,-0.0038046238,0.17079525,10.042679,-0.034698486,0.061019897,9.806441,-0.04045209,0.04965227,-0.008468628,-0.014022827,-0.0019073486,-57.359314,-16.499329,4.499817,0,0.0,0.0,0.0,0.0
0.589355469,-0.003652745,0.269722,0.9629313,-0.005303023,-0.96292937,0.26970136,0.99997926,-0.0041212966,0.0049476777,-0.13921334,0.5118439,0.8477237,-0.08732805,-0.85907,0.50435364,0.98640436,-0.003817309,0.16429234,10.009171,-0.047851563,0.046661377,9.806447,-0.040416114,0.048520144,-0.0118255615,-0.016616821,-0.0022125244,-57.359314,-16.19873,4.319763,0,0.0,0.0,0.0,0.0
0.59765625,-0.0034890964,0.26918292,0.96308273,-0.0053027943,-0.96308,0.26916295,0.99997985,-0.004167894,0.004787701,-0.13470304,0.50282717,0.8538266,-0.08273406,-0.8643785,0.4959888,0.98742604,-0.0038293467,0.15803534,10.037888,-0.07896423,0.020339966,9.806453,-0.040873077,0.04695131,-0.015197754,-0.013717651,-9.765625E-4,-57.359314,-16.19873,4.319763,0,0.0,0.0,0.0,0.0
0.605957032,-0.003335373,0.2697041,0.96293753,-0.0053102607,-0.9629341,0.26968473,0.99998033,-0.0042139497,0.0046439427,-0.13248216,0.49842405,0.8567508,-0.08053987,-0.8669249,0.4918888,0.98790777,-0.0038361177,0.15499508,10.037888,-0.07896423,0.020339966,9.8064575,-0.04132473,0.04554152,-0.01121521,-0.008834839,-0.0023498535,-57.47986,-16.558838,4.4387817,0,0.0,0.0,0.0,0.0
0.614257813,-0.0032208748,0.26933444,0.9630413,-0.0053409687,-0.9630372,0.26931542,0.99998057,-0.0042761425,0.0045403293,-0.13028233,0.4941059,0.85958475,-0.0784136,-0.8693932,0.48785934,0.98837125,-0.0038436742,0.1520112,10.051056,-0.0993042,0.01914978,9.806459,-0.04193463,0.044525422,-0.007858276,-0.0027160645,-0.001739502,-57.47986,-16.558838,4.4387817,0,0.0,0.0,0.0,0.0
0.622558594,-0.0031622835,0.2689932,0.9631369,-0.005343206,-0.96313256,0.26897442,0.99998075,-0.0042956653,0.004482984,-0.1238327,0.48157445,0.86761254,-0.07241443,-0.87639666,0.47611457,0.9896573,-0.003869107,0.1433995,10.055832,-0.08015442,0.03111267,9.806461,-0.04212609,0.043963056,-0.0023651123,-0.011581421,-3.6621094E-4,-57.17926,-16.139221,4.319763,0,0.0,0.0,0.0,0.0
0.630859375,-0.00308151,0.26872697,0.96321154,-0.005340575,-0.9632069,0.2687086,0.99998105,-0.0043160743,0.004403287,-0.12173489,0.47753623,0.8701378,-0.07053453,-0.8786035,0.47231427,0.9900533,-0.0038776381,0.14063948,10.055832,-0.08015442,0.03111267,9.806464,-0.04232623,0.043181498,-0.0063323975,-0.007156372,-0.005722046,-57.17926,-16.139221,4.319763,0,0.0,0.0,0.0,0.0
0.639160157,-0.0028699802,0.28031737,0.95990306,-0.0054131094,-0.95989734,0.28029948,0.9999812,-0.0043916064,0.0042722747,-0.11761758,0.4696621,0.8749764,-0.06694286,-0.8828377,0.46488312,0.9908001,-0.0038950006,0.13527775,10.045074,-0.112457275,0.0011901855,9.806466,-0.04306695,0.041896705,-0.009536743,-0.007156372,-0.0037384033,-57.23877,-16.19873,4.559326,0,0.0,0.0,0.0,0.0
0.647460938,-0.0028142836,0.2801356,0.9599564,-0.0053989235,-0.9599504,0.28011802,0.9999814,-0.004394399,0.0042140023,-0.113572836,0.46248746,0.87932163,-0.06362088,-0.8866172,0.45810735,0.99149054,-0.003914666,0.13011949,10.005585,-0.07537842,0.010772705,9.806468,-0.043094333,0.04132525,-0.005874634,9.460449E-4,-0.008163452,-57.23877,-16.19873,4.559326,0,0.0,0.0,0.0,0.0
0.655761719,-0.0027062483,0.28827822,0.95754284,-0.005397292,-0.9575366,0.28826112,0.99998176,-0.0043880325,0.0041472535,-0.11159239,0.45899305,0.88140374,-0.06203325,-0.8884312,0.45479873,0.99181604,-0.00392426,0.12761499,10.005585,-0.07537842,0.010772705,9.806472,-0.0430319,0.040670667,-0.009841919,0.0015563965,-0.008621216,-56.999207,-16.079712,4.6798706,0,0.0,0.0,0.0,0.0
0.6640625,-0.0026960943,0.28824517,0.9575529,-0.005382933,-0.9575467,0.28822815,0.9999819,-0.0043773525,0.0041332403,-0.10769504,0.45249197,0.8852416,-0.059033744,-0.89175975,0.44864193,0.9924298,-0.003942625,0.1227504,10.012772,-0.08255005,0.026321411,9.806473,-0.042927165,0.04053324,-0.007858276,-7.324219E-4,-0.0025177002,-56.999207,-16.079712,4.6798706,0,0.0,0.0,0.0,0.0
0.672363282,-0.0025482778,0.31577584,0.9488304,-0.0054903,-0.94882363,0.31575882,0.9999817,-0.004404722,0.0041515697,-0.1039139,0.4462243,0.8888677,-0.056207754,-0.89491236,0.44268784,0.99299675,-0.0039598406,0.118075095,10.077377,-0.09451294,0.056228638,9.806471,-0.043195568,0.040712994,-0.006942749,-0.0036468506,-0.0011291504,-56.399536,-15.59906,5.039978,0,0.0,0.0,0.0,0.0
0.680664063,-0.0025248942,0.3156995,0.9488559,-0.005535529,-0.94884884,0.3156824,0.9999815,-0.0044553545,0.0041433065,-0.10203503,0.44369417,0.89035064,-0.054916345,-0.8961695,0.4403004,0.99326384,-0.0039687385,0.11580674,10.077377,-0.09451294,0.056228638,9.806469,-0.043692105,0.040631957,-0.008163452,-0.009597778,-0.0034332275,-56.399536,-15.59906,5.039978,0,0.0,0.0,0.0,0.0
0.688964844,-0.0025211724,0.30154347,0.9534492,-0.0055100136,-0.953442,0.30152664,0.9999817,-0.0044933166,0.0040653,-0.098368585,0.43877152,0.8931983,-0.052442707,-0.8985898,0.43564448,0.9937673,-0.003988008,0.111403376,10.047455,-0.08375549,0.04307556,9.806471,-0.044064384,0.039866973,-0.005722046,-0.017532349,-6.1035156E-5,-56.459045,-15.838623,4.8599243,0,0.0,0.0,0.0,0.0
0.697265625,-0.002379933,0.3010846,0.95359445,-0.0054892153,-0.95358676,0.30106845,0.9999821,-0.004517962,0.0039221905,-0.09484879,0.43350053,0.89614785,-0.050049584,-0.9011444,0.43062025,0.9942327,-0.0040080184,0.10716897,10.02832,-0.0765686,0.027511597,9.806475,-0.044306073,0.03846355,-0.01260376,-0.017532349,-0.0077056885,-56.459045,-15.838623,4.8599243,0,0.0,0.0,0.0,0.0
0.705566407,-0.0023286731,0.28433293,0.95872265,-0.0054070493,-0.9587148,0.2843175,0.99998266,-0.0045217793,0.0037699367,-0.093129754,0.4309296,0.89756703,-0.0489023,-0.90237665,0.4281647,0.99445236,-0.0040182173,0.10511156,10.02832,-0.0765686,0.027511597,9.80648,-0.04434351,0.03697045,-0.010147095,-0.01676941,-0.0064849854,-56.819153,-15.838623,4.559326,0,0.0,0.0,0.0,0.0
0.713867188,-0.0021762634,0.2838293,0.9588723,-0.005327442,-0.9588643,0.28381485,0.9999835,-0.0044906815,0.0035988255,-0.08980361,0.4253034,0.9005844,-0.046640072,-0.9050418,0.42275763,0.99486685,-0.004038158,0.10111221,10.005585,-0.0657959,0.0035858154,9.806488,-0.04403854,0.035292424,-0.012435913,9.460449E-4,-0.009231567,-56.819153,-15.838623,4.559326,0,0.0,0.0,0.0,0.0
0.722167969,-0.0020026953,0.29325017,0.95603365,-0.0052433684,-0.95602554,0.2932367,0.99998426,-0.0044255727,0.0034522463,-0.08658005,0.41986567,0.9034471,-0.04450179,-0.9075772,0.4175203,0.99525046,-0.004056078,0.09726286,10.022339,-0.041870117,-0.034698486,9.806496,-0.04340004,0.033854973,-0.005264282,4.8828125E-4,-0.0016021729,-56.759644,-15.838623,4.73938,0,0.0,0.0,0.0,0.0
0.73046875,-0.0019345052,0.2930264,0.95610243,-0.0051760687,-0.9560943,0.29301345,0.99998474,-0.0043820157,0.003366294,-0.08499737,0.41740146,0.90473837,-0.0434933,-0.9087131,0.41514918,0.9954314,-0.0040634675,0.09539239,10.022339,-0.041870117,-0.034698486,9.8065,-0.042972896,0.03301207,-0.010910034,0.002319336,-0.0032653809,-56.759644,-15.838623,4.73938,0,0.0,0.0,0.0,0.0
0.738769532,-0.0019477935,0.28837627,0.9575152,-0.0051532765,-0.9575072,0.28836337,0.9999848,-0.004372668,0.003351109,-0.08190955,0.41260263,0.907221,-0.041557655,-0.910902,0.41052467,0.995773,-0.0040760823,0.09175837,10.00798,-0.058624268,0.017944336,9.806501,-0.042881224,0.032863155,-0.009231567,0.0039978027,-0.008468628,-56.759644,-15.7196045,4.6188354,0,0.0,0.0,0.0,0.0
0.747070313,-0.0019477729,0.2883762,0.95751524,-0.0051477817,-0.9575072,0.28836334,0.9999848,-0.0043674125,0.0033495044,-0.07893334,0.40780756,0.9096497,-0.03971426,-0.91305876,0.40588975,0.99608856,-0.004087827,0.08826656,10.042679,-0.07896423,0.01914978,9.806501,-0.04282969,0.03284742,-0.004501343,0.008728027,-0.009841919,-56.759644,-15.7196045,4.6188354,0,0.0,0.0,0.0,0.0
0.755371094,-0.0019846861,0.28789085,0.95766115,-0.005135623,-0.95765334,0.28787786,0.9999848,-0.004346839,0.00337914,-0.07748326,0.40547758,0.91081524,-0.038831532,-0.9140958,0.40363467,0.99623716,-0.0040934184,0.08657244,10.042679,-0.07896423,0.01914978,9.806501,-0.04262793,0.033138044,-0.0063323975,0.009643555,-0.004501343,-56.819153,-15.9591675,4.6798706,0,0.0,0.0,0.0,0.0
0.763671875,-0.0020731539,0.28818023,0.95757395,-0.005161564,-0.9575663,0.28816676,0.9999845,-0.004345165,0.0034726432,-0.074659586,0.40093032,0.9130612,-0.03713839,-0.91609937,0.3992276,0.99651724,-0.0041034543,0.08328551,10.017548,-0.08015442,0.046661377,9.806499,-0.042611513,0.034055,-0.005264282,0.010864258,-0.004196167,-56.819153,-15.9591675,4.6798706,0,0.0,0.0,0.0,0.0
0.771972657,-0.002235548,0.2824149,0.9592898,-0.0051571107,-0.9592827,0.2824008,0.9999842,-0.0043158424,0.0036009673,-0.07193599,0.3965651,0.9151838,-0.03554157,-0.9179974,0.39499065,0.99677575,-0.0041130264,0.08013159,10.017548,-0.053833008,0.059814453,9.806495,-0.042323954,0.035313424,-0.008163452,0.020187378,-0.0077056885,-56.878662,-16.139221,4.6188354,0,0.0,0.0,0.0,0.0
0.780273438,-0.0024063177,0.28296983,0.9591258,-0.005163039,-0.95911926,0.28295493,0.9999837,-0.0042711245,0.0037689302,-0.0706165,0.3943339,0.91625005,-0.034768496,-0.91895807,0.3928197,0.9968974,-0.004117083,0.078604,10.017548,-0.053833008,0.059814453,9.806491,-0.041885424,0.03696058,-0.007095337,0.02796936,-0.009384155,-56.878662,-16.139221,4.6188354,0,0.0,0.0,0.0,0.0
0.788574219,-0.0025716657,0.28643453,0.9580963,-0.0051601077,-0.95809054,0.28641894,0.9999834,-0.004207307,0.0039419215,-0.06932314,0.3921559,0.91728294,-0.03401858,-0.91988957,0.39069927,0.99701405,-0.0041201636,0.077110216,10.031906,-0.050247192,0.04307556,9.806487,-0.04125959,0.038657047,-0.010757446,0.014221191,-0.0104522705,-56.759644,-15.9591675,4.6188354,0,0.0,0.0,0.0,0.0
0.796875,-0.0027136807,0.2868992,0.9579569,-0.005133675,-0.95795184,0.28688315,0.9999832,-0.0041393302,0.004072423,-0.06680687,0.38805488,0.91921175,-0.03259121,-0.921627,0.38670585,0.99723345,-0.0041236146,0.07421819,10.031906,-0.050247192,0.04307556,9.806485,-0.040592965,0.03993683,-0.005569458,0.010864258,-0.008621216,-56.759644,-15.9591675,4.6188354,0,0.0,0.0,0.0,0.0
0.805175782,-0.002890925,0.2737658,0.9617921,-0.0050928816,-0.9617876,0.27374923,0.9999828,-0.0041069044,0.0041747116,-0.06438419,0.3841267,0.9210328,-0.031242551,-0.9232712,0.38287628,0.997436,-0.0041242368,0.07144516,10.059433,-0.06939697,0.047851563,9.806481,-0.040274974,0.04093994,-0.006790161,0.009185791,-0.0063323975,-57.23877,-16.19873,4.4387817,0,0.0,0.0,0.0,0.0
0.813476563,-0.0029722562,0.27403226,0.9617159,-0.0051086107,-0.96171165,0.27401528,0.9999825,-0.004098588,0.0042583784,-0.0632157,0.38196602,0.92201185,-0.030578844,-0.92416716,0.38076237,0.9975313,-0.0041238903,0.07010196,10.031906,-0.07777405,0.046661377,9.8064785,-0.04019342,0.041760426,-0.005569458,0.00491333,-0.0066375732,-57.23877,-16.19873,4.4387817,0,0.0,0.0,0.0,0.0
0.821777344,-0.0030588878,0.27431616,0.9616347,-0.0051061045,-0.96163094,0.27429885,0.9999823,-0.004071158,0.0043422086,-0.06094312,0.37777767,0.9238885,-0.029308539,-0.92588717,0.37666163,0.9977108,-0.004122888,0.067498565,10.0247345,-0.050247192,0.07896423,9.806477,-0.03992442,0.04258252,-0.015808105,0.002166748,-0.0031280518,-57.23877,-16.19873,4.4387817,0,0.0,0.0,0.0,0.0
0.830078125,-0.0029968815,0.28989118,0.95705485,-0.005170093,-0.95705086,0.28987378,0.9999821,-0.0040793456,0.004366933,-0.058753744,0.37375873,0.92566323,-0.028109264,-0.9275168,0.37272298,0.9978767,-0.0041208393,0.06500117,10.0247345,-0.06939697,0.057434082,9.806475,-0.040004715,0.042824984,-0.0034332275,-0.0013580322,-0.0066375732,-57.058716,-15.838623,4.6188354,0,0.0,0.0,0.0,0.0
0.838378907,-0.0029578274,0.29761267,0.9546821,-0.005195152,-0.954678,0.29759526,0.9999821,-0.004079483,0.004369916,-0.057679664,0.37210822,0.9263955,-0.02755355,-0.9281802,0.37110958,0.99795485,-0.0041200095,0.06379003,10.0295105,-0.07058716,0.055038452,9.806475,-0.040006064,0.04285424,-0.004196167,-0.0048675537,-0.0046539307,-56.878662,-15.9591675,4.798889,0,0.0,0.0,0.0,0.0
0.846679688,-0.0029419162,0.29756087,0.9546984,-0.005195179,-0.9546942,0.29754356,0.9999822,-0.00408448,0.004354512,-0.055581965,0.36919925,0.92768663,-0.026504163,-0.92934114,0.3682697,0.9981023,-0.004118405,0.061439924,10.035492,-0.071777344,0.058624268,9.806476,-0.040055066,0.042703174,-0.011993408,-0.00440979,-0.002960205,-56.878662,-15.9591675,4.798889,0,0.0,0.0,0.0,0.0
0.854980469,-0.0029966363,0.28494892,0.95853806,-0.0051717255,-0.95853394,0.28493154,0.9999822,-0.0041034594,0.004346055,-0.053560805,0.36640045,0.9289144,-0.02550869,-0.9304482,0.3655346,0.99823874,-0.0041170614,0.05918195,10.035492,-0.071777344,0.058624268,9.806476,-0.040241193,0.04262024,-0.006942749,-0.0019683838,-0.005264282,-57.23877,-16.139221,4.6188354,0,0.0,0.0,0.0,0.0
0.86328125,-0.0029970815,0.28495038,0.95853764,-0.005180829,-0.9585335,0.28493294,0.9999821,-0.0041120523,0.004349082,-0.05258464,0.36479625,0.9296013,-0.025016677,-0.9310783,0.36396074,0.99830306,-0.0041167894,0.058086403,10.025925,-0.07298279,-0.015548706,9.806475,-0.04032546,0.042649925,-0.008926392,-0.0013580322,-0.0061798096,-57.23877,-16.139221,4.6188354,0,0.0,0.0,0.0,0.0
0.871582032,-0.0029050198,0.2846495,0.9586272,-0.0051629175,-0.95862275,0.28463253,0.9999825,-0.0041224505,0.0042544403,-0.05068597,0.36168018,0.9309234,-0.024072072,-0.9322932,0.36090168,0.9984245,-0.0041166022,0.055960573,10.039093,-0.07537842,-0.011962891,9.8064785,-0.040427428,0.04172181,-0.002822876,-0.0013580322,-0.0019073486,-57.23877,-16.139221,4.6188354,0,0.0,0.0,0.0,0.0
0.879882813,-0.0028611794,0.2806545,0.9598046,-0.0051502725,-0.95979995,0.2806378,0.99998266,-0.0041403007,0.0041916072,-0.048853554,0.3586718,0.9321845,-0.023175422,-0.93345463,0.35794598,0.99853706,-0.0041168337,0.053914953,10.0247345,-0.07058716,0.0011901855,9.80648,-0.04060248,0.041105628,-0.007858276,0.0072021484,-0.0023498535,-57.17926,-16.378784,4.6188354,0,0.0,0.0,0.0,0.0
0.888183594,-0.0027767115,0.29053822,0.9568593,-0.005189247,-0.9568543,0.29052165,0.99998266,-0.004158685,0.004164583,-0.047963444,0.3571335,0.93282104,-0.022740733,-0.93404424,0.35643253,0.9985902,-0.004117303,0.052921463,10.0295105,-0.0765686,0.04067993,9.80648,-0.04078277,0.04084061,-0.0063323975,0.007507324,-0.0025177002,-57.17926,-15.9591675,4.6798706,0,0.0,0.0,0.0,0.0
0.896484375,-0.0028115476,0.2906528,0.9568244,-0.005221778,-0.9568194,0.29063597,0.9999824,-0.0041791885,0.004207868,-0.046222072,0.3545277,0.9339023,-0.021924872,-0.9350364,0.35387307,0.99869055,-0.004118942,0.0509923,10.043869,-0.06700134,0.057434082,9.806478,-0.04098384,0.041265093,-0.010910034,0.0026245117,-0.0012817383,-57.17926,-15.9591675,4.6798706,0,0.0,0.0,0.0,0.0
0.904785157,-0.0028887861,0.2852216,0.95845723,-0.005221667,-0.9584524,0.28520444,0.9999822,-0.00418085,0.0042580967,-0.044546783,0.35202694,0.9349292,-0.021152124,-0.9359808,0.35141504,0.99878335,-0.004121328,0.049141053,10.043869,-0.06700134,0.057434082,9.806476,-0.04100013,0.041757666,-0.004501343,0.003692627,-0.0049591064,-57.11975,-15.899658,4.559326,0,0.0,0.0,0.0,0.0
0.913085938,-0.0029025904,0.2852673,0.9584436,-0.0052002245,-0.958439,0.2852502,0.9999823,-0.004156158,0.00426541,-0.043736115,0.35070708,0.93546337,-0.02077602,-0.9364761,0.35011542,0.99882704,-0.004122518,0.048244122,10.043869,-0.06700134,0.057434082,9.806477,-0.040757988,0.041829385,-0.007858276,-0.0010528564,-0.005722046,-57.11975,-15.899658,4.559326,0,0.0,0.0,0.0,0.0
0.921386719,-0.0028827812,0.28520173,0.95846325,-0.0051590637,-0.95845866,0.28518483,0.9999825,-0.004122647,0.0042344,-0.042160638,0.3481457,0.9364919,-0.020052027,-0.93743134,0.34759226,0.9989096,-0.0041238503,0.04650373,10.011566,-0.059814453,0.017944336,9.8064785,-0.040429357,0.041525282,-0.004196167,-0.0011901855,-0.010299683,-57.11975,-15.899658,4.559326,0,0.0,0.0,0.0,0.0
0.9296875,-0.0029298274,0.27578261,0.96121556,-0.0050980365,-0.96121126,0.27576584,0.99998266,-0.004092366,0.0042221327,-0.040643554,0.34568062,0.9374716,-0.019363184,-0.93834317,0.34516254,0.99898607,-0.004123803,0.044831075,10.046265,-0.06341553,0.04547119,9.80648,-0.0401324,0.04140498,-0.01411438,-0.0051727295,-0.005264282,-57.299805,-16.079712,4.4387817,0,0.0,0.0,0.0,0.0
0.937988282,-0.0029052696,0.27570152,0.9612389,-0.0050776685,-0.9612346,0.27568495,0.9999829,-0.0040799133,0.0041925665,-0.039910175,0.34429994,0.938011,-0.019023487,-0.93885064,0.3437987,0.9990221,-0.0041231746,0.044019476,10.017548,-0.044265747,0.037094116,9.806482,-0.04001028,0.041115034,-0.0060272217,-0.006088257,-0.0046539307,-57.299805,-16.079712,4.4387817,0,0.0,0.0,0.0,0.0
0.946289063,-0.002863992,0.27652773,0.9610017,-0.0050719134,-0.9609972,0.27651134,0.99998295,-0.004082191,0.004154813,-0.03848355,0.34161538,0.9390517,-0.018369567,-0.9398309,0.341146,0.9990904,-0.0041214614,0.042443354,10.022339,-0.07537842,0.04307556,9.806483,-0.040032618,0.040744796,-0.010604858,-0.0034942627,-0.006790161,-57.23877,-16.018677,4.4387817,0,0.0,0.0,0.0,0.0
0.954589844,-0.0028496145,0.27648017,0.9610154,-0.005070415,-0.96101093,0.27646384,0.9999831,-0.0040849317,0.0041403794,-0.03778921,0.34032843,0.939547,-0.018055776,-0.9402976,0.3398741,0.9991226,-0.004120676,0.041677997,10.022339,-0.07537842,0.04307556,9.806484,-0.040059496,0.040603254,-0.010604858,0.0020141602,-0.0038909912,-57.23877,-16.018677,4.4387817,0,0.0,0.0,0.0,0.0
0.962890625,-0.0028216112,0.28206447,0.9593913,-0.005069887,-0.9593868,0.28204826,0.9999832,-0.004068175,0.0041370513,-0.03643905,0.33782756,0.94050235,-0.01745222,-0.941199,0.3374016,0.9991835,-0.0041192607,0.04019224,10.054642,-0.051452637,0.039474487,9.806485,-0.03989517,0.040570617,-0.007247925,-0.0010528564,-0.0035705566,-57.17926,-16.079712,4.559326,0,0.0,0.0,0.0,0.0
0.971191407,-0.0028164692,0.2820476,0.95939624,-0.0050537013,-0.9593918,0.28203145,0.99998325,-0.0040541696,0.004127482,-0.035135753,0.33564013,0.94133484,-0.016886828,-0.9419813,0.3352403,0.99923986,-0.004117238,0.038765118,10.023529,-0.051452637,0.039474487,9.806486,-0.03975782,0.040476773,-0.009841919,-0.0014953613,-0.004501343,-57.17926,-16.079712,4.559326,0,0.0,0.0,0.0,0.0
0.979492188,-0.00290095,0.26332334,0.96470326,-0.0050306395,-0.96469903,0.26330703,0.9999832,-0.004089234,0.004123228,-0.034502607,0.33457807,0.9417362,-0.016614445,-0.94235903,0.33419064,0.9992665,-0.004115977,0.03807267,10.043869,-0.0993042,0.050247192,9.806485,-0.040101685,0.040435057,-0.009841919,-0.003189087,-0.008621216,-57.598877,-16.018677,4.1992188,0,0.0,0.0,0.0,0.0
0.987792969,-0.002774976,0.28406513,0.958801,-0.0051071593,-0.95879614,0.28404891,0.9999831,-0.00410852,0.004111402,-0.03328415,0.33178905,0.94276625,-0.016065627,-0.94334465,0.3314254,0.9993168,-0.0041149184,0.036728825,10.021133,-0.07298279,0.041870117,9.806484,-0.04029082,0.040319085,-0.009536743,-0.0033416748,-0.0063323975,-57.058716,-15.539551,4.4387817,0,0.0,0.0,0.0,0.0
0.99609375,-0.0027554417,0.28399903,0.9588206,-0.005053226,-0.95881593,0.28398314,0.9999835,-0.004062638,0.0040770727,-0.032097172,0.32991397,0.9434652,-0.015573432,-0.94400203,0.3295719,0.9993634,-0.004114665,0.035437685,10.02713,-0.051452637,0.032302856,9.806488,-0.039840873,0.039982427,-0.004348755,-0.0013580322,-0.0046539307,-57.058716,-15.539551,4.4387817,0,0.0,0.0,0.0,0.0
1.004394532,-0.002743031,0.28395703,0.95883304,-0.0050221467,-0.9588285,0.2839413,0.99998367,-0.004036541,0.00405617,-0.03152039,0.32900298,0.94380265,-0.015335267,-0.9443199,0.32867113,0.9993855,-0.0041136243,0.03481068,10.054642,-0.0765686,0.015548706,9.80649,-0.039584946,0.039777443,-0.0046539307,7.9345703E-4,-0.0023498535,-57.058716,-15.539551,4.4387817,0,0.0,0.0,0.0,0.0
1.012695313,-0.0025279417,0.31455225,0.94923687,-0.00512323,-0.9492315,0.31453684,0.99998367,-0.0040680277,0.004011125,-0.03039956,0.32723254,0.9444547,-0.014875038,-0.9449349,0.32692015,0.99942714,-0.0041105715,0.033593204,10.037888,-0.088531494,0.011962891,9.80649,-0.039893724,0.039335698,-0.009536743,-0.0014953613,-0.0075531006,-56.999207,-14.93988,4.798889,0,0.0,0.0,0.0,0.0
1.020996094,-0.002472387,0.3143607,0.9493003,-0.005122877,-0.94929475,0.31434554,0.99998385,-0.004085966,0.003957456,-0.029301148,0.32673144,0.94466287,-0.014474848,-0.9451083,0.32643652,0.99946576,-0.004108887,0.032422144,10.037888,-0.088531494,0.011962891,9.806492,-0.04006964,0.038809385,-0.004043579,0.0012512207,-0.010604858,-56.999207,-14.93988,4.798889,0,0.0,0.0,0.0,0.0
1.029296875,-0.0025949334,0.29922846,0.954178,-0.00504502,-0.95417297,0.29921314,0.9999839,-0.0040374086,0.003985629,-0.028767072,0.3264847,0.9447646,-0.01428101,-0.9451935,0.3261981,0.9994841,-0.0041084285,0.031852983,10.02832,-0.055038452,0.07537842,9.806492,-0.03959345,0.039085668,-0.0075531006,-0.006088257,-0.009841919,-57.17926,-15.419006,4.6798706,0,0.0,0.0,0.0,0.0
1.037597657,-0.0024878122,0.3122977,0.94998103,-0.0050554434,-0.9499758,0.31228274,0.99998415,-0.0040256744,0.0039421646,-0.027740978,0.32541025,0.9451659,-0.0138867805,-0.94556403,0.3251397,0.9995187,-0.0041056164,0.030749774,10.040283,-0.07417297,0.03111267,9.806495,-0.03947838,0.038659427,-0.0077056885,-0.002105713,-0.008773804,-57.058716,-15.419006,4.9194336,0,0.0,0.0,0.0,0.0
1.045898438,-0.002430806,0.3121068,0.9500439,-0.0050216443,-0.95003855,0.31209219,0.99998444,-0.004012147,0.0038766484,-0.026745941,0.32489237,0.9453727,-0.013523942,-0.94574213,0.3246367,0.99955076,-0.004102451,0.02968859,10.043869,-0.0657959,0.010772705,9.806498,-0.039345723,0.038016934,-0.013198853,3.0517578E-5,-0.0046539307,-57.058716,-15.419006,4.9194336,0,0.0,0.0,0.0,0.0
1.054199219,-0.0024298148,0.31210345,0.950045,-0.0049992353,-0.9500397,0.31208894,0.9999845,-0.00399118,0.0038686995,-0.026262034,0.32463732,0.9454739,-0.013347543,-0.9458297,0.3243887,0.99956596,-0.004100645,0.029172521,10.041473,-0.057434082,0.029907227,9.806499,-0.039140105,0.037938982,-0.0032806396,0.005065918,-0.001739502,-57.058716,-15.419006,4.9194336,0,0.0,0.0,0.0,0.0
1.0625,-0.0023523523,0.32838175,0.9445421,-0.0050234515,-0.9445367,0.32836735,0.9999846,-0.003972426,0.0038714937,-0.02532258,0.3241421,0.9456695,-0.0130050415,-0.94599956,0.323907,0.9995947,-0.0040963097,0.02817063,10.031906,-0.09690857,0.037094116,9.8064995,-0.038956195,0.037966385,-0.009689331,-0.0036468506,-0.012130737,-57.058716,-15.419006,5.218506,0,0.0,0.0,0.0,0.0
1.070800782,-0.0023421876,0.32834813,0.94455385,-0.005037538,-0.94454825,0.32833368,0.9999845,-0.0039892066,0.0038663754,-0.024411814,0.32431012,0.9456358,-0.012693013,-0.945942,0.32408747,0.99962145,-0.0040914044,0.027208634,10.0295105,-0.057434082,0.037094116,9.806499,-0.039120752,0.03791619,-0.0048065186,-5.79834E-4,-0.005264282,-57.058716,-15.419006,5.218506,0,0.0,0.0,0.0,0.0
1.079101563,-0.002361577,0.33067045,0.94374335,-0.0050088684,-0.9437381,0.33065608,0.99998474,-0.0039462163,0.003884995,-0.023969846,0.3243909,0.94561934,-0.012541796,-0.9459143,0.32417414,0.999634,-0.0040893606,0.026741864,10.0295105,-0.057434082,0.037094116,9.8065,-0.038699165,0.038098786,-0.0048065186,0.0154418945,-0.012283325,-56.878662,-15.299988,5.218506,0,0.0,0.0,0.0,0.0
1.087402344,-0.0025402026,0.31359512,0.94955343,-0.0049947496,-0.94954866,0.3135802,0.9999843,-0.003946224,0.0039783744,-0.023112409,0.32463962,0.9455553,-0.012249041,-0.945829,0.32443413,0.9996578,-0.004083692,0.02583691,10.036697,-0.09451294,0.06460571,9.806497,-0.03869924,0.039014526,-8.392334E-4,0.004760742,-0.0063323975,-57.23877,-15.359497,4.9194336,0,0.0,0.0,0.0,0.0
1.095703125,-0.0026215024,0.31386903,0.9494628,-0.005032336,-0.94945824,0.31385362,0.99998397,-0.003955247,0.0040685004,-0.022702668,0.32441908,0.945641,-0.012099285,-0.9459047,0.32421908,0.999669,-0.0040809424,0.025399797,10.036697,-0.09451294,0.06460571,9.806493,-0.038787723,0.039898362,-0.0029754639,0.007659912,-0.0063323975,-57.23877,-15.359497,4.9194336,0,0.0,0.0,0.0,0.0
1.104003907,-0.0026956997,0.31411895,0.9493798,-0.0050545353,-0.9493754,0.31410316,0.99998355,-0.003951946,0.0041469564,-0.021910572,0.32400185,0.9458027,-0.011810999,-0.94604766,0.32381216,0.9996902,-0.0040759654,0.024555232,10.036697,-0.062210083,0.047851563,9.806489,-0.03875535,0.04066775,-0.010910034,0.008728027,-0.0032653809,-57.23877,-15.359497,4.9194336,0,0.0,0.0,0.0,0.0
1.112304688,-0.0027475401,0.3176133,0.9482163,-0.005091231,-0.9482121,0.31759712,0.99998325,-0.0039549773,0.004222294,-0.021152485,0.32361138,0.94595367,-0.011535904,-0.9461813,0.32343134,0.9997097,-0.004071054,0.023747236,10.023529,-0.086135864,0.06819153,9.806486,-0.038785078,0.041406557,-0.012130737,0.0017089844,-0.010757446,-57.23877,-15.359497,4.978943,0,0.0,0.0,0.0,0.0
1.120605469,-0.0028033776,0.31780097,0.9481533,-0.005119956,-0.9481492,0.31778443,0.99998295,-0.0039636334,0.004285147,-0.02078526,0.32349136,0.94600284,-0.011404761,-0.94622236,0.3233159,0.9997189,-0.0040687323,0.023356818,10.023529,-0.086135864,0.06819153,9.806483,-0.038869966,0.042022936,-0.009994507,-1.2207031E-4,-0.007247925,-57.23877,-15.359497,4.978943,0,0.0,0.0,0.0,0.0
1.12890625,-0.0029511054,0.3007832,0.95368797,-0.005040484,-0.95368445,0.3007665,0.99998295,-0.0039194557,0.0043305163,-0.020074725,0.3232662,0.94609505,-0.011151841,-0.94629925,0.32309937,0.99973625,-0.00406457,0.022601712,10.003189,-0.026321411,0.07896423,9.806483,-0.038436733,0.04246786,-0.010757446,-0.0053253174,0.008178711,-57.418823,-15.779114,4.798889,0,0.0,0.0,0.0,0.0
1.137207032,-0.003123253,0.2694791,0.96300125,-0.0049461224,-0.96299833,0.26946223,0.9999829,-0.0039215228,0.004340563,-0.0194022,0.3223794,0.9464116,-0.010894431,-0.9466018,0.32222083,0.9997524,-0.004058824,0.021878298,10.046265,-0.035888672,0.034698486,9.806482,-0.038457002,0.042566385,-0.005569458,-0.011276245,-0.0037384033,-57.77893,-16.319275,4.3792725,0,0.0,0.0,0.0,0.0
1.145507813,-0.0030403717,0.26920617,0.9630778,-0.00490504,-0.9630747,0.26918983,0.9999834,-0.0039054977,0.004248572,-0.019083096,0.32133046,0.94677484,-0.010757689,-0.9469584,0.32117593,0.99976003,-0.004056078,0.021527672,10.046265,-0.035888672,0.034698486,9.806487,-0.03829985,0.04166426,-0.004043579,-0.012039185,-0.0066375732,-57.77893,-16.319275,4.3792725,0,0.0,0.0,0.0,0.0
1.153808594,-0.0029604647,0.268943,0.96315145,-0.0049053365,-0.96314794,0.26892698,0.99998355,-0.003928434,0.004170622,-0.018459883,0.3192833,0.9474795,-0.010492404,-0.9476506,0.31913656,0.9997745,-0.0040501147,0.02084357,10.033112,-0.08135986,0.055038452,9.806489,-0.03852478,0.040899836,-0.010757446,-0.008071899,-0.004043579,-57.77893,-16.319275,4.3792725,0,0.0,0.0,0.0,0.0
1.162109375,-0.0027993487,0.27541953,0.96132004,-0.004937651,-0.9613158,0.27540398,0.99998385,-0.0039757113,0.004050984,-0.017857086,0.31730568,0.9481552,-0.010239843,-0.9483147,0.3171662,0.9997881,-0.004045296,0.020183297,10.011566,-0.0993042,0.0143585205,9.806492,-0.03898841,0.03972658,-0.0049591064,-0.0053253174,-0.005722046,-57.71942,-16.079712,4.4387817,0,0.0,0.0,0.0,0.0
1.170410157,-0.0027070546,0.27511257,0.96140826,-0.0049469983,-0.9614037,0.27509737,0.99998415,-0.0040113814,0.003963554,-0.01756044,0.31647375,0.9484387,-0.010120774,-0.94859266,0.31633776,0.9997946,-0.0040439046,0.019860663,10.011566,-0.0993042,0.0143585205,9.806495,-0.039338216,0.038869187,-0.009689331,-0.0024108887,-0.007095337,-57.71942,-16.079712,4.4387817,0,0.0,0.0,0.0,0.0
1.178710938,-0.0025586018,0.29290745,0.9561374,-0.0049980194,-0.9561324,0.29289252,0.99998426,-0.004029398,0.003910319,-0.016980635,0.31484652,0.9489907,-0.009891258,-0.949134,0.31471705,0.9998069,-0.0040426166,0.019231126,10.031906,-0.056228638,0.007171631,9.806496,-0.039514896,0.03834713,-0.00541687,6.4086914E-4,-0.0011291504,-57.539368,-15.779114,4.6798706,0,0.0,0.0,0.0,0.0
1.187011719,-0.0026524854,0.2658405,0.96401334,-0.004888462,-0.9640086,0.26582575,0.9999845,-0.004007444,0.00385657,-0.016413696,0.31398082,0.9492875,-0.0096847955,-0.94942075,0.31385747,0.9998184,-0.0040420936,0.018624343,10.021133,-0.037094116,0.017944336,9.806499,-0.0392996,0.037820034,-3.8146973E-4,-0.004562378,-0.005722046,-57.659912,-16.018677,4.258728,0,0.0,0.0,0.0,0.0
1.1953125,-0.0026170444,0.26572165,0.9640462,-0.0048301006,-0.9640416,0.26570728,0.9999849,-0.003961073,0.003806402,-0.016143136,0.3130254,0.9496076,-0.009575186,-0.9497362,0.312905,0.99982387,-0.0040414007,0.018328996,10.021133,-0.037094116,0.017944336,9.806502,-0.038844854,0.037328053,-0.0063323975,-0.004562378,-0.0032653809,-57.659912,-16.018677,4.258728,0,0.0,0.0,0.0,0.0
1.203613282,-0.002586371,0.2656188,0.9640747,-0.0048299865,-0.96407,0.2656046,0.99998504,-0.0039695157,0.003776378,-0.015616283,0.31116602,0.95022726,-0.00936164,-0.950347,0.3110514,0.99983424,-0.00403822,0.01775391,10.069,-0.071777344,0.044265747,9.806503,-0.038927652,0.037033617,-0.007247925,-0.009140015,-0.005569458,-57.659912,-16.018677,4.258728,0,0.0,0.0,0.0,0.0
1.211914063,-0.0024058702,0.2893848,0.9572098,-0.0048875404,-0.95720464,0.28937095,0.9999852,-0.003982213,0.00371729,-0.015108467,0.30937502,0.9508201,-0.009158442,-0.95093155,0.30926576,0.9998439,-0.004035499,0.017200511,10.02832,-0.07537842,0.035888672,9.806505,-0.03905217,0.036454163,-0.004043579,-0.013412476,-0.0038909912,-57.659912,-15.9591675,4.6798706,0,0.0,0.0,0.0,0.0
1.220214844,-0.0023004299,0.2890349,0.9573158,-0.0048706234,-0.9573102,0.28902152,0.9999855,-0.0039978507,0.0036100054,-0.014856208,0.3089764,0.95095366,-0.009067808,-0.9510611,0.3088697,0.9998485,-0.004034433,0.0169309,10.02832,-0.07537842,0.035888672,9.806508,-0.039205525,0.03540206,-0.0061798096,-0.01524353,-0.005569458,-57.659912,-15.9591675,4.6798706,0,0.0,0.0,0.0,0.0
1.228515625,-0.0022374939,0.28312,0.9590819,-0.0048417724,-0.95907617,0.283107,0.9999858,-0.004010206,0.0035167292,-0.014362391,0.30818903,0.95121676,-0.008891616,-0.95131665,0.30808714,0.99985737,-0.0040329853,0.01640348,10.035492,-0.07896423,0.050247192,9.806511,-0.039326686,0.034487333,-0.004196167,-0.016921997,-0.005874634,-57.539368,-15.899658,4.559326,0,0.0,0.0,0.0,0.0
1.236816407,-0.002004449,0.2968681,0.9549163,-0.004809954,-0.95491004,0.29685605,0.99998647,-0.0039980714,0.003341991,-0.013886179,0.30720043,0.95154345,-0.008719067,-0.9516363,0.30710316,0.9998656,-0.004032083,0.015893094,10.02713,-0.061019897,-0.0059814453,9.806518,-0.03920769,0.032773737,-0.008468628,-0.011734009,-0.0049591064,-57.17926,-16.018677,4.8599243,0,0.0,0.0,0.0,0.0
1.245117188,-0.0018429974,0.29634154,0.95508033,-0.0047529084,-0.9550738,0.29633033,0.999987,-0.003993273,0.003168682,-0.0136493705,0.30699417,0.9516135,-0.008638362,-0.9517029,0.30689907,0.9998695,-0.0040314025,0.015642073,10.02713,-0.061019897,-0.0059814453,9.806523,-0.03916063,0.031074159,-0.0051116943,-0.016921997,-0.0025177002,-57.17926,-16.018677,4.8599243,0,0.0,0.0,0.0,0.0
1.253417969,-0.0017385819,0.29600093,0.95518607,-0.004677286,-0.95517945,0.29599035,0.99998754,-0.003953075,0.0030451384,-0.0131834885,0.30657282,0.95175594,-0.00847948,-0.95183873,0.30648202,0.99987715,-0.0040298924,0.015148132,10.02832,-0.04547119,-0.0047912598,9.806528,-0.038766425,0.029862607,-0.01121521,0.004760742,-0.01121521,-57.17926,-16.018677,4.8599243,0,0.0,0.0,0.0,0.0
1.26171875,-0.0017618577,0.28522968,0.9584575,-0.0045867483,-0.9584513,0.2852194,0.99998796,-0.0038936879,0.0029969316,-0.012955388,0.30636176,0.95182705,-0.008400941,-0.9519067,0.30627304,0.9998808,-0.004028356,0.014906047,10.02832,-0.04547119,-0.0047912598,9.806532,-0.038184036,0.02938986,-0.01260376,0.0039978027,-0.006942749,-57.299805,-16.079712,4.6798706,0,0.0,0.0,0.0,0.0
1.270019532,-0.0017304267,0.28512666,0.9584883,-0.0045360755,-0.9584821,0.2851166,0.9999882,-0.0038544016,0.002951939,-0.012515372,0.30552757,0.952101,-0.008240465,-0.9521747,0.30544293,0.9998877,-0.0040230234,0.01443451,10.022339,-0.056228638,-0.011962891,9.806535,-0.03779877,0.028948631,-0.0017547607,7.9345703E-4,-0.0060272217,-57.299805,-16.079712,4.6798706,0,0.0,0.0,0.0,0.0
1.278320313,-0.001631119,0.30403563,0.9526593,-0.004559938,-0.9526528,0.30402577,0.9999882,-0.0038481646,0.0029402736,-0.0120913675,0.30472204,0.95236456,-0.008085009,-0.9524329,0.30464125,0.9998942,-0.0040163463,0.013979896,10.051056,-0.07058716,0.020339966,9.806535,-0.037737604,0.028834235,-0.0063323975,0.003540039,-0.004501343,-56.878662,-15.7196045,4.9194336,0,0.0,0.0,0.0,0.0
1.286621094,-0.0016379845,0.3040582,0.95265204,-0.004549677,-0.9526457,0.30404836,0.9999883,-0.0038362327,0.0029437856,-0.011882249,0.30470818,0.95237166,-0.008014374,-0.9524373,0.30462918,0.9998973,-0.004012983,0.013759144,10.051056,-0.07058716,0.020339966,9.806536,-0.037620593,0.028868677,-0.01121521,0.0017089844,-0.011672974,-56.878662,-15.7196045,4.9194336,0,0.0,0.0,0.0,0.0
1.294921875,-0.0016635419,0.3095743,0.9508738,-0.0045496,-0.95086753,0.3095643,0.9999882,-0.0038111226,0.0029902474,-0.011476561,0.30468252,0.9523848,-0.007876883,-0.9524455,0.304607,0.9999031,-0.004005983,0.013330748,10.00679,-0.06700134,0.0382843,9.806535,-0.037374347,0.02932431,-0.0025177002,0.010253906,-0.0026550293,-56.939697,-15.59906,4.978943,0,0.0,0.0,0.0,0.0
1.303222657,-0.0017681809,0.3099202,0.9507609,-0.004580422,-0.95075494,0.30990973,0.99998796,-0.00380691,0.0031006723,-0.01108735,0.3048762,0.95232743,-0.007747057,-0.9523836,0.304804,0.9999085,-0.0039982665,0.0129213035,10.04985,-0.06700134,0.06341553,9.806532,-0.037333034,0.030407209,-0.008010864,0.008728027,-0.004348755,-56.939697,-15.59906,4.978943,0,0.0,0.0,0.0,0.0
1.311523438,-0.0019545048,0.29490367,0.95552504,-0.004595998,-0.95551944,0.29489255,0.99998754,-0.0038152223,0.0032229437,-0.010900723,0.30497727,0.9522973,-0.0076847244,-0.9523512,0.30490664,0.99991107,-0.0039944393,0.0127249835,10.04985,-0.06700134,0.06341553,9.806528,-0.03741455,0.031606283,-0.009384155,0.009490967,-0.005264282,-56.759644,-15.539551,4.6798706,0,0.0,0.0,0.0,0.0
1.319824219,-0.0019816668,0.2949944,0.9554969,-0.0046479115,-0.95549124,0.29498303,0.99998724,-0.003856507,0.0032645732,-0.010547771,0.30457902,0.9524287,-0.007558842,-0.9524787,0.3045113,0.99991584,-0.0039873426,0.0123487925,10.021133,-0.09451294,0.041870117,9.806525,-0.037819415,0.032014526,-0.013366699,-0.008529663,-0.004501343,-56.759644,-15.539551,4.6798706,0,0.0,0.0,0.0,0.0
1.328125,-0.0018275407,0.32689726,0.9450581,-0.0046473434,-0.94505227,0.32688624,0.99998754,-0.0037946114,0.0032463258,-0.010209652,0.30419996,0.9525535,-0.0074402904,-0.9525999,0.30413502,0.9999202,-0.0039821616,0.011989049,10.046265,-0.021530151,0.032302856,9.806528,-0.037212428,0.031835582,-0.015350342,0.0018615723,-0.0023498535,-56.57959,-15.058899,5.0994873,0,0.0,0.0,0.0,0.0
1.336425782,-0.0018420713,0.3269462,0.9450412,-0.004593204,-0.9450355,0.3269353,0.9999877,-0.0037385284,0.003242553,-0.010040677,0.30465552,0.9524097,-0.007388333,-0.95245427,0.3045919,0.9999223,-0.0039784107,0.011814182,10.046265,-0.021530151,0.032302856,9.80653,-0.03666244,0.031798583,-0.0048065186,7.9345703E-4,-0.004043579,-56.57959,-15.058899,5.0994873,0,0.0,0.0,0.0,0.0
1.344726563,-0.0018664536,0.30115014,0.9535749,-0.004523402,-0.9535693,0.30113953,0.999988,-0.00375134,0.0031420162,-0.009713331,0.30554172,0.9521291,-0.00728488,-0.95217043,0.30548066,0.99992627,-0.0039689117,0.011474581,10.019943,-0.06819153,-0.021530151,9.806533,-0.03678808,0.030812655,-0.0060272217,-0.013717651,-0.0038909912,-56.878662,-15.359497,4.73938,0,0.0,0.0,0.0,0.0
1.353027344,-0.0018336535,0.30103952,0.95360994,-0.0044678575,-0.95360446,0.3010292,0.9999883,-0.0037086096,0.0030935816,-0.009403097,0.30536783,0.9521881,-0.0071741594,-0.9522262,0.30530927,0.99993,-0.003960296,0.011144633,10.012772,-0.027511597,0.039474487,9.806537,-0.03636904,0.030337675,-0.010757446,-0.0028839111,-0.0046539307,-56.878662,-15.359497,4.73938,0,0.0,0.0,0.0,0.0
1.361328125,-0.0017440753,0.3186987,0.94785446,-0.0044545806,-0.9478489,0.31868863,0.9999885,-0.0036664773,0.0030727892,-0.00925193,0.30528134,0.9522173,-0.0071193557,-0.952254,0.30522394,0.9999319,-0.0039552622,0.010983594,10.012772,-0.027511597,0.039474487,9.806538,-0.03595586,0.030133769,-0.0060272217,0.002166748,-0.0038909912,-56.999207,-15.478516,5.0994873,0,0.0,0.0,0.0,0.0
1.369628907,-0.0017388237,0.3186813,0.9478603,-0.004457459,-0.94785476,0.31867126,0.9999885,-0.0036709355,0.003068661,-0.008953186,0.3058137,0.9520493,-0.0070178513,-0.95208323,0.30575863,0.9999353,-0.0039438265,0.010670333,10.042679,-0.07058716,0.028717041,9.806538,-0.03599958,0.030093286,-0.008926392,-0.0010528564,-0.0060272217,-56.999207,-15.478516,5.0994873,0,0.0,0.0,0.0,0.0
1.377929688,-0.0016587372,0.33496472,0.9422292,-0.0044830777,-0.9422234,0.3349548,0.9999885,-0.003668485,0.003064574,-0.008666095,0.3063244,0.9518877,-0.0069201416,-0.951919,0.30627146,0.9999385,-0.00393302,0.01036923,10.047455,-0.090927124,-0.0047912598,9.806538,-0.03597555,0.030053206,-0.004348755,-0.0010528564,-0.00541687,-56.878662,-15.299988,5.3390503,0,0.0,0.0,0.0,0.0
1.386230469,-0.0015960411,0.33475742,0.94230306,-0.0044946363,-0.94229716,0.3347477,0.9999886,-0.0037010382,0.0030085575,-0.008524555,0.30689994,0.9517036,-0.0068755355,-0.9517337,0.30684805,0.99994004,-0.003927729,0.010223208,10.047455,-0.090927124,-0.0047912598,9.806539,-0.036294788,0.02950387,-0.004043579,3.3569336E-4,-0.0025177002,-56.878662,-15.299988,5.3390503,0,0.0,0.0,0.0,0.0
1.39453125,-0.0015173065,0.34955236,0.93691564,-0.004535318,-0.93690956,0.34954274,0.9999886,-0.0037188465,0.00300691,-0.008247461,0.30800843,0.9513479,-0.0067889243,-0.95137554,0.30795854,0.99994296,-0.0039187525,0.009937479,10.012772,-0.0765686,0.035888672,9.806539,-0.036469426,0.029487714,-0.01260376,-0.0018005371,-0.0077056885,-56.518555,-14.878845,5.4595947,0,0.0,0.0,0.0,0.0
1.402832032,-0.0014864976,0.34944943,0.9369541,-0.0045364806,-0.9369478,0.34943992,0.9999886,-0.003731032,0.002978041,-0.007977151,0.3096656,0.95081204,-0.006710793,-0.9508375,0.30961755,0.9999457,-0.0039108368,0.009663076,10.017548,-0.08135986,0.020339966,9.806539,-0.036588926,0.029204607,-0.008163452,-0.0028839111,-0.0049591064,-56.518555,-14.878845,5.4595947,0,0.0,0.0,0.0,0.0
1.411132813,-0.0014392157,0.3521425,0.93594533,-0.0045384336,-0.93593895,0.35213313,0.9999887,-0.00374093,0.0029451933,-0.00784547,0.3104669,0.95055187,-0.006672576,-0.9505762,0.31041974,0.99994695,-0.0039072405,0.00952933,10.017548,-0.08135986,0.020339966,9.806539,-0.03668599,0.02888248,-0.01121521,-0.0028839111,-0.0049591064,-56.69861,-15.058899,5.5786133,0,0.0,0.0,0.0,0.0
1.419433594,-0.0014126607,0.35205474,0.93597835,-0.0045245383,-0.935972,0.35204554,0.9999888,-0.0037375488,0.0029150962,-0.007588162,0.31212944,0.9500092,-0.0065986714,-0.9500315,0.31208405,0.9999494,-0.0039006546,0.009268633,10.016357,-0.07058716,0.020339966,9.8065405,-0.036652833,0.028587328,-0.0104522705,0.0020141602,-0.006942749,-56.69861,-15.058899,5.5786133,0,0.0,0.0,0.0,0.0
1.427734375,-0.0013984878,0.34954593,0.93691814,-0.0045516547,-0.9369115,0.34953666,0.9999886,-0.0037757054,0.0029012721,-0.0073401774,0.31372157,0.9494866,-0.0065263123,-0.949507,0.31367785,0.9999518,-0.0038941954,0.009016995,10.074982,-0.10647583,0.01675415,9.80654,-0.037027024,0.028451763,-0.0035858154,-0.0019683838,-0.0032653809,-56.6391,-15.179443,5.5786133,0,0.0,0.0,0.0,0.0
1.436035157,-0.0013755948,0.34947085,0.9369462,-0.004592135,-0.9369394,0.3494616,0.9999885,-0.0038218664,0.0028936665,-0.0072198613,0.31444272,0.949249,-0.0064911824,-0.94926846,0.31439978,0.99995285,-0.0038918257,0.008894692,10.074982,-0.10647583,0.01675415,9.806538,-0.037479706,0.028377175,-0.0064849854,0.0033874512,-0.007247925,-56.6391,-15.179443,5.5786133,0,0.0,0.0,0.0,0.0
1.444335938,-0.0013973365,0.34009877,0.9403887,-0.004556375,-0.94038194,0.34008956,0.9999886,-0.003809544,0.0028636476,-0.0069856537,0.31583837,0.9487873,-0.0064240983,-0.9488051,0.31579697,0.99995494,-0.003889055,0.008657,10.011566,-0.0657959,-0.008377075,9.80654,-0.03735887,0.028082794,-0.008621216,0.0032348633,-0.004043579,-56.819153,-15.658569,5.5786133,0,0.0,0.0,0.0,0.0
1.452636719,-0.0014110385,0.3401428,0.9403727,-0.0045766933,-0.94036597,0.3401335,0.9999885,-0.0038238561,0.002883622,-0.0067625754,0.316803,0.94846725,-0.0063555604,-0.9484834,0.31676307,0.9999569,-0.0038859064,0.008427651,10.04985,-0.08255005,0.015548706,9.806538,-0.03749922,0.028278673,-0.0090789795,0.0030822754,-0.00541687,-56.819153,-15.658569,5.5786133,0,0.0,0.0,0.0,0.0
1.4609375,-0.0013893854,0.3444473,0.9388046,-0.004607753,-0.9387978,0.344438,0.99998844,-0.0038472228,0.0028914802,-0.006654693,0.3172717,0.9483113,-0.0063225552,-0.9483267,0.31723252,0.99995786,-0.0038846654,0.008316791,10.04985,-0.08255005,0.015548706,9.806537,-0.03772837,0.028355734,-0.011383057,-4.272461E-4,-0.005569458,-56.518555,-15.59906,5.6396484,0,0.0,0.0,0.0,0.0
1.469238282,-0.0013990764,0.3444783,0.93879324,-0.004551782,-0.9387866,0.34446907,0.9999886,-0.0037912435,0.002881424,-0.006444204,0.31835297,0.94795036,-0.006260317,-0.9479644,0.31831506,0.99995965,-0.0038831825,0.008101867,10.018753,-0.033493042,0.017944336,9.806539,-0.0371794,0.028257119,-0.012741089,7.9345703E-4,-0.0060272217,-56.518555,-15.59906,5.6396484,0,0.0,0.0,0.0,0.0
1.477539063,-0.0013246107,0.37437883,0.927275,-0.004579583,-0.9272683,0.3743696,0.9999886,-0.003750638,0.002942768,-0.0062426194,0.31939244,0.9476019,-0.0061979173,-0.9476146,0.31935585,0.9999613,-0.003879542,0.007895165,10.035492,-0.046661377,0.06819153,9.806539,-0.036781196,0.028858695,-0.0075531006,0.0038452148,-0.005722046,-56.098938,-15.058899,5.999756,0,0.0,0.0,0.0,0.0
1.485839844,-0.0014092067,0.3746502,0.9271652,-0.004577441,-0.9271588,0.37464064,0.9999885,-0.0037160977,0.0030214975,-0.006142338,0.32050356,0.9472274,-0.0061710463,-0.9472394,0.3204676,0.9999621,-0.0038769639,0.0077961064,10.035492,-0.046661377,0.06819153,9.806538,-0.03644247,0.029630769,-0.013198853,0.0015563965,-0.004196167,-56.098938,-15.058899,5.999756,0,0.0,0.0,0.0,0.0
1.494140625,-0.0013974261,0.38611603,0.92244923,-0.004605975,-0.92244285,0.38610637,0.99998844,-0.0037092222,0.0030674862,-0.0059513133,0.3226692,0.9464931,-0.00611805,-0.9465039,0.32263443,0.9999636,-0.0038705936,0.0076070474,9.999603,-0.059814453,0.04547119,9.806537,-0.036375046,0.030081764,-0.004196167,0.0032348633,-0.0077056885,-55.619812,-14.819336,6.1187744,0,0.0,0.0,0.0,0.0
1.502441407,-0.0014459556,0.38627127,0.9223841,-0.0046225204,-0.92237777,0.38626137,0.99998826,-0.0037052224,0.0031192643,-0.0057669356,0.32521173,0.94562364,-0.0060695224,-0.94563335,0.32517803,0.99996495,-0.0038642033,0.0074272864,10.061813,-0.06819153,0.050247192,9.806536,-0.036335822,0.030589536,-0.0031280518,0.0078125,-0.0048065186,-55.619812,-14.819336,6.1187744,0,0.0,0.0,0.0,0.0
1.510742188,-0.0015607936,0.3770197,0.92620385,-0.004628181,-0.9261979,0.37700945,0.99998814,-0.0036982056,0.0031905198,-0.0056786835,0.3264474,0.9451983,-0.0060459552,-0.9452075,0.32641426,0.9999656,-0.0038610238,0.007341221,10.061813,-0.06819153,0.050247192,9.806534,-0.03626701,0.03128831,-0.008468628,0.010253906,-0.0023498535,-55.558777,-14.819336,5.9387207,0,0.0,0.0,0.0,0.0
1.519042969,-0.0016235705,0.37722203,0.9261214,-0.004631676,-0.9261156,0.37721154,0.99998796,-0.0036770646,0.003250784,-0.0055126976,0.32846922,0.94449854,-0.005998051,-0.94450676,0.32843706,0.9999668,-0.0038545763,0.0071769557,10.019943,-0.04307556,0.022735596,9.806532,-0.036059685,0.031879302,-0.004043579,0.009796143,-0.0074005127,-55.558777,-14.819336,5.9387207,0,0.0,0.0,0.0,0.0
1.52734375,-0.0016535352,0.370301,0.9289104,-0.0046360116,-0.9289045,0.3702904,0.99998784,-0.0036941508,0.003252696,-0.0053560287,0.33041754,0.94381964,-0.0059514605,-0.94382703,0.3303863,0.99996793,-0.0038475469,0.0070216316,10.04985,-0.07777405,-0.021530151,9.806531,-0.036227245,0.03189805,-0.0060272217,0.0030822754,-0.008010864,-55.859375,-15.299988,5.999756,0,0.0,0.0,0.0,0.0
1.535644532,-0.0016330257,0.37023625,0.92893624,-0.004623417,-0.9289303,0.37022576,0.99998796,-0.0036902712,0.0032287235,-0.0052808877,0.33122122,0.9435383,-0.0059281727,-0.9435453,0.3311905,0.99996847,-0.003844479,0.0069462936,10.04985,-0.07777405,-0.021530151,9.806532,-0.0361892,0.031662963,-0.008926392,0.003540039,-0.0063323975,-55.859375,-15.299988,5.999756,0,0.0,0.0,0.0,0.0
1.543945313,-0.0016740996,0.35723644,0.9340125,-0.0045872764,-0.93400675,0.35722604,0.99998814,-0.0036865412,0.0032023627,-0.005206804,0.33200735,0.9432624,-0.005904968,-0.94326895,0.33197704,0.999969,-0.0038413948,0.0068719094,10.009171,-0.08734131,0.03111267,9.806534,-0.03615262,0.03140445,-0.0046539307,0.011016846,-0.0077056885,-56.03943,-15.478516,5.819702,0,0.0,0.0,0.0,0.0
1.552246094,-0.0017103183,0.3573511,0.93396854,-0.004629415,-0.9339627,0.3573404,0.99998784,-0.0037125624,0.0032517002,-0.0050656497,0.3330113,0.94290924,-0.0058563775,-0.9429151,0.33298188,0.99997,-0.0038352627,0.006726717,10.013962,-0.08734131,0.03111267,9.80653,-0.0364078,0.031888284,-0.013809204,0.0014038086,-0.0014343262,-56.03943,-15.478516,5.819702,0,0.0,0.0,0.0,0.0
1.560546875,-0.0017470616,0.34868523,0.9372383,-0.004675218,-0.9372323,0.3486743,0.99998754,-0.0037726373,0.003267582,-0.0049315877,0.3339796,0.9425674,-0.005811057,-0.94257253,0.33395103,0.999971,-0.0038304038,0.006589154,10.031906,-0.08734131,0.029907227,9.806528,-0.036996935,0.032044034,-0.0061798096,6.4086914E-4,0.003753662,-55.918884,-15.59906,5.6991577,0,0.0,0.0,0.0,0.0
1.568847657,-0.0016974345,0.34852865,0.93729657,-0.004780627,-0.93729,0.34851754,0.99998707,-0.0038892794,0.0032571738,-0.004867577,0.33427444,0.9424632,-0.0057893163,-0.942468,0.33424622,0.9999714,-0.0038292485,0.006522756,10.035492,-0.11126709,0.022735596,9.806523,-0.038140804,0.031941965,-0.005874634,4.8828125E-4,0.001159668,-55.918884,-15.59906,5.6991577,0,0.0,0.0,0.0,0.0
1.577148438,-0.0016753654,0.34380066,0.9390412,-0.0048496746,-0.9390342,0.34378946,0.9999868,-0.0039780713,0.0032405462,-0.0047414294,0.33484042,0.94226295,-0.0057511735,-0.94226706,0.3348129,0.9999722,-0.0038316257,0.0063934177,10.066605,-0.0993042,0.037094116,9.80652,-0.03901155,0.0317789,-0.010910034,-0.0027160645,-0.008621216,-55.859375,-15.838623,5.6991577,0,0.0,0.0,0.0,0.0
1.585449219,-0.0017141243,0.34392136,0.93899685,-0.004875748,-0.93899,0.34390995,0.99998665,-0.003988808,0.0032864197,-0.004619726,0.33519575,0.9421371,-0.0057165916,-0.94214064,0.335169,0.99997294,-0.0038374248,0.006268609,10.041473,-0.086135864,0.06939697,9.8065195,-0.039116845,0.032228768,-0.0064849854,0.0027770996,-0.0064849854,-55.859375,-15.838623,5.6991577,0,0.0,0.0,0.0,0.0
1.59375,-0.0018693557,0.32413897,0.9460076,-0.0048600095,-0.94600093,0.3241271,0.99998635,-0.0039916974,0.003343731,-0.004561498,0.3353705,0.9420753,-0.0057003126,-0.9420785,0.33534405,0.99997336,-0.0038404523,0.006209005,10.003189,-0.08973694,0.028717041,9.806517,-0.03914518,0.0327908,-0.0077056885,6.4086914E-4,-0.0075531006,-56.159973,-16.079712,5.3985596,0,0.0,0.0,0.0,0.0
1.602050782,-0.0018514337,0.32408288,0.94602686,-0.0048610573,-0.9460202,0.3240711,0.99998647,-0.003998695,0.0033268789,-0.004455247,0.33492643,0.94223374,-0.005665798,-0.9422364,0.3349006,0.999974,-0.0038464416,0.006095521,10.003189,-0.08973694,0.028717041,9.806518,-0.039213803,0.032625537,-0.007247925,-0.0050201416,-0.00831604,-56.159973,-16.079712,5.3985596,0,0.0,0.0,0.0,0.0
1.610351563,-0.0019462369,0.30032423,0.9538352,-0.004807039,-0.9538288,0.30031243,0.9999866,-0.0040006437,0.0033000472,-0.004352564,0.33449796,0.9423863,-0.005632811,-0.94238853,0.33447275,0.9999746,-0.003852471,0.00598597,10.043869,-0.08135986,0.020339966,9.806519,-0.039232913,0.03236241,-0.0019073486,0.006286621,-0.006790161,-55.97992,-16.558838,5.0994873,0,0.0,0.0,0.0,0.0
1.618652344,-0.0019716455,0.30040252,0.95381045,-0.0048131314,-0.9538041,0.30039057,0.99998647,-0.0039985515,0.003326441,-0.0043049543,0.33381867,0.9426275,-0.00561452,-0.9426294,0.33379373,0.99997497,-0.0038554345,0.005932208,10.010376,-0.0765686,0.028717041,9.806518,-0.0392124,0.032621242,-0.005874634,0.005218506,-0.008621216,-55.97992,-16.558838,5.0994873,0,0.0,0.0,0.0,0.0
1.626953125,-0.0020081245,0.30051494,0.9537749,-0.0048070406,-0.95376873,0.3005029,0.99998647,-0.003981388,0.0033598742,-0.0042134277,0.33250293,0.9430928,-0.0055794893,-0.9430943,0.33247852,0.99997556,-0.003861102,0.0058288565,10.07019,-0.07417297,0.022735596,9.806518,-0.039044082,0.032949112,-0.004196167,0.0073547363,-0.008010864,-55.97992,-16.558838,5.0994873,0,0.0,0.0,0.0,0.0
1.635253907,-0.0020894508,0.29247543,0.95627075,-0.0047811964,-0.9562648,0.29246315,0.99998635,-0.003961031,0.0033964505,-0.0041270666,0.331243,0.94353646,-0.0055459742,-0.9435376,0.33121914,0.9999761,-0.0038658653,0.005731107,10.02832,-0.0657959,0.03111267,9.806517,-0.038844444,0.033307802,-0.009841919,0.0010986328,-0.00541687,-56.03943,-16.679382,4.978943,0,0.0,0.0,0.0,0.0
1.643554688,-0.002133064,0.28665778,0.95803076,-0.0047710263,-0.9580249,0.2866454,0.9999863,-0.0039593563,0.0034111796,-0.0040868577,0.33047286,0.94380665,-0.0055289585,-0.9438076,0.33044925,0.9999764,-0.0038677684,0.005684378,10.039093,-0.071777344,0.029907227,9.806516,-0.038828023,0.033452246,-0.008163452,0.0014038086,-0.0060272217,-56.219482,-16.859436,4.9194336,0,0.0,0.0,0.0,0.0
1.651855469,-0.0021443542,0.28669235,0.95802027,-0.0047785714,-0.9580145,0.28667992,0.9999863,-0.0039632255,0.0034243024,-0.004010859,0.32875043,0.9444083,-0.005495371,-0.9444089,0.3287273,0.9999768,-0.0038713953,0.005594496,10.018753,-0.04307556,0.0035858154,9.806516,-0.038865965,0.033580936,-0.0016021729,0.0029296875,-0.0038909912,-56.219482,-16.859436,4.9194336,0,0.0,0.0,0.0,0.0
1.66015625,-0.0020828883,0.29737625,0.9547581,-0.0047739623,-0.95475227,0.29736403,0.99998647,-0.003938603,0.003408305,-0.003938064,0.32709634,0.94498277,-0.005463664,-0.94498307,0.32707363,0.9999773,-0.0038750316,0.005508548,10.018753,-0.04307556,0.0035858154,9.806518,-0.038624503,0.033424057,-0.005722046,0.005218506,-0.0049591064,-56.159973,-16.378784,4.978943,0,0.0,0.0,0.0,0.0
1.668457032,-0.0021323152,0.29753104,0.95470977,-0.004743737,-0.95470417,0.2975187,0.99998647,-0.0038944883,0.003447139,-0.0039012935,0.32650486,0.94518745,-0.0054486617,-0.94518757,0.3264824,0.9999775,-0.003876303,0.0054664686,10.02713,-0.028717041,0.044265747,9.806518,-0.038191885,0.033804886,-0.008926392,-2.746582E-4,-0.0034332275,-56.159973,-16.378784,4.978943,0,0.0,0.0,0.0,0.0
1.676757813,-0.0021184094,0.29748744,0.95472336,-0.0047316155,-0.9547178,0.29747522,0.9999866,-0.0038872096,0.0034300797,-0.0038321116,0.32536322,0.9455814,-0.0054186424,-0.9455812,0.3253412,0.999978,-0.0038770235,0.0053866,10.015152,-0.056228638,0.021530151,9.806519,-0.038120504,0.03363759,-0.011520386,-0.004257202,5.493164E-4,-56.159973,-16.378784,4.978943,0,0.0,0.0,0.0,0.0
1.685058594,-0.0019784207,0.30339655,0.9528624,-0.0047859717,-0.95285624,0.30338463,0.9999866,-0.0039601494,0.0033371975,-0.0037649758,0.3242644,0.94595903,-0.005389444,-0.94595855,0.32424283,0.9999784,-0.0038774267,0.0053091156,10.051056,-0.105285645,-0.0047912598,9.806519,-0.0388358,0.032726727,-0.016418457,-0.009292603,-0.00541687,-55.67932,-16.378784,5.0994873,0,0.0,0.0,0.0,0.0
1.693359375,-0.0017612218,0.32268175,0.9465059,-0.004844888,-0.94649893,0.32267037,0.99998665,-0.004017421,0.0032303515,-0.003729477,0.3238485,0.9461016,-0.005376576,-0.946101,0.3238271,0.9999786,-0.0038790812,0.0052696583,10.036697,-0.098098755,0.011962891,9.8065195,-0.03939744,0.031678926,-0.005264282,-0.018295288,-0.0035705566,-55.67932,-16.139221,5.3985596,0,0.0,0.0,0.0,0.0
1.701660157,-0.0016549411,0.32235268,0.94661826,-0.0048609367,-0.9466109,0.32234168,0.99998677,-0.0040679947,0.003133521,-0.0036514988,0.323802,0.9461178,-0.005355406,-0.94611686,0.323781,0.99997896,-0.0038845593,0.005188836,10.035492,-0.1040802,0.027511597,9.80652,-0.0398934,0.030729344,-0.0090789795,-0.0068511963,-0.0051116943,-55.67932,-16.139221,5.3985596,0,0.0,0.0,0.0,0.0
1.709960938,-0.0015723702,0.32209694,0.94670534,-0.0048785806,-0.9466978,0.32208624,0.9999869,-0.00411214,0.0030599353,-0.0036115637,0.3237729,0.94612795,-0.00534545,-0.9461268,0.32375214,0.9999792,-0.003888228,0.005147709,10.035492,-0.1040802,0.027511597,9.806521,-0.040326316,0.030007714,-0.0090789795,-0.0068511963,-0.0063323975,-55.67932,-16.139221,5.3985596,0,0.0,0.0,0.0,0.0
1.718261719,-0.0014195023,0.3348317,0.9422769,-0.0048946934,-0.94226885,0.33482146,0.99998695,-0.0041368767,0.0029764515,-0.0035309063,0.32370636,0.946151,-0.005326845,-0.9461496,0.32368597,0.9999796,-0.003897095,0.0050650993,10.02832,-0.093322754,0.0035858154,9.806522,-0.040568903,0.029189019,-0.011993408,-2.746582E-4,-0.0046539307,-55.378723,-15.59906,5.4595947,0,0.0,0.0,0.0,0.0
1.7265625,-0.0013674607,0.33466738,0.9423353,-0.004903733,-0.94232714,0.33465737,0.99998707,-0.00416333,0.002929715,-0.00344719,0.324148,0.9460001,-0.005310699,-0.9459983,0.32412803,0.99998,-0.003906591,0.004982488,10.030716,-0.057434082,0.0047912598,9.806523,-0.04082832,0.02873069,-0.0063323975,0.0026245117,-0.005722046,-55.378723,-15.59906,5.4595947,0,0.0,0.0,0.0,0.0
1.734863282,-0.0013582155,0.33755457,0.941305,-0.0048881737,-0.94129694,0.33754462,0.9999872,-0.004142804,0.0029285094,-0.00340555,0.32435885,0.945928,-0.005303024,-0.9459261,0.32433906,0.99998015,-0.0039117257,0.004941481,10.043869,-0.07537842,-0.046661377,9.806524,-0.04062703,0.028718866,-0.0063323975,0.008270264,-0.004501343,-55.319214,-15.779114,5.5786133,0,0.0,0.0,0.0,0.0
1.743164063,-0.0013349836,0.34565017,0.9383625,-0.0049181394,-0.9383542,0.34564012,0.999987,-0.0041535734,0.0029526434,-0.0033243275,0.3248827,0.9457485,-0.005287694,-0.9457462,0.3248633,0.9999805,-0.003920876,0.0048618508,10.036697,-0.08015442,0.0059814453,9.806522,-0.04073264,0.02895554,-0.006790161,0.008270264,-0.007858276,-55.619812,-15.359497,5.5786133,0,0.0,0.0,0.0,0.0
1.751464844,-0.0013951893,0.34584245,0.9382915,-0.004899825,-0.9382835,0.34583223,0.99998707,-0.0041149636,0.003003651,-0.0032452508,0.32570848,0.9454647,-0.0052746916,-0.94546205,0.3256895,0.9999808,-0.0039300905,0.004786273,10.054642,-0.057434082,0.021530151,9.806523,-0.04035401,0.029455755,-0.0060272217,0.011169434,-0.009536743,-55.619812,-15.359497,5.5786133,0,0.0,0.0,0.0,0.0
1.759765625,-0.0014767699,0.3461029,0.9381954,-0.0049315975,-0.9381875,0.3460922,0.99998665,-0.0041157035,0.0030923274,-0.0032080947,0.32611263,0.94532543,-0.0052679502,-0.9453227,0.32609382,0.999981,-0.003933788,0.0047506304,10.013962,-0.088531494,0.03111267,9.8065195,-0.040361263,0.030325374,-0.0060272217,0.0154418945,-0.0046539307,-55.619812,-15.359497,5.5786133,0,0.0,0.0,0.0,0.0
1.768066407,-0.0015537014,0.3516361,0.9361354,-0.0049383533,-0.9361278,0.35162506,0.9999866,-0.0040766476,0.0031909668,-0.0031392365,0.32690698,0.9450513,-0.0052559813,-0.94504833,0.3268885,0.9999813,-0.0039409916,0.004684947,10.037888,-0.050247192,0.032302856,9.806519,-0.03997826,0.031292696,-0.008773804,0.011169434,-0.005722046,-55.799866,-15.419006,5.6991577,0,0.0,0.0,0.0,0.0
1.776367188,-0.0016577868,0.35196683,0.93601096,-0.004941719,-0.9360037,0.35195532,0.99998635,-0.004042037,0.0032910157,-0.0030762563,0.32789052,0.9447107,-0.005244974,-0.94470745,0.3278723,0.99998146,-0.003946364,0.0046259393,10.037888,-0.050247192,0.032302856,9.806517,-0.03963884,0.03227384,-0.0064849854,0.01927185,-0.005264282,-55.799866,-15.419006,5.6991577,0,0.0,0.0,0.0,0.0
1.784667969,-0.0018077248,0.34927884,0.937017,-0.004955521,-0.9370102,0.34926674,0.9999861,-0.00401203,0.0034247155,-0.0030478316,0.3283743,0.9445428,-0.0052396273,-0.9445394,0.32835624,0.99998164,-0.0039482773,0.004599356,10.02713,-0.058624268,0.04307556,9.806514,-0.039344575,0.033584986,-0.006790161,0.018035889,-0.0048065186,-55.918884,-15.419006,5.6396484,0,0.0,0.0,0.0,0.0
1.79296875,-0.0020587537,0.3315307,0.9434423,-0.004937745,-0.9434362,0.33151776,0.9999857,-0.003975963,0.0035793164,-0.0029984904,0.32920516,0.9442537,-0.0052293856,-0.94425017,0.3291873,0.9999818,-0.0039508017,0.0045528654,10.04866,-0.051452637,0.052642822,9.80651,-0.03899088,0.035101105,-0.0074005127,0.012390137,-0.0077056885,-55.73883,-15.539551,5.3390503,0,0.0,0.0,0.0,0.0
1.801269532,-0.0021806152,0.33192053,0.9433048,-0.0049481248,-0.94329906,0.33190706,0.9999854,-0.0039438284,0.003699357,-0.002961294,0.32929745,0.9442217,-0.0052179415,-0.944218,0.3292798,0.999982,-0.003951798,0.0045143613,10.046265,-0.061019897,0.053833008,9.806507,-0.038675744,0.0362783,-0.014282227,0.009033203,-0.007247925,-55.73883,-15.539551,5.3390503,0,0.0,0.0,0.0,0.0
1.809570313,-0.0022818388,0.33224443,0.94319063,-0.0049423967,-0.9431853,0.3322306,0.9999852,-0.0039035252,0.0037942803,-0.0029456364,0.3293499,0.9442033,-0.0052125766,-0.9441997,0.32933235,0.99998206,-0.003951639,0.0044980305,10.057037,-0.053833008,0.059814453,9.806505,-0.038280506,0.03720918,-0.014282227,0.0020141602,-0.0074005127,-55.73883,-15.539551,5.3390503,0,0.0,0.0,0.0,0.0
1.817871094,-0.0024010674,0.32296652,0.94640726,-0.004894503,-0.9464024,0.32295245,0.9999851,-0.003856763,0.0038531371,-0.0029192935,0.3294645,0.94416344,-0.005201945,-0.9441597,0.3294471,0.9999822,-0.0039497335,0.0044701356,10.039093,-0.056228638,0.04547119,9.806504,-0.037821926,0.03778637,-0.0048065186,0.0012512207,-0.008010864,-55.97992,-15.359497,5.0994873,0,0.0,0.0,0.0,0.0
1.826171875,-0.002462437,0.32316744,0.94633865,-0.0048171943,-0.9463344,0.32315347,0.9999854,-0.0037629516,0.003887049,-0.0028989578,0.32920763,0.9442531,-0.005189669,-0.9442493,0.32919037,0.9999823,-0.003946052,0.0044458173,10.021133,-0.022735596,0.058624268,9.806507,-0.03690195,0.03811893,-0.007095337,-0.0010528564,-0.008773804,-55.97992,-15.359497,5.0994873,0,0.0,0.0,0.0,0.0
1.834472657,-0.0025099225,0.32445154,0.94589895,-0.004734532,-0.94589514,0.32443765,0.9999856,-0.0036640754,0.0039102505,-0.002890245,0.32908696,0.9442952,-0.005182153,-0.9442914,0.32906976,0.9999824,-0.00394239,0.004434612,10.021133,-0.022735596,0.058624268,9.806509,-0.035932306,0.03834646,-0.007095337,-4.272461E-4,-0.012741089,-55.97992,-15.299988,5.0994873,0,0.0,0.0,0.0,0.0
1.842773438,-0.002603788,0.31703958,0.9484087,-0.00461728,-0.94840556,0.31702587,0.9999859,-0.0035536005,0.0039333077,-0.0028751753,0.32890347,0.9443592,-0.0051643224,-0.9443553,0.32888645,0.99998254,-0.003931369,0.004413751,10.031906,-0.058624268,0.021530151,9.806512,-0.034848917,0.038572572,-0.008163452,0.0012512207,-0.0066375732,-56.3385,-15.539551,5.039978,0,0.0,0.0,0.0,0.0
1.851074219,-0.0025935578,0.3170061,0.9484199,-0.0045708944,-0.94841695,0.3169926,0.9999862,-0.0035129886,0.003908776,-0.002864635,0.3284349,0.94452226,-0.0051425016,-0.94451845,0.32841805,0.99998266,-0.0039164093,0.004394678,10.0295105,-0.056228638,0.028717041,9.806515,-0.03445065,0.038332,-0.008621216,-0.0065460205,-0.005874634,-56.3385,-15.539551,5.039978,0,0.0,0.0,0.0,0.0
1.859375,-0.0025731798,0.31693947,0.9484422,-0.0045518167,-0.94843924,0.31692612,0.9999863,-0.0035016276,0.0038831555,-0.0028592916,0.3282068,0.9446016,-0.00513098,-0.94459784,0.32818997,0.9999828,-0.0039083413,0.0043849032,10.040283,-0.06341553,0.047851563,9.806516,-0.034339238,0.03808075,-0.006790161,-0.007461548,-0.008621216,-56.3385,-15.539551,5.039978,0,0.0,0.0,0.0,0.0
1.867675782,-0.0025497153,0.31575033,0.9488389,-0.004526891,-0.9488359,0.31573716,0.99998647,-0.00349025,0.0038486288,-0.0028482918,0.32776177,0.9447561,-0.005107931,-0.9447524,0.32774505,0.9999829,-0.0038922355,0.004365115,10.052246,-0.090927124,0.057434082,9.806518,-0.03422766,0.037742157,-0.004196167,-0.0024108887,-0.0060272217,-56.459045,-15.238953,4.9194336,0,0.0,0.0,0.0,0.0
1.875976563,-0.0025386214,0.31571323,0.9488513,-0.0045535685,-0.94884825,0.31570002,0.99998647,-0.0035192163,0.0038463878,-0.0028424219,0.3275221,0.94483924,-0.0050962158,-0.9448355,0.3275055,0.99998295,-0.0038841958,0.004354744,10.052246,-0.090927124,0.057434082,9.806518,-0.034511723,0.03772018,-0.002670288,-0.0024108887,-0.006942749,-56.459045,-15.238953,4.9194336,0,0.0,0.0,0.0,0.0
1.884277344,-0.0024805076,0.32106075,0.9470553,-0.00456871,-0.94705194,0.32104763,0.99998647,-0.0035304602,0.0038160034,-0.0028307412,0.32705513,0.945001,-0.0050746026,-0.9449973,0.32703865,0.9999831,-0.003869743,0.0043347175,10.043869,-0.090927124,0.032302856,9.806518,-0.034621987,0.03742221,-0.005722046,-5.79834E-4,-0.010604858,-56.459045,-15.478516,5.0994873,0,0.0,0.0,0.0,0.0
1.892578125,-0.0025616246,0.29452923,0.955639,-0.00446196,-0.955636,0.29451632,0.99998677,-0.0035095827,0.003762158,-0.0028170266,0.32681808,0.9450831,-0.0050544944,-0.9450794,0.32680175,0.99998325,-0.0038563076,0.004314214,10.035492,-0.07537842,0.0059814453,9.80652,-0.03441725,0.03689417,-0.011520386,-7.324219E-4,-0.005722046,-56.57959,-15.478516,4.6188354,0,0.0,0.0,0.0,0.0
1.900878907,-0.002521945,0.2943964,0.9556801,-0.004437119,-0.955677,0.29438373,0.99998695,-0.0034980462,0.0037164364,-0.0028123555,0.32617587,0.94530493,-0.005042447,-0.9453013,0.32615963,0.9999834,-0.003849373,0.0043032477,10.035492,-0.07537842,0.0059814453,9.806522,-0.034304116,0.036445793,-0.009689331,-0.0013580322,-0.009231567,-56.57959,-15.478516,4.6188354,0,0.0,0.0,0.0,0.0
1.909179688,-0.002495208,0.29430693,0.9557077,-0.0044287234,-0.95570457,0.2942944,0.99998707,-0.0034982392,0.0036880858,-0.0028016763,0.3249243,0.9457358,-0.005018048,-0.9457323,0.32490817,0.9999835,-0.0038354604,0.0042801215,10.040283,-0.08734131,-0.023925781,9.806523,-0.03430601,0.036167767,-0.008926392,1.8310547E-4,-0.0048065186,-56.57959,-15.478516,4.6188354,0,0.0,0.0,0.0,0.0
1.917480469,-0.0025145714,0.27931234,0.96019703,-0.0044006254,-0.96019393,0.2792999,0.9999872,-0.003523148,0.0036436245,-0.002790289,0.32371816,0.9461494,-0.004994273,-0.94614583,0.32370222,0.9999836,-0.0038221064,0.004256757,10.015152,-0.08973694,0.0143585205,9.806524,-0.03455028,0.03573175,-0.011688232,9.460449E-4,-0.0074005127,-56.57959,-15.359497,4.319763,0,0.0,0.0,0.0,0.0
1.92578125,-0.0024955662,0.2792476,0.9602158,-0.004412385,-0.9602126,0.2792352,0.9999872,-0.0035399927,0.0036284223,-0.0027852487,0.3228367,0.9464506,-0.004982049,-0.946447,0.32282084,0.9999837,-0.003816127,0.004244479,10.015152,-0.08973694,0.0143585205,9.806524,-0.03471547,0.03558267,-0.011520386,0.0053710938,-0.010147095,-56.57959,-15.359497,4.319763,0,0.0,0.0,0.0,0.0
1.934082032,-0.0024177306,0.3052656,0.9522642,-0.0044795047,-0.95226073,0.30525315,0.99998707,-0.0035276518,0.0036697485,-0.0027747438,0.32112283,0.9470335,-0.0049588345,-0.9470299,0.3211071,0.9999839,-0.0038051922,0.0042201607,10.021133,-0.08375549,0.032302856,9.806523,-0.034594446,0.03598794,-0.0118255615,0.016067505,-0.012435913,-56.69861,-15.419006,4.798889,0,0.0,0.0,0.0,0.0
1.942382813,-0.0024558231,0.31656364,0.9485681,-0.004520649,-0.94856477,0.31655082,0.99998677,-0.0035107508,0.0037605802,-0.002760881,0.3204964,0.9472457,-0.0049395957,-0.9472421,0.32048082,0.99998397,-0.0037942014,0.004198346,10.0247345,-0.06819153,0.046661377,9.80652,-0.034428705,0.036878694,-0.0020599365,0.015136719,-0.0048065186,-56.759644,-15.359497,4.978943,0,0.0,0.0,0.0,0.0
1.950683594,-0.0025869636,0.31700078,0.9484217,-0.0045515937,-0.9484188,0.31698737,0.9999863,-0.0034967957,0.0038963838,-0.0027547511,0.32041785,0.9472723,-0.0049311705,-0.9472687,0.3204023,0.9999841,-0.0037885325,0.004189525,10.0247345,-0.06819153,0.046661377,9.806516,-0.034291852,0.038210474,-0.009841919,0.015136719,-0.0048065186,-56.759644,-15.359497,4.978943,0,0.0,0.0,0.0,0.0
1.958984375,-0.0027581663,0.31757143,0.9482303,-0.0046006953,-0.94822794,0.31755722,0.9999856,-0.003486643,0.00407642,-0.002748202,0.32028234,0.9473182,-0.0049161287,-0.94731456,0.32026687,0.99998415,-0.0037769796,0.0041779615,10.033112,-0.06939697,0.06939697,9.806509,-0.03419229,0.039976023,-0.012298584,0.017730713,-0.008468628,-56.759644,-15.359497,4.978943,0,0.0,0.0,0.0,0.0
1.967285157,-0.0029746632,0.31830323,0.9479843,-0.0046356306,-0.9479826,0.31828815,0.9999848,-0.003447705,0.0042954655,-0.0027486007,0.32017508,0.9473544,-0.0049036276,-0.94735086,0.32015967,0.9999842,-0.0037654825,0.0041739084,10.065414,-0.057434082,0.08973694,9.806501,-0.033810437,0.042124126,-0.009384155,0.013763428,-0.008163452,-56.819153,-15.359497,4.978943,0,0.0,0.0,0.0,0.0
1.975585938,-0.0031597489,0.3189205,0.9477763,-0.0046717683,-0.9477755,0.3189046,0.99998415,-0.0034201322,0.0044846544,-0.0027530878,0.3201376,0.9473671,-0.0048982613,-0.94736356,0.3201222,0.9999842,-0.0037591269,0.0041762926,10.065414,-0.057434082,0.08973694,9.806495,-0.03354004,0.043979436,-0.0034332275,0.008728027,-0.004043579,-56.819153,-15.359497,4.978943,0,0.0,0.0,0.0,0.0
1.983886719,-0.0031926513,0.32917327,0.9442642,-0.0047135875,-0.9442634,0.32915705,0.9999837,-0.003399988,0.0045662904,-0.0027692674,0.32008925,0.94738334,-0.0048893327,-0.94737995,0.32007384,0.9999842,-0.0037457023,0.0041885716,10.039093,-0.061019897,0.058624268,9.806491,-0.03334249,0.044780012,-0.013809204,0.0018615723,-0.005874634,-56.819153,-15.179443,5.0994873,0,0.0,0.0,0.0,0.0
1.9921875,-0.0032400405,0.3224309,0.94658744,-0.004711382,-0.94658685,0.32241458,0.99998367,-0.0034150989,0.0045860745,-0.0027859118,0.3204493,0.9472616,-0.004882192,-0.9472583,0.32043383,0.9999842,-0.0037320121,0.0042034728,10.037888,-0.08734131,0.053833008,9.80649,-0.03349068,0.04497403,-0.005874634,-0.002105713,-0.012283325,-56.57959,-15.539551,5.0994873,0,0.0,0.0,0.0,0.0
2.000488282,-0.0032333112,0.32240885,0.94659495,-0.0047140783,-0.9465943,0.32239252,0.99998367,-0.0034199278,0.0045804945,-0.0027949645,0.32048908,0.94724804,-0.004878749,-0.9472449,0.32047355,0.9999842,-0.0037256738,0.0042111017,10.037888,-0.08734131,0.053833008,9.80649,-0.033538036,0.04491931,-0.0046539307,-0.0041046143,-0.0063323975,-56.57959,-15.539551,5.0994873,0,0.0,0.0,0.0,0.0
2.008789063,-0.0032236453,0.3223772,0.94660586,-0.004676425,-0.94660527,0.32236108,0.99998385,-0.0033875532,0.004559092,-0.0028123427,0.3205652,0.94722223,-0.0048722057,-0.94721913,0.32054967,0.99998415,-0.0037135663,0.0042257644,10.035492,-0.055038452,0.052642822,9.806492,-0.03322055,0.04470942,-0.0051116943,-0.0025787354,-0.005264282,-56.57959,-15.539551,5.0994873,0,0.0,0.0,0.0,0.0
2.017089844,-0.0033377865,0.2974633,0.9547274,-0.0045646867,-0.9547273,0.29744732,0.999984,-0.003365216,0.0045445026,-0.0028205705,0.3206013,0.94721,-0.0048682773,-0.947207,0.3205858,0.9999842,-0.0037070464,0.0042324406,10.035492,-0.055038452,0.052642822,9.806494,-0.033001497,0.04456635,-0.004043579,-2.746582E-4,-0.009231567,-56.878662,-15.658569,4.6798706,0,0.0,0.0,0.0,0.0
2.025390625,-0.003350178,0.29750443,0.9547145,-0.0045119384,-0.95471466,0.29748866,0.99998426,-0.0033109735,0.0045407866,-0.0028413343,0.31968862,0.9475184,-0.004856695,-0.9475155,0.31967306,0.9999842,-0.0036935098,0.0042448384,10.0295105,-0.032302856,0.041870117,9.806496,-0.03246956,0.044529907,-0.014724731,-0.0018005371,-0.0016021729,-56.878662,-15.658569,4.6798706,0,0.0,0.0,0.0,0.0
2.033691407,-0.0033209375,0.2997943,0.953998,-0.004514673,-0.953998,0.29977858,0.99998426,-0.0033114434,0.004521641,-0.0028616074,0.31881353,0.94781315,-0.004843398,-0.9478103,0.31879798,0.99998415,-0.0036783617,0.0042564017,10.003189,-0.06939697,0.035888672,9.806496,-0.032474168,0.04434215,-0.0118255615,-0.0018005371,-0.008926392,-56.759644,-15.899658,4.798889,0,0.0,0.0,0.0,0.0
2.041992188,-0.0032936072,0.29970518,0.9540261,-0.004516823,-0.9540259,0.29968953,0.9999843,-0.003322108,0.0044959025,-0.0028709664,0.31843436,0.94794065,-0.004837005,-0.94793785,0.31841877,0.9999842,-0.0036710235,0.0042617656,10.003189,-0.06939697,0.035888672,9.806497,-0.03257875,0.044089742,-0.01121521,-7.324219E-4,-0.004196167,-56.759644,-15.899658,4.798889,0,0.0,0.0,0.0,0.0
2.050292969,-0.0031984455,0.3125249,0.9499042,-0.004562261,-0.9499037,0.3125094,0.99998444,-0.0033341667,0.004464035,-0.002888057,0.31769502,0.94818854,-0.004824655,-0.9481859,0.31767944,0.9999842,-0.0036572064,0.0042711836,10.053452,-0.08135986,0.027511597,9.806498,-0.032697007,0.043777227,-0.009536743,-4.272461E-4,-0.009994507,-56.759644,-15.899658,5.039978,0,0.0,0.0,0.0,0.0
2.05859375,-0.0031916108,0.3125028,0.9499115,-0.004546068,-0.94991094,0.31248733,0.9999845,-0.0033210244,0.004452405,-0.002900281,0.31749043,0.948257,-0.0048142853,-0.9482545,0.3174748,0.9999842,-0.003644414,0.004278694,10.040283,-0.06939697,0.0382843,9.806499,-0.032568123,0.043663178,-5.340576E-4,-0.0036468506,-0.002960205,-56.759644,-15.899658,5.039978,0,0.0,0.0,0.0,0.0
2.066894532,-0.0032369897,0.29851097,0.9544008,-0.0044922116,-0.9544005,0.29849562,0.9999846,-0.0033211424,0.0044303588,-0.002906118,0.31739074,0.9482904,-0.0048089446,-0.9482879,0.31737512,0.9999842,-0.0036379464,0.004282151,10.040283,-0.06939697,0.0382843,9.8064995,-0.03256928,0.043446977,-0.0020599365,-0.0024108887,-0.004501343,-56.819153,-15.9591675,4.798889,0,0.0,0.0,0.0,0.0
2.075195313,-0.0032344244,0.2985026,0.9544033,-0.004505917,-0.9544029,0.29848722,0.9999846,-0.003335028,0.0044319723,-0.0029195226,0.31664544,0.9485395,-0.0047966465,-0.94853705,0.31662986,0.99998426,-0.0036254008,0.004288112,10.000809,-0.06700134,0.057434082,9.8064995,-0.032705452,0.0434628,-0.008926392,0.0020141602,-0.0049591064,-56.819153,-15.9591675,4.798889,0,0.0,0.0,0.0,0.0
2.083496094,-0.0033076266,0.2731661,0.9619612,-0.0044225813,-0.9619611,0.27315083,0.99998474,-0.003350871,0.004389907,-0.0029322063,0.3159289,0.9487783,-0.0047853384,-0.94877595,0.31591335,0.9999842,-0.003613902,0.004293834,10.045074,-0.0765686,0.0047912598,9.8065,-0.03286082,0.04305028,-0.0022125244,0.006286621,-0.008163452,-56.819153,-16.319275,4.4387817,0,0.0,0.0,0.0,0.0
2.091796875,-0.0032879817,0.2731026,0.9619792,-0.004421584,-0.961979,0.27308744,0.9999848,-0.0033555657,0.0043705157,-0.002939956,0.31507963,0.9490607,-0.0047783204,-0.9490584,0.31506404,0.99998426,-0.0036086414,0.004295741,10.045074,-0.0765686,0.0047912598,9.806501,-0.03290686,0.04286012,-0.008468628,0.0018615723,-0.005569458,-56.819153,-16.319275,4.4387817,0,0.0,0.0,0.0,0.0
2.100097657,-0.0034794786,0.23645934,0.97163516,-0.0042873616,-0.97163564,0.2364441,0.99998474,-0.003343049,0.004394572,-0.0029543466,0.31342852,0.9496072,-0.0047646547,-0.9496049,0.31341296,0.99998426,-0.0035986197,0.0042988406,10.058228,-0.06341553,0.032302856,9.8065,-0.03278411,0.043096032,-0.01121521,0.006439209,-0.004196167,-57.058716,-16.859436,3.8986206,0,0.0,0.0,0.0,0.0
2.108398438,-0.0035011065,0.23652864,0.9716182,-0.0043225996,-0.9716186,0.23651317,0.9999845,-0.003371859,0.004424159,-0.0029762094,0.31041557,0.95059633,-0.0047468254,-0.9505942,0.31040004,0.9999843,-0.0035884993,0.004302656,10.017548,-0.08015442,0.032302856,9.806499,-0.03306664,0.04338618,-0.0064849854,0.0053710938,-9.765625E-4,-57.058716,-16.859436,3.8986206,0,0.0,0.0,0.0,0.0
2.116699219,-0.0035690637,0.22512406,0.9743235,-0.004325204,-0.9743241,0.22510834,0.99998426,-0.0034107224,0.004451133,-0.0029872188,0.3089545,0.95107216,-0.0047388994,-0.95107,0.30893898,0.9999843,-0.0035841665,0.0043051587,10.017548,-0.08015442,0.032302856,9.806496,-0.03344776,0.0436507,-0.009994507,0.0039978027,-0.0075531006,-56.939697,-16.738892,3.6590576,0,0.0,0.0,0.0,0.0
2.125,-0.0036278332,0.22531432,0.97427934,-0.004293597,-0.97428036,0.22529857,0.99998426,-0.0033658175,0.0045019356,-0.0030110795,0.3056752,0.95213103,-0.004723786,-0.9521291,0.30565962,0.9999843,-0.003577298,0.004310881,10.042679,-0.027511597,0.047851563,9.806496,-0.033007395,0.044148907,-0.008468628,0.011627197,-0.0046539307,-56.939697,-16.738892,3.6590576,0,0.0,0.0,0.0,0.0
2.133300782,-0.0036882777,0.22632605,0.9740446,-0.004359247,-0.9740456,0.22630978,0.99998367,-0.003411408,0.0045791618,-0.0030364674,0.3025295,0.9531352,-0.0047081434,-0.95313334,0.30251396,0.9999843,-0.0035689233,0.00431851,10.02832,-0.0993042,0.050247192,9.80649,-0.033454485,0.044906236,-0.00831604,0.005065918,-0.012741089,-57.17926,-16.679382,3.6590576,0,0.0,0.0,0.0,0.0
2.141601563,-0.003750661,0.22652945,0.973997,-0.004396426,-0.9739981,0.22651277,0.99998325,-0.003432534,0.004649057,-0.0030498565,0.3010223,0.9536122,-0.0047019115,-0.9536104,0.30100667,0.99998426,-0.0035657731,0.0043237554,10.02832,-0.0993042,0.050247192,9.806486,-0.03366166,0.04559168,-0.0075531006,0.0041503906,-0.0090789795,-57.17926,-16.679382,3.6590576,0,0.0,0.0,0.0,0.0
2.149902344,-0.0037557632,0.2363824,0.97165287,-0.0044073397,-0.97165424,0.23636568,0.99998325,-0.0033946703,0.0046911207,-0.0030779736,0.2981039,0.95452845,-0.0046913265,-0.95452684,0.29808822,0.99998426,-0.003560497,0.004336511,10.0295105,-0.058624268,0.041870117,9.806486,-0.033290345,0.04600418,-0.010299683,0.0018615723,-0.005722046,-56.878662,-16.43982,3.779602,0,0.0,0.0,0.0,0.0
2.158203125,-0.003749333,0.23636132,0.97165805,-0.0044101374,-0.97165936,0.23634462,0.99998325,-0.0033990107,0.00468546,-0.0031051314,0.29568127,0.9552816,-0.004681353,-0.95528007,0.29566556,0.9999842,-0.00355393,0.0043504583,10.039093,-0.07298279,0.015548706,9.806486,-0.03333291,0.04594867,-0.01121521,0.006286621,-0.0060272217,-56.878662,-16.43982,3.779602,0,0.0,0.0,0.0,0.0
2.166503907,-0.003676636,0.25049144,0.96811193,-0.0044628438,-0.96811295,0.25047475,0.99998325,-0.0033996273,0.004677302,-0.0031181837,0.29450518,0.9556448,-0.004676532,-0.9556433,0.29448944,0.9999842,-0.0035508315,0.004357134,10.039093,-0.07298279,0.015548706,9.806486,-0.033338957,0.04586867,-0.011383057,0.0072021484,-0.010147095,-56.939697,-16.139221,3.9596558,0,0.0,0.0,0.0,0.0
2.174804688,-0.0037586854,0.2507635,0.968041,-0.004471235,-0.9680423,0.2507465,0.9999829,-0.0033858623,0.00475979,-0.0031406004,0.29277334,0.95617676,-0.004668884,-0.9561754,0.29275754,0.9999842,-0.0035448438,0.004369889,10.035492,-0.0765686,0.056228638,9.806483,-0.03320397,0.046677597,-0.009536743,0.010864258,-0.008926392,-56.939697,-16.139221,3.9596558,0,0.0,0.0,0.0,0.0
2.183105469,-0.0038906026,0.24444062,0.96965647,-0.0044453423,-0.9696584,0.24442327,0.9999825,-0.0033595013,0.004859178,-0.0031652115,0.29111987,0.9566814,-0.0046619014,-0.95668006,0.29110405,0.99998415,-0.0035385482,0.004385267,10.035492,-0.0765686,0.056228638,9.8064785,-0.032945454,0.047652256,-0.013504028,0.006591797,-0.008621216,-57.17926,-16.139221,3.8391113,0,0.0,0.0,0.0,0.0
2.19140625,-0.0039789286,0.2447357,0.9695816,-0.0044556363,-0.969584,0.24471802,0.9999822,-0.0033463878,0.00494836,-0.0031798927,0.29019278,0.95696294,-0.004658173,-0.9569617,0.29017693,0.9999841,-0.0035349673,0.0043948037,10.023529,-0.07896423,0.059814453,9.806476,-0.032816853,0.048526835,-0.008163452,0.007965088,-0.0061798096,-57.17926,-16.139221,3.8391113,0,0.0,0.0,0.0,0.0
2.199707032,-0.0041283597,0.22524658,0.97429305,-0.004369151,-0.9742961,0.22522876,0.9999819,-0.003327008,0.005006381,-0.0032117465,0.28840423,0.9575033,-0.004651399,-0.95750225,0.28838825,0.999984,-0.0035274997,0.0044167377,10.040283,-0.06819153,0.051452637,9.806473,-0.032626804,0.049095828,-0.017486572,0.009643555,-0.011978149,-57.299805,-16.619873,3.5995483,0,0.0,0.0,0.0,0.0
2.208007813,-0.0041932776,0.22545962,0.9742435,-0.0043498576,-0.9742469,0.22544168,0.9999817,-0.003292481,0.005066005,-0.003248436,0.28592476,0.9582466,-0.004642142,-0.9582456,0.28590876,0.99998397,-0.0035195602,0.0044401027,10.051056,-0.07537842,0.013153076,9.806471,-0.03228821,0.04968054,-0.006942749,0.003540039,-0.008468628,-57.299805,-16.619873,3.5995483,0,0.0,0.0,0.0,0.0
2.216308594,-0.0041524367,0.23520623,0.97193664,-0.0043794303,-0.97194,0.23518832,0.99998176,-0.003279924,0.0050659887,-0.003267534,0.28472555,0.95860356,-0.0046372837,-0.9586026,0.28470948,0.9999839,-0.0035150186,0.0044526197,10.051056,-0.07537842,0.013153076,9.806472,-0.03216507,0.049680382,-0.013046265,0.005065918,-0.008926392,-57.359314,-16.378784,3.718567,0,0.0,0.0,0.0,0.0
2.224609375,-0.0041820165,0.23530443,0.97191274,-0.0043563815,-0.9719163,0.23528655,0.99998176,-0.0032500504,0.0050896457,-0.003302903,0.2827782,0.95917964,-0.004628585,-0.9591789,0.28276205,0.99998385,-0.003505709,0.004476938,10.052246,-0.06460571,0.04307556,9.806472,-0.03187211,0.04991238,-0.008621216,0.0032348633,-0.009841919,-57.359314,-16.378784,3.718567,0,0.0,0.0,0.0,0.0
2.232910157,-0.0040459037,0.27758762,0.96069175,-0.0045013377,-0.96069497,0.2775696,0.9999817,-0.0032013785,0.0051363953,-0.003337976,0.28091043,0.9597282,-0.0046192277,-0.9597276,0.2808942,0.9999837,-0.003495585,0.004501137,10.016357,-0.051452637,0.06341553,9.806471,-0.0313948,0.050370835,-0.015808105,0.0030822754,-0.0037384033,-56.878662,-15.779114,4.319763,0,0.0,0.0,0.0,0.0
2.241210938,-0.004093016,0.2777449,0.9606461,-0.0044924645,-0.96064955,0.27772674,0.9999815,-0.0031789283,0.005179714,-0.0033520751,0.28084412,0.95974755,-0.0046168985,-0.9597471,0.28082785,0.9999837,-0.003489701,0.004513773,10.016357,-0.051452637,0.06341553,9.806469,-0.031174637,0.05079564,-0.009841919,0.0043029785,-5.187988E-4,-56.878662,-15.779114,4.319763,0,0.0,0.0,0.0,0.0
2.249511719,-0.0041291136,0.2810707,0.95967823,-0.0045166467,-0.9596818,0.28105232,0.9999812,-0.0031740305,0.0052321316,-0.0033812919,0.28072146,0.9597833,-0.0046120207,-0.959783,0.28070512,0.99998367,-0.0034773946,0.004539999,10.034302,-0.050247192,0.056228638,9.806466,-0.031126607,0.051309682,-0.008773804,0.011016846,-0.008010864,-56.819153,-16.19873,4.499817,0,0.0,0.0,0.0,0.0
2.2578125,-0.004190357,0.2812693,0.95961976,-0.004508768,-0.95962375,0.28125077,0.99998105,-0.0031481618,0.0052893437,-0.0034109144,0.28073496,0.95977926,-0.0046082344,-0.959779,0.28071854,0.99998355,-0.0034653812,0.004567417,10.018753,-0.047851563,0.0382843,9.806464,-0.030872922,0.051870745,-0.00831604,0.006134033,-0.0049591064,-56.819153,-16.19873,4.499817,0,0.0,0.0,0.0,0.0
2.266113282,-0.004200619,0.29144627,0.95657796,-0.004538266,-0.9565821,0.2914276,0.9999809,-0.003117029,0.005340898,-0.0034264885,0.28074574,0.9597761,-0.004606233,-0.959776,0.28072926,0.99998355,-0.0034590368,0.004581841,10.018753,-0.047851563,0.0382843,9.806463,-0.030567614,0.05237632,-0.011077881,0.006134033,-0.0049591064,-56.518555,-15.779114,4.559326,0,0.0,0.0,0.0,0.0
2.274414063,-0.004228625,0.29153845,0.9565498,-0.0045270626,-0.9565541,0.29151973,0.99998075,-0.003097633,0.0053647207,-0.003456973,0.2811702,0.9596517,-0.004603164,-0.9596517,0.28115362,0.99998343,-0.0034454935,0.0046117622,10.04985,-0.055038452,0.034698486,9.806461,-0.030377403,0.05260994,-0.008163452,0.00491333,-0.0049591064,-56.518555,-15.779114,4.559326,0,0.0,0.0,0.0,0.0
2.282714844,-0.004249506,0.29028797,0.9569299,-0.0044965753,-0.9569344,0.29026935,0.9999808,-0.0030694061,0.0053718,-0.0034873597,0.28158155,0.9595309,-0.004599785,-0.9595311,0.2815649,0.9999833,-0.0034317183,0.004641445,10.018753,-0.044265747,0.035888672,9.806462,-0.030100593,0.052679367,-0.017181396,-8.8500977E-4,-0.0037384033,-56.878662,-16.259766,4.6798706,0,0.0,0.0,0.0,0.0
2.291015625,-0.0042406344,0.29025945,0.9569386,-0.0044797105,-0.9569431,0.29024094,0.9999809,-0.003056002,0.0053583235,-0.0035026346,0.2817559,0.9594797,-0.0045975973,-0.95948005,0.28173918,0.9999833,-0.003424472,0.004656108,10.018753,-0.044265747,0.035888672,9.806463,-0.029969143,0.052547205,-0.008468628,0.0055236816,-0.005874634,-56.878662,-16.259766,4.6798706,0,0.0,0.0,0.0,0.0
2.299316407,-0.0042557055,0.29055524,0.9568488,-0.0044892365,-0.95685345,0.29053667,0.9999809,-0.003059082,0.0053764572,-0.003531666,0.28209332,0.95938045,-0.0045926315,-0.95938087,0.28207654,0.9999832,-0.003409881,0.0046837637,10.012772,-0.057434082,0.04547119,9.806463,-0.029999347,0.052725036,-0.0118255615,0.0068969727,-0.0063323975,-56.819153,-16.43982,4.73938,0,0.0,0.0,0.0,0.0
2.307617188,-0.0043017184,0.2907014,0.9568042,-0.0045257453,-0.95680887,0.29068244,0.99998045,-0.0030798179,0.005431562,-0.003560285,0.28242883,0.9592817,-0.0045882836,-0.9592822,0.282412,0.99998313,-0.003395989,0.0047111823,10.058228,-0.08015442,0.062210083,9.806459,-0.030202698,0.053265434,-0.014587402,-0.0028839111,-0.007095337,-56.819153,-16.43982,4.73938,0,0.0,0.0,0.0,0.0
2.315917969,-0.004285929,0.2970684,0.9548466,-0.0045686234,-0.9548512,0.2970493,0.99998033,-0.0030892019,0.0054496177,-0.003575116,0.28259444,0.95923287,-0.0045869085,-0.9592335,0.2825775,0.99998313,-0.0033896654,0.004725606,10.058228,-0.08015442,0.062210083,9.8064575,-0.030294722,0.053442493,-0.00831604,-0.002105713,-0.0061798096,-56.759644,-16.43982,4.8599243,0,0.0,0.0,0.0,0.0
2.32421875,-0.0042876,0.29707363,0.9548449,-0.0045930985,-0.9548495,0.2970544,0.9999803,-0.0031120463,0.005458501,-0.0035893787,0.28288442,0.95914733,-0.004586339,-0.95914805,0.2828675,0.9999831,-0.0033836563,0.0047401497,10.047455,-0.06341553,0.0765686,9.806457,-0.03051875,0.053529613,-0.011520386,0.004760742,-0.0022125244,-56.759644,-16.43982,4.8599243,0,0.0,0.0,0.0,0.0
2.332519532,-0.004268389,0.29701295,0.9548639,-0.004589597,-0.9548683,0.29699382,0.99998033,-0.003114756,0.005438919,-0.0036169416,0.28344762,0.95898086,-0.004586173,-0.9589818,0.28343058,0.99998295,-0.0033729007,0.004768521,10.037888,-0.059814453,0.06700134,9.8064575,-0.030545322,0.053337578,-0.007858276,-0.016159058,-0.008468628,-56.759644,-16.43982,4.8599243,0,0.0,0.0,0.0,0.0
2.340820313,-0.0040378943,0.32824853,0.94458276,-0.00463879,-0.9445865,0.32823,0.9999811,-0.0030563632,0.0053368164,-0.0036427595,0.2839858,0.9588216,-0.00458595,-0.9588226,0.28396866,0.99998283,-0.0033626782,0.0047951047,10.00679,-0.033493042,0.047851563,9.806465,-0.029972686,0.052336294,-0.0077056885,-0.0077667236,-0.007095337,-56.399536,-15.539551,5.1589966,0,0.0,0.0,0.0,0.0
2.349121094,-0.0040000994,0.32268766,0.9464971,-0.004534737,-0.9465007,0.32266974,0.9999817,-0.003001404,0.0052494006,-0.0036506357,0.28487745,0.95855695,-0.0045865537,-0.958558,0.28486028,0.9999828,-0.003356552,0.0048059523,10.039093,-0.0382843,0.03111267,9.806471,-0.02943372,0.051479034,-0.0077056885,-0.007003784,-0.0019073486,-56.098938,-15.478516,5.039978,0,0.0,0.0,0.0,0.0
2.357421875,-0.003930204,0.32245973,0.9465751,-0.00447929,-0.9465787,0.32244232,0.9999823,-0.0029727197,0.005164637,-0.0036642395,0.28638387,0.95810795,-0.00458383,-0.95810914,0.2863667,0.9999828,-0.003342488,0.004823476,10.039093,-0.0382843,0.03111267,9.806476,-0.029152421,0.050647788,-0.012741089,-0.005783081,-0.005874634,-56.098938,-15.478516,5.039978,0,0.0,0.0,0.0,0.0
2.365722657,-0.0038493755,0.31779036,0.94815314,-0.0044524577,-0.9481562,0.3177733,0.99998266,-0.002998383,0.005064758,-0.003674474,0.28782085,0.95767725,-0.004579176,-0.9576785,0.28780368,0.9999828,-0.0033278454,0.0048369467,10.017548,-0.07777405,0.007171631,9.80648,-0.029404093,0.04966831,-0.007095337,1.8310547E-4,-0.0049591064,-56.3385,-15.7196045,5.039978,0,0.0,0.0,0.0,0.0
2.374023438,-0.0037898978,0.31759796,0.9482179,-0.00443684,-0.94822073,0.31758115,0.99998295,-0.0030034904,0.005002791,-0.003677831,0.28842312,0.957496,-0.0045764833,-0.9574973,0.28840593,0.9999827,-0.003321256,0.0048414767,10.04866,-0.062210083,0.015548706,9.806483,-0.02945418,0.04906062,-0.0104522705,1.8310547E-4,-0.0049591064,-56.3385,-15.7196045,5.039978,0,0.0,0.0,0.0,0.0
2.382324219,-0.003765906,0.31752035,0.948244,-0.0044265375,-0.94824666,0.3175037,0.9999831,-0.0030017486,0.0049765236,-0.003682085,0.28958377,0.9571456,-0.0045707584,-0.95714694,0.2895666,0.9999828,-0.0033086725,0.004847914,10.041473,-0.08494568,0.058624268,9.806484,-0.029437099,0.048803028,-0.007247925,0.007507324,-0.008621216,-56.3385,-15.7196045,5.039978,0,0.0,0.0,0.0,0.0
2.390625,-0.003911556,0.28717205,0.9578711,-0.0043388875,-0.9578743,0.2871553,0.99998295,-0.0030328708,0.0049927854,-0.0036851005,0.29069468,0.95680875,-0.0045648552,-0.9568102,0.29067752,0.9999828,-0.003296518,0.004852921,10.059433,-0.08973694,0.029907227,9.806483,-0.029742304,0.0489625,-0.014282227,0.0073547363,-0.005874634,-56.518555,-15.779114,4.499817,0,0.0,0.0,0.0,0.0
2.398925782,-0.0039045485,0.29555267,0.9553185,-0.004394598,-0.95532155,0.29553565,0.99998266,-0.003044307,0.0050289347,-0.0036895927,0.2906242,0.9568302,-0.0045603355,-0.95683163,0.29060706,0.9999828,-0.003291245,0.0048556626,10.023529,-0.07896423,0.04067993,9.80648,-0.029854454,0.049317002,-0.005722046,0.005065918,-0.009994507,-56.6391,-16.259766,4.798889,0,0.0,0.0,0.0,0.0
2.407226563,-0.0039415844,0.2956709,0.9552818,-0.0044034994,-0.955285,0.29565373,0.9999825,-0.0030412383,0.005067323,-0.003698007,0.2908195,0.95677084,-0.004553709,-0.9567723,0.29080236,0.99998283,-0.0032814664,0.004862458,10.013962,-0.08135986,0.015548706,9.8064785,-0.02982436,0.04969346,-0.009231567,0.005218506,-0.008010864,-56.6391,-16.259766,4.798889,0,0.0,0.0,0.0,0.0
2.415527344,-0.003820777,0.31982958,0.9474673,-0.004499181,-0.9474701,0.3198124,0.9999826,-0.003040896,0.005059044,-0.0037077297,0.29101178,0.9567123,-0.0045477445,-0.95671386,0.2909946,0.9999828,-0.0032719537,0.0048706834,10.013962,-0.08135986,0.015548706,9.806479,-0.029821003,0.049612273,-0.009689331,3.3569336E-4,-0.006942749,-56.27899,-15.779114,5.0994873,0,0.0,0.0,0.0,0.0
2.423828125,-0.0037805596,0.31970033,0.9475112,-0.0044948435,-0.9475138,0.31968328,0.9999828,-0.003050333,0.005019135,-0.0037098578,0.2915909,0.956536,-0.0045466456,-0.95653754,0.29157376,0.9999828,-0.0032673324,0.004874379,10.061813,-0.07058716,0.09451294,9.806481,-0.029913548,0.0492209,-0.0104522705,-0.004562378,-0.008010864,-56.27899,-15.779114,5.0994873,0,0.0,0.0,0.0,0.0
2.432128907,-0.0037234533,0.3195167,0.9475733,-0.00447204,-0.94757575,0.31949994,0.9999831,-0.0030479429,0.004957146,-0.0037124124,0.29270908,0.95619434,-0.0045444034,-0.956196,0.29269195,0.9999828,-0.0032587394,0.0048799817,9.994827,-0.06341553,0.010772705,9.806484,-0.02989011,0.048612997,-0.010910034,0.007507324,-0.001739502,-56.27899,-15.779114,5.0994873,0,0.0,0.0,0.0,0.0
2.440429688,-0.0037062815,0.32841495,0.9445263,-0.0045804186,-0.9445284,0.3283977,0.9999826,-0.0031091915,0.005004966,-0.0037127573,0.29377514,0.95586735,-0.0045414707,-0.955869,0.293758,0.9999828,-0.0032503915,0.0048830807,10.065414,-0.093322754,0.058624268,9.806479,-0.030490754,0.04908195,-0.007095337,0.006134033,-0.007095337,-56.159973,-15.299988,5.0994873,0,0.0,0.0,0.0,0.0
2.448730469,-0.003790461,0.32313558,0.94634503,-0.004629873,-0.94634736,0.32311785,0.9999821,-0.003156692,0.0050831707,-0.003712555,0.29447198,0.9556529,-0.00454218,-0.9556546,0.29445484,0.99998283,-0.0032475675,0.0048854654,10.0785675,-0.10169983,0.046661377,9.806475,-0.030956574,0.049848877,-0.005264282,0.008728027,-0.009536743,-56.159973,-15.419006,5.039978,0,0.0,0.0,0.0,0.0
2.45703125,-0.0038234245,0.3232436,0.946308,-0.0046807285,-0.9463103,0.32322547,0.9999817,-0.003193583,0.0051311622,-0.0037155985,0.29561213,0.9553008,-0.0045454595,-0.95530254,0.29559496,0.9999828,-0.003243969,0.004893214,10.04985,-0.07537842,0.061019897,9.806471,-0.03131835,0.05031951,-0.011077881,0.005218506,-0.0063323975,-56.159973,-15.419006,5.039978,0,0.0,0.0,0.0,0.0
2.465332032,-0.003882931,0.3234385,0.94624126,-0.0047137765,-0.9462438,0.32342002,0.99998134,-0.0032045518,0.005198816,-0.0037178085,0.29616737,0.95512885,-0.004548068,-0.9551306,0.2961502,0.9999828,-0.0032429614,0.0048979823,10.04985,-0.07537842,0.061019897,9.806467,-0.03142592,0.050982967,-0.011077881,0.008270264,-0.004348755,-56.159973,-15.419006,5.039978,0,0.0,0.0,0.0,0.0
2.473632813,-0.0039660973,0.32136214,0.9469481,-0.0047556693,-0.9469509,0.32134315,0.9999808,-0.0032288935,0.005283991,-0.0037245885,0.29725206,0.9547918,-0.004554415,-0.9547936,0.29723483,0.9999827,-0.0032414405,0.0049100225,10.021133,-0.022735596,0.057434082,9.806462,-0.03166463,0.05181825,-0.0074005127,0.013763428,-0.002960205,-56.159973,-15.7196045,5.0994873,0,0.0,0.0,0.0,0.0
2.481933594,-0.004026276,0.3215557,0.9468821,-0.0047333543,-0.9468852,0.32153663,0.9999806,-0.0031873332,0.0053344583,-0.0037343851,0.2982105,0.95449287,-0.0045621214,-0.95449466,0.29819322,0.99998266,-0.0032409437,0.004924923,10.017548,-0.0382843,0.015548706,9.80646,-0.031257063,0.052313168,-0.0104522705,0.014678955,-0.0104522705,-56.159973,-15.7196045,5.0994873,0,0.0,0.0,0.0,0.0
2.490234375,-0.004148875,0.31338674,0.94961643,-0.004659712,-0.94962037,0.3133677,0.99998057,-0.003124816,0.0054001487,-0.0037402017,0.298679,0.9543463,-0.0045653516,-0.95434815,0.29866168,0.9999826,-0.0032398715,0.004933029,10.018753,-0.033493042,0.057434082,9.806459,-0.03064398,0.05295737,-0.0104522705,0.014373779,-0.00831604,-56.399536,-16.018677,5.039978,0,0.0,0.0,0.0,0.0
2.498535157,-0.004285062,0.31382096,0.94947255,-0.0046391278,-0.94947726,0.3138016,0.99998003,-0.003060065,0.0055244244,-0.0037562882,0.2992628,0.95416325,-0.0045687854,-0.9541652,0.29924542,0.9999825,-0.0032353154,0.004951387,10.043869,-0.06700134,0.07058716,9.806455,-0.030008987,0.054176096,-0.008926392,0.011779785,-0.01121521,-56.399536,-16.018677,5.039978,0,0.0,0.0,0.0,0.0
2.506835938,-0.004455031,0.30469713,0.95243883,-0.0046022777,-0.95244443,0.3046774,0.9999795,-0.0030260412,0.0056454707,-0.0037772092,0.2998406,0.9539819,-0.0045712297,-0.9539839,0.2998231,0.9999824,-0.0032283755,0.004974037,10.04985,-0.057434082,0.059814453,9.806449,-0.029675327,0.055363156,-0.014282227,0.015289307,-0.010299683,-56.57959,-16.018677,4.8599243,0,0.0,0.0,0.0,0.0
2.515136719,-0.004582797,0.3051083,0.9523066,-0.004600294,-0.952313,0.30508822,0.99997896,-0.0029827328,0.0057678446,-0.0037908077,0.29993773,0.95395124,-0.0045717936,-0.9539533,0.2999202,0.99998236,-0.0032243286,0.004987507,10.04985,-0.057434082,0.059814453,9.806444,-0.029250618,0.056563236,-0.011993408,0.01574707,-0.009841919,-56.57959,-16.018677,4.8599243,0,0.0,0.0,0.0,0.0
2.5234375,-0.0046588583,0.30986905,0.9507679,-0.004624729,-0.95077467,0.3098486,0.9999784,-0.0029535026,0.0058625843,-0.0038221478,0.30014288,0.9538866,-0.0045727496,-0.95388883,0.30012527,0.99998224,-0.0032147614,0.005018382,10.022339,-0.06460571,0.090927124,9.806438,-0.028963966,0.057492316,-0.007247925,0.0017089844,-0.0038909912,-56.878662,-16.319275,5.039978,0,0.0,0.0,0.0,0.0
2.531738282,-0.004730035,0.3100943,0.95069396,-0.0046520093,-0.9507011,0.3100735,0.999978,-0.0029559792,0.0059394124,-0.0038553574,0.30052835,0.95376515,-0.0045744926,-0.95376754,0.30051062,0.9999821,-0.0032044156,0.005051879,10.0247345,-0.06460571,0.090927124,9.806435,-0.028988255,0.05824574,-0.017333984,-0.0014953613,-0.008773804,-56.878662,-16.319275,5.039978,0,0.0,0.0,0.0,0.0
2.540039063,-0.0049214023,0.27111316,0.9625349,-0.004472203,-0.96254295,0.27109253,0.99997795,-0.0029704962,0.0059495345,-0.0038900338,0.30090785,0.9536453,-0.004577226,-0.95364785,0.30089,0.99998194,-0.0031945778,0.0050870455,10.016357,-0.07058716,0.06819153,9.806434,-0.029130617,0.058345005,-0.013671875,-0.0011901855,-0.004196167,-57.418823,-16.378784,4.319763,0,0.0,0.0,0.0,0.0
2.548339844,-0.005084119,0.23350187,0.9723431,-0.0042954176,-0.97235173,0.2334815,0.9999778,-0.0029895718,0.0059465393,-0.0039107134,0.3003146,0.95383215,-0.0045757215,-0.9538349,0.30029666,0.9999819,-0.0031900962,0.005104331,10.051056,-0.07298279,0.06819153,9.806433,-0.029317684,0.05831563,-0.011383057,-0.0053253174,-0.005874634,-57.598877,-16.738892,3.718567,0,0.0,0.0,0.0,0.0
2.556640625,-0.0050239605,0.23330538,0.9723905,-0.004325631,-0.9723987,0.23328501,0.999978,-0.0030341884,0.0058944863,-0.003957378,0.29769436,0.9546531,-0.004567286,-0.95465595,0.29767632,0.99998176,-0.0031821553,0.0051375898,10.04985,-0.088531494,0.052642822,9.806435,-0.029755225,0.057805166,-0.013504028,-0.009597778,-0.0038909912,-57.598877,-16.738892,3.718567,0,0.0,0.0,0.0,0.0
2.564941407,-0.0049284445,0.23299344,0.9724658,-0.004340988,-0.97247344,0.23297328,0.9999784,-0.003073267,0.005804203,-0.0039788117,0.29641885,0.9550497,-0.0045636566,-0.95505273,0.29640076,0.99998164,-0.003179196,0.005152729,10.0295105,-0.08494568,0.0382843,9.806438,-0.030138453,0.05691979,-0.013504028,-0.00440979,-0.0049591064,-57.598877,-16.738892,3.718567,0,0.0,0.0,0.0,0.0
2.573242188,-0.0049169087,0.21855204,0.975813,-0.0042731673,-0.9758205,0.21853219,0.9999788,-0.0030953088,0.0057319286,-0.004016531,0.29392993,0.95581853,-0.0045568347,-0.9558217,0.29391178,0.9999815,-0.0031750014,0.0051784776,10.0247345,-0.07777405,0.028717041,9.806442,-0.030354612,0.05621102,-0.0064849854,0.003692627,-0.005264282,-57.77893,-17.098999,3.5385132,0,0.0,0.0,0.0,0.0
2.581542969,-0.0049008783,0.21850026,0.9758245,-0.0042826207,-0.9758318,0.2184804,0.9999788,-0.0031083412,0.005718188,-0.0040524923,0.29097584,0.95672184,-0.004547768,-0.9567252,0.29095757,0.99998146,-0.0031718453,0.005200412,10.0247345,-0.07777405,0.028717041,9.806442,-0.030482415,0.05607627,-0.004348755,0.009185791,-0.007247925,-57.77893,-17.098999,3.5385132,0,0.0,0.0,0.0,0.0
2.58984375,-0.0049316324,0.22040881,0.9753951,-0.004346796,-0.9754025,0.22038852,0.9999784,-0.0031529684,0.005768399,-0.004069601,0.28954098,0.95715696,-0.0045434735,-0.9571604,0.28952268,0.9999814,-0.0031705752,0.005210783,10.042679,-0.105285645,0.053833008,9.806438,-0.030920058,0.056568675,-0.004348755,0.0033874512,-0.008163452,-57.659912,-17.219543,3.5995483,0,0.0,0.0,0.0,0.0
2.598144532,-0.0051192157,0.20135348,0.97950524,-0.0042347102,-0.9795137,0.20133308,0.99997795,-0.0031172535,0.0058670156,-0.004103779,0.28682923,0.95797294,-0.0045375875,-0.9579765,0.28681085,0.9999813,-0.003169878,0.0052328366,10.022339,-0.047851563,0.105285645,9.806434,-0.030569816,0.05753577,-0.010910034,-0.0011901855,-0.0037384033,-57.839966,-17.518616,3.2989502,0,0.0,0.0,0.0,0.0
2.606445313,-0.0051475214,0.20144345,0.97948664,-0.004260869,-0.97949517,0.2014228,0.99997765,-0.0031366365,0.0059002955,-0.0041444246,0.2834823,0.9589685,-0.0045283954,-0.9589722,0.28346384,0.99998116,-0.0031677939,0.005258108,10.063019,-0.08015442,0.0765686,9.806431,-0.030759897,0.057862133,-0.01121521,0.0033874512,-0.007247925,-57.839966,-17.518616,3.2989502,0,0.0,0.0,0.0,0.0
2.614746094,-0.005182027,0.20155308,0.9794639,-0.0042767264,-0.9794725,0.20153221,0.9999774,-0.0031445534,0.0059376406,-0.0041644936,0.28185955,0.9594466,-0.0045243744,-0.9594504,0.28184104,0.9999811,-0.0031671706,0.0052708634,10.047455,-0.071777344,0.08135986,9.806429,-0.030837536,0.058228366,-0.013366699,-0.0014953613,-0.005722046,-57.839966,-17.518616,3.2989502,0,0.0,0.0,0.0,0.0
2.623046875,-0.0051645683,0.2114028,0.9773854,-0.0043170983,-0.97739404,0.21138187,0.99997735,-0.0031277728,0.005960465,-0.0042049675,0.27871293,0.96036524,-0.0045172144,-0.9603692,0.2786943,0.999981,-0.0031662749,0.0052973274,10.052246,-0.056228638,0.100494385,9.806428,-0.030672973,0.058452193,-0.010299683,-0.018295288,-0.006942749,-57.71942,-17.219543,3.4194946,0,0.0,0.0,0.0,0.0
