Time,Rot1,Rot2,Rot3,Rot4,Rot5,Rot6,Rot7,Rot8,Rot9,FRot1,FRot2,FRot3,FRot4,FRot5,FRot6,FRot7,FRot8,FRot9,AccX,AccY,AccZ,GravX,GravY,GravZ,GyroX,GyroY,GyroZ,MagX,MagY,MagZ,Imid
0.0,0.0,0.0,0.0,0.0,0.0,0.0,0.0,0.0,0.0,1.0,0.0,0.0,0.0,1.0,0.0,0.0,0.0,1.0,10.037888,0.021530151,0.14117432,9.805623,0.027607942,0.13918781,0.0,0.0,0.0,0.0,0.0,0.0,0,0.0,0.0,0.0,0.0
0.008300782,0.0,0.0,0.0,0.0,0.0,0.0,0.0,0.0,0.0,1.0,0.0,0.0,0.0,1.0,0.0,0.0,0.0,1.0,10.037888,0.021530151,0.14117432,9.805609,0.028397772,0.14003645,-0.0023498535,-0.0026397705,-0.009796143,0.0,0.0,0.0,0,0.0,0.0,0.0,0.0
0.016601563,-0.013457808,0.57064134,0.8210891,-0.005787628,-0.8211942,0.5706195,0.9998927,0.0029271296,0.014354133,1.0,0.0,0.0,0.0,1.0,0.0,0.0,0.0,1.0,10.054642,-0.010772705,0.19502258,9.805598,0.028705336,0.14076596,-0.0012817383,-0.008743286,-0.0068969727,-31.199646,-39.239502,26.759338,0,0.0,0.0,0.0,0.0
0.024902344,-0.013465295,0.5706452,0.8210862,-0.005790925,-0.82119143,0.57062334,0.99989253,0.0029287627,0.01436215,0.99823177,0.05066431,-0.03108677,-0.05064158,0.99871576,0.0015184255,0.031123776,5.854262E-5,0.99951553,10.054642,-0.010772705,0.19502258,9.805596,0.028721351,0.14084458,-0.011352539,-0.012710571,-0.003692627,-31.199646,-39.239502,26.759338,0,0.0,0.0,0.0,0.0
0.033203125,-0.013383481,0.57211274,0.8200658,-0.0058234064,-0.8201699,0.5720903,0.9998934,0.002880983,0.0143083725,0.9847726,0.14848584,-0.090415284,-0.14787984,0.98891455,0.013402478,0.09140306,1.7220339E-4,0.99581397,10.065414,-0.026321411,0.17945862,9.805605,0.028252793,0.1403172,-0.0011291504,-0.014083862,-0.00491333,-31.13861,-38.99994,26.69983,0,0.0,0.0,0.0,0.0
0.041503907,-0.013278629,0.57205683,0.82010645,-0.0058546676,-0.82020915,0.5720337,0.9998947,0.0027943722,0.014240457,0.95967704,0.24102554,-0.1446606,-0.23837595,0.9705187,0.035641298,0.14898628,2.7947113E-4,0.9888392,10.04985,-0.056228638,0.16151428,9.805617,0.027403431,0.13965118,-0.003112793,-0.006454468,-0.0072021484,-31.13861,-38.99994,26.69983,0,0.0,0.0,0.0,0.0
0.049804688,-0.013184559,0.5746857,0.818268,-0.0059319306,-0.8183697,0.5746615,0.99989545,0.002722749,0.014198838,0.9433638,0.28519076,-0.16950208,-0.28075656,0.9584707,0.050096314,0.17674978,3.297692E-4,0.98425573,10.04985,-0.056228638,0.16151428,9.805625,0.026701048,0.13924304,-0.004180908,-0.008895874,-0.0043029785,-31.318665,-38.819885,26.759338,0,0.0,0.0,0.0,0.0
0.058105469,-0.013130807,0.57465684,0.8182891,-0.0059488444,-0.8183901,0.5746323,0.9998961,0.002677511,0.014164667,0.904437,0.36898422,-0.21411306,-0.35916498,0.92943555,0.08455799,0.23020484,4.2453123E-4,0.9731421,10.041473,-0.035888672,0.17108154,9.805631,0.02625741,0.13890792,-0.0052490234,-0.0067596436,-0.002319336,-31.318665,-38.819885,26.759338,0,0.0,0.0,0.0,0.0
0.06640625,-0.013057121,0.5744635,0.8184261,-0.005902896,-0.81852585,0.57443935,0.9998973,0.0026694394,0.014078589,0.8585789,0.44673693,-0.25153208,-0.4288791,0.89466524,0.12504745,0.28090033,5.137493E-4,0.9597368,10.039093,0.0011901855,0.13639832,9.805643,0.02617826,0.1380638,-0.0025024414,-0.011489868,-0.0039978027,-31.318665,-38.578796,26.579285,0,0.0,0.0,0.0,0.0
0.074707032,-0.012989528,0.57442707,0.8184527,-0.0058590397,-0.8185515,0.5744034,0.9998985,0.0026658813,0.013998187,0.83358544,0.48332182,-0.26746085,-0.46040717,0.8754425,0.14705634,0.30522215,5.5686315E-4,0.952281,10.039093,0.0011901855,0.13639832,9.805655,0.026143366,0.13727532,-0.005706787,-0.006454468,-0.007965088,-31.318665,-38.578796,26.579285,0,0.0,0.0,0.0,0.0
0.083007813,-0.012949937,0.57036656,0.8212882,-0.0056980876,-0.82138586,0.5703445,0.9998999,0.0027061526,0.013886893,0.78046334,0.55190307,-0.29373467,-0.5168021,0.833908,0.19368279,0.35184184,6.403802E-4,0.9360593,10.004395,0.022735596,0.098098755,9.805669,0.026538292,0.1361839,-0.008926392,-0.002029419,-0.0067443848,-31.3797,-38.63983,26.339722,0,0.0,0.0,0.0,0.0
0.091308594,-0.012950613,0.5703669,0.82128793,-0.005659011,-0.8213855,0.5703454,0.9999001,0.0027386455,0.013865158,0.72424746,0.61458856,-0.31264448,-0.56462115,0.78884757,0.24273957,0.3958138,7.221848E-4,0.9183305,10.043869,0.011962891,0.11843872,9.805671,0.026856938,0.13597076,-0.009689331,0.009887695,-0.006134033,-31.3797,-38.63983,26.339722,0,0.0,0.0,0.0,0.0
0.099609375,-0.01293451,0.5783436,0.81569076,-0.005781499,-0.81578857,0.5783213,0.9998996,0.0027643873,0.013895519,0.6954238,0.64369714,-0.31943673,-0.58535457,0.76527995,0.26778096,0.41682836,7.62514E-4,0.90898484,10.043869,0.011962891,0.11843872,9.805666,0.027109379,0.1362685,-0.010437012,0.0071411133,-9.3078613E-4,-31.13861,-38.09967,26.519775,0,0.0,0.0,0.0,0.0
0.107910157,-0.0129772965,0.5783667,0.81567377,-0.0057969843,-0.81577224,0.57834435,0.99989897,0.002776897,0.013939299,0.63730294,0.6972917,-0.32806903,-0.6205061,0.716787,0.31810153,0.4569652,8.4178825E-4,0.8894842,10.079758,0.022735596,0.13998413,9.805659,0.027232058,0.13669783,-0.005706787,-0.0066070557,-0.006439209,-31.13861,-38.09967,26.519775,0,0.0,0.0,0.0,0.0
0.116210938,-0.0129935695,0.57986224,0.81461084,-0.0058108214,-0.8147096,0.5798399,0.9998987,0.0028006309,0.013955464,0.57907194,0.74533737,-0.33037552,-0.64806765,0.6666869,0.36815336,0.49465546,9.1841863E-4,0.8690887,10.016357,0.025131226,0.17347717,9.805656,0.027464807,0.13685635,-0.004638672,-0.023101807,-0.0029296875,-31.199646,-38.038635,26.579285,0,0.0,0.0,0.0,0.0
0.124511719,-0.012947897,0.5798376,0.8146292,-0.0057347217,-0.8147272,0.5798162,0.99989974,0.0028357294,0.013874211,0.5502063,0.76733863,-0.32933944,-0.6591662,0.6412414,0.3928224,0.5126139,9.5606287E-4,0.8586187,10.016357,0.025131226,0.17347717,9.805667,0.027809005,0.13605954,-0.005706787,-0.020645142,-0.005218506,-31.199646,-38.038635,26.579285,0,0.0,0.0,0.0,0.0
0.1328125,-0.012823207,0.582704,0.8125832,-0.0056213676,-0.8126792,0.5826841,0.99990195,0.0029040496,0.013696748,0.49337253,0.8075322,-0.32322642,-0.6764367,0.58982265,0.44106984,0.54682434,0.0010304977,0.83724666,9.988831,0.051452637,0.13877869,9.805689,0.028478999,0.13431922,-0.007843018,-0.026916504,-0.0014038086,-31.199646,-37.919617,26.69983,0,0.0,0.0,0.0,0.0
0.141113282,-0.01263669,0.58260345,0.8126584,-0.0055424026,-0.81275165,0.58258414,0.9999048,0.002857854,0.013499511,0.43831983,0.842823,-0.3122901,-0.6876116,0.53818977,0.48738292,0.57884884,0.0011046904,0.8154341,10.061813,-0.021530151,0.14356995,9.8057165,0.028025974,0.13238499,-0.009063721,-0.037902832,0.0018157959,-31.199646,-37.919617,26.69983,0,0.0,0.0,0.0,0.0
0.149414063,-0.012380953,0.58138096,0.8135373,-0.00542084,-0.81362665,0.5813623,0.99990857,0.0027877637,0.013225045,0.41157553,0.8587628,-0.30517542,-0.6911439,0.5123721,0.5097008,0.5940754,0.0011397537,0.8044085,10.061813,-0.021530151,0.14356995,9.805754,0.027338624,0.12969339,-0.008010864,-0.048599243,-6.2561035E-4,-31.259155,-37.85858,26.579285,0,0.0,0.0,0.0,0.0
0.157714844,-0.01198141,0.58116406,0.8136983,-0.005263215,-0.8137821,0.5811464,0.99991435,0.0026802847,0.0128090475,0.35984924,0.88745195,-0.28798875,-0.6945121,0.46089864,0.55247205,0.6230261,0.0012050148,0.7822002,10.064209,-0.047851563,0.105285645,9.805811,0.026284616,0.12561385,-9.765625E-4,-0.049972534,2.89917E-4,-31.259155,-37.85858,26.579285,0,0.0,0.0,0.0,0.0
0.166015625,-0.011498968,0.5868525,0.8096122,-0.0051723584,-0.80968976,0.58683527,0.9999204,0.0025603955,0.012346009,0.31076032,0.9121094,-0.26736584,-0.69343144,0.40994498,0.5925352,0.65006226,0.0012634356,0.75987995,10.060623,-0.059814453,0.08015442,9.80587,0.025108904,0.12107299,-0.009231567,-0.03868103,1.373291E-4,-31.199646,-37.85858,26.998901,0,0.0,0.0,0.0,0.0
0.174316407,-0.011112539,0.5866451,0.80976796,-0.0050357673,-0.80984056,0.5866286,0.9999256,0.0024411299,0.011953591,0.28737172,0.92296743,-0.25602466,-0.6913643,0.38487592,0.6114621,0.66289735,0.0012893749,0.7487092,10.060623,-0.059814453,0.08015442,9.805921,0.023939306,0.11722469,-0.007080078,-0.027832031,-7.9345703E-4,-31.199646,-37.85858,26.998901,0,0.0,0.0,0.0,0.0
0.182617188,-0.010865775,0.57741183,0.8163807,-0.0047900556,-0.8164495,0.5773968,0.9999295,0.0023633558,0.011637194,0.24278742,0.94206786,-0.23143551,-0.68463403,0.33541965,0.64712435,0.6872631,0.0013349844,0.7264074,10.059433,-0.04547119,0.052642822,9.805959,0.023176605,0.11412189,-0.008758545,-0.004623413,-0.009643555,-31.318665,-38.339233,26.69983,0,0.0,0.0,0.0,0.0
0.190917969,-0.010714376,0.57732993,0.81644064,-0.004699137,-0.8165075,0.57731557,0.9999315,0.0023490095,0.011461321,0.20089927,0.95804876,-0.2044065,-0.6749711,0.2866019,0.67990685,0.7099672,0.0013757078,0.7042334,10.045074,-0.020339966,0.07058716,9.805979,0.023035916,0.11239717,-0.0025024414,0.018585205,-0.0038452148,-31.318665,-38.339233,26.69983,0,0.0,0.0,0.0,0.0
0.19921875,-0.010777257,0.56979424,0.8217167,-0.004620403,-0.821784,0.5697803,0.9999312,0.0023440064,0.011489256,0.18109736,0.9648928,-0.19022541,-0.669147,0.26264048,0.6951707,0.7207261,0.0013951738,0.6932186,10.045074,-0.020339966,0.07058716,9.805976,0.022986852,0.11267112,-0.0011291504,0.021652222,-0.0010986328,-31.3797,-38.578796,26.339722,0,0.0,0.0,0.0,0.0
0.207519532,-0.01083453,0.5698256,0.8216943,-0.0047293724,-0.8217625,0.56981057,0.9999301,0.002287531,0.011598327,0.14353706,0.9765385,-0.16052943,-0.65585804,0.21533819,0.7235189,0.7411122,0.0014327476,0.6713797,10.053452,-0.041870117,0.07417297,9.805964,0.022433016,0.113740735,-0.009689331,0.021499634,-0.009643555,-31.3797,-38.578796,26.339722,0,0.0,0.0,0.0,0.0
0.215820313,-0.01099658,0.5664721,0.8240075,-0.0048598163,-0.8240779,0.5664556,0.99992776,0.0022245494,0.011814989,0.10900349,0.98554146,-0.12971596,-0.640639,0.16942799,0.74891645,0.76006573,0.001466597,0.6498445,10.066605,-0.06341553,0.14356995,9.805942,0.021815378,0.11586547,-0.0049438477,0.024551392,-0.012237549,-31.91986,-38.75885,26.219177,0,0.0,0.0,0.0,0.0
0.224121094,-0.011152967,0.566559,0.82394564,-0.0050094407,-0.82401824,0.56654114,0.99992526,0.002191107,0.0120283915,0.09279758,0.9891445,-0.11393777,-0.63243836,0.1469388,0.7605463,0.76903206,0.0014817561,0.63920844,10.066605,-0.06341553,0.14356995,9.805918,0.021487422,0.11795823,-0.012588501,0.016448975,-0.012084961,-31.91986,-38.75885,26.219177,0,0.0,0.0,0.0,0.0
0.232421875,-0.011464736,0.5453215,0.8381486,-0.004739405,-0.83822393,0.54530567,0.99992305,0.0022794597,0.012194514,0.06255754,0.9946701,-0.08196351,-0.6150546,0.10309793,0.7817152,0.785999,0.0015098463,0.61822593,10.023529,0.01675415,0.13040161,9.805896,0.022353865,0.11958734,-0.004180908,0.009429932,-0.010864258,-32.57904,-39.59961,25.318909,0,0.0,0.0,0.0,0.0
0.240722657,-0.011685865,0.5454486,0.8380628,-0.0047485866,-0.83814085,0.54543316,0.9999204,0.0023942438,0.01238451,0.03450272,0.99820966,-0.048857857,-0.5966608,0.0597926,0.800263,0.8017515,0.001540323,0.59765553,10.005585,0.04307556,0.15553284,9.80587,0.023479512,0.12145056,-0.007232666,-0.0024871826,0.0010528564,-32.57904,-39.59961,25.318909,0,0.0,0.0,0.0,0.0
0.249023438,-0.011826343,0.538195,0.8427373,-0.0046302034,-0.8428167,0.53818077,0.99991935,0.0024626656,0.012459394,0.021504628,0.99924797,-0.032266486,-0.58714396,0.038744673,0.8085548,0.8091969,0.0015574015,0.58753556,10.005585,0.04307556,0.15553284,9.80586,0.0241505,0.12218492,-0.00831604,-0.0024871826,0.0010528564,-32.818604,-39.89868,25.019836,0,0.0,0.0,0.0,0.0
0.257324219,-0.011844644,0.53820574,0.8427303,-0.004611033,-0.8428098,0.53819174,0.9999192,0.0024888325,0.0124644665,-0.0027189264,0.99999565,0.0011366149,-0.5676337,-0.0024791146,0.8232775,0.82327676,0.00159325,0.56763804,10.053452,0.046661377,0.1758728,9.805858,0.02440711,0.122234665,-0.010131836,-0.030273438,2.89917E-4,-32.818604,-39.89868,25.019836,0,0.0,0.0,0.0,0.0
0.265625,-0.011678841,0.53511673,0.84469736,-0.004468472,-0.8447745,0.5351038,0.9999218,0.0024748854,0.012257141,-0.024422554,0.9991135,0.034290172,-0.54766923,-0.042066902,0.83563685,0.8363385,0.0016287151,0.54821104,10.02832,0.022735596,0.117248535,9.805883,0.024270335,0.1202015,-0.009231567,-0.03591919,0.0010528564,-32.759094,-40.019226,24.899292,0,0.0,0.0,0.0,0.0
0.273925782,-0.011433687,0.5349742,0.84479094,-0.0043217726,-0.8448647,0.5349625,0.9999253,0.002465599,0.011971957,-0.03441671,0.9981167,0.050779995,-0.5375775,-0.061322175,0.8409816,0.8425117,0.0016456385,0.53867555,10.02832,0.022735596,0.117248535,9.805918,0.024179267,0.117404796,-0.010910034,-0.029510498,-0.0041503906,-32.759094,-40.019226,24.899292,0,0.0,0.0,0.0,0.0
0.282226563,-0.011224461,0.5300937,0.84786475,-0.0041038473,-0.84793544,0.5300836,0.9999286,0.0024703948,0.011693042,-0.05270574,0.9951237,0.083371855,-0.51729065,-0.098620206,0.85010844,0.85418516,0.0016781089,0.5199661,10.043869,0.010772705,0.090927124,9.805949,0.024226297,0.11466956,-0.009231567,-0.018676758,-0.0059814453,-32.939148,-40.13977,24.659729,0,0.0,0.0,0.0,0.0
0.290527344,-0.0110431705,0.5299873,0.84793365,-0.0039607836,-0.8480019,0.52997833,0.99993116,0.0024941594,0.011463795,-0.06897005,0.9909069,0.11552751,-0.49698994,-0.1345383,0.8572634,0.86501104,0.0017094836,0.5017498,10.053452,-0.011962891,0.0657959,9.805975,0.024459349,0.11242143,-0.013198853,-0.022644043,-0.0026245117,-32.939148,-40.13977,24.659729,0,0.0,0.0,0.0,0.0
0.298828125,-0.010833704,0.5256262,0.8506467,-0.0037841971,-0.85071206,0.5256184,0.99993414,0.0024753793,0.011205436,-0.07634574,0.98839396,0.13133407,-0.48688212,-0.15190238,0.8601578,0.87012476,0.001725177,0.49282846,10.053452,-0.011962891,0.0657959,9.806005,0.024275178,0.109887786,-0.012588501,-0.02003479,-0.007507324,-33.059692,-40.19928,24.41864,0,0.0,0.0,0.0,0.0
0.307128907,-0.010656672,0.5255213,0.85071373,-0.0036573724,-0.8507768,0.5255144,0.99993646,0.0024888576,0.010988476,-0.08977138,0.982613,0.16251992,-0.46681017,-0.18565707,0.8646501,0.87978935,0.001754885,0.47536042,10.021133,0.007171631,0.071777344,9.806027,0.024407357,0.10776014,-0.007232666,-0.0070648193,-0.003692627,-33.059692,-40.19928,24.41864,0,0.0,0.0,0.0,0.0
0.315429688,-0.010503738,0.5262634,0.85025674,-0.0036138452,-0.8503181,0.52625674,0.9999383,0.0024549675,0.010833354,-0.10142142,0.975975,0.19283822,-0.44704118,-0.21787542,0.86757386,0.88874507,0.0017839503,0.45839822,10.065414,-0.039474487,0.06700134,9.806046,0.024075007,0.10623891,-0.010131836,-0.0015563965,-0.0039978027,-33.239746,-40.019226,24.35913,0,0.0,0.0,0.0,0.0
0.323730469,-0.010388809,0.5261947,0.8503006,-0.0036089004,-0.8503607,0.5261878,0.9999395,0.0023978148,0.010733221,-0.10661742,0.9723784,0.20763682,-0.43730092,-0.23340328,0.86849916,0.89297295,0.0017973706,0.45010683,10.065414,-0.039474487,0.06700134,9.806057,0.02351453,0.105256945,-0.009063721,0.0030212402,-0.005218506,-33.239746,-40.019226,24.35913,0,0.0,0.0,0.0,0.0
0.33203125,-0.010408801,0.5169635,0.85594416,-0.0035708614,-0.8560043,0.5169564,0.9999395,0.002324439,0.010755984,-0.111423515,0.9686137,0.22219905,-0.42766857,-0.24856457,0.8690888,0.8970421,0.0018093794,0.44194153,10.066605,-0.056228638,0.1268158,9.806057,0.02279496,0.10548017,-0.0093688965,-1.9836426E-4,-0.0053710938,-33.95996,-40.618896,24.119568,0,0.0,0.0,0.0,0.0
0.340332032,-0.010392068,0.51695323,0.85595053,-0.003630834,-0.85601056,0.5169454,0.9999394,0.0022643183,0.010772693,-0.120110065,0.960516,0.25096336,-0.40871504,-0.27821878,0.8692216,0.90472406,0.0018297757,0.4259942,10.066605,-0.056228638,0.13160706,9.806056,0.022205377,0.10564403,-0.012435913,-0.0038604736,-0.0073547363,-33.95996,-40.618896,24.119568,0,0.0,0.0,0.0,0.0
0.348632813,-0.010369664,0.5118546,0.85900956,-0.0035685524,-0.8590693,0.5118471,0.9999399,0.0022422608,0.0107348375,-0.12741852,0.9518842,0.27871293,-0.39028445,-0.3064522,0.8681965,0.9118347,0.0018469837,0.4105533,10.072586,-0.029907227,0.13160706,9.806061,0.021989068,0.1052728,-0.0050964355,-0.016983032,-0.0058288574,-33.839417,-40.559387,23.75946,0,0.0,0.0,0.0,0.0
0.356933594,-0.010241739,0.5117761,0.8590579,-0.003550833,-0.85911614,0.5117684,0.99994123,0.0021910288,0.010616075,-0.13064145,0.9473601,0.29230413,-0.38126284,-0.3201647,0.8672561,0.91518927,0.0018548892,0.40301996,10.052246,-0.044265747,0.112457275,9.806074,0.021486653,0.10410813,-0.005859375,-0.016983032,-0.003692627,-33.839417,-40.559387,23.75946,0,0.0,0.0,0.0,0.0
0.365234375,-0.010102873,0.5116909,0.8591102,-0.0034664427,-0.8591668,0.5116838,0.99994296,0.002191421,0.010453801,-0.13620044,0.93801755,0.31870458,-0.36365566,-0.34658286,0.86465883,0.9215227,0.0018682005,0.3883201,10.0247345,0.0023956299,0.08734131,9.806091,0.021490501,0.10251678,-0.00982666,-0.016220093,-1.6784668E-4,-33.839417,-40.559387,23.75946,0,0.0,0.0,0.0,0.0
0.373535157,-0.009830095,0.5240811,0.85161155,-0.003467231,-0.8516654,0.52407426,0.99994564,0.002198966,0.010189064,-0.14067492,0.9283499,0.34405953,-0.34665114,-0.37170264,0.8612027,0.92738533,0.0018809999,0.3741028,10.013962,0.021530151,0.01914978,9.806117,0.02156449,0.099920586,-0.011352539,-0.01713562,-0.003692627,-33.718872,-40.019226,24.238586,0,0.0,0.0,0.0,0.0
0.381835938,-0.009622409,0.52395475,0.8516918,-0.0033103894,-0.8517433,0.523949,0.99994826,0.0022222204,0.009930315,-0.14244005,0.9235291,0.35609657,-0.33841982,-0.38352364,0.8592914,0.93015206,0.0018873592,0.3671697,10.037888,0.015548706,0.06819153,9.806143,0.021792538,0.097383134,-0.010604858,-0.013931274,-0.008880615,-33.718872,-40.019226,24.238586,0,0.0,0.0,0.0,0.0
0.390136719,-0.009492853,0.5253274,0.8508472,-0.0031748223,-0.8508971,0.5253228,0.99994993,0.0022855238,0.0097452635,-0.14530773,0.9137438,0.37941796,-0.32242337,-0.40628648,0.85497046,0.93537635,0.0019006198,0.35364893,10.047455,0.033493042,0.062210083,9.806159,0.022413332,0.09556839,-0.007080078,-0.016830444,-0.0030822754,-33.358765,-39.959717,24.299622,0,0.0,0.0,0.0,0.0
0.3984375,-0.009346127,0.5261595,0.8503346,-0.0030427922,-0.8503827,0.5261558,0.99995166,0.0023301276,0.009548778,-0.14735058,0.9038451,0.40168628,-0.30706805,-0.42785555,0.8500876,0.9402112,0.0019158621,0.34058672,10.047455,0.033493042,0.062210083,9.806176,0.022850746,0.09364152,-0.008926392,-0.018356323,-9.3078613E-4,-33.358765,-39.959717,24.35913,0,0.0,0.0,0.0,0.0
0.406738282,-0.009200123,0.5260717,0.85039043,-0.0029146243,-0.85043687,0.5260689,0.9999534,0.0023613302,0.009357425,-0.14809199,0.89886856,0.41243675,-0.2996292,-0.4382141,0.84746134,0.942492,0.0019241475,0.33422327,10.059433,0.023925781,0.051452637,9.806193,0.02315674,0.091765,-0.010910034,-0.013320923,-0.0053710938,-33.358765,-39.959717,24.35913,0,0.0,0.0,0.0,0.0
0.415039063,-0.009052405,0.52598286,0.850447,-0.0027824624,-0.8504918,0.52598095,0.9999552,0.0023950557,0.009162524,-0.14907889,0.8888724,0.43322212,-0.28522038,-0.45815077,0.84187126,0.94679713,0.0019414598,0.32182512,9.997208,0.026321411,0.013153076,9.8062105,0.023487475,0.08985367,-0.006011963,5.79834E-4,-0.0058288574,-33.358765,-39.959717,24.35913,0,0.0,0.0,0.0,0.0
0.423339844,-0.009018596,0.52748394,0.8495171,-0.0027207513,-0.84956145,0.5274826,0.99995565,0.0024458275,0.009097004,-0.14946757,0.87885356,0.45307383,-0.2714326,-0.47708762,0.8358898,0.9507807,0.0019594221,0.30985862,10.011566,0.027511597,0.022735596,9.806215,0.023985375,0.08921114,-0.014419556,0.019500732,-0.008422852,-32.939148,-39.59961,24.238586,0,0.0,0.0,0.0,0.0
0.431640625,-0.009146345,0.50855684,0.86097974,-0.0024795788,-0.8610246,0.508557,0.99995506,0.0025165712,0.009136236,-0.14945066,0.87386566,0.4626265,-0.2647749,-0.48616344,0.8327901,0.9526588,0.0019691503,0.30403513,10.031906,-0.0047912598,0.06460571,9.80621,0.024679134,0.08959587,-0.008010864,0.024398804,-0.012390137,-33.599854,-40.319824,23.458862,0,0.0,0.0,0.0,0.0
0.439941407,-0.009297843,0.5086501,0.8609231,-0.0025559464,-0.8609696,0.50864995,0.9999535,0.0025288747,0.009305243,-0.14927901,0.8634784,0.4817892,-0.25178453,-0.5043819,0.82595605,0.95620096,0.001990828,0.29270416,10.071396,-0.020339966,0.08494568,9.806194,0.02479979,0.091253266,-0.0064697266,0.021957397,-0.0078125,-33.599854,-40.319824,23.458862,0,0.0,0.0,0.0,0.0
0.448242188,-0.009447865,0.50839007,0.861075,-0.0026420339,-0.861123,0.5083895,0.99995184,0.0025282057,0.009478959,-0.14864789,0.8531472,0.50004363,-0.23940195,-0.52166635,0.8188717,0.959474,0.0020121348,0.28178972,10.071396,-0.020339966,0.08494568,9.806178,0.02479323,0.09295684,-0.009231567,0.025466919,-0.0078125,-33.718872,-40.25879,23.399353,0,0.0,0.0,0.0,0.0
0.456542969,-0.009649671,0.508515,0.86099905,-0.002716336,-0.86104923,0.5085142,0.9999497,0.002568232,0.009690139,-0.14818057,0.84800804,0.5088466,-0.23343302,-0.5299795,0.81524885,0.9610159,0.0020224561,0.27648574,10.052246,0.0143585205,0.100494385,9.806157,0.02518575,0.095027804,-0.0066223145,0.029891968,-0.0058288574,-33.718872,-40.25879,23.399353,0,0.0,0.0,0.0,0.0
0.46484375,-0.009870816,0.50865173,0.8609157,-0.0027925377,-0.86096835,0.5086508,0.99994737,0.0026166593,0.00991889,-0.14697403,0.83780843,0.5258096,-0.22193131,-0.54596055,0.8078822,0.9639217,0.0020440686,0.26617792,10.059433,0.0011901855,0.13160706,9.806134,0.025660662,0.097271085,-0.010299683,0.027297974,-0.009796143,-33.718872,-40.25879,23.399353,0,0.0,0.0,0.0,0.0
0.473144532,-0.010099303,0.5229109,0.85232747,-0.0030899772,-0.8523831,0.52290845,0.99994415,0.002647339,0.01022426,-0.14544556,0.8277328,0.5419446,-0.2109934,-0.56111866,0.8003922,0.9666061,0.002066743,0.25625837,10.063019,-0.0047912598,0.17468262,9.806103,0.025961526,0.10026574,-0.010437012,0.015380859,-0.0021514893,-33.059692,-39.65912,23.939514,0,0.0,0.0,0.0,0.0
0.481445313,-0.010282396,0.53035295,0.8477146,-0.0032461302,-0.84777266,0.53034985,0.9999418,0.0027014753,0.010438728,-0.14450848,0.8229358,0.5494488,-0.20577952,-0.5681306,0.7967951,0.9678699,0.002078355,0.25144303,10.02832,0.03111267,0.15672302,9.80608,0.026492422,0.10236896,-0.0067749023,0.00592041,-0.0015411377,-32.939148,-39.479065,24.299622,0,0.0,0.0,0.0,0.0
0.489746094,-0.010351638,0.5303942,0.84768784,-0.0033097968,-0.84774685,0.5303907,0.999941,0.0026847385,0.010531067,-0.14239673,0.8136601,0.56363153,-0.19579354,-0.58133715,0.78975445,0.97025156,0.0021030304,0.24208988,10.00798,-0.0059814453,0.114852905,9.806071,0.026328292,0.10327449,-0.0054016113,0.004699707,-0.006286621,-32.939148,-39.479065,24.299622,0,0.0,0.0,0.0,0.0
0.498046875,-0.01034507,0.5303904,0.84769046,-0.0033208083,-0.8477494,0.53038675,0.999941,0.0026718704,0.010531351,-0.14126593,0.80908483,0.57046086,-0.19098909,-0.587688,0.7862226,0.9713738,0.0021146645,0.23754667,10.031906,-0.01675415,0.08375549,9.806071,0.026202098,0.10327727,-0.00831604,-8.087158E-4,-0.007507324,-32.939148,-39.479065,24.299622,0,0.0,0.0,0.0,0.0
0.506347657,-0.010317814,0.53127295,0.8471379,-0.0033008074,-0.8471965,0.5312695,0.99994135,0.0026853,0.010494845,-0.1388736,0.8000661,0.5836167,-0.1817411,-0.5999081,0.7791537,0.9734908,0.00213673,0.22871628,10.060623,-0.0047912598,0.090927124,9.806075,0.0263338,0.10291927,-0.0093688965,-0.005844116,-0.006134033,-32.818604,-39.479065,24.35913,0,0.0,0.0,0.0,0.0
0.514648438,-0.010255757,0.53123605,0.8471618,-0.003241565,-0.8472195,0.531233,0.9999421,0.0027020664,0.010410913,-0.1363249,0.7912558,0.5960955,-0.1729609,-0.6114815,0.77212363,0.97544867,0.0021584535,0.22021648,10.060623,-0.0047912598,0.090927124,9.806083,0.02649822,0.102096185,-0.006164551,-0.014694214,-0.008422852,-32.818604,-39.479065,24.35913,0,0.0,0.0,0.0,0.0
0.522949219,-0.010187546,0.5323114,0.84648734,-0.0031969142,-0.8465443,0.5323087,0.999943,0.0027167723,0.010325963,-0.13500303,0.7869215,0.6021036,-0.16873647,-0.61704934,0.76862097,0.976372,0.0021693257,0.2160859,10.040283,-0.007171631,0.13040161,9.806091,0.026642434,0.101263106,-0.006011963,-0.021575928,-0.0067443848,-32.51953,-39.35852,24.35913,0,0.0,0.0,0.0,0.0
0.53125,-0.010136253,0.5171695,0.855823,-0.0029038126,-0.8558786,0.51716864,0.9999444,0.0027570026,0.010177164,-0.1322715,0.7784311,0.61363614,-0.1606133,-0.62772626,0.7616844,0.97811437,0.0021910043,0.20805669,10.031906,0.011962891,0.10647583,9.806106,0.027036963,0.0998039,-0.010299683,-0.015304565,-0.004760742,-32.759094,-39.959717,23.75946,0,0.0,0.0,0.0,0.0
0.539550782,-0.010041175,0.5171127,0.85585845,-0.0027914073,-0.8559127,0.5171127,0.99994564,0.0028033694,0.010037841,-0.12956077,0.769691,0.6251318,-0.15280585,-0.6384128,0.75437355,0.9797267,0.002213418,0.20032653,10.035492,0.015548706,0.100494385,9.806117,0.027491663,0.0984376,-0.0067749023,-0.01499939,-0.009338379,-32.759094,-39.959717,23.75946,0,0.0,0.0,0.0,0.0
0.547851563,-0.00994969,0.51705796,0.85589254,-0.0027562957,-0.8559459,0.51705813,0.9999467,0.0027854743,0.009941559,-0.12817365,0.76539785,0.6306644,-0.1490506,-0.6435535,0.75074816,0.98048735,0.0022252172,0.1965696,10.043869,-0.032302856,0.107681274,9.806128,0.027316172,0.097493395,-0.0067749023,-0.007675171,-0.007659912,-32.759094,-39.959717,23.75946,0,0.0,0.0,0.0,0.0
0.556152344,-0.009877426,0.51591647,0.8565819,-0.002652543,-0.8566342,0.51591736,0.99994767,0.002823815,0.009829831,-0.12534785,0.75696796,0.64131695,-0.14182845,-0.65344816,0.74356586,0.9819229,0.0022474031,0.1892679,10.011566,0.011962891,0.090927124,9.806137,0.027692165,0.09639772,-0.01121521,-0.015457153,-0.006134033,-32.939148,-40.078735,23.75946,0,0.0,0.0,0.0,0.0
0.564453125,-0.009724467,0.51582456,0.856639,-0.0025276912,-0.85668945,0.5158262,0.9999495,0.0028508173,0.009634695,-0.122477174,0.74871653,0.65147746,-0.13496804,-0.6628864,0.7364545,0.9832513,0.0022702292,0.18224126,10.011566,0.011962891,0.090927124,9.806155,0.027956968,0.09448408,-0.008926392,-0.014541626,-0.007507324,-32.939148,-40.078735,23.75946,0,0.0,0.0,0.0,0.0
0.572753907,-0.0095263785,0.5236776,0.8518632,-0.0024867358,-0.8519116,0.52367955,0.9999515,0.002870411,0.009417881,-0.121025905,0.74467015,0.6563681,-0.1316685,-0.66742873,0.73294085,0.98387814,0.0022818407,0.17882577,10.053452,0.008377075,0.041870117,9.806174,0.028149117,0.09235787,-0.008926392,-0.024017334,-0.002456665,-32.458496,-40.019226,24.238586,0,0.0,0.0,0.0,0.0
0.581054688,-0.00930954,0.5235505,0.85194373,-0.0023610906,-0.8519898,0.523553,0.9999539,0.0028625217,0.009167784,-0.11805358,0.73698634,0.6655182,-0.12536277,-0.67590374,0.7262495,0.9850622,0.0023051482,0.17218348,10.040283,-0.020339966,0.07298279,9.806198,0.028071748,0.08990525,-0.015792847,-0.023101807,-7.9345703E-4,-32.458496,-40.019226,24.238586,0,0.0,0.0,0.0,0.0
0.589355469,-0.009158101,0.52045536,0.8538397,-0.0022723433,-0.8538841,0.52045804,0.9999555,0.002826191,0.009002611,-0.115067266,0.72951204,0.6742193,-0.119374625,-0.683964,0.71968246,0.98615885,0.0023272203,0.1657871,10.041473,-0.008377075,0.100494385,9.806213,0.027715467,0.08828546,-0.004486084,-0.019729614,-0.007507324,-32.398987,-40.13977,24.119568,0,0.0,0.0,0.0,0.0
0.59765625,-0.009017083,0.52037275,0.8538917,-0.0021489484,-0.85393447,0.52037615,0.999957,0.002857306,0.008818252,-0.113580585,0.7258049,0.67845905,-0.11648739,-0.6878966,0.71639997,0.98667634,0.0023371996,0.16267882,10.010376,0.022735596,0.07537842,9.806229,0.028020602,0.08647751,-0.0066223145,-0.02142334,-0.004760742,-32.398987,-40.13977,24.119568,0,0.0,0.0,0.0,0.0
0.605957032,-0.008889883,0.51464695,0.8573561,-0.0019558154,-0.85739726,0.51465136,0.9999586,0.0028983601,0.008628716,-0.11060981,0.7185484,0.6866248,-0.11093145,-0.6954729,0.70993775,0.9876536,0.002357796,0.15663575,10.030716,0.028717041,0.07537842,9.806244,0.028423203,0.0846188,-0.01411438,-0.022033691,-7.9345703E-4,-32.339478,-40.13977,23.75946,0,0.0,0.0,0.0,0.0
0.614257813,-0.008712246,0.51454216,0.8574208,-0.0018198832,-0.85746,0.51454717,0.9999603,0.0029224562,0.0084068095,-0.107679136,0.7113188,0.6945724,-0.105627894,-0.70286554,0.7034364,0.9885586,0.002379202,0.15081906,10.042679,0.03111267,0.0657959,9.806261,0.028659506,0.08244264,-0.006011963,-0.027069092,1.373291E-4,-32.339478,-40.13977,23.75946,0,0.0,0.0,0.0,0.0
0.622558594,-0.008508357,0.5089075,0.86077917,-0.001633679,-0.86081624,0.5089132,0.99996245,0.0029237787,0.008155523,-0.10621855,0.7077828,0.69839895,-0.103076495,-0.706426,0.70024097,0.9889858,0.002390067,0.14799133,10.042679,0.03111267,0.0657959,9.806282,0.028672475,0.07997836,-6.713867E-4,-0.031951904,0.003189087,-32.159424,-40.319824,23.519897,0,0.0,0.0,0.0,0.0
0.630859375,-0.008294998,0.50540376,0.86284316,-0.001480784,-0.8628781,0.50541,0.9999645,0.0029146906,0.007905966,-0.10333547,0.7006858,0.705947,-0.09813938,-0.71346587,0.69378316,0.98979306,0.0024112023,0.1424912,10.021133,-0.015548706,0.04307556,9.806302,0.028583352,0.07753104,9.1552734E-5,-0.01789856,-0.0044555664,-32.458496,-40.379333,23.339844,0,0.0,0.0,0.0,0.0
0.639160157,-0.008083625,0.50527763,0.862919,-0.0014044472,-0.862952,0.5052839,0.9999663,0.0028726007,0.0076854164,-0.101908356,0.6971599,0.7096357,-0.095756486,-0.7169116,0.69055665,0.9901744,0.002421272,0.13981687,10.021133,-0.015548706,0.04307556,9.80632,0.028170591,0.07536819,-0.001739502,-0.013320923,-0.007507324,-32.458496,-40.379333,23.339844,0,0.0,0.0,0.0,0.0
0.647460938,-0.007972329,0.5052113,0.86295885,-0.001353191,-0.862991,0.5052176,0.99996734,0.0028600125,0.007563695,-0.09907058,0.69026536,0.7167417,-0.0911725,-0.72355217,0.68422204,0.9908948,0.0024391448,0.13461596,10.071396,-0.011962891,0.061019897,9.80633,0.028047143,0.07417451,-0.012741089,-0.0023345947,-0.005218506,-32.458496,-40.379333,23.339844,0,0.0,0.0,0.0,0.0
0.655761719,-0.007927273,0.50730747,0.8617287,-0.0013361389,-0.86176044,0.50731385,0.9999677,0.0028702258,0.0075092427,-0.09626547,0.68358225,0.72349715,-0.08682415,-0.7298693,0.6780504,0.9915616,0.0024558108,0.12961267,10.034302,0.0023956299,0.062210083,9.806334,0.0281473,0.07364052,-0.0066223145,0.0042419434,-0.0044555664,-32.759094,-40.25879,23.399353,0,0.0,0.0,0.0,0.0
0.6640625,-0.007933214,0.507311,0.8617265,-0.0013380733,-0.86175823,0.50731736,0.99996763,0.002871604,0.007515332,-0.09487346,0.6803555,0.72671556,-0.08473933,-0.73287815,0.6750622,0.9918761,0.002464099,0.12718354,10.034302,0.0023956299,0.062210083,9.806333,0.028160816,0.073700234,-0.0118255615,0.007293701,-7.9345703E-4,-32.759094,-40.25879,23.399353,0,0.0,0.0,0.0,0.0
0.672363282,-0.007974238,0.5083369,0.8611213,-0.0013720205,-0.86115336,0.5083431,0.9999672,0.0028721734,0.007564491,-0.09212399,0.6740565,0.73291266,-0.08073262,-0.7386756,0.6692089,0.9924693,0.002480236,0.1224681,10.004395,0.007171631,0.06341553,9.806329,0.0281664,0.07418232,-0.005859375,0.015075684,-0.012084961,-33.1192,-40.25879,23.458862,0,0.0,0.0,0.0,0.0
0.680664063,-0.008070319,0.5093656,0.8605124,-0.0013946458,-0.86054534,0.509372,0.99996644,0.0029106848,0.0076552597,-0.08942165,0.66799545,0.7387732,-0.076938875,-0.7441612,0.66355455,0.99301773,0.0024957568,0.117938936,10.045074,0.007171631,0.06819153,9.806321,0.028544068,0.07507245,-0.012588501,0.010498047,-0.010559082,-33.1192,-40.25879,23.519897,0,0.0,0.0,0.0,0.0
0.688964844,-0.008179537,0.5094319,0.860472,-0.0013927536,-0.86050576,0.50943863,0.99996555,0.0029685476,0.0077480534,-0.08809019,0.6650573,0.74157864,-0.075118765,-0.7467881,0.66080606,0.993276,0.0025040554,0.11574299,10.045074,0.007171631,0.06819153,9.806313,0.029111508,0.07598245,-0.0037231445,0.011566162,-0.008880615,-33.1192,-40.25879,23.519897,0,0.0,0.0,0.0,0.0
0.697265625,-0.008274462,0.5094896,0.86043704,-0.0014222648,-0.8604716,0.50949633,0.9999647,0.002992039,0.007844568,-0.08547249,0.65932894,0.7469804,-0.07162032,-0.75185037,0.6554323,0.993763,0.002522449,0.11148388,10.074982,-0.0059814453,0.090927124,9.806305,0.029341882,0.07692894,-0.0074005127,0.011108398,-0.008575439,-33.1192,-40.25879,23.519897,0,0.0,0.0,0.0,0.0
0.705566407,-0.0083393995,0.5127538,0.85849524,-0.001502709,-0.8585306,0.5127603,0.9999641,0.002986044,0.007930148,-0.08291483,0.6537932,0.7521168,-0.06830306,-0.75666904,0.65022045,0.99421316,0.0025410445,0.107395165,10.063019,-0.022735596,0.098098755,9.806298,0.029283088,0.07776819,-0.005706787,0.0066833496,-0.0067443848,-33.239746,-40.019226,23.579407,0,0.0,0.0,0.0,0.0
0.713867188,-0.008401209,0.51279145,0.8584721,-0.0015539939,-0.8585081,0.5127977,0.9999635,0.0029740604,0.008009381,-0.08165411,0.6511529,0.75454116,-0.066715986,-0.7589422,0.6477312,0.99442524,0.0025499444,0.105413064,10.063019,-0.022735596,0.098098755,9.806293,0.02916557,0.0785452,-0.009231567,0.007446289,-0.006591797,-33.239746,-40.019226,23.579407,0,0.0,0.0,0.0,0.0
0.722167969,-0.008410701,0.5188203,0.854842,-0.0015836784,-0.85487807,0.5188266,0.99996334,0.0030098998,0.008011767,-0.079180144,0.64600897,0.75921196,-0.06366567,-0.76332545,0.64286923,0.9948252,0.0025667395,0.10156882,10.0247345,0.01675415,0.04307556,9.806291,0.029517034,0.07856859,-0.009063721,0.0030212402,-0.0032348633,-32.939148,-39.779663,23.81897,0,0.0,0.0,0.0,0.0
0.73046875,-0.008416911,0.52355665,0.8519492,-0.0016133536,-0.8519854,0.5235629,0.9999633,0.003032288,0.008015769,-0.07675203,0.6412548,0.7634798,-0.060790166,-0.7673237,0.63837206,0.99519527,0.0025842888,0.09787563,10.00798,0.025131226,0.059814453,9.806291,0.029736592,0.07860784,-0.009063721,0.0010375977,1.373291E-4,-33.059692,-39.779663,24.119568,0,0.0,0.0,0.0,0.0
0.738769532,-0.008411739,0.5235536,0.8519512,-0.0016122297,-0.85198736,0.5235599,0.99996334,0.003030508,0.008010784,-0.0755558,0.6390251,0.7654661,-0.059414856,-0.76918155,0.63626224,0.9953699,0.0025932488,0.09608371,10.00798,0.025131226,0.059814453,9.806291,0.029719133,0.07855896,-0.0107421875,0.00881958,-0.002456665,-33.059692,-39.779663,24.119568,0,0.0,0.0,0.0,0.0
0.747070313,-0.008422767,0.52356017,0.85194695,-0.0016642313,-0.8519833,0.52356607,0.99996316,0.0029920384,0.008047383,-0.073213026,0.6346832,0.7692965,-0.056767013,-0.7727681,0.63214475,0.9956994,0.0026105642,0.092605755,10.021133,-0.0023956299,0.04547119,9.806289,0.029341873,0.078917876,-0.0052490234,0.01675415,-0.0017089844,-33.059692,-39.779663,24.119568,0,0.0,0.0,0.0,0.0
0.755371094,-0.008553148,0.52426195,0.8515141,-0.001796569,-0.8515519,0.5242672,0.9999618,0.0029543308,0.008225322,-0.07093669,0.63049465,0.7729453,-0.054252274,-0.7761891,0.6281617,0.99600434,0.0026256705,0.08926606,10.057037,-0.01675415,0.1040802,9.806275,0.02897209,0.080662854,-0.013809204,0.017059326,-0.0058288574,-33.299255,-39.718628,24.119568,0,0.0,0.0,0.0,0.0
0.763671875,-0.008685218,0.52434194,0.85146344,-0.0018948207,-0.8515026,0.5243467,0.9999605,0.0029406957,0.008389021,-0.06982454,0.62846917,0.77469414,-0.053045604,-0.77783006,0.626232,0.99614793,0.0026322438,0.08764915,10.057037,-0.01675415,0.1040802,9.806263,0.028838374,0.08226819,-0.0118255615,0.007293701,-0.008270264,-33.299255,-39.718628,24.119568,0,0.0,0.0,0.0,0.0
0.771972657,-0.008743128,0.5304683,0.84765965,-0.002038381,-0.84769976,0.53047234,0.9999597,0.0029101344,0.008492844,-0.06765419,0.62452954,0.7780654,-0.050726276,-0.7809967,0.6224717,0.9964184,0.0026444586,0.084517755,10.054642,-0.033493042,0.1268158,9.806255,0.02853867,0.08328635,-0.002960205,-0.0052337646,0.0037994385,-32.87964,-39.65912,24.479675,0,0.0,0.0,0.0,0.0
0.780273438,-0.008747359,0.5304707,0.847658,-0.0021088189,-0.8476983,0.53047425,0.9999595,0.0028526923,0.008533791,-0.066587456,0.6227258,0.77960163,-0.049620833,-0.78243566,0.6207513,0.996546,0.0026497722,0.08300057,10.054642,-0.033493042,0.1268158,9.806253,0.027975354,0.0836879,-0.012893677,-0.010116577,-0.006286621,-32.87964,-39.65912,24.479675,0,0.0,0.0,0.0,0.0
0.788574219,-0.00870285,0.5275473,0.84948117,-0.0020522373,-0.849521,0.527551,0.99996,0.0028478596,0.008475904,-0.06450353,0.6192162,0.7825666,-0.047493126,-0.78521603,0.6173979,0.9967867,0.0026578077,0.08005772,10.018753,-0.011962891,0.090927124,9.806258,0.027927963,0.08312023,-0.007537842,-0.007675171,-0.011016846,-32.818604,-39.959717,24.479675,0,0.0,0.0,0.0,0.0
0.796875,-0.008628806,0.52750355,0.84950906,-0.0019555762,-0.84954804,0.52750784,0.9999609,0.002890483,0.008362157,-0.062489178,0.61572653,0.7854782,-0.045458004,-0.7879554,0.614052,0.9970098,0.0026653334,0.07722838,10.043869,0.007171631,0.053833008,9.806267,0.028345956,0.082004756,-0.008010864,-0.010726929,-0.0046081543,-32.818604,-39.959717,24.479675,0,0.0,0.0,0.0,0.0
0.805175782,-0.008541827,0.5273871,0.8495821,-0.0018762804,-0.84962004,0.5273918,0.9999618,0.0029108361,0.008246835,-0.061504688,0.6140287,0.7868837,-0.0444754,-0.7892792,0.6124217,0.9971154,0.0026698366,0.07585354,10.043869,0.007171631,0.053833008,9.806275,0.028545553,0.08087383,-0.009231567,-0.0069122314,-0.0058288574,-32.398987,-39.959717,24.479675,0,0.0,0.0,0.0,0.0
0.813476563,-0.0084394775,0.52732754,0.8496202,-0.0018449363,-0.8496572,0.5273321,0.9999626,0.0028829128,0.008143548,-0.059579942,0.6107217,0.7896007,-0.04257747,-0.79184073,0.60924166,0.9973151,0.0026793804,0.07318082,10.016357,-0.017944336,0.051452637,9.806284,0.028271716,0.079860926,-0.012893677,-0.00920105,-0.0027770996,-32.398987,-39.959717,24.479675,0,0.0,0.0,0.0,0.0
0.821777344,-0.00839096,0.51958984,0.85437465,-0.001754035,-0.85441107,0.5195947,0.9999632,0.0028612958,0.008080708,-0.05771341,0.6075334,0.7921946,-0.040768635,-0.7942896,0.60616994,0.99750036,0.00268744,0.07060947,10.041473,0.0035858154,0.08973694,9.80629,0.028059728,0.07924467,-0.00982666,-0.01423645,5.950928E-4,-32.398987,-40.379333,24.238586,0,0.0,0.0,0.0,0.0
0.830078125,-0.008298579,0.51953596,0.8544083,-0.0017258946,-0.85444397,0.51954085,0.9999641,0.0028368314,0.007987333,-0.05680895,0.60583884,0.79355663,-0.03988603,-0.79558283,0.6045304,0.997588,0.0026909173,0.069360726,10.041473,0.0035858154,0.08973694,9.806298,0.027819814,0.07832899,-0.0040283203,-0.013168335,-0.0073547363,-32.398987,-40.379333,24.238586,0,0.0,0.0,0.0,0.0
0.838378907,-0.0082259355,0.5240293,0.85166055,-0.0017202792,-0.85169554,0.52403426,0.9999647,0.002845578,0.007907469,-0.05504029,0.6025409,0.79618776,-0.038183212,-0.79808336,0.60133594,0.9977538,0.0026966955,0.06693369,10.064209,0.007171631,0.090927124,9.806304,0.027905587,0.07754578,-0.0074005127,-0.011642456,-0.0046081543,-32.218933,-39.89868,24.238586,0,0.0,0.0,0.0,0.0
0.846679688,-0.008169686,0.5239965,0.8516813,-0.0016001854,-0.8517155,0.5240022,0.99996537,0.002918085,0.0077967397,-0.053319227,0.5995308,0.7985736,-0.03657111,-0.8003471,0.5984205,0.99790764,0.0027025912,0.064599395,10.041473,0.049057007,0.07298279,9.806311,0.02861664,0.0764599,-0.00982666,-0.017288208,-0.003540039,-32.218933,-39.89868,24.238586,0,0.0,0.0,0.0,0.0
0.854980469,-0.008080253,0.5199716,0.85414535,-0.0014414263,-0.85417837,0.5199781,0.9999663,0.002970367,0.007651478,-0.05247928,0.5980673,0.7997259,-0.035791393,-0.8014414,0.59700143,0.9979804,0.0027069012,0.06346472,10.041473,0.049057007,0.07298279,9.806319,0.029129349,0.07503536,-0.007537842,-0.019424438,0.0010528564,-32.099915,-40.019226,24.058533,0,0.0,0.0,0.0,0.0
0.86328125,-0.007930338,0.51988417,0.85419995,-0.0013516103,-0.8542316,0.5198909,0.99996763,0.0029683653,0.0074770264,-0.050844744,0.59507114,0.80206305,-0.03427286,-0.80366844,0.5940895,0.9981183,0.0027173345,0.0612571,10.025925,0.01675415,0.0657959,9.806333,0.02910972,0.07332458,-0.007232666,-0.019424438,-0.0030822754,-32.099915,-40.019226,24.058533,0,0.0,0.0,0.0,0.0
0.871582032,-0.007694766,0.52182335,0.8530189,-0.001223811,-0.85304844,0.5218304,0.99996966,0.0029714287,0.0072026206,-0.049259383,0.59218246,0.8042969,-0.03282213,-0.8057993,0.59127843,0.9982466,0.0027272752,0.059129868,9.996017,0.01675415,-0.007171631,9.806353,0.02913976,0.07063358,-0.008148193,-0.014846802,-0.0014038086,-31.91986,-39.89868,24.119568,0,0.0,0.0,0.0,0.0
0.879882813,-0.0074952547,0.52170753,0.8530914,-0.0011018291,-0.8531192,0.52171487,0.99997133,0.0029704252,0.006969179,-0.048480906,0.59081525,0.805349,-0.03212153,-0.8068022,0.5899477,0.99830747,0.0027321584,0.05809239,9.996017,0.01675415,-0.007171631,9.806369,0.02912992,0.0683443,-0.012130737,-0.0066070557,-0.0015411377,-31.91986,-39.89868,24.119568,0,0.0,0.0,0.0,0.0
0.888183594,-0.0073310724,0.52717674,0.8497241,-0.0011395013,-0.84975076,0.5271834,0.99997246,0.002896558,0.0068303025,-0.046956588,0.5881535,0.8073851,-0.030764231,-0.8087447,0.5873548,0.9984231,0.0027415939,0.056069978,10.063019,-0.047851563,0.023925781,9.80638,0.028405532,0.06698239,-0.007080078,-0.0069122314,-0.008575439,-31.739807,-39.89868,24.479675,0,0.0,0.0,0.0,0.0
0.896484375,-0.0072578187,0.5271348,0.84975064,-0.0010851973,-0.8497767,0.5271417,0.99997306,0.0029037516,0.0067395703,-0.04547082,0.58579683,0.80918133,-0.029480994,-0.8104533,0.58506095,0.99853057,0.0027477308,0.05412185,10.047455,-0.010772705,0.039474487,9.806386,0.028476076,0.06609261,-0.013504028,8.8500977E-4,-0.008117676,-31.739807,-39.89868,24.479675,0,0.0,0.0,0.0,0.0
0.904785157,-0.007224391,0.5195973,0.8543807,-9.7781E-4,-0.8544063,0.51960456,0.9999734,0.0029184048,0.006680633,-0.044746187,0.5846512,0.81004983,-0.028860515,-0.81128013,0.5839449,0.99858147,0.0027508512,0.05317503,10.047455,-0.010772705,0.039474487,9.80639,0.028619776,0.06551463,-0.010604858,0.0013427734,-0.009796143,-31.739807,-40.19928,24.179077,0,0.0,0.0,0.0,0.0
0.913085938,-0.00716141,0.5195612,0.8544033,-9.792892E-4,-0.8544284,0.51956826,0.99997383,0.0028841333,0.0066277124,-0.04334334,0.58214027,0.8119323,-0.027645446,-0.8130837,0.58149,0.9986777,0.0027574864,0.051335286,10.042679,-0.032302856,0.023925781,9.806395,0.02828369,0.06499566,-0.0054016113,4.119873E-4,-0.0041503906,-31.739807,-40.19928,24.179077,0,0.0,0.0,0.0,0.0
0.921386719,-0.007158064,0.52471226,0.8512496,-0.0010658056,-0.8512749,0.52471894,0.99997383,0.0028487048,0.006652721,-0.04198676,0.5797222,0.8137317,-0.026486635,-0.8148095,0.57912344,0.998767,0.0027625016,0.0495661,10.031906,-0.023925781,0.071777344,9.806394,0.027936252,0.06524091,-0.008453369,0.0037841797,-0.0058288574,-31.739807,-39.65912,24.179077,0,0.0,0.0,0.0,0.0
0.9296875,-0.007174224,0.52472156,0.8512437,-0.00110455,-0.85126925,0.524728,0.99997365,0.0028242753,0.0066867773,-0.041323204,0.5786459,0.8145314,-0.025933344,-0.8155742,0.57807106,0.9988092,0.0027642257,0.04870836,10.031906,-0.023925781,0.071777344,9.806392,0.02769668,0.065574884,-0.0074005127,0.0014953613,-0.007507324,-31.739807,-39.65912,24.179077,0,0.0,0.0,0.0,0.0
0.937988282,-0.007145339,0.53553754,0.8444811,-0.0012006683,-0.8445066,0.53554356,0.9999737,0.002812699,0.00667729,-0.04003225,0.576555,0.81607705,-0.024866497,-0.8170537,0.5760251,0.9988889,0.0027666036,0.0470454,10.031906,-0.01914978,0.041870117,9.806393,0.027583156,0.06548185,7.019043E-4,0.0071411133,-0.0033874512,-31.739807,-39.118958,24.539185,0,0.0,0.0,0.0,0.0
0.946289063,-0.0071525257,0.5355417,0.8444785,-0.0012521681,-0.84450424,0.53554744,0.99997365,0.0027730877,0.0067109265,-0.03877491,0.5749568,0.81726444,-0.02386805,-0.81817913,0.57446784,0.9989629,0.0027684288,0.04544792,10.061813,0.0011901855,0.049057007,9.806392,0.027194701,0.06581171,-0.009994507,0.0054626465,-0.0015411377,-31.739807,-39.118958,24.539185,0,0.0,0.0,0.0,0.0
0.954589844,-0.0071579916,0.54368,0.83926207,-0.0013485227,-0.83928806,0.5436853,0.9999734,0.0027599311,0.0067407815,-0.03816368,0.5741809,0.8178385,-0.023386532,-0.8187238,0.5737111,0.9989978,0.002768522,0.044673614,10.061813,0.0011901855,0.049057007,9.80639,0.02706568,0.06610449,-0.0034179688,0.007751465,-0.003540039,-31.199646,-38.938904,24.958801,0,0.0,0.0,0.0,0.0
0.962890625,-0.007205129,0.5437065,0.83924454,-0.0014076505,-0.839271,0.54371154,0.99997306,0.0027361487,0.0068124044,-0.03696711,0.5729876,0.8187299,-0.022470742,-0.8195594,0.5725535,0.99906385,0.0027681815,0.0431722,10.052246,-0.015548706,0.07417297,9.806386,0.026832452,0.06680687,-0.0063171387,0.010803223,-0.010253906,-31.199646,-38.938904,24.958801,0,0.0,0.0,0.0,0.0
0.971191407,-0.00726166,0.54312855,0.83961815,-0.0013910115,-0.83964497,0.54313385,0.99997264,0.0027761348,0.0068527143,-0.035817172,0.5718414,0.8195819,-0.021596935,-0.82035947,0.57144016,0.999125,0.0027669128,0.041732978,10.045074,0.007171631,0.039474487,9.806382,0.027224582,0.06720217,-0.007537842,0.008972168,-0.009338379,-31.13861,-38.99994,24.958801,0,0.0,0.0,0.0,0.0
0.979492188,-0.0073213964,0.5431621,0.839596,-0.0013725052,-0.8396232,0.5431677,0.9999723,0.002824396,0.006892706,-0.035259977,0.5712737,0.8200019,-0.021173606,-0.82075495,0.5708879,0.99915385,0.0027670972,0.041035727,10.045074,0.007171631,0.039474487,9.806378,0.027697863,0.06759436,-0.0064697266,0.008514404,-0.0068969727,-31.13861,-38.99994,24.958801,0,0.0,0.0,0.0,0.0
0.987792969,-0.0074106194,0.54657894,0.83737475,-0.001384709,-0.8374026,0.5465848,0.99997157,0.002891012,0.0069625247,-0.034179565,0.5701729,0.8208135,-0.020353837,-0.8215201,0.56981623,0.99920845,0.0027693664,0.039684404,10.0247345,0.026321411,0.0765686,9.806372,0.028351143,0.06827904,-0.008148193,0.0071411133,-0.0046081543,-31.3797,-38.938904,25.138855,0,0.0,0.0,0.0,0.0
0.99609375,-0.0074247457,0.54658693,0.8373695,-0.0013640616,-0.83739734,0.546593,0.9999715,0.00291609,0.0069630397,-0.03314044,0.56924725,0.8214982,-0.01957398,-0.82216173,0.5689174,0.999259,0.0027741834,0.038389232,10.030716,0.009567261,0.032302856,9.806371,0.028597074,0.068284094,-0.005859375,0.009277344,-0.0027770996,-31.3797,-38.938904,25.138855,0,0.0,0.0,0.0,0.0
1.004394532,-0.0074477326,0.5439335,0.8390953,-0.001345471,-0.8391232,0.54393965,0.99997133,0.002922139,0.006981412,-0.032636054,0.56879807,0.8218294,-0.019196138,-0.8224725,0.56848085,0.9992829,0.0027770214,0.037760984,10.030716,0.009567261,0.032302856,9.806369,0.028656395,0.068464264,-0.008926392,0.012481689,-0.0058288574,-31.439209,-39.118958,25.079346,0,0.0,0.0,0.0,0.0
1.012695313,-0.007538374,0.54398465,0.8390613,-0.0013959289,-0.83909005,0.5439908,0.9999706,0.0029295357,0.0070847385,-0.03165926,0.56782305,0.82254153,-0.018460833,-0.82314587,0.5675297,0.9993282,0.002782768,0.036542676,10.02832,0.0011901855,0.058624268,9.806362,0.028728932,0.06947755,-0.01335144,0.026992798,-0.0056762695,-31.439209,-39.118958,25.079346,0,0.0,0.0,0.0,0.0
1.020996094,-0.0076923794,0.54157996,0.84061396,-0.0014551082,-0.840644,0.54158604,0.99996936,0.002942901,0.0072546112,-0.030722868,0.56688774,0.823222,-0.017758882,-0.8237903,0.56661636,0.99937016,0.0027885798,0.035376493,10.046265,0.0035858154,0.056228638,9.80635,0.028860003,0.07114343,-0.011978149,0.03477478,-0.0027770996,-31.318665,-38.99994,24.839783,0,0.0,0.0,0.0,0.0
1.029296875,-0.007877897,0.5416848,0.84054476,-0.0015797087,-0.84057647,0.54169047,0.9999677,0.002939566,0.0074776793,-0.03027201,0.5663866,0.82358354,-0.017419111,-0.82413495,0.5661256,0.99938995,0.0027916662,0.034814175,10.046265,0.0035858154,0.056228638,9.806334,0.028827297,0.07333098,-0.005554199,0.030807495,-0.006286621,-31.318665,-38.99994,24.839783,0,0.0,0.0,0.0,0.0
1.037597657,-0.008085127,0.54784936,0.83653784,-0.0017780766,-0.8365718,0.5478544,0.9999658,0.0029420443,0.007737908,-0.02940328,0.5654175,0.8242806,-0.016766742,-0.82480013,0.5651758,0.99942696,0.0027975233,0.033732034,10.035492,0.0011901855,0.09451294,9.806314,0.028851599,0.07588296,-0.010910034,0.017364502,-0.008270264,-31.439209,-38.75885,25.079346,0,0.0,0.0,0.0,0.0
1.045898438,-0.008258584,0.54794747,0.836472,-0.0019002296,-0.83650756,0.54795206,0.9999641,0.002935819,0.007949594,-0.028571354,0.5647265,0.8247834,-0.016156178,-0.8252734,0.56450224,0.9994612,0.0028032463,0.032702997,10.013962,-0.015548706,0.112457275,9.806298,0.02879055,0.07795889,-0.005554199,0.010345459,-0.008575439,-31.439209,-38.75885,25.079346,0,0.0,0.0,0.0,0.0
1.054199219,-0.008406211,0.54054815,0.8412711,-0.0019089719,-0.841308,0.54055274,0.99996287,0.0029380377,0.008104104,-0.028170826,0.56439316,0.8250253,-0.015863076,-0.8255014,0.5641772,0.99947727,0.0028058977,0.032208066,10.013962,-0.015548706,0.112457275,9.806286,0.028812308,0.07947411,-0.007232666,0.010345459,-0.0113220215,-31.3797,-39.239502,24.899292,0,0.0,0.0,0.0,0.0
1.0625,-0.008480653,0.54059005,0.84124345,-0.001936991,-0.841281,0.54059464,0.99996215,0.0029551145,0.00818173,-0.027403416,0.5634575,0.82569045,-0.015289065,-0.8261403,0.56325704,0.99950755,0.0028111306,0.031253804,10.046265,-0.017944336,0.08135986,9.806279,0.028979775,0.08023537,-0.004333496,0.0036315918,-0.009338379,-31.3797,-39.239502,24.899292,0,0.0,0.0,0.0,0.0
1.070800782,-0.008537603,0.5415275,0.84063977,-0.0019715102,-0.84067786,0.54153204,0.99996156,0.002966055,0.008245,-0.026668077,0.5625597,0.8263264,-0.014740653,-0.8267518,0.56237364,0.9995356,0.0028168326,0.03034038,10.065414,-0.021530151,0.093322754,9.806273,0.029087063,0.080855824,-0.013046265,-0.009811401,-0.0053710938,-31.3797,-39.239502,24.958801,0,0.0,0.0,0.0,0.0
1.079101563,-0.0085266875,0.5415213,0.8406438,-0.0019789601,-0.84068185,0.5415258,0.9999617,0.0029538206,0.008239881,-0.026311899,0.56214255,0.82662165,-0.014476396,-0.82703555,0.5619632,0.9995489,0.002819817,0.029898673,10.065414,-0.021530151,0.093322754,9.806274,0.028967086,0.08080563,-0.009063721,-0.01637268,-0.0072021484,-31.3797,-39.239502,24.958801,0,0.0,0.0,0.0,0.0
1.087402344,-0.008462346,0.53409785,0.84538025,-0.0018591615,-0.84541744,0.5341028,0.99996245,0.0029480646,0.00814719,-0.025962338,0.56173354,0.82691073,-0.014217896,-0.8273134,0.5615607,0.9995618,0.002822497,0.029465659,10.083359,-0.010772705,0.09451294,9.806282,0.028910639,0.079896644,-0.005859375,-0.019424438,-0.0058288574,-31.97937,-39.538574,24.659729,0,0.0,0.0,0.0,0.0
1.095703125,-0.00832751,0.5340203,0.8454307,-0.0017873566,-0.84546655,0.5340254,0.9999637,0.0029360156,0.007995116,-0.025284769,0.5606506,0.8276664,-0.013706483,-0.8280477,0.5604902,0.99958634,0.0028274695,0.028621541,10.083359,-0.010772705,0.09451294,9.806294,0.028792478,0.078405306,-0.009063721,-0.023712158,-0.0043029785,-31.97937,-39.538574,24.659729,0,0.0,0.0,0.0,0.0
1.104003907,-0.008181611,0.5342573,0.8452824,-0.0016703792,-0.84531677,0.53426284,0.9999651,0.0029591885,0.007808464,-0.024627682,0.5596068,0.82839227,-0.01321401,-0.8287534,0.5594579,0.99960935,0.002831768,0.027804926,10.031906,0.01914978,0.08494568,9.806308,0.029019726,0.07657488,-0.007843018,-0.024017334,-0.0067443848,-31.97937,-39.59961,24.719238,0,0.0,0.0,0.0,0.0
1.112304688,-0.008040098,0.53417593,0.84533507,-0.0015418697,-0.84536797,0.5341821,0.99996644,0.0029914796,0.0076204706,-0.024305554,0.5591048,0.82874066,-0.012973361,-0.82909214,0.5589614,0.99962044,0.0028343163,0.027405014,10.012772,-0.007171631,0.061019897,9.806321,0.029336393,0.07473129,-0.007843018,-0.024475098,-0.0067443848,-31.97937,-39.59961,24.719238,0,0.0,0.0,0.0,0.0
1.120605469,-0.007879709,0.5340837,0.8453949,-0.0013969166,-0.8454262,0.53409046,0.999968,0.0030275309,0.007407782,-0.023674417,0.5581267,0.82941794,-0.01250231,-0.8297509,0.5579939,0.99964154,0.00284054,0.02662174,10.013962,0.010772705,0.047851563,9.806336,0.029689936,0.07264553,-0.00831604,-0.013931274,-0.013153076,-31.97937,-39.59961,24.719238,0,0.0,0.0,0.0,0.0
1.12890625,-0.007794103,0.5292986,0.8483998,-0.0012615533,-0.84843016,0.529306,0.9999689,0.003055163,0.0072804894,-0.023061033,0.5571831,0.8300694,-0.012045305,-0.8303848,0.5570602,0.9996615,0.0028479444,0.025860973,10.059433,-0.009567261,0.07417297,9.806345,0.029960915,0.071397215,-0.010910034,-0.019119263,-0.008117676,-31.91986,-39.89868,24.598694,0,0.0,0.0,0.0,0.0
1.137207032,-0.007695011,0.5294517,0.8483051,-0.0011772097,-0.8483344,0.52945936,0.99996966,0.0030755627,0.0071512186,-0.022762667,0.5566314,0.83044773,-0.0118196905,-0.83075476,0.5565132,0.99967104,0.0028520888,0.025489403,10.065414,-0.022735596,0.08375549,9.806353,0.030160967,0.0701295,-0.008148193,-0.018981934,-0.0056762695,-31.799316,-39.779663,24.539185,0,0.0,0.0,0.0,0.0
1.145507813,-0.00754849,0.5293677,0.8483588,-0.0011143992,-0.84838694,0.5293753,0.9999709,0.0030505743,0.006993968,-0.022179,0.5555659,0.83117664,-0.011379695,-0.83146757,0.5554567,0.9996892,0.0028609382,0.02476329,10.019943,-0.025131226,0.0657959,9.806365,0.029915916,0.0685874,-0.0026550293,-0.025238037,-0.0053710938,-31.799316,-39.779663,24.539185,0,0.0,0.0,0.0,0.0
1.153808594,-0.0073499936,0.5253323,0.8508654,-9.922213E-4,-0.85089177,0.52533996,0.99997246,0.003016999,0.0067752954,-0.02161182,0.5545386,0.8318773,-0.010955898,-0.8321531,0.5544378,0.9997064,0.0028684475,0.024059812,10.019943,-0.025131226,0.0657959,9.80638,0.029586654,0.06644295,-0.008010864,-0.02645874,-0.007507324,-31.799316,-39.89868,24.35913,0,0.0,0.0,0.0,0.0
1.162109375,-0.007093321,0.5251847,0.85095865,-8.1250165E-4,-0.8509828,0.5251928,0.9999745,0.0030339565,0.0064630085,-0.021333346,0.5539609,0.8322693,-0.010746948,-0.8325378,0.55386406,0.9997147,0.0028714184,0.023714205,10.051056,0.0059814453,0.0011901855,9.8064,0.02975295,0.063380465,-0.009231567,-0.023254395,-0.006134033,-31.799316,-39.89868,24.35913,0,0.0,0.0,0.0,0.0
1.170410157,-0.006828845,0.5250325,0.8510547,-5.923824E-4,-0.8510765,0.5250412,0.99997646,0.003081275,0.0061228895,-0.020782415,0.55283356,0.8330325,-0.010335141,-0.83328676,0.55274445,0.99973065,0.002877855,0.023031324,9.996017,0.03111267,-0.039474487,9.80642,0.030216988,0.06004504,-0.01335144,-0.016983032,-0.0039978027,-31.799316,-39.89868,24.35913,0,0.0,0.0,0.0,0.0
1.178710938,-0.006654058,0.5276993,0.8494052,-5.0222035E-4,-0.8494257,0.52770805,0.9999777,0.0030848114,0.0059171487,-0.020242065,0.5517439,0.8337679,-0.009931864,-0.8340086,0.5516621,0.9997458,0.0028859107,0.0223619,10.004395,0.008377075,0.0143585205,9.806432,0.030251667,0.05802741,-0.011047363,-0.0053863525,-0.008728027,-31.678772,-39.89868,24.539185,0,0.0,0.0,0.0,0.0
1.187011719,-0.006548484,0.53387946,0.8455352,-4.6669343E-4,-0.84555495,0.5338883,0.9999785,0.0031015535,0.0057862615,-0.019975597,0.5512674,0.83408946,-0.009735695,-0.83432364,0.551189,0.99975306,0.0028898886,0.022033084,10.061813,-0.0059814453,0.032302856,9.806439,0.03041585,0.05674384,-0.007843018,-0.004776001,-0.006439209,-31.739807,-39.538574,24.719238,0,0.0,0.0,0.0,0.0
1.1953125,-0.006391911,0.53378993,0.84559304,-3.8667792E-4,-0.8456116,0.5337987,0.9999795,0.0030850212,0.005611478,-0.019451158,0.55058354,0.8345534,-0.009358081,-0.8347751,0.55051166,0.99976707,0.0028982707,0.021389747,10.010376,-0.009567261,-0.047851563,9.806449,0.030253723,0.055029802,-0.00982666,-9.460449E-4,-9.3078613E-4,-31.739807,-39.538574,24.719238,0,0.0,0.0,0.0,0.0
1.203613282,-0.0062868143,0.5355609,0.8444732,-3.7394138E-4,-0.84449106,0.5355695,0.99998015,0.0030512426,0.0055094273,-0.018940937,0.5499228,0.83500063,-0.008992976,-0.83521044,0.5498569,0.9997801,0.0029056657,0.02076511,10.010376,-0.009567261,-0.047851563,9.806456,0.029922469,0.054029025,-0.00982666,0.028671265,-0.004760742,-31.619263,-39.538574,24.839783,0,0.0,0.0,0.0,0.0
1.211914063,-0.0063537355,0.535599,0.84444857,-4.0998124E-4,-0.844467,0.5356076,0.9999798,0.0030569006,0.0055851047,-0.01869083,0.5496372,0.83519435,-0.008816416,-0.83539844,0.5495742,0.99978644,0.0029085772,0.020460121,10.04985,0.010772705,-0.0143585205,9.806452,0.029977955,0.05477117,9.1552734E-5,0.034469604,-0.004760742,-31.619263,-39.538574,24.839783,0,0.0,0.0,0.0,0.0
1.220214844,-0.0065522306,0.53571177,0.84437543,-4.8067095E-4,-0.84439516,0.5357205,0.9999784,0.0031042981,0.0057901735,-0.018207628,0.5490842,0.83556867,-0.008475688,-0.835762,0.5490265,0.9997983,0.0029144508,0.01987111,10.033112,0.037094116,0.010772705,9.806438,0.030442767,0.056782205,-6.1035156E-5,0.037368774,-0.0046081543,-31.619263,-39.538574,24.839783,0,0.0,0.0,0.0,0.0
1.228515625,-0.006787179,0.5376218,0.84315884,-6.298537E-4,-0.84318036,0.53763044,0.99997675,0.0031179274,0.006061439,-0.017751029,0.5485574,0.8359245,-0.008152115,-0.8361078,0.54850465,0.9998092,0.0029219685,0.019313678,9.98645,0.015548706,0.032302856,9.806422,0.030576423,0.059442412,0.002380371,0.04272461,-9.3078613E-4,-31.318665,-39.538574,24.958801,0,0.0,0.0,0.0,0.0
1.236816407,-0.0070423414,0.5439309,0.8391005,-8.4043667E-4,-0.83912426,0.54393923,0.9999749,0.0031253952,0.006366539,-0.017533641,0.54833955,0.83607197,-0.00799885,-0.8362507,0.548289,0.9998143,0.0029258877,0.019048605,10.012772,-0.013153076,0.022735596,9.806404,0.030649658,0.06243442,-0.0020446777,0.048675537,-0.007507324,-30.839539,-39.179993,25.138855,0,0.0,0.0,0.0,0.0
1.245117188,-0.0073120864,0.5440798,0.83900166,-0.0010341846,-0.8390278,0.5440877,0.99997276,0.0031107336,0.0066977222,-0.017119678,0.54816544,0.8361947,-0.007713314,-0.8363648,0.548119,0.9998237,0.0029337883,0.018546468,10.022339,0.0059814453,0.07417297,9.806383,0.030505875,0.06568222,7.019043E-4,0.050811768,-0.0072021484,-30.839539,-39.179993,25.138855,0,0.0,0.0,0.0,0.0
1.253417969,-0.0077076345,0.54429805,0.8388566,-0.0012926417,-0.83888626,0.5443054,0.9999695,0.003110966,0.00716941,-0.016924188,0.5480839,0.83625215,-0.007578806,-0.8364183,0.5480394,0.9998281,0.0029373271,0.01830952,10.046265,-0.011962891,0.119644165,9.806351,0.030508155,0.070307896,0.0017700195,0.04547119,-0.006134033,-30.839539,-39.179993,25.138855,1,0.0,0.0,0.0,0.0
1.26171875,-0.008036757,0.5454269,0.8381198,-0.0015501059,-0.8381526,0.5454334,0.99996644,0.0030843418,0.007581499,-0.016560316,0.54793406,0.83635753,-0.007328299,-0.8365163,0.5478929,0.99983597,0.002944203,0.0178684,10.060623,-0.028717041,0.110076904,9.806322,0.030247062,0.07434911,-3.6621094E-4,0.03614807,-0.0070495605,-31.019592,-39.179993,25.19989,1,0.0,0.0,0.0,0.0
1.270019532,-0.008310234,0.5455783,0.8380186,-0.0017540315,-0.8380542,0.5455841,0.99996394,0.003064021,0.007921389,-0.016223416,0.54783493,0.8364291,-0.007098491,-0.83658123,0.5477969,0.9998432,0.0029497526,0.017461007,10.060623,-0.028717041,0.110076904,9.806296,0.030047782,0.077682294,-0.013504028,0.021652222,-0.012237549,-31.019592,-39.179993,25.19989,1,0.0,0.0,0.0,0.0
1.278320313,-0.008535755,0.5424066,0.84007263,-0.0018824125,-0.8401105,0.5424119,0.9999618,0.0030485324,0.008192011,-0.016065411,0.54778963,0.83646184,-0.006991161,-0.8366109,0.547753,0.9998465,0.002952038,0.017270185,10.060623,-0.039474487,0.13279724,9.806275,0.02989589,0.08033619,-0.0077056885,0.014465332,-0.012084961,-31.079102,-39.239502,25.019836,1,0.0,0.0,0.0,0.0
1.286621094,-0.008680111,0.54396254,0.83906466,-0.0019513725,-0.8391039,0.5439678,0.9999604,0.003084373,0.008344987,-0.015768493,0.5475768,0.83660686,-0.0067870156,-0.8367502,0.5475427,0.99985266,0.0029558593,0.016910702,10.037888,-0.0059814453,0.102890015,9.806262,0.030247366,0.08183637,-0.0069274902,0.010040283,-0.009338379,-31.019592,-39.179993,25.079346,1,0.0,0.0,0.0,0.0
1.294921875,-0.008793772,0.54402554,0.8390226,-0.001963404,-0.8390628,0.5440311,0.99995947,0.003136745,0.008446669,-0.015488468,0.5474339,0.8367055,-0.006594284,-0.8368436,0.54740226,0.99985826,0.0029609485,0.016571362,10.021133,0.020339966,0.107681274,9.8062525,0.03076096,0.08283353,-0.002960205,4.119873E-4,-0.006439209,-31.019592,-39.179993,25.079346,1,0.0,0.0,0.0,0.0
1.303222657,-0.00882569,0.54404324,0.8390107,-0.0019854296,-0.83905125,0.5440486,0.99995905,0.0031358078,0.008485366,-0.015354873,0.54736584,0.8367525,-0.006501085,-0.83688813,0.54733527,0.99986094,0.0029644645,0.016408782,10.039093,0.0,0.112457275,9.806249,0.03075177,0.08321301,-0.002960205,-0.006149292,-7.9345703E-4,-31.019592,-39.179993,25.079346,1,0.0,0.0,0.0,0.0
1.311523438,-0.008757315,0.537131,0.8434534,-0.001922962,-0.8434932,0.5371364,0.99995977,0.003081943,0.008419617,-0.015097039,0.5472344,0.83684325,-0.006321303,-0.83697414,0.547206,0.99986607,0.0029712496,0.016095066,10.061813,-0.01914978,0.086135864,9.806256,0.030223537,0.08256824,-0.002960205,-0.016067505,-0.002456665,-31.259155,-39.419556,24.778748,1,0.0,0.0,0.0,0.0
1.319824219,-0.0086410325,0.5370657,0.8434962,-0.0018811089,-0.84353495,0.5370711,0.9999609,0.0030541404,0.008299291,-0.014847976,0.5468361,0.837108,-0.0061442284,-0.83723444,0.5468096,0.9998709,0.002975633,0.015791124,10.057037,-0.009567261,0.086135864,9.806267,0.029950887,0.08138824,-0.013046265,-0.017440796,-0.007965088,-31.259155,-39.419556,24.778748,1,0.0,0.0,0.0,0.0
1.328125,-0.008538514,0.5296419,0.8481783,-0.0017296318,-0.8482159,0.52964795,0.9999621,0.00305537,0.008158589,-0.014724806,0.5466414,0.8372374,-0.006057554,-0.8373616,0.5466159,0.9998733,0.002977203,0.015641296,10.057037,-0.009567261,0.086135864,9.806278,0.029962944,0.080008425,-0.013046265,-0.019119263,-0.007965088,-31.3797,-39.89868,24.598694,1,0.0,0.0,0.0,0.0
1.336425782,-0.008390176,0.5316648,0.84691334,-0.001702755,-0.8469495,0.53167063,0.99996334,0.0030187245,0.00801135,-0.014482981,0.5459724,0.83767796,-0.0058813393,-0.8377978,0.5459489,0.9998778,0.0029802984,0.015344858,10.031906,-0.017944336,0.08135986,9.806291,0.029603574,0.07856451,-0.010437012,-0.014694214,0.0041046143,-31.559753,-39.779663,24.659729,1,0.0,0.0,0.0,0.0
1.344726563,-0.008241778,0.5315807,0.8469676,-0.00163648,-0.84700245,0.5315866,0.9999647,0.0029951727,0.007850726,-0.014244299,0.5454088,0.8380492,-0.00571188,-0.83816487,0.545387,0.9998822,0.0029818201,0.0150543805,10.066605,0.023925781,0.06341553,9.806304,0.029372612,0.07698932,-0.010910034,-0.0110321045,0.0015106201,-31.559753,-39.779663,24.659729,1,0.0,0.0,0.0,0.0
1.353027344,-0.00808434,0.5314914,0.8470251,-0.0015731298,-0.8470584,0.5314973,0.999966,0.0029643248,0.007684014,-0.01412561,0.54513377,0.83823,-0.0056284843,-0.83834374,0.54511285,0.99988437,0.0029820872,0.014910392,10.00798,0.015548706,0.044265747,9.806317,0.029070096,0.075354435,-0.0118255615,-0.015457153,-0.0027770996,-31.559753,-39.779663,24.659729,1,0.0,0.0,0.0,0.0
1.361328125,-0.007923181,0.5336311,0.84568024,-0.0015048727,-0.84571207,0.5336371,0.9999674,0.0029554626,0.0075037773,-0.013888911,0.5445962,0.83858335,-0.005464212,-0.838693,0.544577,0.9998886,0.002981384,0.014624323,10.02832,-0.0011901855,0.023925781,9.806331,0.028983187,0.07358692,-0.011978149,-0.006149292,-0.009033203,-31.91986,-39.839172,24.839783,1,0.0,0.0,0.0,0.0
1.369628907,-0.007868974,0.53360015,0.8457003,-0.0014092077,-0.84573156,0.5336067,0.999968,0.00300717,0.0074069924,-0.013654566,0.5441638,0.83886784,-0.005304438,-0.83897364,0.5441462,0.99989265,0.0029803573,0.014342304,10.045074,0.026321411,0.057434082,9.806336,0.029490264,0.07263778,-0.007537842,-3.0517578E-5,-0.008270264,-31.91986,-39.839172,24.839783,1,0.0,0.0,0.0,0.0
1.377929688,-0.0078721335,0.5319606,0.8467325,-0.0013332232,-0.84676355,0.5319677,0.9999681,0.0030588373,0.007375058,-0.013539768,0.54395336,0.83900625,-0.005225086,-0.83911014,0.5439365,0.9998947,0.0029808935,0.01420356,10.045074,0.026321411,0.057434082,9.806337,0.029996946,0.07232461,-0.0064697266,0.0057678223,-0.007659912,-32.51953,-40.019226,24.839783,1,0.0,0.0,0.0,0.0
1.386230469,-0.007897642,0.5355195,0.8444859,-0.0013555752,-0.8445172,0.53552663,0.9999679,0.0030846347,0.007395633,-0.013317466,0.54348034,0.83931625,-0.0050679296,-0.83941656,0.54346496,0.99989843,0.0029839799,0.013933221,10.043869,-0.0011901855,0.051452637,9.806335,0.030249933,0.07252639,-0.008758545,0.010650635,-0.005065918,-32.57904,-39.839172,24.958801,1,0.0,0.0,0.0,0.0
1.39453125,-0.007944343,0.53554666,0.8444683,-0.0013767465,-0.8445,0.5355538,0.9999675,0.0030920047,0.00744631,-0.013209743,0.5433216,0.8394207,-0.0049926713,-0.8395193,0.5433069,0.9999003,0.002985993,0.013802461,10.043869,-0.0011901855,0.051452637,9.806332,0.030322209,0.07302336,-0.010604858,0.0095825195,-0.002456665,-32.57904,-39.839172,24.958801,1,0.0,0.0,0.0,0.0
1.402832032,-0.007987561,0.53557175,0.84445196,-0.0014178788,-0.84448415,0.5355787,0.9999671,0.0030806377,0.0075047445,-0.013002558,0.5430145,0.8396227,-0.004847669,-0.839718,0.5430012,0.99990374,0.0029901909,0.013550836,10.019943,0.0011901855,0.058624268,9.806328,0.030210735,0.0735964,-0.008926392,0.0095825195,-0.0058288574,-32.57904,-39.839172,24.958801,1,0.0,0.0,0.0,0.0
1.411132813,-0.008017949,0.5442926,0.8388572,-0.0015327879,-0.83888984,0.5442992,0.9999667,0.0030783725,0.00756046,-0.012804966,0.5427208,0.83981556,-0.0047100745,-0.8399078,0.5427087,0.99990696,0.0029937725,0.013311247,10.011566,0.0011901855,0.015548706,9.806324,0.030188525,0.07414279,-0.0063171387,0.008972168,-0.0029296875,-32.87964,-39.59961,25.379944,1,0.0,0.0,0.0,0.0
1.419433594,-0.008026321,0.5442975,0.8388539,-0.0015337938,-0.8388866,0.5443041,0.9999666,0.0030821306,0.007568014,-0.012709101,0.54275227,0.83979666,-0.004646698,-0.8398875,0.54274064,0.99990845,0.0029954645,0.013196222,10.011566,0.0011901855,0.015548706,9.806323,0.030225378,0.074216865,-0.009689331,0.015838623,-0.007507324,-32.87964,-39.59961,25.379944,1,0.0,0.0,0.0,0.0
1.427734375,-0.008104548,0.54475147,0.8385584,-0.0015410199,-0.8385917,0.54475826,0.99996597,0.0031227837,0.0076358793,-0.012523426,0.5428133,0.83976,-0.0045237374,-0.83984804,0.54280275,0.99991137,0.0029988964,0.01297332,10.025925,0.022735596,0.032302856,9.806316,0.030624049,0.074882396,-0.0063171387,0.023483276,-0.007507324,-33.17871,-39.839172,25.559998,1,0.0,0.0,0.0,0.0
1.436035157,-0.008244472,0.55124396,0.8343034,-0.0017338663,-0.83433837,0.5512499,0.9999645,0.0030981936,0.0078344615,-0.012348095,0.5428902,0.8397129,-0.0044059567,-0.8397983,0.5428806,0.99991405,0.0030038024,0.01276186,10.019943,-0.028717041,0.086135864,9.806302,0.0303829,0.07682983,-0.005706787,0.033554077,-0.005065918,-32.998657,-39.35852,25.679016,1,0.0,0.0,0.0,0.0
1.444335938,-0.0084412135,0.55135834,0.83422583,-0.001904177,-0.8342629,0.5513636,0.99996257,0.0030656639,0.008092075,-0.012265467,0.5430578,0.83960575,-0.0043532997,-0.8396899,0.5430487,0.9999153,0.0030056902,0.012663282,10.019943,-0.028717041,0.086135864,9.806283,0.030063894,0.07935615,-6.1035156E-5,0.03416443,-0.0059814453,-32.998657,-39.35852,25.679016,1,0.0,0.0,0.0,0.0
1.452636719,-0.008741504,0.5515328,0.8341074,-0.002068405,-0.83414745,0.55153763,0.99995965,0.0030959959,0.008432496,-0.0121130515,0.5433875,0.8393947,-0.0042577274,-0.83947664,0.5433791,0.99991757,0.0030080653,0.012482218,10.076172,0.011962891,0.13279724,9.806254,0.030361349,0.08269454,-0.0049438477,0.029586792,-0.0053710938,-32.998657,-39.35852,25.679016,1,0.0,0.0,0.0,0.0
1.4609375,-0.008980934,0.55201465,0.8337861,-0.002225905,-0.8338286,0.5520189,0.9999572,0.0031017165,0.008717292,-0.0119786495,0.54371107,0.839187,-0.0041722343,-0.8392671,0.5437034,0.99991953,0.003011547,0.012321776,10.058228,-0.0059814453,0.119644165,9.806231,0.030417448,0.08548743,-0.010604858,0.019195557,-0.008422852,-33.358765,-39.239502,25.619507,1,0.0,0.0,0.0,0.0
1.469238282,-0.009167775,0.5521246,0.83371115,-0.0023429075,-0.83375573,0.5521284,0.9999552,0.0031084805,0.008937262,-0.011918287,0.54387754,0.8390799,-0.0041338727,-0.8391592,0.54387015,0.9999204,0.0030133505,0.01224966,10.058228,-0.0059814453,0.119644165,9.8062105,0.03048378,0.08764461,-0.0067749023,0.014160156,-0.009185791,-33.358765,-39.239502,25.619507,1,0.0,0.0,0.0,0.0
1.477539063,-0.009306394,0.54982084,0.8352308,-0.0023780027,-0.83527684,0.54982466,0.9999539,0.0031307028,0.00908089,-0.011808721,0.544205,0.83886915,-0.004064003,-0.8389469,0.5441982,0.99992204,0.003017118,0.012118541,9.988831,-0.0011901855,0.10647583,9.806198,0.030701708,0.08905311,-0.0064697266,0.011566162,-0.007507324,-33.299255,-39.29901,25.498962,1,0.0,0.0,0.0,0.0
1.485839844,-0.009404954,0.5531135,0.8330527,-0.002417634,-0.83309966,0.5531174,0.99995285,0.0031880278,0.009172492,-0.011709205,0.54442793,0.83872586,-0.003997884,-0.8388021,0.5444216,0.9999234,0.003021616,0.011998267,10.013962,0.034698486,0.08734131,9.806188,0.031263873,0.08995142,-0.013656616,0.010955811,-0.006134033,-33.1192,-39.05945,25.559998,1,0.0,0.0,0.0,0.0
1.494140625,-0.0095149195,0.553178,0.83300877,-0.0024216229,-0.83305675,0.5531822,0.9999518,0.0032462515,0.009266056,-0.0116628,0.54460233,0.83861333,-0.0039667552,-0.8386889,0.5445963,0.9999241,0.0030249443,0.011941765,10.013962,0.034698486,0.08734131,9.806177,0.031834852,0.09086897,-0.011672974,0.015991211,-0.011932373,-33.1192,-39.05945,25.559998,1,0.0,0.0,0.0,0.0
1.502441407,-0.009629889,0.55324537,0.8329627,-0.0024243626,-0.8330118,0.55324996,0.9999507,0.003308333,0.009363079,-0.0115771135,0.5449428,0.83839333,-0.0039063916,-0.8384677,0.54493725,0.9999254,0.003033708,0.011835797,10.057037,0.009567261,0.08015442,9.806167,0.032443665,0.09182044,-0.009689331,0.0039367676,-0.0067443848,-33.1192,-39.05945,25.559998,1,0.0,0.0,0.0,0.0
1.510742188,-0.009734558,0.54737306,0.83683205,-0.0023931998,-0.836882,0.5473779,0.9999497,0.0033257764,0.009456651,-0.011499373,0.54527235,0.83818,-0.0038483967,-0.8382534,0.54526734,0.99992645,0.0030445834,0.011737813,10.055832,0.01675415,0.10887146,9.806157,0.032614727,0.09273807,-0.008926392,0.0053100586,-0.0039978027,-32.998657,-39.479065,25.439453,1,0.0,0.0,0.0,0.0
1.519042969,-0.009780469,0.5473998,0.8368141,-0.0024109613,-0.8368646,0.54740465,0.9999492,0.0033363479,0.009504688,-0.011463979,0.5453143,0.83815324,-0.0038193613,-0.8382261,0.54530954,0.999927,0.0030502072,0.01169216,10.055832,0.01675415,0.10887146,9.806152,0.032718398,0.09320915,-0.001739502,-0.004623413,-0.006591797,-32.998657,-39.479065,25.439453,1,0.0,0.0,0.0,0.0
1.52734375,-0.009783229,0.5441287,0.83894473,-0.0023676902,-0.83899516,0.5441338,0.99994934,0.0033370238,0.0094964085,-0.011397148,0.54539704,0.8381003,-0.0037637295,-0.8381722,0.5453927,0.99992794,0.0030615379,0.011605499,10.045074,0.0,0.098098755,9.806153,0.032725025,0.09312796,-0.0047912598,-0.0050811768,-0.007507324,-32.998657,-39.538574,25.2594,1,0.0,0.0,0.0,0.0
1.535644532,-0.00980545,0.5443444,0.8388044,-0.0023151534,-0.8388548,0.5443501,0.9999492,0.0033956373,0.009485591,-0.011333483,0.5453467,0.83813393,-0.0037084594,-0.838205,0.5453427,0.9999289,0.003072447,0.011522179,9.992432,0.025131226,0.11605835,9.806152,0.033299826,0.09302188,-0.011978149,-0.0067596436,-0.012390137,-32.63855,-39.419556,25.19989,1,0.0,0.0,0.0,0.0
1.543945313,-0.009828854,0.544358,0.83879536,-0.0022380215,-0.83884573,0.5443645,0.9999492,0.003473238,0.009463179,-0.011302926,0.54532665,0.8381474,-0.0036805389,-0.8382179,0.54532295,0.9999293,0.0030789108,0.011481411,9.992432,0.025131226,0.11605835,9.806152,0.034060832,0.092802085,-0.013656616,-0.009963989,-0.010406494,-32.63855,-39.419556,25.19989,1,0.0,0.0,0.0,0.0
1.552246094,-0.009808224,0.5443461,0.8388034,-0.0022042773,-0.8388534,0.54435277,0.9999494,0.003490178,0.009427551,-0.011244563,0.54528826,0.8381731,-0.0036233163,-0.8382429,0.545285,0.9999302,0.003094526,0.011401428,10.013962,0.0023956299,0.13400269,9.806154,0.034226954,0.0924527,-0.008148193,-0.020812988,-0.002319336,-32.63855,-39.419556,25.19989,1,0.0,0.0,0.0,0.0
1.560546875,-0.009705012,0.5428184,0.839794,-0.0021430023,-0.8398429,0.5428253,0.9999506,0.0034684453,0.009313947,-0.011215886,0.5452695,0.8381858,-0.0035949163,-0.83825505,0.54526645,0.9999306,0.003102439,0.0113619715,10.013962,0.0023956299,0.13400269,9.806166,0.03401383,0.09133861,-0.0118255615,-0.031799316,-0.002319336,-32.818604,-39.479065,25.138855,1,0.0,0.0,0.0,0.0
1.568847657,-0.009483286,0.542689,0.83988017,-0.0020487513,-0.83992666,0.54269594,0.9999529,0.0034258356,0.0090771,-0.011156153,0.5451726,0.8382496,-0.003537212,-0.8383181,0.54517,0.9999315,0.0031169327,0.011280796,10.061813,-0.011962891,0.105285645,9.806189,0.03359597,0.089015946,-0.0107421875,-0.030273438,-0.0044555664,-32.818604,-39.479065,25.138855,1,0.0,0.0,0.0,0.0
1.577148438,-0.00920331,0.543521,0.83934516,-0.0019463075,-0.83938885,0.54352796,0.9999558,0.0033686324,0.0087830145,-0.011089981,0.54507434,0.83831435,-0.0034780223,-0.8383818,0.54507226,0.99993247,0.0031291652,0.01119342,10.066605,0.008377075,0.061019897,9.806216,0.033035,0.08613195,-0.0118255615,-0.03302002,0.0010528564,-33.059692,-39.65912,25.318909,1,0.0,0.0,0.0,0.0
1.585449219,-0.008936309,0.54336476,0.8394491,-0.001814716,-0.83949006,0.543372,0.9999584,0.0033323783,0.008487996,-0.011052345,0.5450434,0.838335,-0.0034473483,-0.838402,0.5450415,0.999933,0.0031339547,0.011145263,10.066605,0.008377075,0.061019897,9.806242,0.03267947,0.0832388,-0.012130737,-0.031341553,-6.2561035E-4,-33.059692,-39.65912,25.318909,1,0.0,0.0,0.0,0.0
1.59375,-0.008656679,0.55141324,0.8341874,-0.0018012861,-0.8342259,0.55142,0.9999609,0.0032708554,0.008214878,-0.010968652,0.54497683,0.8383794,-0.0033825175,-0.8384452,0.5449754,0.99993414,0.003141812,0.011040007,10.07019,-0.011962891,0.07537842,9.806267,0.032076135,0.08056044,-0.011978149,-0.031799316,-0.0026245117,-32.63855,-39.179993,25.559998,1,0.0,0.0,0.0,0.0
1.602050782,-0.008423088,0.55127835,0.8342788,-0.0016475357,-0.8343149,0.55128556,0.99996316,0.0032690226,0.007935759,-0.010876678,0.5452325,0.8382143,-0.0033206113,-0.83827895,0.54523146,0.9999353,0.0031469224,0.010928196,10.0247345,0.015548706,0.055038452,9.806289,0.03205816,0.077823214,-0.006011963,-0.0256958,-0.0058288574,-32.63855,-39.179993,25.559998,1,0.0,0.0,0.0,0.0
1.610351563,-0.008218587,0.55353266,0.8327868,-0.0015146395,-0.83282083,0.55354035,0.9999651,0.0032879482,0.0076830145,-0.010827374,0.5453536,0.8381362,-0.0032875007,-0.8382002,0.54535276,0.999936,0.0031493644,0.010868357,10.0247345,0.015548706,0.055038452,9.806308,0.03224376,0.07534464,-0.010131836,-0.0256958,-0.0058288574,-32.57904,-39.29901,25.79956,1,0.0,0.0,0.0,0.0
1.618652344,-0.008060437,0.5534422,0.8328486,-0.0013772363,-0.83288103,0.5534504,0.99996656,0.003314022,0.007475605,-0.010723311,0.5456785,0.8379261,-0.0032182117,-0.83798873,0.5456781,0.99993736,0.0031548522,0.010742122,10.019943,0.017944336,0.051452637,9.806322,0.032499455,0.07331064,-0.0077056885,-0.0096588135,-0.0059814453,-32.57904,-39.29901,25.79956,1,0.0,0.0,0.0,0.0
1.626953125,-0.007874711,0.55451363,0.8321374,-0.0012851343,-0.83216816,0.554522,0.9999682,0.0032972917,0.007265708,-0.010617214,0.54598665,0.8377266,-0.0031462568,-0.8377879,0.5459868,0.99993867,0.0031611554,0.010612788,10.043869,0.008377075,0.04547119,9.806338,0.032335386,0.07125226,-0.010910034,-0.011489868,-0.006134033,-32.63855,-39.35852,25.91858,1,0.0,0.0,0.0,0.0
1.635253907,-0.0077778464,0.5544582,0.83217514,-0.0012106341,-0.8322048,0.55446666,0.99996895,0.0033050976,0.0071440083,-0.010561941,0.54615784,0.83761567,-0.0031095552,-0.83767635,0.54615813,0.9999394,0.003163878,0.010545796,10.043869,0.008377075,0.04547119,9.806346,0.032411937,0.07005879,-0.010299683,-0.009048462,-0.0018463135,-32.63855,-39.35852,25.91858,1,0.0,0.0,0.0,0.0
1.643554688,-0.007681872,0.55946326,0.8288195,-0.0012415184,-0.8288486,0.55947137,0.99996966,0.0032687937,0.007061694,-0.010450969,0.54648733,0.83740216,-0.0030354117,-0.8374614,0.5464881,0.9999408,0.0031694705,0.010411098,10.060623,-0.017944336,0.057434082,9.806354,0.032055918,0.06925157,-0.007232666,-0.0037078857,-0.004760742,-32.759094,-38.75885,25.85907,1,0.0,0.0,0.0,0.0
1.651855469,-0.0076372093,0.5594374,0.82883734,-0.0012511627,-0.8288662,0.5594454,0.99997,0.0032355909,0.0070301723,-0.010340186,0.54700357,0.8370664,-0.002965986,-0.8371243,0.5470047,0.9999422,0.0031734034,0.010278426,10.022339,-0.01914978,0.071777344,9.806356,0.03173031,0.06894244,-0.009994507,-0.005844116,-0.005218506,-32.759094,-38.75885,25.85907,1,0.0,0.0,0.0,0.0
1.66015625,-0.0075856163,0.5637759,0.825893,-0.0012970313,-0.82592154,0.56378347,0.9999703,0.0032054365,0.006996359,-0.010285608,0.5472534,0.83690375,-0.0029324763,-0.8369609,0.54725474,0.9999428,0.0031746472,0.010213459,10.022339,-0.01914978,0.071777344,9.806359,0.031434596,0.06861085,-0.004638672,-0.0050811768,-0.0039978027,-32.458496,-38.75885,26.159668,1,0.0,0.0,0.0,0.0
1.668457032,-0.007518642,0.56373775,0.8259197,-0.0012552524,-0.8259477,0.56374544,0.9999709,0.003201862,0.0069176373,-0.010177369,0.5479117,0.83647424,-0.002869725,-0.8365301,0.5479135,0.9999441,0.0031758666,0.010086032,10.0247345,0.0023956299,0.03111267,9.806365,0.03139954,0.06783885,-0.003112793,0.004852295,-0.007965088,-32.458496,-38.75885,26.159668,1,0.0,0.0,0.0,0.0
1.676757813,-0.0074646357,0.56955755,0.82191765,-0.0012791667,-0.82194537,0.5695651,0.99997133,0.0032002258,0.00686408,-0.010070819,0.5485422,0.8360622,-0.0028076791,-0.8361168,0.5485443,0.99994534,0.003176896,0.009960512,10.018753,-0.017944336,0.015548706,9.806369,0.031383496,0.067313634,-0.0021972656,0.008514404,-0.013000488,-32.27997,-38.519287,26.399231,1,0.0,0.0,0.0,0.0
1.685058594,-0.007469244,0.56956017,0.8219158,-0.001244412,-0.8219434,0.569568,0.99997133,0.0032314397,0.006848062,-0.010017942,0.54896593,0.8357847,-0.0027784281,-0.8358387,0.54896814,0.99994594,0.0031773627,0.009898645,10.018753,-0.017944336,0.015548706,9.806369,0.0316896,0.067156546,-0.0020446777,0.008514404,-0.0113220215,-32.27997,-38.519287,26.399231,1,0.0,0.0,0.0,0.0
1.693359375,-0.0075151944,0.5731738,0.8193993,-0.0013084798,-0.8194274,0.57318145,0.9999709,0.003235403,0.0069081434,-0.009915418,0.5497879,0.83524543,-0.0027200356,-0.83529824,0.5497904,0.99994713,0.0031795043,0.009777774,10.041473,-0.022735596,0.071777344,9.806365,0.031728465,0.067745745,-0.006011963,0.0014953613,-0.003692627,-31.97937,-38.15918,26.399231,1,0.0,0.0,0.0,0.0
1.701660157,-0.0074858237,0.57315737,0.8194111,-0.001327689,-0.81943905,0.57316476,0.9999711,0.0032026877,0.0068951515,-0.0098186685,0.5507222,0.83463085,-0.0026666496,-0.8346825,0.550725,0.99994826,0.0031817176,0.009664054,10.040283,-0.022735596,0.039474487,9.806367,0.03140764,0.06761834,-0.013198853,0.009735107,-0.0056762695,-31.97937,-38.15918,26.399231,1,0.0,0.0,0.0,0.0
1.709960938,-0.007473176,0.573761,0.8189887,-0.0013752133,-0.81901664,0.573768,0.9999711,0.003161586,0.0069097,-0.009771202,0.55117506,0.83433235,-0.0026410744,-0.83438355,0.5511779,0.99994874,0.003182137,0.0096086245,10.040283,-0.022735596,0.039474487,9.806367,0.031004567,0.06776101,-0.016403198,0.019195557,-0.0044555664,-32.03888,-38.09967,26.399231,1,0.0,0.0,0.0,0.0
1.718261719,-0.007599884,0.5738322,0.8189377,-0.0014170785,-0.81896675,0.5738394,0.99997014,0.0032006134,0.007037217,-0.009678937,0.5520775,0.83373666,-0.0025934207,-0.8337867,0.5520806,0.9999498,0.003181323,0.009501938,10.052246,0.025131226,0.06341553,9.806357,0.031387296,0.069011524,-0.01411438,0.02180481,-0.012390137,-32.03888,-38.09967,26.399231,1,0.0,0.0,0.0,0.0
1.7265625,-0.007831264,0.5656313,0.8246211,-0.0014442625,-0.8246519,0.5656387,0.9999683,0.0032386964,0.0072749867,-0.009595307,0.55294627,0.83316165,-0.0025488853,-0.8332108,0.55294955,0.9999507,0.0031820869,0.00940431,10.031906,0.0047912598,0.114852905,9.806339,0.031760763,0.07134325,-0.014266968,0.022415161,-0.0067443848,-32.339478,-38.75885,26.278687,1,0.0,0.0,0.0,0.0
1.734863282,-0.008046908,0.56575316,0.8245354,-0.0015451643,-0.8245682,0.56576055,0.99996644,0.0032785805,0.007509406,-0.009559701,0.5532013,0.83299273,-0.0025273361,-0.8330415,0.55320466,0.9999511,0.003183219,0.009361754,10.031906,0.0047912598,0.114852905,9.806321,0.032151893,0.07364212,-0.014572144,0.01828003,-0.007507324,-32.339478,-38.75885,26.278687,1,0.0,0.0,0.0,0.0
1.743164063,-0.008215867,0.5671169,0.8235963,-0.001619084,-0.82363063,0.56712437,0.999965,0.0033259473,0.00768505,-0.009499131,0.55370075,0.8326615,-0.0024892644,-0.8327096,0.5537043,0.9999518,0.0031869954,0.009288325,10.017548,0.025131226,0.095718384,9.806307,0.032616403,0.0753646,-0.0054016113,0.006378174,-0.0041503906,-32.398987,-38.459778,26.159668,1,0.0,0.0,0.0,0.0
1.751464844,-0.008289162,0.56715864,0.8235668,-0.001676861,-0.8236018,0.56716585,0.9999642,0.0033203233,0.0077780164,-0.009447797,0.55423486,0.8323067,-0.0024556287,-0.8323542,0.55423856,0.9999524,0.0031924979,0.009224909,10.073776,-0.0023956299,0.08255005,9.806299,0.03256125,0.07627629,-0.017318726,0.0036315918,-0.0029296875,-32.398987,-38.459778,26.159668,1,0.0,0.0,0.0,0.0
1.759765625,-0.008318993,0.5639532,0.8257649,-0.0016831623,-0.8258002,0.5639604,0.999964,0.003301686,0.00781905,-0.009424343,0.55449456,0.832134,-0.002440387,-0.83218116,0.55449843,0.9999526,0.0031950544,0.0091959415,10.073776,-0.0023956299,0.08255005,9.806297,0.03237848,0.076678686,-0.013504028,-0.0024871826,-0.0055236816,-32.458496,-38.519287,25.979614,1,0.0,0.0,0.0,0.0
1.768066407,-0.0083127525,0.5639496,0.82576734,-0.0016854838,-0.8258026,0.56395674,0.99996406,0.0032962149,0.00781522,-0.009380163,0.5548705,0.83188385,-0.0024108363,-0.8319305,0.5548745,0.9999531,0.0031992772,0.009141346,10.036697,0.0047912598,0.07537842,9.806298,0.03232483,0.07664114,-0.01121521,-0.0037078857,-0.0053710938,-32.458496,-38.519287,25.979614,1,0.0,0.0,0.0,0.0
1.776367188,-0.008291383,0.5671071,0.8236023,-0.0017131665,-0.8236374,0.56711406,0.9999641,0.0032911915,0.0078006424,-0.0093376255,0.55523145,0.83164346,-0.0023825914,-0.83168966,0.55523556,0.99995357,0.0032031157,0.009088897,10.054642,0.0035858154,0.09211731,9.806298,0.032275565,0.07649817,-0.0050964355,-0.0110321045,-0.006439209,-32.03888,-38.459778,26.159668,1,0.0,0.0,0.0,0.0
1.784667969,-0.008251049,0.5670843,0.8236184,-0.001690103,-0.8236531,0.5670913,0.9999645,0.0032870981,0.007754433,-0.00931651,0.55547017,0.83148426,-0.002369504,-0.8315303,0.55547434,0.9999538,0.003204877,0.009063149,10.054642,0.0035858154,0.09211731,9.806302,0.03223542,0.076045014,-0.0035705566,-0.008895874,-0.0020141602,-32.03888,-38.459778,26.159668,1,0.0,0.0,0.0,0.0
1.79296875,-0.008216252,0.5629986,0.82641697,-0.0015806456,-0.8264512,0.5630062,0.999965,0.0033195287,0.0076802326,-0.0092738,0.5559324,0.83117574,-0.002343082,-0.83122134,0.5559367,0.9999543,0.0032081332,0.0090111755,10.0247345,0.032302856,0.07537842,9.806307,0.032553457,0.07531735,-0.015335083,-0.0030975342,-0.006591797,-32.099915,-38.339233,25.79956,1,0.0,0.0,0.0,0.0
1.801269532,-0.008176648,0.5629761,0.82643276,-0.0015021996,-0.8264664,0.56298417,0.9999655,0.003361856,0.0076034265,-0.009231677,0.556213,0.8309885,-0.0023132393,-0.8310336,0.5562175,0.9999547,0.0032125446,0.008958487,10.015152,0.0382843,0.051452637,9.806312,0.032968547,0.074564144,-0.005859375,-0.007217407,-0.006134033,-32.099915,-38.339233,25.79956,1,0.0,0.0,0.0,0.0
1.809570313,-0.0081632305,0.5535022,0.8328078,-0.001327974,-0.83284086,0.55351114,0.99996585,0.0034124919,0.0075337077,-0.009210477,0.5563487,0.83089787,-0.0022972107,-0.8309427,0.5563532,0.99995494,0.003215531,0.008931428,10.015152,0.0382843,0.051452637,9.806315,0.033465113,0.073880434,-0.010910034,-0.0041656494,-0.0046081543,-32.699585,-38.75885,25.439453,1,0.0,0.0,0.0,0.0
1.817871094,-0.008070924,0.5534483,0.8328443,-0.0013352635,-0.8328767,0.5534569,0.99996656,0.003354842,0.0074610845,-0.009169063,0.55623615,0.8309737,-0.0022586482,-0.83101803,0.55624086,0.9999554,0.0032233305,0.008875999,10.043869,-0.04067993,0.051452637,9.806322,0.032899763,0.07316825,-0.01335144,-0.0011138916,-0.007507324,-32.699585,-38.75885,25.439453,1,0.0,0.0,0.0,0.0
1.826171875,-0.008016168,0.546597,0.8373574,-0.0012618592,-0.8373892,0.54660565,0.99996704,0.0033250558,0.0074023814,-0.009125596,0.556126,0.83104783,-0.0022218793,-0.83109176,0.5561309,0.9999559,0.0032285384,0.008819853,10.079758,-0.026321411,0.047851563,9.806327,0.03260766,0.072592564,-0.013961792,-0.008590698,-0.002456665,-32.998657,-39.179993,25.2594,1,0.0,0.0,0.0,0.0
1.834472657,-0.007937533,0.5465508,0.83738834,-0.0012532328,-0.83741945,0.5465593,0.9999677,0.0032888895,0.007332,-0.009103595,0.5559361,0.83117515,-0.002202417,-0.8312187,0.55594116,0.99995613,0.0032304686,0.008791481,10.079758,-0.026321411,0.047851563,9.806334,0.03225299,0.07190236,-0.007080078,-0.00630188,-0.0073547363,-32.998657,-39.179993,25.2594,1,0.0,0.0,0.0,0.0
1.842773438,-0.007881719,0.54797935,0.8364547,-0.0012330955,-0.8364853,0.5479878,0.9999682,0.0032876579,0.007268654,-0.009080461,0.555749,0.83130056,-0.0021831656,-0.8313438,0.5557541,0.99995637,0.0032316372,0.008762278,10.060623,0.0023956299,0.061019897,9.806337,0.03224091,0.07128114,-0.0118255615,-0.0029449463,-0.005065918,-32.87964,-38.938904,25.19989,1,0.0,0.0,0.0,0.0
1.851074219,-0.00783504,0.54795194,0.83647317,-0.0012091582,-0.83650345,0.5479604,0.9999686,0.003281863,0.007216598,-0.009033432,0.55544215,0.83150613,-0.002145193,-0.83154887,0.55544746,0.9999569,0.0032338556,0.008703271,10.060623,0.0023956299,0.061019897,9.806342,0.032184083,0.07077065,-0.014572144,-0.004470825,-0.0029296875,-32.87964,-38.938904,25.19989,1,0.0,0.0,0.0,0.0
1.859375,-0.007754357,0.5547539,0.83197844,-0.0012289637,-0.8320081,0.55476224,0.9999692,0.0032793526,0.007133459,-0.008986172,0.5551461,0.8317042,-0.0021076375,-0.8317465,0.5551515,0.9999574,0.0032357567,0.008644264,10.021133,0.013153076,0.04307556,9.806348,0.032159463,0.06995534,-0.010437012,-0.002029419,-0.0044555664,-32.699585,-38.339233,25.2594,1,0.0,0.0,0.0,0.0
1.867675782,-0.0076476797,0.55469114,0.83202124,-0.0011928966,-0.83204997,0.55469936,0.99997,0.0032496478,0.007024941,-0.008961494,0.5551382,0.83170986,-0.0020900175,-0.8317518,0.5551437,0.9999577,0.0032366284,0.008613987,10.02832,-0.009567261,0.008377075,9.806356,0.03186816,0.06889114,-0.010131836,0.003479004,-0.0038452148,-32.699585,-38.339233,25.2594,1,0.0,0.0,0.0,0.0
1.875976563,-0.007636676,0.55468464,0.83202565,-0.0011969118,-0.8320544,0.5546928,0.99997014,0.0032401483,0.0070180385,-0.008909473,0.5551205,0.8317222,-0.002054457,-0.8317636,0.5551262,0.9999582,0.003237144,0.008551047,10.022339,-0.0143585205,0.029907227,9.806357,0.031775,0.06882345,-0.009689331,0.014465332,-0.012237549,-32.699585,-38.339233,25.2594,1,0.0,0.0,0.0,0.0
1.884277344,-0.007674934,0.55472296,0.8319998,-0.0012179434,-0.83202875,0.5547311,0.9999697,0.0032441956,0.0070613865,-0.008859115,0.5551033,0.83173424,-0.0020204918,-0.8317751,0.5551091,0.9999587,0.003237263,0.008490372,10.074982,-0.0143585205,0.028717041,9.806354,0.03181469,0.06924855,-0.0093688965,0.01828003,-0.008422852,-32.759094,-38.519287,25.379944,1,0.0,0.0,0.0,0.0
1.892578125,-0.0077755395,0.5550731,0.83176523,-0.0012694085,-0.8317952,0.5550812,0.99996895,0.0032602064,0.007172271,-0.0088354135,0.55509573,0.8317395,-0.002004414,-0.83178014,0.5551015,0.99995893,0.0032374016,0.008461763,10.042679,0.0011901855,0.052642822,9.806346,0.031971704,0.070335954,-0.01335144,0.020889282,-0.0058288574,-32.759094,-38.398743,25.318909,1,0.0,0.0,0.0,0.0
1.900878907,-0.007902293,0.5551476,0.83171433,-0.0013142677,-0.8317453,0.5551558,0.9999679,0.0032939077,0.007302307,-0.008793481,0.55509454,0.8317408,-0.001975328,-0.83178097,0.5551005,0.9999594,0.0032383048,0.008410744,10.018753,0.020339966,0.046661377,9.806335,0.0323022,0.07161117,-0.010131836,0.020736694,-0.004760742,-32.759094,-38.398743,25.318909,1,0.0,0.0,0.0,0.0
1.909179688,-0.008047779,0.55732816,0.8302534,-0.001385449,-0.83028567,0.5573364,0.9999666,0.0033350459,0.0074541043,-0.00875831,0.5550965,0.83173984,-0.0019492314,-0.83177966,0.5551025,0.99995977,0.0032405069,0.0083669955,10.018753,0.020339966,0.046661377,9.806323,0.032705627,0.07309979,-0.006164551,0.02760315,-0.0099487305,-32.818604,-38.459778,25.498962,1,0.0,0.0,0.0,0.0
1.917480469,-0.008228557,0.557434,0.8301804,-0.001458134,-0.8302143,0.5574423,0.9999651,0.003376432,0.00764428,-0.008744085,0.55514115,0.83171016,-0.0019380036,-0.83174986,0.55514723,0.9999599,0.0032423977,0.008348757,10.015152,0.007171631,0.06819153,9.806308,0.033111487,0.07496478,-0.009063721,0.017837524,-0.0099487305,-32.818604,-38.459778,25.498962,1,0.0,0.0,0.0,0.0
1.92578125,-0.0083974125,0.5572967,0.8302708,-0.0014818432,-0.8303062,0.5573054,0.99996364,0.003449593,0.0077982508,-0.008723622,0.55523217,0.83164966,-0.0019190575,-0.8316891,0.5552383,0.9999601,0.0032477055,0.008320863,10.025925,0.035888672,0.071777344,9.8062935,0.03382895,0.07647472,-0.010910034,0.015686035,-0.0041503906,-33.1192,-38.578796,25.559998,1,0.0,0.0,0.0,0.0
1.934082032,-0.008538784,0.5573801,0.8302135,-0.0015250833,-0.83024997,0.5573889,0.99996233,0.0034932792,0.007939378,-0.0087107215,0.55531406,0.83159506,-0.0019018159,-0.83163434,0.5553203,0.99996024,0.0032557002,0.008300241,10.013962,0.022735596,0.095718384,9.806281,0.034257367,0.0778587,-0.010604858,0.008361816,-0.0056762695,-33.1192,-38.578796,25.559998,1,0.0,0.0,0.0,0.0
1.942382813,-0.008636538,0.5615644,0.827388,-0.0015959181,-0.8274256,0.5615732,0.9999615,0.003529605,0.008042303,-0.00870722,0.5553553,0.8315676,-0.0018942582,-0.8316068,0.5553616,0.9999603,0.0032604518,0.008292969,10.065414,0.011962891,0.13639832,9.8062725,0.034613602,0.078868054,-0.008453369,0.004547119,-0.0056762695,-32.818604,-38.339233,25.679016,1,0.0,0.0,0.0,0.0
1.950683594,-0.008736662,0.56162286,0.8273473,-0.0016441613,-0.8273858,0.5616316,0.9999604,0.0035464931,0.008151988,-0.008704352,0.5556019,0.83140284,-0.0018824814,-0.831442,0.55560833,0.9999603,0.0032711104,0.008283074,10.069,0.010772705,0.15911865,9.806262,0.034779217,0.07994369,-0.007843018,1.0681152E-4,-0.0067443848,-32.818604,-38.339233,25.679016,1,0.0,0.0,0.0,0.0
1.958984375,-0.008783692,0.57021224,0.8214505,-0.0017573137,-0.82148963,0.57022065,0.9999598,0.0035650965,0.008217754,-0.008705513,0.5558409,0.8312431,-0.0018730033,-0.8312822,0.5558474,0.99996036,0.0032820157,0.00827783,10.069,0.010772705,0.15911865,9.806256,0.034961656,0.08058864,-0.0067749023,-0.015304565,-0.0059814453,-32.57904,-38.09967,26.098633,1,0.0,0.0,0.0,0.0
1.967285157,-0.008729403,0.5701811,0.8214727,-0.0017598881,-0.82151145,0.57018924,0.9999603,0.0035317119,0.008174759,-0.008707019,0.55613,0.8310497,-0.0018706636,-0.8310888,0.55613655,0.9999603,0.0032876774,0.008276638,10.066605,-0.025131226,0.13040161,9.806261,0.034634262,0.080167,-0.0067749023,-0.016220093,-0.0059814453,-32.57904,-38.09967,26.098633,1,0.0,0.0,0.0,0.0
1.975585938,-0.0086497655,0.5701353,0.82150537,-0.0017380915,-0.82154346,0.5701434,0.9999611,0.0035037554,0.008097105,-0.008707769,0.5566896,0.8306749,-0.0018662435,-0.830714,0.55669624,0.99996036,0.0032973408,0.0082725845,10.015152,-0.022735596,0.0993042,9.806269,0.034360103,0.07940547,-8.239746E-4,-0.0037078857,-0.0055236816,-32.57904,-38.09967,26.098633,1,0.0,0.0,0.0,0.0
1.983886719,-0.0086170295,0.5697931,0.82174295,-0.0016890457,-0.82178056,0.56980145,0.9999614,0.003522035,0.008043715,-0.0087053785,0.55722487,0.830316,-0.0018612146,-0.83035505,0.5572316,0.99996036,0.003305515,0.008265669,10.041473,0.0023956299,0.088531494,9.806272,0.034539364,0.0788819,-0.013961792,-0.005996704,-0.0055236816,-32.51953,-38.21869,26.159668,1,0.0,0.0,0.0,0.0
1.9921875,-0.008575909,0.5670445,0.82364255,-0.0016179108,-0.82367957,0.56705314,0.99996185,0.0035304157,0.007981228,-0.008703564,0.5574775,0.83014643,-0.0018578095,-0.83018553,0.5574842,0.99996036,0.0033098455,0.008261259,10.030716,0.0011901855,0.06819153,9.806276,0.03462155,0.07826911,-0.009063721,-0.0021820068,-0.0029296875,-32.398987,-38.398743,26.098633,1,0.0,0.0,0.0,0.0
2.000488282,-0.008503164,0.567003,0.8236718,-0.0015891611,-0.82370824,0.56701165,0.99996257,0.0035124458,0.007905185,-0.008698383,0.5578578,0.82989097,-0.0018483638,-0.82992995,0.55786455,0.9999605,0.00331858,0.008250173,10.0247345,0.0011901855,0.051452637,9.806283,0.034445327,0.07752339,-0.010299683,-0.014694214,-0.0018463135,-32.398987,-38.398743,26.098633,1,0.0,0.0,0.0,0.0
2.008789063,-0.00837381,0.5669293,0.8237239,-0.0015434551,-0.8237591,0.5669378,0.9999637,0.0034760488,0.007773032,-0.008694401,0.55804116,0.8297677,-0.0018432101,-0.82980657,0.558048,0.9999605,0.0033224574,0.008243259,10.0247345,0.0011901855,0.051452637,9.806294,0.034088396,0.076227404,-0.0093688965,-0.0124053955,2.89917E-4,-32.398987,-38.398743,26.098633,1,0.0,0.0,0.0,0.0
2.017089844,-0.008266049,0.5686481,0.8225394,-0.0015112665,-0.82257366,0.56865656,0.9999647,0.0034574678,0.0076588136,-0.008681487,0.5583945,0.8295302,-0.0018314158,-0.82956886,0.5584014,0.99996066,0.00332854,0.008224544,10.047455,-0.037094116,0.07896423,9.806304,0.033906177,0.075107306,-0.0118255615,-0.0038604736,-0.008270264,-32.159424,-38.21869,26.098633,1,0.0,0.0,0.0,0.0
2.025390625,-0.00822378,0.5686241,0.8225563,-0.0014861554,-0.8225902,0.56863266,0.9999651,0.0034538643,0.007609866,-0.008664854,0.55880207,0.8292558,-0.001818924,-0.8292944,0.55880904,0.99996084,0.0033336454,0.008202133,10.057037,-0.011962891,0.07896423,9.806308,0.03387084,0.074627295,-0.010910034,-0.0055389404,-0.012390137,-32.159424,-38.21869,26.098633,1,0.0,0.0,0.0,0.0
2.033691407,-0.008181865,0.56889284,0.82237095,-0.0014571995,-0.8224044,0.5689015,0.9999655,0.0034563174,0.007557793,-0.00865598,0.55899936,0.8291229,-0.0018123952,-0.8291614,0.55900633,0.9999609,0.0033360498,0.008190332,10.052246,0.009567261,0.0765686,9.806312,0.033894897,0.07411663,-0.008926392,-0.007522583,-0.0055236816,-32.27997,-38.279724,26.159668,1,0.0,0.0,0.0,0.0
2.041992188,-0.008141551,0.5715237,0.82054514,-0.0014215587,-0.82057816,0.5715326,0.99996585,0.003486709,0.0074932333,-0.008627836,0.5595833,0.82872915,-0.0017918178,-0.8287673,0.55959046,0.99996114,0.0033431228,0.00815314,10.031906,0.009567261,0.06460571,9.806315,0.034192935,0.07348352,-0.011047363,-0.016220093,-0.0021514893,-32.03888,-38.09967,26.219177,1,0.0,0.0,0.0,0.0
2.050292969,-0.008079768,0.57148886,0.82057,-0.0013531744,-0.8206023,0.571498,0.99996644,0.0035071978,0.0074036014,-0.008618059,0.5598234,0.8285671,-0.0017845968,-0.8286052,0.5598306,0.99996126,0.0033459945,0.0081400275,10.023529,0.015548706,0.08135986,9.806321,0.034393862,0.07260453,-0.013656616,-0.016220093,-0.0021514893,-32.03888,-38.09967,26.219177,1,0.0,0.0,0.0,0.0
2.05859375,-0.00799574,0.5714415,0.82060385,-0.00128061,-0.82063526,0.5714509,0.9999672,0.0035182992,0.0072933803,-0.008607113,0.5600579,0.8284087,-0.0017760862,-0.8284467,0.5600651,0.9999614,0.0033492185,0.008125246,10.045074,0.013153076,0.12562561,9.806329,0.03450273,0.07152363,-0.013656616,-0.013473511,-0.008422852,-32.03888,-38.09967,26.219177,1,0.0,0.0,0.0,0.0
2.066894532,-0.007942561,0.5736711,0.8190473,-0.0012437622,-0.81907815,0.57368064,0.9999677,0.0035377936,0.0072190883,-0.008582549,0.5605107,0.82810277,-0.0017567372,-0.82814044,0.56051797,0.9999617,0.0033559143,0.0080922255,10.054642,0.027511597,0.11843872,9.806334,0.034693904,0.070795074,-0.007843018,-0.029052734,-0.0055236816,-31.97937,-38.21869,26.45874,1,0.0,0.0,0.0,0.0
2.075195313,-0.0078434395,0.57361573,0.8190871,-0.0011287478,-0.81911683,0.57362574,0.9999686,0.0035746554,0.007072159,-0.008556959,0.5610344,0.8277483,-0.0017368749,-0.8277857,0.5610417,0.99996185,0.0033631164,0.008057775,10.054642,0.027511597,0.11843872,9.806342,0.035055395,0.06935419,-0.010131836,-0.037902832,-0.003540039,-31.97937,-38.21869,26.45874,1,0.0,0.0,0.0,0.0
2.083496094,-0.0076768347,0.5730546,0.8194812,-9.734882E-4,-0.8195092,0.5730651,0.99997,0.0036015713,0.0068490994,-0.008542526,0.5612874,0.8275769,-0.0017249486,-0.8276141,0.56129485,0.99996203,0.0033673472,0.008038106,10.042679,-0.022735596,0.095718384,9.806356,0.03531935,0.06716672,-0.0107421875,-0.042495728,-0.00491333,-31.739807,-38.519287,26.638794,1,0.0,0.0,0.0,0.0
2.091796875,-0.0074066394,0.56858444,0.8225916,-7.890365E-4,-0.82261723,0.5685951,0.9999723,0.0035623235,0.0065414626,-0.008507706,0.5617553,0.8272597,-0.001695588,-0.82729656,0.5617629,0.99996233,0.0033766222,0.007990901,10.043869,0.013153076,0.056228638,9.806378,0.03493446,0.064149834,-0.008010864,-0.04234314,-0.00491333,-31.678772,-38.519287,26.339722,1,0.0,0.0,0.0,0.0
2.100097657,-0.0070676785,0.5683965,0.82272446,-5.840652E-4,-0.8227473,0.56840724,0.9999749,0.0035367946,0.0061468934,-0.008463859,0.5620267,0.8270758,-0.0016600697,-0.8271122,0.5620344,0.9999628,0.0033839762,0.007933564,10.021133,-0.01675415,0.039474487,9.806404,0.034684107,0.06028043,-0.014877319,-0.043258667,-0.0046081543,-31.678772,-38.519287,26.339722,1,0.0,0.0,0.0,0.0
2.108398438,-0.0067396495,0.5682146,0.82285285,-3.9549032E-4,-0.822873,0.56822526,0.99997723,0.003504209,0.005770599,-0.0084358435,0.56215423,0.8269894,-0.0016388095,-0.82702553,0.56216204,0.9999631,0.0033870325,0.007897921,10.057037,-0.008377075,0.007171631,9.806427,0.03436455,0.056590244,-0.008621216,-0.038375854,-0.0041503906,-31.678772,-38.519287,26.339722,1,0.0,0.0,0.0,0.0
2.116699219,-0.0064502778,0.568054,0.82296604,-2.2649602E-4,-0.822984,0.56806463,0.9999792,0.0034777757,0.0054371366,-0.00836829,0.56239474,0.8268266,-0.0015900265,-0.826862,0.5624027,0.99996376,0.003391673,0.007813644,10.0295105,-0.009567261,0.044265747,9.806446,0.03410533,0.053320095,-0.007080078,-0.032409668,-0.002456665,-31.678772,-38.519287,26.339722,1,0.0,0.0,0.0,0.0
2.125,-0.006114343,0.5678674,0.82309735,-1.8957304E-5,-0.8231128,0.56787795,0.99998134,0.003456597,0.0050435597,-0.008292121,0.56261945,0.82667446,-0.001536631,-0.82670903,0.5626277,0.9999644,0.0033950827,0.007719709,10.040283,-0.0035858154,-0.032302856,9.806467,0.03389764,0.049460426,-0.010437012,-0.01789856,-0.0068969727,-31.678772,-38.519287,26.339722,1,0.0,0.0,0.0,0.0
2.133300782,-0.0058515817,0.56973207,0.82180965,1.3166736E-4,-0.8218233,0.56974244,0.9999829,0.0034421002,0.0047339513,-0.008248374,0.56272465,0.8266032,-0.0015065493,-0.8266374,0.56273293,0.99996483,0.003396313,0.0076661864,10.040283,-0.0035858154,-0.032302856,9.806482,0.033755474,0.046424206,-0.008010864,-0.015914917,-0.00491333,-31.678772,-38.578796,26.519775,1,0.0,0.0,0.0,0.0
2.141601563,-0.00568643,0.5640349,0.82573134,2.763162E-4,-0.82574373,0.56404525,0.9999837,0.0034355668,0.004539682,-0.008152932,0.56300294,0.8264147,-0.0014424564,-0.8264479,0.5630114,0.9999657,0.003398126,0.0075500803,10.033112,-0.011962891,-0.009567261,9.806491,0.033691403,0.044519074,-0.0118255615,-0.005996704,-0.01071167,-31.619263,-38.879395,26.339722,1,0.0,0.0,0.0,0.0
2.149902344,-0.0055917376,0.5639826,0.82576776,3.5574753E-4,-0.82577944,0.563993,0.99998426,0.0034474654,0.0044169063,-0.008103567,0.5630236,0.82640105,-0.0014081474,-0.8264338,0.56303215,0.99996614,0.0033988748,0.007489882,10.033112,-0.011962891,-0.009567261,9.806496,0.033808086,0.043315053,-0.004638672,0.0042419434,-0.010253906,-31.619263,-38.879395,26.339722,1,0.0,0.0,0.0,0.0
2.158203125,-0.0055896244,0.56398135,0.8257686,3.9493688E-4,-0.82578015,0.5639919,0.99998426,0.003478629,0.0043930635,-0.008003907,0.5630615,0.82637626,-0.001338328,-0.826408,0.5630702,0.9999671,0.003400799,0.0073680542,10.023529,0.007171631,0.022735596,9.806496,0.034113698,0.04308124,-0.010910034,-0.002029419,-0.0015411377,-31.619263,-38.879395,26.339722,1,0.0,0.0,0.0,0.0
2.166503907,-0.0055587124,0.56217724,0.8269981,4.4734566E-4,-0.8270094,0.5621879,0.99998444,0.0034949947,0.0043456196,-0.00790806,0.5630977,0.82635254,-0.001269676,-0.82638335,0.5631066,0.99996793,0.0034038809,0.007250041,10.023529,0.017944336,0.0143585205,9.806498,0.03427419,0.042615972,-0.015182495,-0.007522583,-0.0026245117,-31.559753,-39.05945,26.339722,1,0.0,0.0,0.0,0.0
2.174804688,-0.0054971273,0.5621433,0.82702154,4.915737E-4,-0.8270324,0.56215394,0.99998474,0.0034967745,0.004269968,-0.007861041,0.56307936,0.8263654,-0.0012352373,-0.8263958,0.56308836,0.99996835,0.0034057032,0.0071918685,10.023529,0.017944336,0.0143585205,9.8065,0.034291644,0.04187408,-0.013656616,-0.0037078857,-0.0033874512,-31.559753,-39.05945,26.339722,1,0.0,0.0,0.0,0.0
2.183105469,-0.0054474873,0.5641691,0.82564133,5.271917E-4,-0.8256519,0.5641798,0.99998504,0.003508633,0.004200302,-0.007767569,0.56304234,0.8263915,-0.0011667975,-0.82642096,0.56305146,0.9999691,0.0034093098,0.0070762383,10.0247345,0.022735596,0.020339966,9.806503,0.034407936,0.041190892,-0.007843018,-0.004470825,-0.0053710938,-31.91986,-39.118958,26.519775,1,0.0,0.0,0.0,0.0
2.19140625,-0.005406956,0.56793535,0.8230553,5.163194E-4,-0.82306564,0.56794584,0.9999852,0.0034958182,0.004157044,-0.0076755453,0.56308687,0.826362,-0.001099793,-0.8263906,0.5630961,0.9999699,0.0034132432,0.006962278,10.055832,0.008377075,0.039474487,9.806505,0.034282267,0.040766675,-0.0093688965,-0.0024871826,-0.0020141602,-31.619263,-38.819885,26.579285,1,0.0,0.0,0.0,0.0
2.199707032,-0.005369968,0.56791496,0.82306963,5.2700075E-4,-0.82307976,0.5679254,0.99998546,0.0034834999,0.004120621,-0.00763005,0.563184,0.82629627,-0.0010677755,-0.82632446,0.5631934,0.9999703,0.0034148945,0.006906251,10.055832,0.008377075,0.039474487,9.806508,0.034161467,0.04040949,-0.013809204,-0.0024871826,-0.0068969727,-31.619263,-38.819885,26.579285,1,0.0,0.0,0.0,0.0
2.208007813,-0.0053424044,0.5678999,0.82308024,5.1215966E-4,-0.8230903,0.5679102,0.9999856,0.0034555544,0.004106426,-0.0075402376,0.56337154,0.82616925,-0.0010051394,-0.8261966,0.563381,0.9999711,0.0034176114,0.006795986,10.064209,-0.0047912598,0.039474487,9.806509,0.033887412,0.040270284,-0.007843018,-0.0038604736,-0.002319336,-31.619263,-38.819885,26.579285,1,0.0,0.0,0.0,0.0
2.216308594,-0.0053393412,0.56712925,0.8236115,5.1166373E-4,-0.8236216,0.5671395,0.9999856,0.0034495634,0.004107417,-0.007452733,0.56355137,0.8260474,-9.4541186E-4,-0.82607394,0.56356096,0.9999718,0.0034191138,0.0066892966,10.0295105,0.013153076,0.053833008,9.806509,0.03382866,0.040280003,-0.017318726,-0.003250122,-0.005218506,-32.03888,-38.63983,26.399231,1,0.0,0.0,0.0,0.0
2.224609375,-0.0053282133,0.56712294,0.8236159,5.293768E-4,-0.82362586,0.5671332,0.99998564,0.0034578098,0.0040882323,-0.007410259,0.5636231,0.82599884,-9.163951E-4,-0.82602507,0.56363267,0.9999721,0.003419723,0.006637561,10.0295105,0.013153076,0.053833008,9.80651,0.033909533,0.04009187,-0.011672974,-0.008132935,-0.0070495605,-32.03888,-38.63983,26.399231,1,0.0,0.0,0.0,0.0
2.232910157,-0.005206591,0.56906295,0.8222775,5.3224876E-4,-0.82228696,0.56907284,0.9999863,0.0034005858,0.003978429,-0.007327563,0.5637619,0.82590485,-8.594708E-4,-0.8259303,0.5637716,0.9999728,0.0034212312,0.0065365937,10.012772,-0.029907227,-0.0011901855,9.806516,0.033348355,0.03901506,-0.013198853,-0.0052337646,-0.0027770996,-32.03888,-38.69934,26.579285,1,0.0,0.0,0.0,0.0
2.241210938,-0.005089245,0.56899744,0.8223235,5.326562E-4,-0.82233244,0.569007,0.9999869,0.0033338317,0.0038819716,-0.0072433096,0.563972,0.82576215,-8.0493046E-4,-0.8257868,0.5639818,0.9999735,0.0034204135,0.006435388,10.076172,-0.020339966,0.029907227,9.806521,0.03269372,0.038069136,-0.00982666,0.004852295,-0.006286621,-32.03888,-38.69934,26.579285,1,0.0,0.0,0.0,0.0
2.249511719,-0.005074596,0.5657947,0.8245305,5.2052364E-4,-0.8245394,0.56580406,0.99998695,0.003300415,0.0038896955,-0.007200106,0.5640728,0.82569367,-7.7846413E-4,-0.825718,0.56408256,0.9999738,0.0034186817,0.0063843676,10.076172,-0.020339966,0.029907227,9.806522,0.032366015,0.038144883,-0.005859375,0.012023926,-0.007659912,-32.03888,-38.75885,26.399231,1,0.0,0.0,0.0,0.0
2.2578125,-0.0051300814,0.56582594,0.8245088,4.454197E-4,-0.82451826,0.5658352,0.99998677,0.003270033,0.0039778156,-0.0071159042,0.5641409,0.82564795,-7.2723976E-4,-0.8256715,0.56415075,0.9999744,0.0034139985,0.0062856646,10.074982,-0.032302856,0.049057007,9.80652,0.03206807,0.039009046,-0.017166138,0.007598877,-0.009338379,-32.03888,-38.75885,26.399231,1,0.0,0.0,0.0,0.0
2.266113282,-0.0051858197,0.5638365,0.82587016,3.9816578E-4,-0.82588005,0.56384575,0.99998647,0.0032528357,0.004058365,-0.007037239,0.56420785,0.82560277,-6.8100286E-4,-0.8256258,0.5642177,0.999975,0.0034082974,0.006194353,10.063019,-0.021530151,0.090927124,9.806518,0.031899422,0.039798964,-0.01121521,0.0025634766,-0.006134033,-32.099915,-38.69934,26.219177,1,0.0,0.0,0.0,0.0
2.274414063,-0.0052633295,0.5638802,0.8258399,3.2850355E-4,-0.8258503,0.56388944,0.9999861,0.0032392268,0.004161485,-0.0070001585,0.56420034,0.82560825,-6.593596E-4,-0.8256309,0.56421024,0.9999753,0.0034051882,0.0061515584,10.063019,-0.021530151,0.090927124,9.806514,0.031765964,0.040810227,-0.013961792,0.0018005371,-0.0032348633,-32.099915,-38.69934,26.219177,1,0.0,0.0,0.0,0.0
2.282714844,-0.0053314734,0.5663301,0.82416123,2.8962758E-4,-0.82417196,0.5663393,0.9999857,0.0032581233,0.0042300266,-0.0069315024,0.56418777,0.82561743,-6.2028924E-4,-0.8256395,0.5641977,0.9999758,0.003398616,0.006072882,10.022339,0.015548706,0.08135986,9.806511,0.03195128,0.041482396,-0.012588501,-0.0017242432,-0.010559082,-32.27997,-38.459778,26.219177,1,0.0,0.0,0.0,0.0
2.291015625,-0.0054006265,0.5646066,0.82534254,3.0123815E-4,-0.8253536,0.5646162,0.9999854,0.0032979054,0.0042873453,-0.00686807,0.56427276,0.8255598,-5.844282E-4,-0.8255814,0.5642827,0.9999762,0.0033930526,0.005999928,10.067795,-0.0023956299,0.04307556,9.806507,0.032341406,0.042044498,-0.011672974,-0.00920105,-0.0010986328,-32.27997,-38.459778,26.098633,1,0.0,0.0,0.0,0.0
2.299316407,-0.0053659724,0.56458676,0.8253563,3.2972707E-4,-0.8253671,0.5645963,0.9999855,0.0033017506,0.004242738,-0.0068387464,0.56427956,0.82555544,-5.667489E-4,-0.8255769,0.5642894,0.99997646,0.0033911497,0.0059657157,10.067795,-0.0023956299,0.04307556,9.806508,0.032379113,0.041607045,-0.013504028,-0.01713562,-0.0030822754,-32.27997,-38.459778,26.098633,1,0.0,0.0,0.0,0.0
2.307617188,-0.0051798816,0.5644807,0.8254301,3.8902066E-4,-0.82543993,0.5644899,0.99998647,0.0032451,0.0040560863,-0.0067804484,0.56429195,0.8255475,-5.31296E-4,-0.82556844,0.56430185,0.9999769,0.0033876093,0.00589753,10.021133,-0.03111267,0.0023956299,9.806518,0.03182356,0.03977662,-0.008926392,-0.019592285,-0.0056762695,-32.27997,-38.459778,26.098633,1,0.0,0.0,0.0,0.0
2.315917969,-0.004983404,0.5569834,0.8305087,5.212303E-4,-0.8305175,0.55699235,0.9999874,0.0032086044,0.0038484875,-0.0067484276,0.5642957,0.8255452,-5.128933E-4,-0.8255659,0.5643056,0.9999771,0.003384759,0.0058606947,10.021133,-0.03111267,0.0023956299,9.806527,0.03146566,0.03774077,-0.007843018,-0.014083862,-0.008728027,-32.03888,-38.398743,25.559998,1,0.0,0.0,0.0,0.0
2.32421875,-0.0048850593,0.5569269,0.8305471,6.392519E-4,-0.8305551,0.55693597,0.99998784,0.0032515947,0.003701295,-0.0066788183,0.5640069,0.8257431,-4.7131232E-4,-0.82576317,0.5640169,0.9999776,0.003377783,0.0057809455,10.046265,0.026321411,0.017944336,9.806531,0.031887252,0.036297306,-0.012435913,-0.009048462,-0.006134033,-32.03888,-38.398743,25.559998,1,0.0,0.0,0.0,0.0
2.332519532,-0.0047774524,0.5511654,0.83438236,7.6129846E-4,-0.8343896,0.5511746,0.9999883,0.0032684242,0.0035666553,-0.0066081258,0.5637275,0.8259344,-4.267427E-4,-0.825954,0.56373745,0.9999781,0.003372786,0.0056985742,10.04985,0.015548706,0.0011901855,9.806536,0.032052293,0.03497694,-0.010910034,-0.007980347,-0.0053710938,-32.339478,-38.519287,25.2594,1,0.0,0.0,0.0,0.0
2.340820313,-0.0046864725,0.5511123,0.8344179,8.3839754E-4,-0.83442456,0.5511214,0.9999886,0.0032823894,0.0034484568,-0.0065719206,0.5634776,0.82610524,-4.0248688E-4,-0.8261245,0.5634875,0.99997836,0.003370699,0.005656017,10.04985,0.015548706,0.0011901855,9.80654,0.032189246,0.033817813,-0.011672974,-0.009811401,-0.0038452148,-32.339478,-38.519287,25.2594,1,0.0,0.0,0.0,0.0
2.349121094,-0.0045894417,0.55163527,0.83407277,8.731971E-4,-0.834079,0.5516442,0.9999891,0.0032600493,0.003346271,-0.006497974,0.5629904,0.8264379,-3.5230676E-4,-0.82645655,0.5630004,0.99997884,0.003367202,0.0055686384,10.035492,-0.010772705,0.007171631,9.806543,0.031970162,0.03281571,-0.0069274902,-0.005844116,-0.0030822754,-32.159424,-38.459778,25.2594,1,0.0,0.0,0.0,0.0
2.357421875,-0.0045279553,0.5515996,0.8340967,9.107138E-4,-0.83410263,0.55160844,0.9999893,0.0032572818,0.00327443,-0.006423042,0.5625427,0.8267433,-3.0280417E-4,-0.82676136,0.56255263,0.9999793,0.0033629583,0.005480664,10.010376,0.008377075,0.010772705,9.806545,0.031943023,0.03211119,-0.0064697266,4.119873E-4,-0.0029296875,-32.159424,-38.459778,25.2594,1,0.0,0.0,0.0,0.0
2.365722657,-0.0044874437,0.54826045,0.83629566,9.43888E-4,-0.83630145,0.54826933,0.9999895,0.0032496965,0.0032353585,-0.0063854614,0.5623248,0.8268918,-2.7805613E-4,-0.82690954,0.5623348,0.99997956,0.003360845,0.005436558,10.010376,0.008377075,0.010772705,9.806547,0.031868637,0.03172803,-0.009689331,0.0014953613,-0.0044555664,-32.27997,-38.519287,25.079346,1,0.0,0.0,0.0,0.0
2.374023438,-0.0044398326,0.5482326,0.83631414,9.6059754E-4,-0.8363196,0.5482413,0.9999897,0.0032374607,0.003186488,-0.006311084,0.56177074,0.8272689,-2.2846507E-4,-0.8272861,0.5617807,0.99998003,0.0033564433,0.005349417,10.052246,0.0035858154,0.0,9.806549,0.031748645,0.031248774,-0.01121521,-1.9836426E-4,-0.0041503906,-32.27997,-38.519287,25.079346,1,0.0,0.0,0.0,0.0
2.382324219,-0.004365127,0.5536219,0.8327567,8.864072E-4,-0.8327621,0.5536302,0.99999005,0.0031548275,0.003144378,-0.0062376484,0.5612373,0.8276315,-1.8019066E-4,-0.82764816,0.5612473,0.99998057,0.0033517315,0.005263708,10.074982,-0.052642822,0.009567261,9.806553,0.03093829,0.030835817,-0.0069274902,-0.0035552979,-0.010864258,-32.159424,-38.15918,25.19989,1,0.0,0.0,0.0,0.0
2.390625,-0.004294068,0.55358046,0.8327846,8.669256E-4,-0.83278984,0.5535884,0.99999034,0.003099109,0.0030961437,-0.0062004426,0.5610853,0.8277347,-1.5856E-4,-0.8277512,0.5610953,0.99998075,0.0033477934,0.0052213892,10.074982,-0.052642822,0.009567261,9.806556,0.030391878,0.030362798,-0.009231567,-0.0035552979,-0.0078125,-32.159424,-38.15918,25.19989,1,0.0,0.0,0.0,0.0
2.398925782,-0.0042718207,0.5505132,0.83481556,8.7535963E-4,-0.83482075,0.55052114,0.99999046,0.003082491,0.0030843073,-0.0061253943,0.5607891,0.82793605,-1.1736364E-4,-0.82795197,0.560799,0.9999813,0.0033379456,0.005137349,10.054642,-0.034698486,0.029907227,9.806557,0.030228911,0.030246723,-0.009231567,0.0054626465,-0.008880615,-32.03888,-38.279724,25.079346,1,0.0,0.0,0.0,0.0
2.407226563,-0.0042324197,0.5504902,0.8348308,8.722198E-4,-0.83483595,0.550498,0.99999064,0.0030580948,0.0030532277,-0.006052547,0.56038356,0.8282111,-7.724855E-5,-0.8282265,0.56039345,0.9999817,0.0033278295,0.005056169,10.035492,-0.052642822,-0.0035858154,9.806559,0.029989665,0.029941937,-0.015945435,0.012329102,-0.012237549,-32.03888,-38.279724,25.079346,1,0.0,0.0,0.0,0.0
2.415527344,-0.004247035,0.5529536,0.8332013,8.177995E-4,-0.8332066,0.5529613,0.99999064,0.0030298373,0.0030864524,-0.0060163643,0.5601865,0.82834464,-5.783909E-5,-0.82835984,0.5601964,0.9999819,0.0033224346,0.005016115,10.035492,-0.052642822,-0.0035858154,9.806559,0.029712554,0.030267758,-0.014877319,0.01675415,-0.015594482,-32.159424,-38.21869,25.19989,1,0.0,0.0,0.0,0.0
2.423828125,-0.004295143,0.5529816,0.8331823,6.9724664E-4,-0.8331881,0.5529891,0.9999906,0.0029561012,0.003193098,-0.005946585,0.5599009,0.8285382,-2.258108E-5,-0.82855296,0.55991066,0.9999823,0.0033108476,0.0049397037,10.064209,-0.102890015,-0.0023956299,9.806558,0.028989451,0.031313594,-0.009994507,0.029434204,-0.009490967,-32.159424,-38.21869,25.19989,1,0.0,0.0,0.0,0.0
2.432128907,-0.004408925,0.5548504,0.83193845,4.972017E-4,-0.83194524,0.55485755,0.99999017,0.0028599668,0.003392112,-0.0058814315,0.5596279,0.82872313,6.4307824E-6,-0.8287375,0.5596376,0.9999827,0.0032967995,0.0048705637,10.045074,-0.46061707,0.03111267,9.806554,0.028046694,0.033265255,-0.009521484,0.04272461,-0.009796143,-31.97937,-38.038635,25.19989,1,0.0,0.0,0.0,0.0
2.440429688,-0.004354118,0.5548186,0.83195996,-1.9406015E-4,-0.83196825,0.5548231,0.99999046,0.002254315,0.003730156,-0.0058519416,0.55953246,0.8287878,1.6475795E-5,-0.82880193,0.5595421,0.99998283,0.003288063,0.0048408816,10.045074,-0.46061707,0.03111267,9.806557,0.022107279,0.036580335,-0.0049438477,0.05493164,-0.010559082,-31.97937,-38.038635,25.19989,1,0.0,0.0,0.0,0.0
2.448730469,-0.0040394715,0.5513291,0.834278,-0.0017428077,-0.83428746,0.5513269,0.99999034,7.7308307E-4,0.0043309415,-0.005792479,0.55934644,0.8289138,8.5285865E-6,-0.8289277,0.55935585,0.99998325,0.0032471262,0.0047967755,10.061813,-1.0995026,0.1603241,9.806556,0.0075813555,0.042472027,-9.765625E-4,0.06486511,-0.0072021484,-32.339478,-38.459778,25.2594,1,0.0,0.0,0.0,0.0
2.45703125,-0.0038414707,0.5512135,0.8343554,-0.0027933002,-0.83436424,0.55120647,0.99998873,-2.1316155E-4,0.00474489,-0.005722386,0.55902994,0.8291277,-6.0160877E-5,-0.8291415,0.55903876,0.9999836,0.0031491546,0.0047782995,10.077377,-0.74775696,-0.050247192,9.80654,-0.0020904008,0.04653148,0.01902771,0.08609009,-0.01071167,-32.339478,-38.459778,25.2594,1,0.0,0.0,0.0,0.0
2.465332032,-0.003754045,0.55238336,0.83358175,-0.0038923663,-0.83358943,0.5523709,0.9999854,-0.0011709802,0.0052794106,-0.005684222,0.558874,0.8292331,-1.144479E-4,-0.8292468,0.55888253,0.99998385,0.0030819084,0.004777585,10.077377,-0.74775696,-0.050247192,9.806507,-0.011483393,0.051773332,0.018417358,0.09770203,-0.012542725,-32.339478,-38.69934,25.498962,1,0.0,0.0,0.0,0.0
2.473632813,-0.003913922,0.552476,0.8335196,-0.004787502,-0.83352673,0.5524582,0.9999808,-0.0018281983,0.005907339,-0.0056065926,0.5586179,0.8294062,-2.634297E-4,-0.82942003,0.5586254,0.99998426,0.0029134948,0.004797376,10.012772,-0.5587311,-0.07298279,9.806462,-0.017928502,0.057931207,0.012619019,0.12060547,-0.014221191,-32.339478,-38.69934,25.498962,1,0.0,0.0,0.0,0.0
2.481933594,-0.004347558,0.55423295,0.8323503,-0.0054876665,-0.8323589,0.55421,0.9999755,-0.0021582004,0.0066601736,-0.0055382163,0.5583757,0.8295697,-4.4205622E-4,-0.82958376,0.5583822,0.99998456,0.0027257248,0.0048412476,10.083359,-0.3409729,-0.058624268,9.80641,-0.021164717,0.065313995,0.014755249,0.08761597,-0.022323608,-32.339478,-38.63983,25.559998,1,0.0,0.0,0.0,0.0
2.490234375,-0.004736115,0.5544577,0.8321984,-0.006113465,-0.8322083,0.5544295,0.99997014,-0.002461774,0.0073310924,-0.0055138916,0.5582932,0.82962537,-5.428407E-4,-0.82963955,0.55829906,0.9999846,0.0026280466,0.004877607,10.083359,-0.3409729,-0.058624268,9.806357,-0.024141757,0.07189346,0.002380371,0.08258057,-0.011627197,-32.339478,-38.63983,25.559998,1,0.0,0.0,0.0,0.0
2.498535157,-0.0053896345,0.55900913,0.82914394,-0.006168181,-0.8291588,0.55897903,0.99996644,-0.0021016174,0.007916933,-0.005482008,0.5581416,0.8297276,-7.6322956E-4,-0.8297422,0.5581463,0.9999847,0.0024264902,0.004974644,10.059433,0.13998413,0.021530151,9.806321,-0.020609826,0.0776386,-0.026779175,0.066848755,-0.014831543,-32.218933,-38.398743,25.679016,1,0.0,0.0,0.0,0.0
2.506814631,-0.0056686145,0.5591696,0.82903385,-0.0069793584,-0.8290491,0.55913216,0.9999596,-0.0026166195,0.008602207,-0.0054786224,0.5581762,0.8297044,-9.773109E-4,-0.8297194,0.55817986,0.99998456,0.0022471773,0.0050912313,10.0295105,-0.46780396,0.1986084,9.806254,-0.025660275,0.084358834,-0.041137695,0.027908325,-0.009185791,-32.218933,-38.398743,25.679016,1,0.0,0.0,0.0,0.0
2.515115412,-0.0057791118,0.55923957,0.828986,-0.0076910434,-0.8290002,0.55919546,0.9999537,-0.003144114,0.009092019,-0.0054825568,0.55819607,0.82969093,-0.0010973447,-0.82970625,0.55819917,0.9999844,0.0021499016,0.005161445,10.0295105,-0.46780396,0.1986084,9.806196,-0.030833228,0.08916225,-0.06695557,0.012939453,-0.010253906,-32.27997,-38.398743,25.679016,1,0.0,0.0,0.0,0.0
2.523416193,-0.005231176,0.5589238,0.8292026,-0.009498643,-0.8292043,0.558865,0.99994123,-0.0049527776,0.0096467305,-0.005494641,0.5582375,0.829663,-0.0013584614,-0.8296789,0.5582393,0.99998397,0.0019402589,0.005317132,10.082153,-1.3986053,0.39959717,9.806074,-0.048570156,0.09460211,-0.07260132,-0.016677856,-0.008728027,-32.27997,-38.398743,25.679016,1,0.0,0.0,0.0,0.0
2.531716975,-0.0044482877,0.56269413,0.82665324,-0.011382954,-0.8266363,0.5626214,0.9999253,-0.0069070533,0.010082237,-0.0054845307,0.55826527,0.8296444,-0.0016808748,-0.8296609,0.5582652,0.99998355,0.0016672944,0.0054886746,10.060623,-1.5218353,0.4630127,9.805918,-0.06773505,0.098872975,-0.041900635,-0.036376953,-0.011169434,-32.51953,-38.15918,25.79956,1,0.0,0.0,0.0,0.0
2.540017756,-0.0035890965,0.5621945,0.8269973,-0.013131865,-0.82695776,0.5621107,0.9999073,-0.008842547,0.010350693,-0.0054648486,0.5583542,0.82958466,-0.0018750449,-0.8296013,0.55835307,0.9999833,0.0014958067,0.0055805845,10.060623,-1.5218353,0.4630127,9.805741,-0.086715765,0.10150563,-0.023880005,-0.030731201,-0.0032348633,-32.51953,-38.15918,25.79956,1,0.0,0.0,0.0,0.0
2.548318537,-0.0022611388,0.5593432,0.828933,-0.014427925,-0.828867,0.55925936,0.9998933,-0.010695222,0.009944348,-0.0053924797,0.5585078,0.8294818,-0.0023211092,-0.8294986,0.55850405,0.9999828,0.0010864041,0.005769412,10.104889,-1.4990997,0.008377075,9.805604,-0.104884304,0.09752074,-0.049850464,-0.0124053955,0.009750366,-32.699585,-38.09967,25.619507,1,0.0,0.0,0.0,0.0
2.556619318,-0.0012739224,0.5587613,0.8293276,-0.015334358,-0.82924163,0.5586798,0.99988157,-0.012005491,0.009624635,-0.005269039,0.55854243,0.82945925,-0.0028007436,-0.82947576,0.55853575,0.99998224,6.198442E-4,0.005934874,10.060623,-1.0959167,0.0023956299,9.80549,-0.11773366,0.09438543,-0.08099365,0.02684021,-0.01574707,-32.699585,-38.09967,25.619507,1,0.0,0.0,0.0,0.0
2.5649201,-4.405367E-4,0.5612712,0.8276319,-0.01637419,-0.827525,0.56119,0.9998658,-0.013304576,0.009554916,-0.0051891897,0.5585476,0.8294562,-0.0030514393,-0.82947236,0.55853945,0.9999819,3.6733196E-4,0.0060086637,10.060623,-1.0959167,0.0023956299,9.805334,-0.13047333,0.09370172,-0.12527466,0.062423706,-0.013458252,-33.059692,-37.979126,25.738525,1,0.0,0.0,0.0,0.0
2.573220881,-2.644146E-4,0.56116617,0.8277031,-0.017000003,-0.82758605,0.56108135,0.99985546,-0.013922598,0.009758652,-0.005002988,0.55865765,0.8293833,-0.0035797574,-0.8293984,0.5586462,0.9999811,-1.7409062E-4,0.006149329,10.157532,-0.6807556,0.0059814453,9.805233,-0.13653405,0.09569969,-0.18423462,0.04272461,-0.027053833,-33.059692,-37.979126,25.738525,1,0.0,0.0,0.0,0.0
2.581521662,-4.3805796E-4,0.5571056,0.8304416,-0.01675059,-0.8303292,0.5570214,0.9998596,-0.013666379,0.009695579,-0.0048169675,0.55875933,0.8293159,-0.0041118274,-0.8293296,0.5587446,0.99998,-7.185488E-4,0.0062923757,10.051056,-0.088531494,-0.22732544,9.805273,-0.1340214,0.09508116,-0.22010803,0.083496094,-0.025222778,-33.47931,-37.85858,25.379944,1,0.0,0.0,0.0,0.0
2.589822443,-6.0992554E-4,0.5572104,0.8303712,-0.016549481,-0.83026326,0.5571258,0.99986285,-0.013402405,0.00972794,-0.004728889,0.5587274,0.8293379,-0.0043644416,-0.82935077,0.5587112,0.9999793,-9.775136E-4,0.006360441,10.051056,-0.088531494,-0.22732544,9.8053055,-0.1314327,0.0953985,-0.29096985,0.099227905,-0.0236969,-33.47931,-37.85858,25.379944,1,0.0,0.0,0.0,0.0
2.598123225,-8.7720004E-4,0.5561488,0.8310822,-0.016420532,-0.8309784,0.55606204,0.9998647,-0.013159037,0.009861194,-0.0046461653,0.55869794,0.82935816,-0.004608069,-0.82937026,0.55868024,0.99997854,-0.001226019,0.00642791,10.003189,-0.35772705,-0.041870117,9.805324,-0.12904607,0.09670528,-0.32868958,0.049438477,-0.024154663,-33.4198,-37.61902,25.138855,1,0.0,0.0,0.0,0.0
2.606424006,-0.0011337806,0.5563061,0.8309766,-0.016802065,-0.83087045,0.5562121,0.9998582,-0.013331502,0.010289118,-0.004495563,0.55859894,0.82942575,-0.0050754454,-0.8294362,0.55857843,0.99997705,-0.0016985807,0.006563921,9.9673,-0.35772705,-0.041870117,9.80526,-0.13073738,0.10090178,-0.37893677,0.09449768,-0.01651001,-33.4198,-37.61902,25.138855,1,0.0,0.0,0.0,0.0
2.614724787,-9.379523E-4,0.5571236,0.830429,-0.0172679,-0.8303146,0.55702734,0.99985045,-0.0138173,0.010399151,-0.0043612337,0.55850977,0.8294864,-0.00553951,-0.82949513,0.55848646,0.99997514,-0.0021592588,0.0067114923,10.09053,-0.57307434,-0.34576416,9.805183,-0.13550143,0.101980835,-0.39985657,0.087768555,-0.015899658,-33.599854,-37.438965,25.079346,1,0.0,0.0,0.0,0.0
2.623025568,-7.8435754E-4,0.55702865,0.830493,-0.019281682,-0.83034724,0.55691266,0.99981374,-0.015576481,0.011391737,-0.004292403,0.55848277,0.829505,-0.0057739913,-0.82951266,0.55845803,0.99997413,-0.0023924275,0.0067852773,9.888336,-1.475174,0.2644043,9.804824,-0.1527531,0.11171477,-0.42199707,0.111587524,-0.0059814453,-33.599854,-37.438965,25.079346,1,0.0,0.0,0.0,0.0
2.63132635,-5.291178E-4,0.55687064,0.8305991,-0.021261316,-0.83041775,0.5567355,0.9997738,-0.01736505,0.01227919,-0.0041526314,0.55842686,0.82954335,-0.0063087274,-0.82954866,0.55839884,0.9999715,-0.0029145384,0.0069677727,10.115662,-1.524231,0.14596558,9.804432,-0.17029296,0.12041772,-0.36854553,0.110824585,-0.02796936,-33.599854,-37.438965,25.079346,1,0.0,0.0,0.0,0.0
2.639627131,-3.0245274E-4,0.5582542,0.82966983,-0.023968142,-0.8294356,0.5580878,0.9997127,-0.01971685,0.013631182,-0.0040081907,0.5583675,0.82958406,-0.0069007184,-0.8295864,0.5583358,0.9999682,-0.0034868098,0.007178277,10.04866,-1.9824524,0.6316986,9.803833,-0.19335625,0.13367623,-0.3615265,0.010498047,-0.0067443848,-34.01947,-37.379456,25.138855,1,0.0,0.0,0.0,0.0
2.647927912,0.0011065234,0.56140316,0.82754177,-0.026947618,-0.827225,0.56122434,0.9996363,-0.022921287,0.014213132,-0.003934039,0.5583666,0.82958496,-0.0072420975,-0.82958555,0.5583326,0.999966,-0.0038114334,0.0073073674,10.224533,-2.5794678,0.501297,9.803083,-0.22478104,0.13938321,-0.3149414,-0.052719116,-0.007659912,-34.13849,-37.078857,25.19989,1,0.0,0.0,0.0,0.0
2.656228693,0.0014873092,0.5611628,0.8277041,-0.027163733,-0.82737684,0.5609898,0.99962986,-0.023317898,0.014012713,-0.003737306,0.5584908,0.8295023,-0.008023319,-0.8294981,0.5584519,0.99996084,-0.0045682555,0.0075810384,10.224533,-2.5794678,0.501297,9.8030205,-0.22867046,0.13741778,-0.24577332,-0.03868103,-0.020324707,-34.13849,-37.078857,25.19989,1,0.0,0.0,0.0,0.0
2.664529475,0.0019534237,0.56672174,0.8239069,-0.027533188,-0.8235656,0.5665523,0.99961895,-0.023791501,0.013994885,-0.0035328364,0.5586003,0.82942945,-0.008782065,-0.8294199,0.5585565,0.9999552,-0.0053108144,0.007835869,10.084549,-3.2805634,0.7238312,9.802914,-0.23331493,0.13724294,-0.19766235,0.05218506,-0.014984131,-34.199524,-36.779785,25.379944,1,0.0,0.0,0.0,0.0
