Time,Rot1,Rot2,Rot3,Rot4,Rot5,Rot6,Rot7,Rot8,Rot9,FRot1,FRot2,FRot3,FRot4,FRot5,FRot6,FRot7,FRot8,FRot9,AccX,AccY,AccZ,GravX,GravY,GravZ,GyroX,GyroY,GyroZ,MagX,MagY,MagZ,Imid
0.0,0.0,0.0,0.0,0.0,0.0,0.0,0.0,0.0,0.0,1.0,0.0,0.0,0.0,1.0,0.0,0.0,0.0,1.0,10.07019,0.16989136,-0.08734131,9.8041315,0.22063625,-0.026641795,-0.02798462,-0.014389038,-0.015563965,0.0,0.0,0.0,0,0.0,0.0,0.0,0.0
0.008300781,-0.011958637,0.63081026,0.77584493,0.019293243,-0.77561045,0.630917,0.9997424,0.022513473,-0.002895132,1.0,0.0,0.0,0.0,1.0,0.0,0.0,0.0,1.0,10.07019,0.16989136,-0.08734131,9.804124,0.22078176,-0.028391546,-0.02279663,-0.010726929,-0.012359619,-31.079102,-38.519287,30.839539,0,0.0,0.0,0.0,0.0
0.016601562,-0.011871682,0.6307684,0.7758803,0.019423096,-0.77564305,0.6308727,0.99974084,0.022559518,-0.0030432877,0.99332607,0.097214155,-0.06206935,-0.097080745,0.99526304,0.005168626,0.062277798,8.916079E-4,0.99805844,10.063019,0.19740295,-0.088531494,9.804109,0.2212333,-0.029844457,-0.01928711,0.0042419434,-0.00793457,-31.079102,-38.519287,30.839539,0,0.0,0.0,0.0,0.0
0.024902344,-0.011852507,0.63058096,0.776033,0.019437646,-0.7757956,0.6306849,0.99974084,0.022559451,-0.0030618883,0.97447807,0.1897249,-0.11998664,-0.18852034,0.98183566,0.021416789,0.121870466,0.0017497313,0.9925444,10.064209,0.15672302,-0.04307556,9.804109,0.22123265,-0.030026868,-0.017745972,0.0028686523,-0.009002686,-31.079102,-38.75885,31.019592,0,0.0,0.0,0.0,0.0
0.033203125,-0.011844862,0.63057727,0.776036,0.019402461,-0.77579945,0.63068116,0.9997416,0.022527343,-0.003045513,0.9610538,0.23405425,-0.14694962,-0.2317014,0.97222114,0.033174485,0.15063216,0.002165963,0.9885875,10.064209,0.15672302,-0.04307556,9.804116,0.22091776,-0.029866282,-0.010726929,0.0043945313,-0.0050354004,-31.079102,-38.75885,31.019592,0,0.0,0.0,0.0,0.0
0.041503906,-0.011835039,0.6308863,0.7757849,0.019352037,-0.7755494,0.63099,0.9997427,0.022480814,-0.0030302797,0.94526786,0.27703035,-0.17240317,-0.2730141,0.9608577,0.047071602,0.17869517,0.002573227,0.9839011,10.060623,0.21296692,-0.010772705,9.804127,0.22046147,-0.029716892,-0.01576233,0.003479004,-0.0033569336,-31.079102,-38.578796,30.899048,0,0.0,0.0,0.0,0.0
0.049804687,-0.011826131,0.6308821,0.77578855,0.019339904,-0.77555335,0.6309856,0.999743,0.022465795,-0.003029404,0.90751725,0.35876942,-0.21839619,-0.3496515,0.9334201,0.080440246,0.2327149,0.003361638,0.9725392,10.067795,0.18544006,-0.053833008,9.804131,0.22031422,-0.029708307,-0.020355225,0.003479004,-0.0062561035,-31.079102,-38.578796,30.899048,0,0.0,0.0,0.0,0.0
0.058105469,-0.011777399,0.627312,0.778679,0.019338027,-0.7784445,0.62741554,0.99974364,0.022447437,-0.002962923,0.8629702,0.43476778,-0.25740907,-0.41793117,0.9005332,0.11988948,0.2839295,0.004118231,0.9588363,10.052246,0.16870117,-0.0047912598,9.804136,0.22013417,-0.02905635,-0.014846802,0.0031738281,-0.009307861,-31.019592,-38.63983,30.659485,0,0.0,0.0,0.0,0.0
0.06640625,-0.011817497,0.62733126,0.7786629,0.019301558,-0.77842903,0.6274358,0.9997438,0.022444125,-0.0029093886,0.83862257,0.47066933,-0.2741946,-0.44893822,0.8822983,0.14143622,0.30849114,0.004484849,0.95121664,10.045074,0.19142151,0.010772705,9.804138,0.22010168,-0.028531356,-0.014846802,-0.0015563965,-0.009918213,-31.019592,-38.63983,30.659485,0,0.0,0.0,0.0,0.0
0.074707031,-0.011870948,0.62735707,0.77864116,0.019298041,-0.7784072,0.6274628,0.9997433,0.022474831,-0.0028663303,0.7868024,0.5381032,-0.3023029,-0.5045048,0.842863,0.18723525,0.35555178,0.0051961015,0.9346422,10.045074,0.19142151,0.010772705,9.804132,0.2204028,-0.028109098,-0.017913818,-0.0040130615,-0.008239746,-31.019592,-38.63983,30.659485,0,0.0,0.0,0.0,0.0
0.083007812,-0.01172393,0.62556165,0.7800865,0.019376121,-0.7798515,0.6256644,0.9997435,0.022450302,-0.0029780332,0.7319739,0.5997786,-0.3232334,-0.55161786,0.8001444,0.23555611,0.39991492,0.0058804015,0.9165334,10.04985,0.15792847,-0.08494568,9.804135,0.22016226,-0.029204529,-0.018829346,-9.460449E-4,-0.008544922,-31.318665,-38.819885,30.659485,0,0.0,0.0,0.0,0.0
0.091308594,-0.01141636,0.6161915,0.7875136,0.019551937,-0.7872768,0.6162897,0.99974364,0.022433199,-0.0030599025,0.703799,0.6285346,-0.3310756,-0.57212996,0.77775675,0.2603107,0.4211106,0.00621183,0.90698797,10.04866,0.1603241,-0.06939697,9.804136,0.21999454,-0.030007394,-0.02279663,-0.004776001,-0.012054443,-31.439209,-38.99994,30.059814,0,0.0,0.0,0.0,0.0
0.099609375,-0.011374278,0.6161707,0.78753054,0.019594911,-0.7872929,0.61626774,0.9997433,0.022441192,-0.0031189222,0.6463863,0.6822639,-0.34161478,-0.60755813,0.73107386,0.31049016,0.46158186,0.0068542543,0.88707113,10.055832,0.17826843,-0.013153076,9.804132,0.22007291,-0.03058618,-0.010421753,-3.0517578E-5,-0.012054443,-31.439209,-38.99994,30.059814,0,0.0,0.0,0.0,0.0
0.107910156,-0.01132601,0.61353993,0.78958243,0.019647377,-0.789344,0.6136365,0.99974275,0.022463277,-0.0031143336,0.5887316,0.73061484,-0.34582818,-0.635473,0.682749,0.36059374,0.49956894,0.007471553,0.86624193,10.061813,0.17347717,-0.0143585205,9.804128,0.2202895,-0.03054118,-0.017913818,-0.010269165,-0.009460449,-31.91986,-39.118958,29.93927,0,0.0,0.0,0.0,0.0
0.116210937,-0.01128741,0.61352056,0.7895981,0.019689135,-0.7893589,0.61361617,0.9997424,0.02247264,-0.0031698707,0.56003857,0.7528947,-0.34569684,-0.646826,0.65809506,0.38539186,0.5176609,0.007771415,0.8555505,10.042679,0.17945862,-0.032302856,9.804125,0.22038133,-0.031085815,-0.015151978,-0.0050811768,-0.007019043,-31.91986,-39.118958,29.93927,0,0.0,0.0,0.0,0.0
0.124511719,-0.011174201,0.61346334,0.78964406,0.019707918,-0.78940487,0.6135564,0.99974334,0.022418246,-0.0032691162,0.5034557,0.79373384,-0.34134883,-0.6646114,0.60820794,0.43402168,0.55210876,0.008353636,0.8337303,10.054642,0.13519287,-0.08255005,9.804132,0.21984787,-0.032059077,-0.020812988,0.0040893555,-0.01159668,-31.91986,-39.118958,29.93927,0,0.0,0.0,0.0,0.0
0.1328125,-0.011051819,0.6103656,0.7920427,0.0197375,-0.7918036,0.6104568,0.9997441,0.022379603,-0.0032962237,0.448441,0.82985264,-0.33203205,-0.6763559,0.55791146,0.4809132,0.5843316,0.008910643,0.8114661,10.054642,0.13519287,-0.08255005,9.804141,0.21946894,-0.032324914,-0.023101807,0.011413574,-0.012664795,-31.97937,-39.118958,29.699707,0,0.0,0.0,0.0,0.0
0.141113281,-0.011134671,0.61362827,0.7895165,0.019662617,-0.7892784,0.61372054,0.9997446,0.022357536,-0.0032771844,0.42162502,0.8462756,-0.32565308,-0.6801927,0.5326662,0.5035916,0.5996417,0.009180047,0.8002159,10.033112,0.15672302,-0.028717041,9.804146,0.21925254,-0.032138202,-0.028900146,0.010803223,-0.012817383,-32.099915,-39.179993,29.99878,0,0.0,0.0,0.0,0.0
0.149414062,-0.011199122,0.61366105,0.7894902,0.019586958,-0.78925353,0.6137549,0.99974537,0.022337226,-0.0031808044,0.36984155,0.8758609,-0.3099756,-0.68404734,0.48246604,0.5470885,0.6287261,0.00970192,0.7775663,10.040283,0.16270447,-0.0382843,9.804153,0.21905337,-0.031193037,-0.01423645,0.009735107,-0.0030517578,-32.099915,-39.179993,29.99878,0,0.0,0.0,0.0,0.0
0.157714844,-0.0113123655,0.6174493,0.7865294,0.019492513,-0.7862941,0.6175449,0.99974597,0.022317326,-0.0031407925,0.3206208,0.9014749,-0.29076675,-0.6834186,0.43271112,0.5879627,0.6558516,0.01020232,0.7548209,10.04985,0.17468262,-0.06460571,9.804159,0.21885821,-0.030800654,-0.020507813,0.017990112,-0.009918213,-32.099915,-38.879395,30.059814,0,0.0,0.0,0.0,0.0
0.166015625,-0.011415437,0.6175015,0.7864869,0.019432336,-0.7862526,0.61759955,0.99974597,0.022333447,-0.0030240791,0.2971073,0.9128473,-0.28006625,-0.68157804,0.40816757,0.6073307,0.6687141,0.01044464,0.7434463,10.064209,0.18664551,-0.03111267,9.804159,0.2190163,-0.029656086,-0.011795044,0.017990112,-0.009918213,-32.099915,-38.879395,30.059814,0,0.0,0.0,0.0,0.0
0.174316406,-0.011525024,0.61755705,0.7864416,0.01934867,-0.7862089,0.61765784,0.9997464,0.022335121,-0.0028878304,0.25223452,0.93300027,-0.256687,-0.67526734,0.35971004,0.6439121,0.693103,0.010915476,0.7207559,10.045074,0.16151428,-0.035888672,9.804163,0.21903272,-0.028319942,-0.010879517,0.015533447,-0.009613037,-32.099915,-38.879395,30.059814,0,0.0,0.0,0.0,0.0
0.182617187,-0.011413128,0.6090401,0.7930573,0.019390479,-0.79282504,0.60914075,0.99974686,0.022329964,-0.0027609647,0.21030815,0.9499352,-0.23107052,-0.6658853,0.3122401,0.67757124,0.71579826,0.01136773,0.6982146,10.045074,0.16151428,-0.035888672,9.804168,0.21898215,-0.027075814,-0.024169922,0.0152282715,-0.0036621094,-32.159424,-39.118958,29.579163,0,0.0,0.0,0.0,0.0
0.190917969,-0.01163861,0.6120655,0.7907214,0.01924617,-0.7904913,0.6121707,0.999747,0.022343174,-0.0025796976,0.19032043,0.95734495,-0.21741395,-0.66023815,0.28871515,0.6933464,0.72654235,0.011586993,0.687024,10.066605,0.19262695,0.009567261,9.804169,0.2191117,-0.025298193,-0.023864746,0.014465332,-0.009307861,-32.27997,-39.05945,29.759216,0,0.0,0.0,0.0,0.0
0.19921875,-0.011777995,0.61213696,0.79066396,0.019154927,-0.7904356,0.6122455,0.99974716,0.022356138,-0.0024156931,0.15269436,0.97002035,-0.18906303,-0.6471853,0.24272634,0.72265834,0.74688387,0.01201297,0.66484594,10.040283,0.19142151,0.0,9.804171,0.21923882,-0.023689857,-0.02508545,0.015396118,-0.00793457,-32.27997,-39.05945,29.759216,0,0.0,0.0,0.0,0.0
0.207519531,-0.011889447,0.6121942,0.7906181,0.01908995,-0.7903909,0.61230534,0.99974704,0.02237283,-0.002289445,0.13499664,0.9753746,-0.1744141,-0.6399023,0.22021589,0.73622686,0.7565057,0.012219848,0.6538729,10.073776,0.18304443,-0.0059814453,9.80417,0.21940252,-0.022451784,-0.02142334,0.004852295,-0.01083374,-32.27997,-39.05945,29.759216,0,0.0,0.0,0.0,0.0
0.215820312,-0.012121117,0.618582,0.78562677,0.018961951,-0.785401,0.61869675,0.9997467,0.022396311,-0.0022095852,0.10179236,0.984271,-0.14439197,-0.62406814,0.17621411,0.7612408,0.7747111,0.012621937,0.6321894,10.059433,0.18544006,0.01914978,9.804167,0.2196328,-0.02166863,-0.020507813,-0.0096588135,-0.007171631,-32.159424,-38.578796,29.87976,0,0.0,0.0,0.0,0.0
0.224121094,-0.012079275,0.6185606,0.78564423,0.019007782,-0.78541756,0.6186744,0.9997464,0.022406492,-0.002270191,0.07162899,0.99090433,-0.11392043,-0.6068154,0.13393782,0.78347665,0.7916087,0.013009031,0.6108898,10.051056,0.17108154,-0.039474487,9.804163,0.21973264,-0.02226297,-0.021118164,-0.0014038086,-0.012817383,-32.159424,-38.578796,29.87976,0,0.0,0.0,0.0,0.0
0.232421875,-0.011947039,0.61395645,0.78924954,0.019128393,-0.789021,0.6140683,0.9997456,0.022433372,-0.0023175352,0.057574265,0.9934688,-0.09851354,-0.5977727,0.113338225,0.79361343,0.79959553,0.0131969955,0.6003939,10.051056,0.17108154,-0.039474487,9.804156,0.21999624,-0.022727259,-0.020812988,-7.9345703E-4,-0.013580322,-32.458496,-39.118958,29.93927,0,0.0,0.0,0.0,0.0
0.240722656,-0.011956102,0.6142643,0.78900975,0.019151798,-0.78878075,0.61437625,0.99974513,0.0224565,-0.002333525,0.031309586,0.9972394,-0.06732987,-0.5790426,0.07300447,0.8120222,0.8146959,0.013562782,0.5797298,10.043869,0.1603241,-0.021530151,9.804151,0.22022305,-0.022884063,-0.022949219,0.001953125,-0.005645752,-32.27997,-39.239502,30.059814,0,0.0,0.0,0.0,0.0
0.249023437,-0.0119500905,0.6142613,0.7890122,0.01912885,-0.78878367,0.61437315,0.9997456,0.02243471,-0.0023240778,0.0075971717,0.9993192,-0.036104266,-0.5596474,0.034170277,0.8280262,0.8286961,0.013914999,0.5595259,10.043869,0.1603241,-0.021530151,9.804155,0.22000936,-0.022791417,-0.017303467,-0.002166748,-0.0061035156,-32.27997,-39.239502,30.059814,0,0.0,0.0,0.0,0.0
0.257324219,-0.011877126,0.61422426,0.7890422,0.019153168,-0.7888133,0.61433434,0.99974597,0.022409182,-0.0023955053,-0.0033485163,0.9997836,-0.020533558,-0.54977393,0.015311464,0.8351732,0.8353068,0.014085405,0.54960364,10.059433,0.17468262,-0.07537842,9.804159,0.21975902,-0.023491882,-0.017303467,0.0018005371,-0.004119873,-32.27997,-39.239502,30.059814,0,0.0,0.0,0.0,0.0
0.265625,-0.011967715,0.61837655,0.7857908,0.019065756,-0.78556305,0.6184877,0.99974656,0.02238358,-0.0023884224,-0.023510017,0.9996693,0.010415283,-0.5298011,-0.021293318,0.8478546,0.847796,0.014415048,0.5301265,10.034302,0.16270447,-0.046661377,9.804165,0.21950793,-0.023422422,-0.020202637,0.011108398,-0.009918213,-31.858826,-39.118958,30.299377,0,0.0,0.0,0.0,0.0
0.273925781,-0.011982414,0.6183839,0.7857847,0.019053947,-0.78555727,0.61849546,0.9997467,0.022383373,-0.0023697822,-0.04138024,0.99831015,0.04079971,-0.509689,-0.05621343,0.8585204,0.8593631,0.014730622,0.51115376,10.071396,0.16270447,-0.07058716,9.804166,0.2195059,-0.023239626,-0.02142334,0.009735107,-0.012054443,-31.858826,-39.118958,30.299377,0,0.0,0.0,0.0,0.0
0.282226562,-0.012031367,0.61821544,0.78591657,0.019018108,-0.78568983,0.6183282,0.99974674,0.022385981,-0.0023043645,-0.04954729,0.99721146,0.05580711,-0.49962974,-0.07312895,0.86314666,0.8648209,0.014883687,0.50185984,10.051056,0.1603241,-0.055038452,9.804167,0.21953148,-0.022598097,-0.02142334,0.028366089,-0.009002686,-31.678772,-39.05945,30.239868,0,0.0,0.0,0.0,0.0
0.290527344,-0.011912023,0.6084163,0.7935287,0.019064393,-0.79330254,0.60852915,0.99974734,0.022376955,-0.002149248,-0.06444158,0.9942614,0.08539128,-0.4795911,-0.10589585,0.8710789,0.87512267,0.015180796,0.483663,10.071396,0.17826843,-0.0011901855,9.8041725,0.21944296,-0.021076923,-0.021575928,0.030654907,-0.008087158,-31.799316,-39.35852,29.699707,0,0.0,0.0,0.0,0.0
0.298828125,-0.012129502,0.608526,0.7934413,0.018906102,-0.7932183,0.608644,0.99974775,0.022383427,-0.001883511,-0.077756286,0.990347,0.11474604,-0.4597202,-0.13774434,0.87731624,0.88465315,0.015465781,0.46599302,10.071396,0.17826843,-0.025131226,9.804176,0.21950644,-0.018470934,-0.022033691,0.027450562,-0.007019043,-31.799316,-39.35852,29.699707,0,0.0,0.0,0.0,0.0
0.307128906,-0.012328201,0.60862625,0.79336137,0.018791152,-0.7931406,0.60874885,0.99974746,0.02241295,-0.0016587909,-0.0837695,0.9880812,0.12914392,-0.44989243,-0.15314043,0.87985504,0.8891453,0.015604142,0.45735875,10.054642,0.19740295,-0.025131226,9.804173,0.21979596,-0.016267182,-0.020050049,0.026229858,-0.009460449,-31.799316,-39.35852,29.699707,0,0.0,0.0,0.0,0.0
0.315429687,-0.012533922,0.6089759,0.7930898,0.018683013,-0.792871,0.60910314,0.99974686,0.022451755,-0.0014397206,-0.09459623,0.98300326,0.15734114,-0.43050566,-0.18290079,0.8838622,0.8976171,0.015873786,0.44049013,10.0785675,0.18304443,0.011962891,9.804169,0.22017652,-0.014118837,-0.021575928,0.032791138,-0.008087158,-32.218933,-39.419556,29.759216,0,0.0,0.0,0.0,0.0
0.323730469,-0.012788647,0.6091057,0.7929859,0.018489609,-0.7927711,0.6092389,0.9997472,0.022453342,-0.0011236568,-0.10393051,0.97728616,0.18468925,-0.41153583,-0.21130867,0.886559,0.9054483,0.016134288,0.4241497,10.040283,0.18066406,0.047851563,9.804172,0.22019207,-0.011019309,-0.020202637,0.013092041,-0.008544922,-32.218933,-39.419556,29.759216,0,0.0,0.0,0.0,0.0
0.33203125,-0.012892321,0.60595816,0.79539204,0.018406602,-0.79517955,0.60609466,0.99974746,0.022454431,-9.0192043E-4,-0.10808013,0.97421795,0.19803555,-0.40222883,-0.22502218,0.88745534,0.9091373,0.016260676,0.416179,10.060623,0.17945862,0.037094116,9.804173,0.22020276,-0.008844818,-0.022644043,0.0069885254,-0.014038086,-32.458496,-39.35852,29.458618,0,0.0,0.0,0.0,0.0
0.340332031,-0.012893867,0.6010991,0.7990705,0.018428653,-0.79885834,0.6012369,0.99974704,0.02247806,-7.770738E-4,-0.115484,0.96767634,0.2242007,-0.38397926,-0.25165462,0.88838613,0.9160914,0.016505964,0.4006297,10.07019,0.17706299,0.044265747,9.80417,0.22043449,-0.0076204906,-0.012710571,-0.003250122,-0.009307861,-32.458496,-39.538574,29.219055,0,0.0,0.0,0.0,0.0
0.348632812,-0.012973633,0.60114056,0.79903805,0.018381016,-0.7988269,0.60128015,0.99974686,0.022487916,-6.858884E-4,-0.11878013,0.9642086,0.23705079,-0.37503886,-0.26462314,0.8884371,0.9193678,0.016625412,0.39304766,10.07019,0.17706299,0.044265747,9.804168,0.22053114,-0.0067262677,-0.01576233,0.0027160645,-0.008239746,-32.458496,-39.538574,29.219055,0,0.0,0.0,0.0,0.0
0.356933594,-0.0130389845,0.6011746,0.79901147,0.018382894,-0.79880023,0.6013156,0.99974597,0.022528684,-6.357846E-4,-0.12452937,0.95698506,0.26205343,-0.35757425,-0.289647,0.8878318,0.92554474,0.016857577,0.37826276,10.054642,0.20817566,0.027511597,9.804159,0.22093092,-0.0062349173,-0.019744873,-0.004470825,-0.0061035156,-32.458496,-39.538574,29.219055,0,0.0,0.0,0.0,0.0
0.365234375,-0.013100789,0.60242265,0.7980697,0.018345172,-0.7978591,0.6025648,0.9997459,0.0225348,-5.989651E-4,-0.1292445,0.9494368,0.28612164,-0.34068272,-0.31349313,0.88637316,0.9312525,0.017082166,0.36397398,10.057037,0.18185425,0.020339966,9.804158,0.22099091,-0.0058738412,-0.013320923,8.8500977E-4,-0.011138916,-32.699585,-39.419556,29.219055,0,0.0,0.0,0.0,0.0
0.373535156,-0.013144046,0.60244536,0.7980519,0.018343296,-0.7978413,0.6025885,0.99974537,0.022559352,-5.6397E-4,-0.13123547,0.9455714,0.29777855,-0.33246174,-0.3249604,0.88536435,0.93394136,0.017191224,0.35701266,10.057037,0.18185425,0.020339966,9.804153,0.22123168,-0.005530657,-0.012557983,-0.0017242432,-0.012512207,-32.699585,-39.419556,29.219055,0,0.0,0.0,0.0,0.0
0.381835937,-0.013122297,0.6000975,0.79981923,0.01837633,-0.79960823,0.6002407,0.999745,0.02257428,-5.3489266E-4,-0.13456674,0.93767667,0.3203971,-0.31646878,-0.34707293,0.8828295,0.9390098,0.017403815,0.34344983,10.052246,0.17347717,0.020339966,9.80415,0.22137806,-0.0052455054,-0.021118164,-0.0023345947,-0.005340576,-32.759094,-39.179993,28.858948,0,0.0,0.0,0.0,0.0
0.390136719,-0.013019834,0.59557277,0.8031959,0.018472835,-0.8029836,0.59571475,0.99974453,0.022593413,-5.472047E-4,-0.13713929,0.9295649,0.3422016,-0.3010631,-0.36823776,0.87963736,0.9436916,0.017608576,0.33035755,10.034302,0.18304443,-0.0059814453,9.804146,0.22156571,-0.0053662453,-0.027832031,-0.0014038086,-0.008544922,-32.939148,-39.479065,28.73993,0,0.0,0.0,0.0,0.0
0.3984375,-0.013026415,0.5955763,0.80319315,0.018489525,-0.8029805,0.5957185,0.99974424,0.022610737,-5.519638E-4,-0.1381853,0.92541516,0.35286194,-0.2935709,-0.3785408,0.8777944,0.94589686,0.017708277,0.32398376,10.034302,0.18304443,-0.0059814453,9.804142,0.22173558,-0.0054129157,-0.025238037,0.0010375977,-0.010375977,-32.939148,-39.479065,28.73993,0,0.0,0.0,0.0,0.0
0.406738281,-0.0130239315,0.5955749,0.8031942,0.01851673,-0.80298096,0.5957171,0.99974376,0.022631107,-5.701312E-4,-0.13977252,0.9170379,0.37350392,-0.27903858,-0.3983981,0.8737371,0.9500532,0.017902423,0.31157404,10.04866,0.16630554,-0.04307556,9.804137,0.22193535,-0.0055910773,-0.016235352,0.008056641,-0.01159668,-32.939148,-39.479065,28.73993,0,0.0,0.0,0.0,0.0
0.415039062,-0.013054733,0.59297574,0.80511445,0.018552547,-0.8049008,0.5931192,0.9997427,0.022679938,-4.934458E-4,-0.14074787,0.90859115,0.39325845,-0.26510435,-0.41729483,0.86924374,0.9538919,0.018089684,0.29960483,10.042679,0.17945862,-0.013153076,9.804127,0.22241423,-0.00483905,-0.018218994,0.021652222,-0.010528564,-32.939148,-39.419556,28.49884,0,0.0,0.0,0.0,0.0
0.423339844,-0.013172622,0.5930391,0.80506593,0.01849932,-0.8048534,0.59318525,0.9997421,0.022706974,-3.6879157E-4,-0.14104572,0.90432596,0.40286556,-0.2583514,-0.42645514,0.86682785,0.955699,0.018181494,0.29378355,10.042679,0.17945862,-0.013153076,9.804121,0.22267936,-0.0036166098,-0.017303467,0.016448975,-0.01159668,-32.939148,-39.419556,28.49884,0,0.0,0.0,0.0,0.0
0.431640625,-0.013408452,0.5973146,0.801895,0.018313637,-0.80168587,0.59746504,0.9997424,0.022696692,-1.8963615E-4,-0.14126392,0.8957881,0.42143586,-0.24528764,-0.444102,0.86174667,0.9591029,0.01836071,0.28246135,10.066605,0.16749573,0.0382843,9.804124,0.22257853,-0.0018596954,-0.022491455,0.0016479492,-0.0076293945,-32.87964,-39.239502,28.678894,0,0.0,0.0,0.0,0.0
0.439941406,-0.013596398,0.6032296,0.79745173,0.01813171,-0.7972456,0.6033828,0.99974316,0.022662995,-9.791591E-5,-0.14097959,0.8873613,0.43899283,-0.23283398,-0.46070218,0.8564706,0.9622438,0.018532421,0.27155748,10.04985,0.16749573,0.035888672,9.8041315,0.22224806,-9.6022704E-4,-0.018051147,-0.008895874,-0.0050354004,-32.398987,-39.118958,29.039001,0,0.0,0.0,0.0,0.0
0.448242187,-0.013574728,0.6032183,0.7974607,0.018103546,-0.79725516,0.603371,0.99974394,0.022627462,-9.7867625E-5,-0.14065292,0.88323236,0.4473448,-0.22683996,-0.468566,0.8538089,0.96372217,0.018615037,0.26625758,10.04985,0.16749573,0.035888672,9.804139,0.2218996,-9.597536E-4,-0.011489868,-0.017288208,-0.008850098,-32.398987,-39.118958,29.039001,0,0.0,0.0,0.0,0.0
0.456542969,-0.013487823,0.6031729,0.7974965,0.018178703,-0.7972893,0.60332364,0.99974376,0.022634972,-2.1120343E-4,-0.1397352,0.87502146,0.4634776,-0.21526125,-0.48371992,0.8483381,0.9665075,0.018773934,0.25595093,10.071396,0.18664551,0.0143585205,9.804137,0.22197326,-0.002071198,-0.01928711,-0.03302002,-0.010528564,-32.398987,-39.118958,29.039001,0,0.0,0.0,0.0,0.0
0.46484375,-0.013276053,0.60421777,0.7967086,0.018323114,-0.79649794,0.6043634,0.99974394,0.022621743,-4.9680047E-4,-0.13850248,0.86689013,0.47887218,-0.20420936,-0.49813986,0.84270704,0.96907973,0.018926837,0.24602069,10.04866,0.16270447,-0.032302856,9.804139,0.22184353,-0.0048719486,-0.012252808,-0.03591919,-0.011291504,-32.398987,-39.239502,29.219055,0,0.0,0.0,0.0,0.0
0.473144531,-0.012998692,0.6040736,0.79682255,0.018518081,-0.7966078,0.6042129,0.99974406,0.022609599,-8.314238E-4,-0.13777348,0.8628735,0.48627958,-0.19887595,-0.5050627,0.83985716,0.9702921,0.019000739,0.24118902,10.04866,0.16270447,-0.032302856,9.80414,0.22172444,-0.008153482,-0.011795044,-0.031188965,-0.006866455,-32.398987,-39.239502,29.219055,0,0.0,0.0,0.0,0.0
0.481445312,-0.012907231,0.61039263,0.79199374,0.018574167,-0.79177666,0.61052805,0.9997441,0.022590853,-0.0011178919,-0.13612634,0.8549183,0.50058395,-0.18857335,-0.5184093,0.8340814,0.9725789,0.019143654,0.23178397,10.072586,0.16270447,-0.04547119,9.804141,0.2215406,-0.010962774,-0.01576233,-0.019119263,-0.009765625,-32.159424,-39.05945,29.579163,0,0.0,0.0,0.0,0.0
0.489746094,-0.012820701,0.6151446,0.7883101,0.018627532,-0.78809124,0.61527675,0.99974436,0.022572549,-0.0013547424,-0.13420083,0.8472511,0.5139608,-0.17879044,-0.53084254,0.8283962,0.97469175,0.01928017,0.22271991,10.054642,0.16870117,-0.04067993,9.804143,0.22136109,-0.013285485,-0.018661499,-0.01499939,-0.008239746,-31.559753,-38.63983,29.638672,0,0.0,0.0,0.0,0.0
0.498046875,-0.012681356,0.61507446,0.78836703,0.018732497,-0.78814596,0.61520326,0.9997441,0.022569695,-0.0015271212,-0.13314676,0.8435315,0.520314,-0.1740868,-0.5367312,0.82559884,0.9756873,0.019346017,0.2183117,10.054642,0.16870117,-0.04067993,9.80414,0.2213331,-0.014975942,-0.02218628,-0.013168335,-0.010681152,-31.559753,-38.63983,29.638672,0,0.0,0.0,0.0,0.0
0.506347656,-0.012545771,0.6150062,0.78842247,0.01882585,-0.7881995,0.61513186,0.99974406,0.022560025,-0.0016894452,-0.13092294,0.83619547,0.53257525,-0.16501142,-0.54808575,0.8199837,0.97756356,0.019473681,0.2097388,10.034302,0.15434265,-0.04547119,9.80414,0.22123827,-0.016567798,-0.018051147,-0.015609741,-0.00793457,-31.559753,-38.63983,29.638672,0,0.0,0.0,0.0,0.0
0.514648437,-0.012596355,0.6223352,0.78264946,0.018785289,-0.78242606,0.6224599,0.9997441,0.022543022,-0.0018350305,-0.12975967,0.832581,0.53848994,-0.16063528,-0.55355877,0.8171714,0.9784471,0.019535411,0.20557147,10.034302,0.15434265,-0.04547119,9.804141,0.22107154,-0.017995503,-0.022644043,-0.007675171,-0.006866455,-31.678772,-38.519287,30.119324,0,0.0,0.0,0.0,0.0
0.522949219,-0.01247619,0.62227523,0.78269917,0.018849684,-0.78247464,0.62239724,0.99974453,0.022518774,-0.0019673887,-0.1272887,0.82567364,0.5496003,-0.15224275,-0.56380546,0.8117545,0.9801121,0.019654516,0.1974689,10.067795,0.15911865,-0.07896423,9.804145,0.22083375,-0.019293493,-0.026306152,0.0040893555,-0.011291504,-31.678772,-38.519287,30.119324,0,0.0,0.0,0.0,0.0
0.53125,-0.01250027,0.6213648,0.7834217,0.018879533,-0.7831966,0.6214875,0.99974364,0.022559395,-0.0019409077,-0.12472832,0.8189195,0.5601908,-0.14425018,-0.57356787,0.8063571,0.98164904,0.019767946,0.18966945,10.064209,0.20100403,-0.033493042,9.804136,0.2212321,-0.019033803,-0.015457153,0.012939453,-0.01449585,-31.739807,-38.15918,29.759216,0,0.0,0.0,0.0,0.0
0.539550781,-0.012593532,0.621412,0.7833828,0.01887899,-0.7831575,0.62153685,0.9997425,0.022616819,-0.001868914,-0.12342611,0.8155882,0.5653157,-0.14039691,-0.5782931,0.8036577,0.9823719,0.019823777,0.18588252,10.064209,0.20100403,-0.033493042,9.804125,0.22179523,-0.018327786,-0.022338867,0.006225586,-0.013122559,-31.739807,-38.15918,29.759216,0,0.0,0.0,0.0,0.0
0.547851562,-0.012507758,0.61417013,0.7890746,0.018982947,-0.7888483,0.6142949,0.99974155,0.02266241,-0.0017920341,-0.12078241,0.8090483,0.5751977,-0.13297272,-0.58740395,0.79829496,0.98373264,0.019934384,0.17852943,10.061813,0.18424988,-0.026321411,9.804115,0.22224231,-0.01757385,-0.018981934,0.014770508,-0.014190674,-32.03888,-38.578796,29.519653,0,0.0,0.0,0.0,0.0
0.556152344,-0.012619369,0.6142273,0.78902817,0.018945131,-0.78880244,0.61435455,0.99974084,0.022701012,-0.0016824277,-0.11814465,0.8024539,0.58490133,-0.12586679,-0.59637743,0.79277456,0.984987,0.020042414,0.17146109,10.047455,0.18185425,-0.03111267,9.80411,0.2226209,-0.016498981,-0.015319824,0.021194458,-0.009918213,-32.03888,-38.578796,29.519653,0,0.0,0.0,0.0,0.0
0.564453125,-0.0128633855,0.6189606,0.7853167,0.018800031,-0.7850932,0.6190924,0.99974054,0.022727601,-0.0015375228,-0.116813265,0.79922026,0.5895775,-0.122446336,-0.60070217,0.7900403,0.98557675,0.020095589,0.16803157,10.047455,0.18185425,-0.03111267,9.804106,0.22288163,-0.015077949,-0.017303467,0.018295288,-0.008087158,-32.159424,-38.578796,29.87976,0,0.0,0.0,0.0,0.0
0.572753906,-0.01296141,0.61901057,0.7852757,0.01870521,-0.78505415,0.6191446,0.999741,0.022713736,-0.001403313,-0.11410717,0.7930244,0.5984078,-0.11588784,-0.6088549,0.78477114,0.98668617,0.02019982,0.1613766,10.046265,0.17347717,-0.026321411,9.804111,0.22274566,-0.0137618,-0.020050049,0.0095825195,-0.0076293945,-32.159424,-38.578796,29.87976,0,0.0,0.0,0.0,0.0
0.581054687,-0.012990728,0.6157988,0.7877964,0.01868163,-0.78757596,0.61593455,0.99974114,0.022718757,-0.0012729408,-0.111391574,0.7869971,0.60681754,-0.10965372,-0.61662275,0.7795848,0.98770845,0.020299377,0.15498371,10.067795,0.19023132,0.0047912598,9.8041115,0.2227949,-0.012483285,-0.018218994,0.0056152344,-0.010681152,-32.159424,-38.519287,29.579163,0,0.0,0.0,0.0,0.0
0.589355469,-0.013069905,0.6158395,0.7877633,0.01864682,-0.7875435,0.615977,0.9997407,0.022740038,-0.0011903283,-0.110043,0.7839953,0.6109352,-0.106644444,-0.62043315,0.7769746,0.9881889,0.020347767,0.15188307,10.067795,0.19023132,0.0047912598,9.804108,0.2230036,-0.011673133,-0.017608643,0.0028686523,-0.009002686,-32.159424,-38.519287,29.579163,0,0.0,0.0,0.0,0.0
0.59765625,-0.013162843,0.6172031,0.7866937,0.018576004,-0.7864751,0.6173425,0.99974084,0.02273961,-0.0011129197,-0.10735013,0.77811956,0.61887467,-0.10084959,-0.6277834,0.7718272,0.9890932,0.020442503,0.14586568,10.04985,0.18066406,0.021530151,9.804109,0.2229994,-0.010914014,-0.021270752,4.272461E-4,-0.005340576,-31.97937,-38.459778,29.638672,0,0.0,0.0,0.0,0.0
0.605957031,-0.013134235,0.6171886,0.7867056,0.018557437,-0.78648746,0.6173273,0.9997415,0.022707362,-0.0011235258,-0.10466243,0.7724552,0.6263854,-0.09534721,-0.63473713,0.76682305,0.98992664,0.02053347,0.1400846,10.054642,0.16390991,-0.025131226,9.804115,0.22268315,-0.011018025,-0.018661499,-0.0070648193,-0.009460449,-31.97937,-38.459778,29.638672,0,0.0,0.0,0.0,0.0
0.614257812,-0.013131106,0.61906797,0.78522754,0.01853854,-0.78500956,0.6192061,0.9997419,0.022687836,-0.0011685744,-0.10332452,0.769685,0.63000727,-0.09269756,-0.6380922,0.7643596,0.9903188,0.020576948,0.13727848,10.054642,0.16390991,-0.025131226,9.804119,0.22249167,-0.011459801,-0.026306152,-0.0055389404,-0.008392334,-32.339478,-38.279724,29.638672,0,0.0,0.0,0.0,0.0
0.622558594,-0.0131499525,0.61907786,0.7852196,0.018572373,-0.7850008,0.6192164,0.999741,0.022726055,-0.0011750227,-0.100655995,0.76432914,0.63692176,-0.08760116,-0.64449525,0.7595735,0.9910572,0.02066054,0.13182843,10.051056,0.20817566,0.0047912598,9.804111,0.22286648,-0.011523036,-0.020050049,0.0016479492,-0.009460449,-32.339478,-38.279724,29.638672,0,0.0,0.0,0.0,0.0
0.630859375,-0.013052389,0.61449,0.78881663,0.018628014,-0.7885975,0.61462754,0.9997413,0.022716446,-0.0011536462,-0.09801821,0.7591356,0.6435102,-0.0827513,-0.65060186,0.7548969,0.99173814,0.020742336,0.1265903,10.042679,0.17228699,0.01675415,9.804113,0.22277224,-0.011313404,-0.020965576,0.0039367676,-0.0033569336,-32.699585,-38.819885,29.699707,0,0.0,0.0,0.0,0.0
0.639160156,-0.013077471,0.61450297,0.788806,0.018581685,-0.78858787,0.6146411,0.9997418,0.0226953,-0.0011057652,-0.09672174,0.7565227,0.6467754,-0.08040455,-0.6536372,0.7525248,0.9920585,0.02078182,0.12404879,10.042679,0.17228699,0.01675415,9.804118,0.22256486,-0.010843853,-0.01928711,-0.002166748,-0.010681152,-32.699585,-38.819885,29.699707,0,0.0,0.0,0.0,0.0
0.647460937,-0.0128419325,0.6045596,0.79645634,0.018757638,-0.7962362,0.60469496,0.9997416,0.022705093,-0.0011148996,-0.09415576,0.75141835,0.6530736,-0.07588494,-0.6594963,0.74786764,0.9926611,0.020857597,0.119116716,10.059433,0.19262695,-0.0143585205,9.804116,0.22266091,-0.010933431,-0.021728516,-0.0035552979,-0.0022735596,-33.239746,-39.35852,29.3396,0,0.0,0.0,0.0,0.0
0.655761719,-0.01277696,0.6045251,0.79648364,0.018769316,-0.79626334,0.60465896,0.9997422,0.022675157,-0.001172698,-0.09166432,0.74614304,0.6594454,-0.07153872,-0.66545665,0.74300045,0.99321693,0.020930758,0.114376746,10.047455,0.16270447,-0.046661377,9.804122,0.22236733,-0.011500238,-0.02645874,0.007904053,-0.008850098,-33.239746,-39.35852,29.3396,0,0.0,0.0,0.0,0.0
0.6640625,-0.012700867,0.6021918,0.7982504,0.018791094,-0.7980301,0.60232455,0.99974275,0.022650043,-0.0011801689,-0.09043127,0.7435665,0.66251874,-0.06944552,-0.66833323,0.74061334,0.9934785,0.020965645,0.11207559,10.047455,0.16270447,-0.046661377,9.804128,0.22212104,-0.011573504,-0.018051147,0.011108398,-0.010528564,-33.599854,-39.839172,29.519653,0,0.0,0.0,0.0,0.0
0.672363281,-0.012738019,0.6022116,0.79823494,0.018734906,-0.79801583,0.6023453,0.99974334,0.02262754,-0.0011172385,-0.088001825,0.73845726,0.66853315,-0.06540336,-0.67397213,0.73585594,0.99397093,0.02103235,0.10760838,10.065414,0.15434265,-0.04067993,9.804133,0.22190037,-0.0109563675,-0.019439697,0.01966858,-0.011291504,-33.599854,-39.839172,29.519653,0,0.0,0.0,0.0,0.0
0.680664062,-0.012821994,0.60148346,0.7987823,0.018679246,-0.7985645,0.60161924,0.9997433,0.02263461,-9.96069E-4,-0.08561515,0.7335107,0.6742641,-0.061561354,-0.6793504,0.7312272,0.9944246,0.021095522,0.1033186,10.04866,0.16989136,-0.027511597,9.804133,0.22196972,-0.009768101,-0.020812988,0.008514404,-0.010070801,-33.659363,-39.839172,29.458618,0,0.0,0.0,0.0,0.0
0.688964844,-0.012912731,0.60153204,0.7987443,0.01862888,-0.79852754,0.60166997,0.99974304,0.022648914,-8.9469634E-4,-0.084441215,0.731085,0.6770409,-0.059711315,-0.6819593,0.72894865,0.9946377,0.021126304,0.10123952,10.04866,0.16989136,-0.027511597,9.804131,0.22210997,-0.008773974,-0.017440796,0.014312744,-0.015411377,-33.659363,-39.839172,29.458618,0,0.0,0.0,0.0,0.0
0.697265625,-0.012858773,0.59390825,0.80443,0.018708708,-0.8042128,0.59404695,0.99974227,0.022688562,-7.7006605E-4,-0.0821309,0.7263531,0.682397,-0.05614968,-0.6869951,0.72448945,0.99503857,0.021186598,0.09720802,10.061813,0.18066406,0.007171631,9.804123,0.22249879,-0.0075517683,-0.017745972,0.012329102,-0.009765625,-33.599854,-39.89868,28.919983,0,0.0,0.0,0.0,0.0
0.705566406,-0.012961106,0.59396356,0.80438757,0.018652374,-0.8041715,0.5941046,0.999742,0.022703988,-6.5588E-4,-0.07989275,0.72151524,0.6877739,-0.05273339,-0.6920725,0.7198992,0.99540764,0.021246076,0.093339525,10.069,0.16989136,0.013153076,9.80412,0.22265008,-0.006431986,-0.019134521,0.0040893555,-0.008087158,-33.599854,-39.89868,28.919983,0,0.0,0.0,0.0,0.0
0.713867187,-0.013143882,0.59956867,0.8002154,0.018510852,-0.8000015,0.59971243,0.99974227,0.022695217,-5.8340095E-4,-0.07879268,0.7191569,0.6903659,-0.051089935,-0.69452196,0.7176553,0.99558103,0.021275233,0.09146492,10.069,0.16989136,0.013153076,9.804122,0.22256404,-0.0057212086,-0.01852417,0.0010375977,-0.007171631,-33.779907,-39.89868,29.3396,0,0.0,0.0,0.0,0.0
0.722167969,-0.013209297,0.59960383,0.8001879,0.01846574,-0.799975,0.5997491,0.99974227,0.02269833,-5.050209E-4,-0.07661652,0.71475023,0.6951704,-0.047946945,-0.6990543,0.71345925,0.9959071,0.021331467,0.0878292,10.054642,0.18424988,0.041870117,9.804122,0.22259456,-0.004952563,-0.019744873,0.0039367676,-0.01159668,-33.779907,-39.89868,29.3396,0,0.0,0.0,0.0,0.0
0.73046875,-0.013278991,0.600809,0.7992824,0.018424079,-0.7990702,0.60095555,0.9997421,0.022706123,-4.5850597E-4,-0.07449359,0.7104926,0.69975054,-0.04495816,-0.70337963,0.7093912,0.99620754,0.021385595,0.084339716,10.045074,0.16989136,-0.011962891,9.804121,0.222671,-0.0044964077,-0.017913818,0.0024108887,-0.008544922,-33.839417,-39.779663,29.3396,0,0.0,0.0,0.0,0.0
0.738769531,-0.0132802725,0.6008097,0.79928184,0.018406136,-0.79907,0.60095626,0.9997424,0.022692552,-4.467174E-4,-0.07345089,0.7084393,0.7019393,-0.043520883,-0.7054469,0.7074253,0.9963488,0.021412006,0.082647614,10.045074,0.16989136,-0.011962891,9.804124,0.22253792,-0.004380801,-0.020050049,-0.004776001,-0.0051879883,-33.839417,-39.779663,29.3396,0,0.0,0.0,0.0,0.0
0.747070312,-0.013029219,0.5894425,0.8077052,0.01857739,-0.8074917,0.5895863,0.99974257,0.022686906,-4.293167E-4,-0.07140498,0.70443773,0.70616484,-0.040750813,-0.7094412,0.7035855,0.9966146,0.021462716,0.07936404,10.060623,0.18304443,0.022735596,9.804126,0.22248256,-0.0042101587,-0.02859497,-0.005844116,-0.009460449,-33.95996,-40.379333,28.919983,0,0.0,0.0,0.0,0.0
0.755371094,-0.013004803,0.5894292,0.8077154,0.018571269,-0.80750203,0.5895725,0.999743,0.022667572,-4.4504387E-4,-0.0694338,0.7001736,0.71058834,-0.038074877,-0.7136485,0.69946843,0.99685967,0.021511192,0.07621036,10.033112,0.17108154,0.021530151,9.80413,0.22229294,-0.0043643895,-0.019439697,-0.010421753,-0.00289917,-33.95996,-40.379333,28.919983,0,0.0,0.0,0.0,0.0
0.763671875,-0.012890157,0.58647376,0.8098657,0.01861437,-0.8096519,0.5866152,0.99974364,0.0226367,-4.8029772E-4,-0.06846638,0.6980961,0.7127232,-0.036785882,-0.71568024,0.69745874,0.99697506,0.02153432,0.074680105,10.033112,0.17108154,0.021530151,9.804136,0.2219902,-0.0047101118,-0.024627686,-0.017745972,-0.0035095215,-34.199524,-40.438843,28.73993,0,0.0,0.0,0.0,0.0
0.771972656,-0.0127667375,0.58640575,0.80991685,0.01864273,-0.8097025,0.5865444,0.9997447,0.022587318,-5.949436E-4,-0.06657222,0.69394374,0.7169452,-0.034291767,-0.7197059,0.69343174,0.9971922,0.021577975,0.07170898,10.053452,0.16270447,-0.011962891,9.804147,0.22150593,-0.005834404,-0.019134521,-0.012557983,-0.004425049,-34.199524,-40.438843,28.73993,0,0.0,0.0,0.0,0.0
0.780273437,-0.012897307,0.5959032,0.8029527,0.018575111,-0.80273813,0.59604234,0.99974424,0.022602275,-7.15808E-4,-0.06472317,0.6899316,0.7209752,-0.03191614,-0.7235517,0.6895319,0.9973927,0.021617947,0.06885052,10.059433,0.20578003,-0.0143585205,9.804142,0.2216526,-0.0070196786,-0.022338867,-0.013015747,-0.007171631,-33.779907,-39.779663,28.979492,0,0.0,0.0,0.0,0.0
0.788574219,-0.012825332,0.5958642,0.80298287,0.0186531,-0.8027666,0.5960016,0.99974376,0.022622038,-8.189665E-4,-0.06380849,0.68814874,0.72275853,-0.030784648,-0.72524697,0.6878002,0.99748725,0.021637633,0.067461334,10.059433,0.20578003,-0.0143585205,9.804137,0.22184642,-0.008031318,-0.018051147,-0.0030822754,-0.011291504,-33.779907,-39.779663,28.979492,0,0.0,0.0,0.0,0.0
0.796875,-0.012870136,0.59781563,0.80153036,0.01868536,-0.801313,0.59795356,0.99974257,0.022672623,-8.5739285E-4,-0.06290575,0.6863967,0.7245015,-0.029678486,-0.72690475,0.6860967,0.99757814,0.021657323,0.06609771,10.055832,0.1878357,-0.053833008,9.804126,0.22234249,-0.008408152,-0.015625,0.0071411133,-0.012969971,-33.659363,-39.65912,29.039001,0,0.0,0.0,0.0,0.0
0.805175781,-0.012925686,0.5978456,0.80150694,0.018664408,-0.80129,0.5979848,0.99974227,0.02268902,-8.012118E-4,-0.061137155,0.68305606,0.72780263,-0.027548239,-0.7300436,0.6828452,0.99774915,0.021697529,0.06344978,10.057037,0.16630554,-0.015548706,9.804122,0.22250327,-0.0078572035,-0.022338867,0.012786865,-0.012512207,-33.659363,-39.65912,29.039001,0,0.0,0.0,0.0,0.0
0.813476562,-0.013076637,0.60038656,0.799603,0.018576162,-0.7993875,0.60052854,0.9997419,0.022706449,-6.995784E-4,-0.059423245,0.6798356,0.7309531,-0.025519332,-0.73304236,0.6797042,0.9979066,0.021736793,0.0609087,10.057037,0.16630554,-0.015548706,9.804119,0.2226742,-0.00686052,-0.022033691,0.023330688,-0.016784668,-33.299255,-39.479065,29.09851,0,0.0,0.0,0.0,0.0
0.821783661,-0.013252534,0.6004807,0.79952943,0.018491818,-0.7993157,0.6006267,0.9997412,0.022744577,-5.1102036E-4,-0.05858591,0.67831534,0.73243153,-0.024545578,-0.7344488,0.6782201,0.99798054,0.021756185,0.05967799,10.047455,0.17706299,0.0035858154,9.804112,0.22304812,-0.005011398,-0.022033691,0.030807495,-0.01159668,-33.299255,-39.479065,29.09851,0,0.0,0.0,0.0,0.0
0.830084442,-0.013586428,0.6061052,0.7952685,0.01826213,-0.7950588,0.6062574,0.9997409,0.022760166,-2.6676262E-4,-0.05695661,0.6753605,0.7352851,-0.022670496,-0.7371657,0.6753317,0.9981193,0.021795327,0.057297215,10.053452,0.17706299,0.0035858154,9.80411,0.22320098,-0.0026160476,-0.024780273,0.02394104,-0.0045776367,-33.299255,-39.479065,29.519653,0,0.0,0.0,0.0,0.0
0.838385223,-0.0137394285,0.60618615,0.7952041,0.018098643,-0.7949981,0.60634184,0.9997418,0.022722906,-4.832685E-5,-0.055380028,0.6727191,0.73782253,-0.020903816,-0.7395758,0.6727487,0.99824655,0.021833533,0.055020124,10.088135,0.16390991,0.015548706,9.804118,0.22283559,-4.739245E-4,-0.017913818,0.01461792,-0.008392334,-33.299255,-39.479065,29.519653,0,0.0,0.0,0.0,0.0
0.846686004,-0.013840314,0.6060382,0.79531515,0.017991437,-0.79511154,0.60619617,0.99974227,0.022698807,1.010974E-4,-0.054613546,0.6714363,0.7390471,-0.020054549,-0.74074006,0.67149234,0.99830616,0.021851322,0.053919792,10.04985,0.16989136,0.028717041,9.804123,0.22259925,9.914269E-4,-0.024780273,0.009735107,-0.012359619,-33.299255,-39.419556,29.458618,0,0.0,0.0,0.0,0.0
0.854986786,-0.0139819635,0.60611326,0.7952554,0.017947018,-0.7950529,0.6062745,0.99974114,0.022749372,2.3847597E-4,-0.053122077,0.6689361,0.7414194,-0.018418636,-0.74299777,0.66904044,0.99841815,0.021884883,0.051790472,10.047455,0.2033844,0.050247192,9.804112,0.22309515,0.0023386506,-0.020507813,-0.0010986328,-0.0076293945,-33.299255,-39.419556,29.458618,0,0.0,0.0,0.0,0.0
0.863287567,-0.013811437,0.5975126,0.8017405,0.01809241,-0.8015364,0.59767216,0.9997409,0.022760132,2.5992622E-4,-0.051684964,0.6665305,0.7436839,-0.016859446,-0.74515545,0.6666776,0.9985211,0.021919115,0.04975067,10.061813,0.19262695,0.027511597,9.80411,0.22320066,0.0025490057,-0.02142334,-0.014541626,-0.0077819824,-33.4198,-39.89868,29.159546,0,0.0,0.0,0.0,0.0
0.871588348,-0.01376275,0.5974866,0.8017608,0.01812449,-0.8015559,0.59764504,0.9997409,0.022756742,2.024724E-4,-0.0509883,0.6652003,0.744922,-0.016095659,-0.74634266,0.66536725,0.99856955,0.021935936,0.048761584,10.07019,0.19262695,0.022735596,9.80411,0.22316742,0.001985576,-0.022338867,-0.013015747,-0.0061035156,-33.4198,-39.89868,29.159546,0,0.0,0.0,0.0,0.0
0.879889129,-0.013795747,0.6015606,0.798708,0.018096875,-0.798503,0.6017187,0.999741,0.02275528,1.2957978E-4,-0.049627375,0.6626121,0.7473167,-0.014619403,-0.7486405,0.662815,0.99866074,0.021968443,0.046840057,10.07019,0.19262695,0.022735596,9.804111,0.22315307,0.0012707437,-0.019592285,-0.011642456,-0.0047302246,-33.299255,-39.718628,29.3396,0,0.0,0.0,0.0,0.0
0.888189911,-0.013672081,0.60149497,0.7987595,0.018172104,-0.7985528,0.60165036,0.99974144,0.022740955,-1.2549472E-5,-0.048306186,0.6602703,0.749473,-0.013218414,-0.75070584,0.6605044,0.99874514,0.021999603,0.044991463,10.067795,0.18304443,-0.021530151,9.804114,0.22301258,-1.2306828E-4,-0.02859497,-0.011947632,-0.010681152,-33.299255,-39.718628,29.3396,0,0.0,0.0,0.0,0.0
0.896490692,-0.013550619,0.60036725,0.79960966,0.018279582,-0.79940075,0.6005202,0.99974114,0.022753948,-1.4208784E-4,-0.047660023,0.6591307,0.7505166,-0.012540152,-0.75170606,0.659379,0.9987849,0.02201443,0.044091932,10.041473,0.17228699,-0.058624268,9.8041115,0.22314002,-0.0013934057,-0.017608643,-0.0050811768,-0.013122559,-32.939148,-39.419556,29.039001,0,0.0,0.0,0.0,0.0
0.904791473,-0.013493417,0.60033697,0.79963326,0.01830453,-0.79942375,0.6004886,0.99974144,0.022739556,-2.0192738E-4,-0.046397828,0.6568733,0.75257206,-0.011223499,-0.7536787,0.6571473,0.99886,0.022043714,0.04234147,10.061813,0.1603241,-0.023925781,9.804114,0.22299887,-0.0019802311,-0.0256958,0.0028686523,-0.006866455,-32.939148,-39.419556,29.039001,0,0.0,0.0,0.0,0.0
0.913092254,-0.013458776,0.6010424,0.79910374,0.018268472,-0.79889494,0.60119295,0.9997425,0.022689728,-2.2797976E-4,-0.04517611,0.6546988,0.7545387,-0.009964835,-0.75556755,0.6549949,0.9989293,0.02207127,0.040657572,10.076172,0.15074158,-0.044265747,9.804125,0.22251022,-0.0022357178,-0.016540527,0.0065307617,-0.0059509277,-32.699585,-39.419556,29.09851,0,0.0,0.0,0.0,0.0
0.921393036,-0.013432004,0.6010284,0.7991148,0.018224863,-0.798907,0.6011784,0.99974364,0.022638788,-2.2273834E-4,-0.044579834,0.65365535,0.7554782,-0.00935811,-0.7564701,0.65396136,0.9989619,0.02208364,0.03984029,10.07019,0.17706299,-0.027511597,9.804136,0.22201069,-0.002184317,-0.016540527,0.013092041,-0.010528564,-32.699585,-39.419556,29.09851,0,0.0,0.0,0.0,0.0
0.929693817,-0.013504181,0.6010663,0.799085,0.01815776,-0.79887867,0.601218,0.99974394,0.022628553,-1.2581366E-4,-0.043417074,0.6516265,0.7572964,-0.008187201,-0.75821775,0.65194994,0.99902344,0.022105625,0.038254596,10.069,0.17468262,-0.032302856,9.804139,0.2219103,-0.0012338106,-0.016235352,0.03126526,-0.012664795,-32.699585,-39.419556,29.09851,0,0.0,0.0,0.0,0.0
0.937994598,-0.013798889,0.60685706,0.79469115,0.01795436,-0.79448825,0.6070139,0.9997435,0.02264429,6.732581E-5,-0.042297173,0.6496752,0.7590343,-0.007071344,-0.75988984,0.6500134,0.99908006,0.022126336,0.036735266,10.069,0.17468262,-0.032302856,9.804135,0.22206464,6.602407E-4,-0.015625,0.03401184,-0.014801025,-32.57904,-39.239502,29.399109,0,0.0,0.0,0.0,0.0
0.946295379,-0.013970719,0.6050905,0.79603404,0.017884612,-0.79583323,0.6052517,0.9997425,0.022692565,2.965532E-4,-0.041754276,0.6488378,0.7597803,-0.0065406375,-0.7606047,0.6491824,0.9991065,0.022136694,0.03600231,10.055832,0.18185425,-0.0035858154,9.804125,0.22253804,0.0029081933,-0.016067505,0.032943726,-0.018005371,-33.1192,-39.59961,29.519653,0,0.0,0.0,0.0,0.0
0.954596161,-0.014202407,0.6052122,0.7959374,0.017796824,-0.7957386,0.60537857,0.9997407,0.022762993,5.305467E-4,-0.040706143,0.6471436,0.7612806,-0.0055150464,-0.76204604,0.6474993,0.99915594,0.022158705,0.034588985,10.063019,0.16870117,0.008377075,9.804108,0.22322871,0.0052028857,-0.023406982,0.014007568,-0.015258789,-33.1192,-39.59961,29.519653,0,0.0,0.0,0.0,0.0
0.962896942,-0.014368684,0.6052996,0.79586804,0.017713819,-0.79567116,0.6054697,0.9997398,0.022797665,7.1058015E-4,-0.040200554,0.6463231,0.76200414,-0.005021304,-0.7627417,0.64668375,0.999179,0.022170791,0.033908024,10.063019,0.16870117,0.008377075,9.804099,0.22356872,0.006968411,-0.02355957,0.018447876,-0.010223389,-33.1192,-39.59961,29.519653,0,0.0,0.0,0.0,0.0
0.971197723,-0.014299245,0.59539616,0.8033049,0.017814957,-0.8031078,0.59556717,0.99973905,0.022827007,8.768789E-4,-0.039223,0.644732,0.76340175,-0.004070185,-0.7640864,0.6451011,0.99922216,0.022195615,0.03259394,10.060623,0.18664551,0.027511597,9.804091,0.22385646,0.008599245,-0.017440796,0.015396118,-0.010223389,-33.299255,-39.89868,28.979492,0,0.0,0.0,0.0,0.0
0.979498504,-0.014409722,0.59545517,0.80325925,0.017725555,-0.8030643,0.5956286,0.99973905,0.022821061,0.0010171586,-0.038287766,0.6428258,0.765055,-0.003145067,-0.76569015,0.643202,0.99926186,0.022220617,0.031338293,10.053452,0.17108154,0.010772705,9.804091,0.22379817,0.009974919,-0.01423645,0.02180481,-0.011291504,-33.299255,-39.89868,28.979492,0,0.0,0.0,0.0,0.0
0.987799286,-0.014531703,0.5945128,0.8039548,0.017639216,-0.80376214,0.5946892,0.9997388,0.02282298,0.001193293,-0.037834637,0.6419008,0.7658537,-0.0026999991,-0.7664653,0.64228004,0.9992804,0.022232626,0.030732067,10.053452,0.17108154,0.010772705,9.804089,0.22381698,0.011702208,-0.017608643,0.026992798,-0.0119018555,-33.1192,-40.078735,29.039001,0,0.0,0.0,0.0,0.0
0.996100067,-0.014729803,0.5965164,0.80246586,0.017495241,-0.8022764,0.5966967,0.9997385,0.022828553,0.0013811751,-0.036958043,0.6400674,0.76742935,-0.0018422939,-0.7679963,0.6404516,0.9993151,0.022256006,0.029562833,10.072586,0.18424988,0.058624268,9.804086,0.22387163,0.013544701,-0.018356323,0.011108398,-0.009918213,-32.998657,-39.959717,29.09851,0,0.0,0.0,0.0,0.0
1.004400848,-0.014863844,0.59658694,0.8024108,0.017406436,-0.80222344,0.59677005,0.999738,0.02283741,0.0015396724,-0.03611803,0.63837934,0.76887405,-0.001030514,-0.7693994,0.6387671,0.99934703,0.022278678,0.028447052,10.07019,0.17945862,0.07058716,9.804081,0.22395849,0.015099028,-0.021881104,-0.0014038086,-0.0074768066,-32.998657,-39.959717,29.09851,0,0.0,0.0,0.0,0.0
1.012701629,-0.0148974005,0.5966046,0.80239695,0.017375467,-0.80221033,0.59678847,0.99973804,0.022832623,0.0015845649,-0.035711937,0.63756067,0.76957196,-6.400626E-4,-0.77007765,0.6379498,0.99936193,0.022289854,0.027909044,10.054642,0.1375885,0.017944336,9.804082,0.22391155,0.0155392755,-0.021881104,-0.017440796,-0.00793457,-32.998657,-39.959717,29.09851,0,0.0,0.0,0.0,0.0
1.021002411,-0.014702401,0.59319067,0.8049278,0.017442206,-0.8047402,0.593371,0.99973977,0.022763692,0.0014850583,-0.034922916,0.6359711,0.7709223,1.1377968E-4,-0.7713903,0.6363624,0.99939007,0.022311345,0.026866838,10.042679,0.18902588,0.022735596,9.804098,0.22323556,0.014563448,-0.010726929,-0.014541626,-0.009765625,-33.059692,-39.89868,28.799438,0,0.0,0.0,0.0,0.0
1.029303192,-0.014651879,0.5931637,0.8049485,0.017449405,-0.80476063,0.5933429,0.99974036,0.02273946,0.0014408996,-0.03415747,0.63431174,0.7723224,8.4080733E-4,-0.77275485,0.6347041,0.9994161,0.022329258,0.025862016,10.043869,0.16270447,0.056228638,9.804104,0.22299793,0.014130398,-0.018356323,-0.007522583,-0.010528564,-33.059692,-39.89868,28.799438,0,0.0,0.0,0.0,0.0
1.037603973,-0.014696028,0.59809446,0.8012909,0.017406955,-0.80110306,0.59827346,0.99974054,0.022740277,0.0013620299,-0.033784058,0.6335054,0.77300036,0.0011925176,-0.7734158,0.633898,0.99942845,0.02233746,0.025373654,10.079758,0.17228699,0.015548706,9.804105,0.22300592,0.01335695,-0.017303467,-0.011795044,-0.008850098,-33.1192,-39.959717,29.219055,0,0.0,0.0,0.0,0.0
1.045904754,-0.014410568,0.58888364,0.8080894,0.01762986,-0.80789804,0.5890586,0.9997407,0.02273517,0.0012603331,-0.03305562,0.63212705,0.7741593,0.0018666582,-0.7745422,0.6325194,0.99945176,0.022353414,0.024423009,10.064209,0.17945862,-0.039474487,9.804108,0.22295585,0.012359646,-0.019744873,-0.015609741,-0.010223389,-33.53882,-40.25879,28.73993,0,0.0,0.0,0.0,0.0
1.054205536,-0.014263108,0.5888041,0.80815,0.017733157,-0.80795616,0.5889759,0.999741,0.022731675,0.0010826105,-0.03234943,0.6304496,0.7755558,0.0025287345,-0.7759078,0.6308412,0.9994734,0.022368532,0.02350594,10.064209,0.17945862,-0.039474487,9.804111,0.22292158,0.010616782,-0.019439697,-1.8310547E-4,-0.009155273,-33.53882,-40.25879,28.73993,0,0.0,0.0,0.0,0.0
1.062506317,-0.01418257,0.58876055,0.808183,0.017789794,-0.80798775,0.5889305,0.99974114,0.02272996,9.854153E-4,-0.032003127,0.62963325,0.77623296,0.0028510047,-0.77657014,0.63002425,0.99948364,0.022375794,0.023057586,10.045074,0.17706299,0.0143585205,9.8041115,0.22290476,0.009663624,-0.014846802,0.0054626465,-0.008544922,-33.53882,-40.25879,28.73993,0,0.0,0.0,0.0,0.0
1.070807098,-0.014037448,0.5807786,0.8139405,0.017897572,-0.81374437,0.5809473,0.9997413,0.022722576,0.0010283674,-0.031326264,0.6280456,0.77754575,0.0034767091,-0.7778544,0.62843496,0.99950314,0.02238982,0.022183739,10.040283,0.18544006,0.050247192,9.804113,0.22283235,0.01008484,-0.022949219,0.011260986,-0.00793457,-33.599854,-40.499878,28.318787,0,0.0,0.0,0.0,0.0
1.079107879,-0.014143015,0.5808362,0.81389755,0.017823452,-0.8137032,0.5810072,0.99974114,0.02272366,0.0011557102,-0.030673485,0.6262149,0.7790468,0.0040856646,-0.77932847,0.62660223,0.9995211,0.022403,0.021346219,10.053452,0.16870117,0.0,9.8041115,0.22284299,0.011333645,-0.02798462,0.008972168,-0.010070801,-33.599854,-40.499878,28.318787,0,0.0,0.0,0.0,0.0
1.087408661,-0.014185665,0.5792606,0.8150191,0.017794626,-0.8148258,0.5794329,0.999741,0.022722596,0.0012511184,-0.0303578,0.6253269,0.7797723,0.0043783886,-0.78004116,0.625713,0.99952954,0.022409413,0.020942409,10.052246,0.17826843,0.008377075,9.804111,0.22283256,0.01226928,-0.017745972,0.015701294,-0.007171631,-33.599854,-40.499878,28.199768,0,0.0,0.0,0.0,0.0
1.095709442,-0.014315812,0.5807804,0.81393445,0.017727688,-0.8137425,0.5809552,0.99974036,0.022746019,0.0013534914,-0.02974601,0.6235411,0.7812244,0.004944226,-0.7814689,0.62392455,0.9995453,0.022421816,0.020162657,10.045074,0.19502258,0.0143585205,9.804104,0.22306226,0.013273218,-0.015930176,0.0053100586,-0.008544922,-33.4198,-40.25879,28.138733,0,0.0,0.0,0.0,0.0
1.104010223,-0.014420643,0.58083755,0.8138917,0.017654521,-0.8137015,0.58101463,0.9997401,0.022747476,0.0014796903,-0.029160384,0.62188095,0.7825687,0.005481017,-0.7827903,0.62226135,0.9995597,0.022434654,0.019417927,10.058228,0.17826843,0.053833008,9.804102,0.22307654,0.014510806,-0.020507813,0.005004883,-0.009613037,-33.4198,-40.25879,28.138733,0,0.0,0.0,0.0,0.0
1.112311004,-0.014497004,0.5808792,0.81386065,0.017604234,-0.81367177,0.58105797,0.99973994,0.022750992,0.0015698692,-0.028877588,0.6210758,0.7832183,0.005738886,-0.78342915,0.62145466,0.9995665,0.022440912,0.019059261,10.058228,0.17826843,0.053833008,9.8041,0.22311103,0.015395159,-0.020507813,1.2207031E-4,-0.0077819824,-33.4198,-40.25879,28.138733,0,0.0,0.0,0.0,0.0
1.120611786,-0.014426864,0.57772577,0.8161034,0.017667273,-0.8159137,0.57790375,0.9997398,0.022755662,0.0015642355,-0.028330287,0.6195133,0.78447485,0.00623547,-0.784665,0.6198887,0.9995792,0.022453193,0.018366827,10.041473,0.18185425,0.0023956299,9.804099,0.22315681,0.015339911,-0.01637268,-0.0030822754,-0.005340576,-33.95996,-40.25879,27.89917,0,0.0,0.0,0.0,0.0
1.128912567,-0.014400261,0.577711,0.81611437,0.017683411,-0.81592417,0.5778883,0.9997398,0.022753427,0.0015336188,-0.028063567,0.6186936,0.7851309,0.006477909,-0.7853113,0.6190672,0.99958515,0.022459242,0.018030796,10.041473,0.18185425,0.0023956299,9.804099,0.2231349,0.015039663,-0.013626099,-0.0030822754,-0.00869751,-33.95996,-40.25879,27.89917,0,0.0,0.0,0.0,0.0
1.137213348,-0.014311682,0.57443225,0.818427,0.017767195,-0.8182356,0.57460856,0.99973977,0.022764767,0.0015042763,-0.027543755,0.6171007,0.786402,0.0069473796,-0.7865633,0.6174706,0.9995965,0.022470893,0.017377673,10.057037,0.1878357,0.008377075,9.804098,0.22324611,0.014751911,-0.01576233,-0.003250122,-0.01083374,-34.13849,-40.25879,27.659607,0,0.0,0.0,0.0,0.0
1.145514129,-0.014216981,0.57153916,0.82045174,0.017848235,-0.82025886,0.57171416,0.99973965,0.02277166,0.0014606394,-0.027040992,0.6154433,0.78771716,0.007401688,-0.78786045,0.6158093,0.9996069,0.022482531,0.016749207,10.060623,0.17108154,0.0035858154,9.804097,0.2233137,0.01432398,-0.021575928,-0.006149292,-0.006866455,-34.318542,-40.559387,27.659607,0,0.0,0.0,0.0,0.0
1.153814911,-0.014154205,0.57150364,0.8204774,0.017860515,-0.8202841,0.5716771,0.99974024,0.022745786,0.0014031224,-0.026795285,0.6145827,0.78839713,0.0076238737,-0.7885317,0.6149467,0.9996119,0.022488315,0.016443433,10.060623,0.17108154,0.0035858154,9.804104,0.22305998,0.013759932,-0.01637268,-0.0024719238,-0.0076293945,-34.318542,-40.559387,27.659607,0,0.0,0.0,0.0,0.0
1.162115692,-0.014118883,0.5714836,0.82049197,0.017876154,-0.8202984,0.57165635,0.99974054,0.022738392,0.0013657659,-0.026314892,0.61290926,0.789715,0.008054043,-0.7898329,0.6132692,0.9996213,0.02249851,0.01584797,10.063019,0.17347717,-0.0047912598,9.804106,0.22298746,0.013393589,-0.017745972,8.8500977E-4,-0.011138916,-34.318542,-40.559387,27.659607,0,0.0,0.0,0.0,0.0
1.170416473,-0.014115091,0.57152396,0.82046396,0.01788392,-0.8202701,0.57169664,0.9997404,0.02274266,0.0013570997,-0.025850601,0.6112988,0.7909776,0.008465944,-0.79107976,0.61165446,0.99963,0.022508007,0.015274665,10.061813,0.19979858,0.033493042,9.804105,0.22302932,0.013308602,-0.015014648,0.006378174,-0.010070801,-34.498596,-40.559387,27.659607,0,0.0,0.0,0.0,0.0
1.178717254,-0.014193383,0.5715685,0.82043165,0.017874774,-0.8202381,0.5717429,0.99973947,0.022779994,0.0014252969,-0.025624663,0.61051756,0.791588,0.008665283,-0.79168266,0.610871,0.999634,0.0225127,0.014996293,10.061813,0.19979858,0.033493042,9.804095,0.22339544,0.013977388,-0.017303467,0.0071411133,-0.0074768066,-34.498596,-40.559387,27.659607,0,0.0,0.0,0.0,0.0
1.187018036,-0.014337379,0.5765,0.8169713,0.017795438,-0.8167788,0.5766764,0.9997389,0.022806393,0.0014513972,-0.025188362,0.6090016,0.79276896,0.009050225,-0.7928492,0.60935074,0.9996417,0.022523284,0.01445897,10.065414,0.15434265,0.025131226,9.80409,0.22365431,0.014233344,-0.021118164,0.006072998,-0.014801025,-34.259033,-40.559387,28.019714,0,0.0,0.0,0.0,0.0
1.195318817,-0.014339719,0.5742049,0.81858605,0.017816601,-0.81839347,0.57438195,0.9997384,0.022820896,0.0015051517,-0.02477172,0.6077332,0.7937548,0.009412679,-0.79382145,0.608078,0.9996488,0.022534497,0.0139439255,10.067795,0.16749573,0.023925781,9.804085,0.22379655,0.014760497,-0.01852417,2.746582E-4,-0.01083374,-34.199524,-40.79895,28.019714,0,0.0,0.0,0.0,0.0
1.203619598,-0.014370682,0.57422215,0.8185733,0.017799787,-0.8183812,0.5743999,0.9997383,0.022824952,0.001539664,-0.02477172,0.6077332,0.7937548,0.009412679,-0.79382145,0.608078,0.9996488,0.022534497,0.0139439255,10.067795,0.16749573,0.023925781,9.804084,0.22383633,0.015098946,-0.01852417,2.746582E-4,-0.01083374,-34.199524,-40.79895,28.019714,0,0.0,0.0,0.0,0.0
1.211920379,-0.014383608,0.57422936,0.81856805,0.017800657,-0.81837595,0.5744074,0.9997381,0.022833101,0.0015495389,-0.02417881,0.60579103,0.7952563,0.009928989,-0.7953041,0.60612935,0.9996583,0.022551578,0.013214612,10.04985,0.18544006,0.037094116,9.804081,0.22391622,0.015195785,-0.021728516,-0.006454468,-0.0036621094,-34.199524,-40.79895,28.019714,0,0.0,0.0,0.0,0.0
1.220221161,-0.014286626,0.5703002,0.8213121,0.01787511,-0.821119,0.57047707,0.99973816,0.022831237,0.0015368387,-0.023802163,0.6045586,0.796205,0.0102548655,-0.79624104,0.6048926,0.99966407,0.022562727,0.012752592,10.082153,0.19023132,0.0023956299,9.804083,0.22389798,0.015071241,-0.020507813,-0.0055389404,-0.008850098,-33.779907,-40.67993,27.659607,0,0.0,0.0,0.0,0.0
1.228521942,-0.014248862,0.5702791,0.8213273,0.017915785,-0.82113326,0.5704552,0.999738,0.022843065,0.0014832158,-0.023617968,0.60388404,0.79672223,0.010414857,-0.7967527,0.6042158,0.9996668,0.022568097,0.012528313,10.082153,0.19023132,0.0023956299,9.804081,0.22401395,0.014545379,-0.017440796,0.001953125,-0.009155273,-33.779907,-40.67993,27.659607,0,0.0,0.0,0.0,0.0
1.236822723,-0.014282833,0.5719437,0.82016844,0.01789364,-0.81997454,0.57212013,0.99973786,0.022847297,0.0014774033,-0.02325827,0.6025725,0.79772514,0.010726219,-0.79774463,0.60289997,0.99967194,0.022578988,0.012090838,10.040283,0.17826843,0.0059814453,9.80408,0.22405547,0.014488379,-0.02279663,0.007751465,-0.009918213,-34.13849,-40.859985,27.89917,0,0.0,0.0,0.0,0.0
1.245123504,-0.01437826,0.574233,0.81856567,0.017846014,-0.8183725,0.5744109,0.9997373,0.022867166,0.0015190024,-0.022912774,0.60137594,0.7986376,0.011022545,-0.7986468,0.60169905,0.9996767,0.022589613,0.0116705205,10.067795,0.18424988,0.01914978,9.804074,0.2242503,0.014896325,-0.017913818,0.0037841797,-0.012512207,-33.898926,-40.618896,27.89917,0,0.0,0.0,0.0,0.0
1.253424286,-0.014428522,0.57426095,0.8185452,0.017848207,-0.81835204,0.57444006,0.99973655,0.022897884,0.0015580851,-0.022746392,0.60083956,0.799046,0.011164475,-0.7990503,0.6011606,0.9996789,0.022595163,0.011467452,10.067795,0.18424988,0.01914978,9.804068,0.22455156,0.015279597,-0.02142334,0.0022583008,-0.011444092,-33.898926,-40.618896,27.89917,0,0.0,0.0,0.0,0.0
1.261725067,-0.014447561,0.57427144,0.81853753,0.017826455,-0.81834495,0.57445097,0.9997367,0.022891035,0.0015858628,-0.02242506,0.5997992,0.7998363,0.011439232,-0.7998311,0.60011613,0.9996831,0.02260715,0.011075018,10.055832,0.15194702,0.028717041,9.804069,0.22448438,0.015552002,-0.014083862,-0.0052337646,-0.012817383,-33.898926,-40.618896,27.89917,0,0.0,0.0,0.0,0.0
1.270025848,-0.014354742,0.57063884,0.82107574,0.017895328,-0.82088226,0.57081723,0.99973685,0.022887351,0.0015717847,-0.022269279,0.5992944,0.8002189,0.011571787,-0.8002092,0.59960926,0.99968505,0.022612827,0.010885176,10.055832,0.15194702,0.028717041,9.804069,0.22444823,0.015413942,-0.017745972,-0.008285522,-0.012817383,-34.259033,-40.919495,27.83966,0,0.0,0.0,0.0,0.0
1.278326629,-0.014321546,0.5706202,0.8210892,0.017936595,-0.8208947,0.57079786,0.99973655,0.022902252,0.0015214991,-0.02196401,0.5981737,0.80106544,0.011832468,-0.8010471,0.5984844,0.99968874,0.022623697,0.010516336,10.057037,0.1758728,0.0382843,9.804067,0.22459437,0.014920809,-0.01637268,-0.018661499,-0.009307861,-34.259033,-40.919495,27.83966,0,0.0,0.0,0.0,0.0
1.286627411,-0.014211319,0.57132596,0.82060015,0.018007446,-0.8204037,0.5715011,0.99973685,0.022898698,0.0013708967,-0.021669032,0.59709525,0.8018776,0.012083648,-0.801851,0.5974019,0.9996922,0.022634726,0.010160246,10.04985,0.17347717,0.009567261,9.8040695,0.22455953,0.013443904,-0.023254395,-0.02217102,-0.006866455,-34.07898,-40.919495,27.89917,0,0.0,0.0,0.0,0.0
1.294928192,-0.014061564,0.5712427,0.8206608,0.018094322,-0.8204622,0.57141453,0.99973744,0.02288428,0.0012007318,-0.021523435,0.5965856,0.80226076,0.012206601,-0.8022301,0.5968902,0.9996938,0.022640005,0.009984466,10.04985,0.17347717,0.009567261,9.804075,0.22441813,0.011775157,-0.026611328,-0.016220093,-0.0062561035,-34.07898,-40.919495,27.89917,0,0.0,0.0,0.0,0.0
1.303228973,-0.013792755,0.5644086,0.8253803,0.018292068,-0.82517827,0.5645761,0.9997375,0.022884972,0.00105728,-0.021234758,0.59559286,0.80300575,0.012448262,-0.8029671,0.5958934,0.999697,0.022649677,0.009636717,10.065414,0.17228699,0.01675415,9.804076,0.22442493,0.010368375,-0.022033691,-0.02142334,-0.013122559,-33.839417,-41.09955,27.539063,0,0.0,0.0,0.0,0.0
1.311529754,-0.013716891,0.56436634,0.82541054,0.018386997,-0.8252063,0.5645322,0.99973685,0.022920446,9.42263E-4,-0.02094817,0.59437406,0.8039158,0.012690058,-0.80386937,0.5946705,0.9997,0.022658996,0.009296951,10.054642,0.19262695,0.01675415,9.8040695,0.2247728,0.009240444,-0.01576233,-0.021255493,-0.016937256,-33.839417,-41.09955,27.539063,0,0.0,0.0,0.0,0.0
1.319830536,-0.013584231,0.56266946,0.8265703,0.018550694,-0.82636243,0.5628329,0.99973565,0.022979107,7.875907E-4,-0.020807391,0.5937816,0.8043572,0.012809053,-0.804307,0.5940759,0.9997014,0.022664225,0.00912975,10.054642,0.19262695,0.01675415,9.804058,0.22534806,0.007723626,-0.020355225,-0.017745972,-0.010223389,-34.01947,-41.09955,27.418518,0,0.0,0.0,0.0,0.0
1.328131317,-0.013460203,0.56259984,0.8266198,0.018648164,-0.82640964,0.5627605,0.9997355,0.02298981,6.321885E-4,-0.020529408,0.5925658,0.80526036,0.01304635,-0.8052028,0.592856,0.9997041,0.022676693,0.008799517,10.052246,0.17228699,-0.021530151,9.804056,0.22545302,0.0061996514,-0.0206604,-0.0018615723,-0.004272461,-34.01947,-41.09955,27.418518,0,0.0,0.0,0.0,0.0
1.336432098,-0.013317899,0.56152034,0.82735574,0.01869602,-0.8271447,0.56167805,0.99973655,0.02294863,5.176335E-4,-0.020256847,0.5913941,0.8061282,0.013277687,-0.8060634,0.5916802,0.9997066,0.022689095,0.0084759565,10.063019,0.1603241,-0.047851563,9.804066,0.22504917,0.0050762505,-0.022949219,4.272461E-4,-0.010070801,-34.318542,-40.859985,27.178955,0,0.0,0.0,0.0,0.0
1.344732879,-0.013236552,0.56147397,0.8273886,0.018709386,-0.82717717,0.56162983,0.9997373,0.022913972,4.441393E-4,-0.02012174,0.5908043,0.8065639,0.013390828,-0.80649567,0.59108835,0.9997078,0.022694284,0.008316738,10.063019,0.1603241,-0.047851563,9.804074,0.22470932,0.0043555186,-0.014083862,4.272461E-4,-0.010070801,-34.318542,-40.859985,27.178955,0,0.0,0.0,0.0,0.0
1.353033661,-0.013301865,0.56353253,0.8259867,0.018666424,-0.8257758,0.56368923,0.9997372,0.02291634,4.652204E-4,-0.019856017,0.58965683,0.8074098,0.013610422,-0.8073348,0.58993673,0.9997102,0.022702983,0.0080049755,10.042679,0.1758728,0.0,9.804073,0.22473253,0.0045622536,-0.025390625,0.009124756,-0.009918213,-34.67865,-40.919495,27.359009,0,0.0,0.0,0.0,0.0
1.361334442,-0.013390778,0.56358373,0.82595044,0.018607413,-0.825741,0.5637425,0.9997372,0.022917751,5.704804E-4,-0.019602306,0.58863336,0.80816245,0.013818329,-0.8080811,0.58890927,0.9997124,0.022711433,0.0077063222,10.052246,0.17945862,0.035888672,9.804073,0.22474636,0.005594502,-0.019897461,0.008514404,-0.0050354004,-34.67865,-40.919495,27.359009,0,0.0,0.0,0.0,0.0
1.369635223,-0.0134904375,0.5639501,0.8256988,0.018526994,-0.8254912,0.56411105,0.9997373,0.022907816,6.8793714E-4,-0.01948079,0.5881377,0.8085262,0.013917716,-0.80844176,0.5884117,0.99971336,0.02271556,0.0075635496,10.052246,0.17945862,0.035888672,9.804074,0.22464894,0.0067463587,-0.017608643,0.008972168,-0.0076293945,-34.498596,-40.618896,27.178955,0,0.0,0.0,0.0,0.0
1.377936004,-0.013575119,0.5639988,0.82566404,0.018470328,-0.8254578,0.5641616,0.9997372,0.022908846,7.8844477E-4,-0.019248508,0.5871897,0.8092205,0.01410672,-0.8091304,0.5874598,0.9997152,0.022723172,0.0072912327,10.065414,0.17706299,0.025131226,9.804073,0.22465904,0.007732002,-0.017745972,0.0065307617,-0.0119018555,-34.498596,-40.618896,27.178955,0,0.0,0.0,0.0,0.0
1.386236786,-0.013677748,0.56314105,0.82624763,0.018417345,-0.8260429,0.5633064,0.99973685,0.022922048,9.2684175E-4,-0.019028425,0.58628035,0.8098848,0.014285319,-0.8097893,0.5865469,0.9997169,0.022730524,0.0070338123,10.042679,0.17347717,0.0657959,9.8040695,0.22478852,0.009089213,-0.022338867,0.0011901855,-0.0119018555,-34.259033,-40.79895,27.23999,0,0.0,0.0,0.0,0.0
1.394537567,-0.013762932,0.5631895,0.82621306,0.018367121,-0.82600945,0.5633567,0.99973655,0.0229286,0.001024143,-0.018923583,0.58582205,0.81021875,0.014370797,-0.81012076,0.58608687,0.99971765,0.022734353,0.0069116573,10.042679,0.17347717,0.0657959,9.804067,0.22485276,0.0100434115,-0.018356323,-0.004776001,-0.008850098,-34.259033,-40.79895,27.23999,0,0.0,0.0,0.0,0.0
1.402838348,-0.0139787905,0.5706685,0.8210615,0.018220369,-0.82086,0.5708387,0.99973625,0.022939678,0.0010768382,-0.018625943,0.58450305,0.8111777,0.014613341,-0.8110726,0.5847629,0.9997197,0.022745775,0.0065654498,10.046265,0.18304443,0.06819153,9.804064,0.2249614,0.010560176,-0.021575928,-0.006454468,-0.012207031,-33.95996,-40.79895,27.778625,0,0.0,0.0,0.0,0.0
1.411139129,-0.013895816,0.5706223,0.82109505,0.018282583,-0.82089204,0.57079065,0.99973625,0.02294334,9.7451534E-4,-0.018534169,0.58422804,0.8113779,0.014686969,-0.81127065,0.58448625,0.99972034,0.022749651,0.0064556883,10.055832,0.18066406,-0.026321411,9.804064,0.22499731,0.009556731,-0.015625,-0.0069122314,-0.008544922,-33.95996,-40.79895,27.778625,0,0.0,0.0,0.0,0.0
1.419439911,-0.013672529,0.56391066,0.8257225,0.018453313,-0.82551676,0.5640757,0.99973625,0.022949662,8.8088185E-4,-0.01844253,0.58395755,0.81157476,0.014760368,-0.81146526,0.58421427,0.99972093,0.022753527,0.0063460455,10.055832,0.18066406,-0.026321411,9.804064,0.2250593,0.0086385,-0.016067505,-9.460449E-4,-0.008544922,-34.259033,-40.979004,27.418518,0,0.0,0.0,0.0,0.0
1.427740692,-0.013619103,0.5638804,0.82574415,0.018486202,-0.8255376,0.56404424,0.99973637,0.02294665,8.19074E-4,-0.018256925,0.5831703,0.8121447,0.014910855,-0.8120309,0.58342385,0.9997221,0.022761296,0.0061296206,10.035492,0.17108154,-0.022735596,9.804065,0.22502977,0.008032372,-0.019744873,-0.0012512207,-0.012817383,-34.259033,-40.979004,27.418518,0,0.0,0.0,0.0,0.0
1.436041473,-0.01387563,0.5720785,0.82008153,0.018363386,-0.81987643,0.57224613,0.9997351,0.022999749,8.7100145E-4,-0.01807639,0.5824126,0.8126923,0.015056368,-0.8125744,0.582663,0.99972326,0.022768637,0.005919393,10.047455,0.20100403,0.049057007,9.804052,0.22555049,0.008541606,-0.022338867,-0.0056915283,-0.009613037,-34.259033,-40.73944,27.83966,0,0.0,0.0,0.0,0.0
1.444342254,-0.013928198,0.572108,0.82006,0.018386677,-0.8198543,0.5722768,0.9997339,0.023048963,8.999283E-4,-0.017993199,0.58220696,0.8128415,0.015123508,-0.8127216,0.58245593,0.99972373,0.022773258,0.0058184504,10.047455,0.20100403,0.049057007,9.804041,0.22603312,0.008825282,-0.020355225,-0.007369995,-0.009155273,-34.259033,-40.73944,27.83966,0,0.0,0.0,0.0,0.0
1.452643036,-0.013863238,0.57260996,0.8197106,0.018376062,-0.81950504,0.5727771,0.999735,0.0230036,8.3867816E-4,-0.017833663,0.581809,0.81312996,0.015254638,-0.8130063,0.5820551,0.9997246,0.022784175,0.005623595,10.052246,0.1483612,-0.011962891,9.804052,0.22558828,0.008224624,-0.0206604,-0.0012512207,-0.0065612793,-34.13849,-40.67993,27.83966,0,0.0,0.0,0.0,0.0
1.460943817,-0.013838179,0.57259595,0.81972086,0.01837598,-0.8195152,0.57276255,0.99973536,0.022989167,8.185874E-4,-0.017677737,0.5814461,0.8133928,0.015379916,-0.81326556,0.5816894,0.9997254,0.022792866,0.0054341033,10.031906,0.17468262,-0.0035858154,9.804055,0.22544672,0.0080276,-0.019134521,0.0065307617,-0.0119018555,-34.13849,-40.67993,27.83966,0,0.0,0.0,0.0,0.0
1.469244598,-0.013956572,0.5772587,0.8164421,0.018290516,-0.81623757,0.5774268,0.9997353,0.022992045,8.335189E-4,-0.017601626,0.5812698,0.81352055,0.015440597,-0.8133915,0.58151174,0.9997259,0.022796793,0.0053418605,10.031906,0.17468262,-0.0035858154,9.804054,0.22547494,0.008174028,-0.021118164,0.0040893555,-0.01159668,-33.95996,-40.618896,28.138733,0,0.0,0.0,0.0,0.0
1.477545379,-0.014014658,0.5772908,0.8164184,0.018288448,-0.816214,0.5774602,0.9997345,0.023023931,8.812062E-4,-0.017457724,0.58111143,0.8136367,0.015554197,-0.81350446,0.5813507,0.9997266,0.022804525,0.0051632137,10.053452,0.18664551,0.0047912598,9.804047,0.22578764,0.008641681,-0.022644043,0.004547119,-0.010986328,-33.95996,-40.618896,28.138733,0,0.0,0.0,0.0,0.0
1.485846161,-0.014207143,0.58234286,0.8128192,0.018150164,-0.812617,0.5825153,0.9997343,0.023028677,9.753504E-4,-0.017321846,0.58096045,0.8137475,0.015663095,-0.8136121,0.5811972,0.9997273,0.02281321,0.0049936245,10.058228,0.17347717,0.035888672,9.804045,0.22583419,0.00956492,-0.02279663,0.007293701,-0.010528564,-33.898926,-40.438843,28.379822,0,0.0,0.0,0.0,0.0
1.494146942,-0.014283192,0.58238465,0.81278783,0.018097112,-0.8125871,0.5825588,0.9997342,0.023029914,0.0010668592,-0.017259499,0.58098793,0.81372917,0.015712716,-0.81359226,0.5812234,0.99972755,0.02281752,0.0049132984,10.058228,0.17347717,0.035888672,9.804044,0.2258463,0.010462315,-0.01637268,0.001953125,-0.012054443,-33.898926,-40.438843,28.379822,0,0.0,0.0,0.0,0.0
1.502447723,-0.014261586,0.5792803,0.8150036,0.0181564,-0.81480205,0.5794548,0.99973345,0.023061479,0.0011027232,-0.0171414,0.5810435,0.813692,0.015807005,-0.8135524,0.5812768,0.99972814,0.02282593,0.0047608702,10.063019,0.18902588,0.01675415,9.804036,0.22615585,0.01081402,-0.023406982,-0.0015563965,-0.008850098,-34.01947,-40.67993,28.318787,0,0.0,0.0,0.0,0.0
1.510748504,-0.01429783,0.57930034,0.8149887,0.018143289,-0.81478745,0.5794756,0.99973315,0.023071824,0.0011392798,-0.017027505,0.5809737,0.8137442,0.01590031,-0.813602,0.58120483,0.99972856,0.022835255,0.00461595,10.058228,0.18066406,0.037094116,9.804033,0.22625731,0.011172518,-0.021728516,-0.002166748,-7.4768066E-4,-34.01947,-40.67993,28.318787,0,0.0,0.0,0.0,0.0
1.519049286,-0.014244445,0.57659644,0.8169049,0.018155804,-0.816704,0.5767712,0.99973375,0.02304735,0.0011649232,-0.016973048,0.58094025,0.8137692,0.015945254,-0.8136257,0.5811703,0.9997288,0.022839988,0.004546469,10.058228,0.18066406,0.037094116,9.804039,0.22601731,0.011423995,-0.023712158,-0.007827759,-0.007171631,-34.259033,-40.79895,28.199768,0,0.0,0.0,0.0,0.0
1.527350067,-0.01425891,0.5766045,0.816899,0.018125555,-0.8166988,0.57677954,0.99973404,0.023030994,0.0011939586,-0.016865496,0.58076847,0.81389403,0.016033296,-0.81374806,0.5809965,0.9997292,0.022848198,0.0044126324,10.063019,0.17945862,0.061019897,9.804042,0.2258569,0.011708734,-0.026916504,-0.016220093,-0.007019043,-34.259033,-40.79895,28.199768,0,0.0,0.0,0.0,0.0
1.535650848,-0.013965797,0.5688574,0.82231766,0.018327825,-0.82211405,0.5690278,0.9997345,0.023018219,0.0010555605,-0.016762728,0.580604,0.8140135,0.01611661,-0.8138652,0.58083016,0.9997296,0.022855436,0.0042852317,10.064209,0.16989136,-0.021530151,9.804047,0.22573161,0.010351513,-0.022644043,-0.025238037,-0.0050354004,-34.379578,-40.73944,27.598572,0,0.0,0.0,0.0,0.0
1.543951629,-0.013779428,0.5687517,0.82239383,0.01841996,-0.82218796,0.56891793,0.99973536,0.022987826,8.528948E-4,-0.016707381,0.5803701,0.8141814,0.016161589,-0.8140319,0.5805952,0.99972975,0.022858692,0.0042206375,10.064209,0.16989136,-0.021530151,9.804054,0.22543356,0.00836404,-0.021728516,-0.0256958,-0.009613037,-34.379578,-40.73944,27.598572,0,0.0,0.0,0.0,0.0
1.552252411,-0.0138211455,0.5784378,0.8156094,0.018353041,-0.81540316,0.5786025,0.999736,0.022965861,6.537138E-4,-0.016592512,0.57991236,0.81450987,0.016252602,-0.81435794,0.5801353,0.9997302,0.022863805,0.004087159,10.041473,0.16630554,0.0023956299,9.804061,0.22521815,0.0064107426,-0.023864746,-0.022476196,-0.009002686,-33.95996,-40.319824,28.019714,0,0.0,0.0,0.0,0.0
1.560553192,-0.013653255,0.5791769,0.8150875,0.018491395,-0.8148778,0.57933766,0.9997358,0.022981953,4.1594618E-4,-0.016482893,0.5798539,0.8145538,0.016335987,-0.81439954,0.5800746,0.9997307,0.022867847,0.0039511775,10.060623,0.18544006,-0.033493042,9.804059,0.22537597,0.0040790387,-0.021270752,-0.015457153,-0.01159668,-34.07898,-40.319824,28.079224,0,0.0,0.0,0.0,0.0
1.568853973,-0.013502999,0.57909316,0.81514955,0.018621268,-0.8149368,0.5792505,0.99973536,0.023000736,2.2064212E-4,-0.016426362,0.57984024,0.8145646,0.016379124,-0.81440914,0.5800599,0.99973094,0.022870127,0.003880505,10.060623,0.18544006,-0.033493042,9.804055,0.22556017,0.0021637601,-0.018356323,-0.0010986328,-0.010681152,-34.07898,-40.319824,28.079224,0,0.0,0.0,0.0,0.0
1.577154754,-0.013435822,0.57905567,0.81517726,0.01869446,-0.8149629,0.57921153,0.999735,0.023021484,1.2456268E-4,-0.016367858,0.5798252,0.81457645,0.016424078,-0.8144198,0.5800437,0.9997311,0.02287274,0.0038072108,10.058228,0.16989136,-0.046661377,9.804051,0.22576363,0.0012215426,-0.01423645,0.0043945313,-0.008850098,-34.07898,-40.319824,28.079224,0,0.0,0.0,0.0,0.0
1.585455536,-0.01337865,0.57902384,0.81520087,0.018728334,-0.8149857,0.5791784,0.9997351,0.02301598,5.9257032E-5,-0.016251802,0.5797949,0.8146004,0.016514117,-0.81444126,0.580011,0.99973154,0.022878632,0.0036613373,10.04985,0.16749573,-0.08255005,9.804052,0.22570966,5.81113E-4,-0.015930176,0.011413574,-0.011444092,-34.07898,-40.319824,28.079224,0,0.0,0.0,0.0,0.0
1.593756317,-0.013400025,0.5765039,0.8169846,0.018723521,-0.81677,0.57665956,0.9997349,0.023024078,1.5055657E-4,-0.016137997,0.5797641,0.8146245,0.016601989,-0.8144629,0.57997805,0.9997319,0.02288407,0.0035185623,10.07019,0.15911865,-0.0059814453,9.80405,0.22578909,0.0014764557,-0.02218628,0.010498047,-0.01449585,-34.07898,-40.499878,28.019714,0,0.0,0.0,0.0,0.0
1.602057098,-0.013536752,0.57863635,0.8154734,0.018645044,-0.81526023,0.5787946,0.9997345,0.023039535,2.4727543E-4,-0.016083425,0.57969904,0.81467193,0.01664462,-0.81450915,0.5799118,0.9997321,0.022886872,0.003451227,10.088135,0.15911865,0.0,9.804047,0.22594066,0.0024249437,-0.019592285,0.007751465,-0.010528564,-33.898926,-40.618896,28.259277,0,0.0,0.0,0.0,0.0
1.610357879,-0.013639005,0.5786926,0.81543165,0.01859747,-0.8152197,0.57885325,0.99973404,0.02305995,3.5656453E-4,-0.015982639,0.579657,0.8147038,0.016723992,-0.81453896,0.5798678,0.9997324,0.022892918,0.0033243026,10.052246,0.18304443,0.0382843,9.804042,0.22614086,0.0034967037,-0.015625,0.0024108887,-0.009155273,-33.898926,-40.618896,28.259277,0,0.0,0.0,0.0,0.0
1.618658661,-0.013461403,0.57468593,0.8182634,0.018712234,-0.81804943,0.5748435,0.9997343,0.023049735,2.5843593E-4,-0.01588993,0.5796189,0.81473285,0.016798284,-0.81456596,0.5798277,0.9997327,0.022899533,0.0032067935,10.063019,0.17347717,-0.110076904,9.804045,0.22604068,0.002534391,-0.019897461,0.018600464,-0.007171631,-33.47931,-40.67993,28.019714,0,0.0,0.0,0.0,0.0
1.626959442,-0.013760414,0.5748494,0.8181435,0.018479133,-0.817935,0.57501376,0.9997345,0.02303101,6.324054E-4,-0.015841562,0.5795205,0.81480366,0.016836856,-0.81463575,0.5797285,0.99973273,0.022902537,0.0031478002,10.058228,0.17826843,0.18304443,9.804047,0.22585705,0.0062017785,-0.017608643,0.023330688,-0.0025787354,-33.47931,-40.67993,28.019714,0,0.0,0.0,0.0,0.0
1.635260223,-0.014009435,0.57498556,0.8180436,0.018272638,-0.81784004,0.5751554,0.9997349,0.023005418,9.5097284E-4,-0.015759477,0.57933575,0.81493664,0.01690235,-0.81476706,0.57954204,0.9997329,0.022907624,0.0030481673,10.058228,0.17826843,0.18304443,9.80405,0.2256061,0.009325858,-0.028289795,-0.00843811,-0.0074768066,-33.47931,-40.67993,28.019714,0,0.0,0.0,0.0,0.0
1.643561004,-0.014118991,0.57906246,0.8151609,0.018242283,-0.81495726,0.5792338,0.9997339,0.023048595,9.42954E-4,-0.015690433,0.5791638,0.81506026,0.016956972,-0.8148892,0.57936865,0.9997331,0.022911496,0.0029651006,10.055832,0.21057129,0.105285645,9.804041,0.2260295,0.00924722,-0.019897461,-0.04524231,-0.011138916,-33.4198,-40.67993,28.318787,0,0.0,0.0,0.0,0.0
1.651861786,-0.013834899,0.5756958,0.81754696,0.01847427,-0.81733847,0.57586163,0.9997336,0.023070568,6.722359E-4,-0.015659036,0.5791616,0.8150623,0.016982658,-0.8148906,0.57936585,0.99973315,0.022914236,0.002924699,10.064209,0.18066406,0.04067993,9.804038,0.22624499,0.0065923827,-0.018218994,-0.04676819,-0.012817383,-33.47931,-40.67993,28.079224,0,0.0,0.0,0.0,0.0
1.660162567,-0.0135986125,0.5755668,0.8176417,0.018655756,-0.8174289,0.5757273,0.99973345,0.023082817,3.7826615E-4,-0.0155869825,0.5790245,0.8151611,0.017042054,-0.8149879,0.5792273,0.99973327,0.022920426,0.0028354349,10.042679,0.16989136,-0.044265747,9.804036,0.2263651,0.003709524,-0.024169922,-0.03652954,-0.0076293945,-33.47931,-40.67993,28.079224,0,0.0,0.0,0.0,0.0
1.668463348,-0.013046271,0.5658388,0.82441264,0.018969381,-0.82419443,0.5659892,0.999735,0.023022648,1.9052672E-5,-0.0155085465,0.5788878,0.8152597,0.01710624,-0.8150848,0.5790891,0.9997334,0.022926858,0.0027381857,10.080963,0.1531372,-0.056228638,9.804051,0.22577505,1.8684288E-4,-0.024475098,-0.02508545,-0.0050354004,-33.718872,-41.33911,27.83966,0,0.0,0.0,0.0,0.0
1.676764129,-0.012754601,0.56567824,0.82452744,0.019085255,-0.82430667,0.565822,0.99973655,0.022953149,-2.824103E-4,-0.015459882,0.57862836,0.8154448,0.017144203,-0.815269,0.57882863,0.9997335,0.022928772,0.0026838405,10.064209,0.15792847,-0.051452637,9.804067,0.2250935,-0.002769499,-0.02142334,-0.026153564,-0.008239746,-33.718872,-41.33911,27.83966,0,0.0,0.0,0.0,0.0
1.685064911,-0.01252295,0.56555057,0.8246185,0.01919722,-0.8243951,0.56568885,0.9997372,0.022914477,-5.331388E-4,-0.0153538175,0.57811797,0.8158087,0.017222641,-0.8156309,0.57831615,0.9997338,0.02292974,0.0025663313,10.042679,0.15911865,-0.058624268,9.804073,0.22471425,-0.0052283057,-0.016235352,-0.016677856,-0.0076293945,-33.718872,-41.33911,27.83966,0,0.0,0.0,0.0,0.0
1.693365692,-0.01224773,0.56179976,0.8271826,0.019352702,-0.8269565,0.5619328,0.99973774,0.022890618,-7.4400485E-4,-0.015242799,0.5776228,0.8161615,0.01730241,-0.81598175,0.5778187,0.9997341,0.022929136,0.0024435786,10.042679,0.15911865,-0.058624268,9.804078,0.22448029,-0.0072961953,-0.022491455,-0.002166748,-0.009460449,-33.898926,-41.63971,27.778625,0,0.0,0.0,0.0,0.0
1.701666473,-0.011977588,0.5564497,0.83079493,0.019517345,-0.83056617,0.55657786,0.99973774,0.022881372,-9.122435E-4,-0.01518362,0.57730836,0.816385,0.017344484,-0.8162042,0.5775031,0.9997342,0.022928365,0.0023798186,10.061813,0.16630554,-0.09690857,9.804078,0.22438961,-0.008946053,-0.022949219,0.012786865,-0.0119018555,-33.95996,-41.758728,27.479553,0,0.0,0.0,0.0,0.0
1.709967254,-0.011962954,0.55644155,0.83080065,0.019531772,-0.83057153,0.55656934,0.9997376,0.02288522,-9.321997E-4,-0.0150585,0.57648945,0.8169659,0.01743346,-0.8167829,0.57668173,0.99973464,0.022926502,0.002249319,10.040283,0.15672302,-0.0765686,9.804077,0.22442736,-0.009141756,-0.019744873,0.031570435,-0.013580322,-33.95996,-41.758728,27.479553,0,0.0,0.0,0.0,0.0
1.718268036,-0.012138467,0.5565394,0.8307325,0.019431554,-0.83050555,0.55667126,0.9997375,0.022899559,-7.3336146E-4,-0.01499751,0.5760917,0.8172474,0.0174768,-0.81706345,0.57628274,0.99973476,0.022925677,0.0021856783,10.060623,0.17228699,-0.041870117,9.804076,0.22456796,-0.0071918196,-0.022644043,0.03967285,-0.009613037,-33.95996,-41.758728,27.479553,0,0.0,0.0,0.0,0.0
1.726568817,-0.012500706,0.5619524,0.8270752,0.019190364,-0.8268527,0.56209123,0.99973774,0.022898408,-4.4782867E-4,-0.014885919,0.5753236,0.8177905,0.01755659,-0.8176046,0.57551235,0.99973506,0.022924641,0.002070076,10.071396,0.17945862,0.008377075,9.804078,0.22455667,-0.004391699,-0.0124053955,0.045928955,-0.008544922,-33.95996,-41.63971,27.778625,0,0.0,0.0,0.0,0.0
1.734869598,-0.012856361,0.56214947,0.8269357,0.018989589,-0.8267177,0.56229645,0.999737,0.022932258,-4.640502E-5,-0.014792377,0.5747969,0.8181623,0.01762269,-0.8179749,0.57498384,0.99973524,0.022923602,0.0019703244,10.071396,0.19621277,0.03111267,9.804071,0.22488862,-4.550778E-4,-0.015457153,0.04058838,-0.014953613,-33.95996,-41.63971,27.778625,0,0.0,0.0,0.0,0.0
1.743170379,-0.013068663,0.55822486,0.82958674,0.018887373,-0.8293717,0.5583777,0.99973613,0.022965964,2.953788E-4,-0.014754083,0.5745453,0.81833977,0.01765054,-0.81815165,0.5747315,0.99973536,0.022923775,0.0019300422,10.071396,0.19621277,0.03111267,9.804063,0.22521918,0.0028966765,-0.015457153,0.024551392,-0.0050354004,-34.07898,-41.279602,27.23999,0,0.0,0.0,0.0,0.0
1.751471161,-0.013421431,0.56512797,0.8248941,0.018658647,-0.8246831,0.56528705,0.9997358,0.02297837,5.2390434E-4,-0.014688189,0.5739032,0.8187914,0.017700642,-0.8186022,0.5740881,0.9997355,0.022925448,0.0018653286,10.072586,0.18544006,0.04307556,9.804059,0.22534083,0.0051377467,-0.022949219,0.009429932,-0.009918213,-34.318542,-41.09955,27.598572,0,0.0,0.0,0.0,0.0
1.759771942,-0.013527476,0.56518775,0.82485133,0.018591544,-0.82464206,0.5653492,0.99973565,0.022983009,6.476135E-4,-0.014638356,0.5735569,0.81903493,0.017739072,-0.81884485,0.5737408,0.9997355,0.022927543,0.0018121753,10.041473,0.18185425,0.023925781,9.804057,0.22538632,0.0063509187,-0.007980347,0.0069885254,-0.0119018555,-34.318542,-41.09955,27.598572,0,0.0,0.0,0.0,0.0
1.768072723,-0.01359584,0.56522644,0.82482386,0.018575931,-0.82461494,0.56538945,0.999735,0.023008812,7.1172573E-4,-0.01461634,0.5733901,0.81915206,0.017756296,-0.81896156,0.57357365,0.9997355,0.022928653,0.0017889355,10.053452,0.17945862,0.0047912598,9.804051,0.22563937,0.006979645,-0.007980347,0.008514404,-0.012817383,-34.318542,-41.09955,27.598572,0,0.0,0.0,0.0,0.0
1.776373504,-0.013694078,0.5665535,0.82391113,0.018540543,-0.8237028,0.5667184,0.9997343,0.023036446,7.7564304E-4,-0.01457621,0.5730681,0.81937814,0.017789109,-0.81918687,0.5732508,0.9997355,0.02293183,0.0017462698,10.067795,0.15434265,0.0035858154,9.804045,0.22591037,0.0076064602,-0.01637268,0.0065307617,-0.009155273,-34.61914,-40.79895,27.479553,0,0.0,0.0,0.0,0.0
1.784674286,-0.013756545,0.56658924,0.82388556,0.018535666,-0.82367736,0.5667556,0.9997335,0.023067866,8.288473E-4,-0.014541641,0.572811,0.8195585,0.017819004,-0.8193666,0.572993,0.99973553,0.022935973,0.0017080136,10.059433,0.19142151,0.010772705,9.804037,0.22621849,0.008128216,-0.015625,-0.004928589,-0.010986328,-34.61914,-40.79895,27.479553,0,0.0,0.0,0.0,0.0
1.792975067,-0.013864548,0.5716568,0.82037574,0.018467944,-0.82016826,0.5718243,0.9997333,0.023078738,8.139357E-4,-0.014525992,0.57268685,0.81964546,0.017833471,-0.81945324,0.5728685,0.9997355,0.022938611,0.0016903753,10.061813,0.17228699,0.0035858154,9.804035,0.22632511,0.007981983,-0.014389038,-0.0069122314,-0.015258789,-34.61914,-40.618896,27.719116,0,0.0,0.0,0.0,0.0
1.801275848,-0.014320647,0.5898283,0.80740166,0.01818767,-0.80719715,0.5900015,0.99973196,0.02313396,8.319823E-4,-0.014487186,0.57262635,0.81968844,0.017870797,-0.81949526,0.57280725,0.9997353,0.022946853,0.00163889,10.073776,0.19621277,0.053833008,9.804022,0.22686665,0.008158959,-0.017303467,-9.460449E-4,-0.01083374,-34.379578,-39.59961,28.318787,1,0.0,0.0,0.0,0.0
1.809576629,-0.014370044,0.5898562,0.8073805,0.018204905,-0.8071757,0.5900306,0.999731,0.023177048,8.608741E-4,-0.014483701,0.5729729,0.8194463,0.01787696,-0.8192529,0.5731536,0.9997353,0.022950595,0.0016228008,10.073776,0.19621277,0.053833008,9.804012,0.2272892,0.008442291,-0.014083862,-0.009963989,-0.010375977,-34.379578,-39.59961,28.318787,1,0.0,0.0,0.0,0.0
1.817877411,-0.014287332,0.5898096,0.80741596,0.018216033,-0.8072108,0.5899821,0.99973196,0.023137186,7.888973E-4,-0.014481221,0.57331306,0.81920844,0.017883403,-0.8190148,0.5734936,0.9997352,0.022955123,0.001607546,10.052246,0.1483612,-0.011962891,9.804022,0.22689828,0.00773644,-0.0015716553,-0.005844116,-0.0062561035,-34.379578,-39.59961,28.318787,1,0.0,0.0,0.0,0.0
1.826178192,-0.014211253,0.58969903,0.8074981,0.018249469,-0.80729216,0.5898698,0.99973243,0.023119198,7.109398E-4,-0.014473276,0.5739708,0.8187478,0.017896216,-0.81855375,0.5741511,0.99973506,0.022962335,0.0015752485,10.060623,0.16630554,-0.0035858154,9.804027,0.2267219,0.006971938,0.014465332,-0.0066070557,-0.010070801,-34.318542,-39.35852,28.138733,1,0.0,0.0,0.0,0.0
1.834478973,-0.014094396,0.589633,0.80754834,0.018328724,-0.8073405,0.58980113,0.9997327,0.02311422,5.7175447E-4,-0.014462554,0.5745976,0.8183083,0.01790987,-0.8181137,0.57477754,0.999735,0.022968547,0.0015410443,10.054642,0.16630554,-0.06341553,9.8040285,0.22667307,0.0056069964,0.017059326,0.0018005371,-0.011444092,-34.318542,-39.35852,28.138733,1,0.0,0.0,0.0,0.0
1.842779754,-0.014039743,0.59089345,0.80662745,0.018369801,-0.80641836,0.59106004,0.9997327,0.023115916,4.6731046E-4,-0.01445496,0.57490027,0.8180958,0.017918078,-0.81790096,0.57508,0.999735,0.02297146,0.0015216182,10.054642,0.16630554,-0.06341553,9.8040285,0.22668971,0.00458275,5.645752E-4,-4.8828125E-4,-0.011444092,-34.55963,-39.479065,28.318787,1,0.0,0.0,0.0,0.0
1.851080536,-0.0139763,0.5875784,0.80904657,0.018422864,-0.8088369,0.5877444,0.99973255,0.023119446,4.796694E-4,-0.014438107,0.57553786,0.81764764,0.017935496,-0.8174523,0.5757171,0.99973494,0.022977179,0.0014799059,10.064209,0.17706299,0.029907227,9.804028,0.22672433,0.00470395,-0.010269165,-0.01133728,-0.00793457,-34.318542,-39.479065,28.079224,1,0.0,0.0,0.0,0.0
1.859381317,-0.013928763,0.58755153,0.80906683,0.018426228,-0.80885714,0.5877165,0.99973327,0.023094214,4.400207E-4,-0.014419517,0.5760169,0.8173106,0.017954435,-0.8171146,0.5761956,0.9997348,0.022982812,0.0014403387,10.052246,0.16749573,0.01914978,9.804034,0.2264769,0.004315129,-0.018661499,-0.0070648193,-0.0073242188,-34.318542,-39.479065,28.079224,1,0.0,0.0,0.0,0.0
1.867682098,-0.013871612,0.5875192,0.80909127,0.01843197,-0.80888134,0.5876828,0.9997338,0.023065256,3.9135173E-4,-0.014409528,0.5762487,0.8171473,0.017963707,-0.8169511,0.5764271,0.9997348,0.02298504,0.0014203168,10.052246,0.16749573,0.01914978,9.80404,0.22619289,0.0038378495,-0.018661499,-0.010879517,-0.007019043,-34.318542,-39.479065,28.079224,1,0.0,0.0,0.0,0.0
1.875982879,-0.01398207,0.5937807,0.80450547,0.018333359,-0.80429655,0.59394515,0.9997341,0.023053868,3.5973496E-4,-0.0143879205,0.5766971,0.8168313,0.017981907,-0.8166345,0.576875,0.99973476,0.022988217,0.0013795579,10.054642,0.19023132,0.035888672,9.804043,0.22608122,0.003527795,-0.017913818,-0.010574341,-0.010375977,-34.07898,-39.65912,28.678894,1,0.0,0.0,0.0,0.0
1.884283661,-0.0139376,0.59375614,0.8045243,0.018368466,-0.8043146,0.5939196,0.9997341,0.023055693,3.0382536E-4,-0.014379611,0.5770413,0.81658834,0.01798868,-0.81639135,0.57721883,0.99973476,0.02298953,0.0013591786,10.054642,0.19023132,0.035888672,9.804043,0.22609912,0.002979509,-0.017913818,-0.018203735,-0.010375977,-34.07898,-39.65912,28.678894,1,0.0,0.0,0.0,0.0
1.892584442,-0.013836196,0.5923207,0.8055834,0.018465353,-0.80537176,0.5924822,0.99973375,0.023073085,2.058698E-4,-0.014361668,0.5777081,0.81611705,0.018003242,-0.8159195,0.5778851,0.99973476,0.022992147,0.001317347,10.04985,0.18544006,0.015548706,9.804039,0.22626968,0.0020188931,-0.01852417,-0.013320923,-0.008239746,-34.259033,-39.479065,28.439331,1,0.0,0.0,0.0,0.0
1.900885223,-0.013739984,0.5922919,0.80560637,0.018499654,-0.8053939,0.5924512,0.9997344,0.023043707,1.0890366E-4,-0.01434049,0.5782904,0.815705,0.018021045,-0.8155069,0.5784668,0.99973476,0.022995353,0.0012733705,10.082153,0.1603241,0.017944336,9.804046,0.22598158,0.0010679801,-0.021575928,-0.014389038,-0.0048828125,-34.13849,-39.718628,28.619385,1,0.0,0.0,0.0,0.0
1.909186004,-0.013631952,0.59223205,0.8056522,0.018519994,-0.8054393,0.59238887,0.99973553,0.02299609,1.1575671E-5,-0.014328317,0.57857203,0.8155054,0.018030332,-0.815307,0.57874805,0.99973476,0.022996321,0.0012501307,10.082153,0.1603241,0.017944336,9.804056,0.22551459,1.1351855E-4,-0.019744873,-0.01499939,-0.0050354004,-34.13849,-39.718628,28.619385,1,0.0,0.0,0.0,0.0
1.917486786,-0.013484747,0.59215045,0.80571455,0.018540591,-0.8055012,0.592304,0.99973714,0.022925494,-1.1683827E-4,-0.014300311,0.5791162,0.8151196,0.018049208,-0.8149206,0.5792915,0.9997348,0.02299631,0.0012010295,10.060623,0.15553284,-0.009567261,9.804072,0.2248223,-0.0011457921,-0.018981934,-0.012252808,-0.005645752,-34.13849,-39.718628,28.619385,1,0.0,0.0,0.0,0.0
1.925787567,-0.01333511,0.5918317,0.8059513,0.018606575,-0.8057365,0.5919818,0.9997379,0.022890136,-2.6737622E-4,-0.014267731,0.5796351,0.81475127,0.018068016,-0.8145517,0.57980955,0.99973494,0.022993505,0.0011489489,10.088135,0.16989136,-0.04067993,9.80408,0.22447555,-0.0026220651,-0.01576233,-0.005996704,-0.011749268,-34.01947,-39.65912,28.559875,1,0.0,0.0,0.0,0.0
1.934088348,-0.013254385,0.5917869,0.8059854,0.018668083,-0.80576915,0.5919352,0.9997378,0.022891942,-3.6755227E-4,-0.01424886,0.57988036,0.814577,0.018078491,-0.8143771,0.5800543,0.999735,0.022991437,0.0011205848,10.088135,0.16989136,-0.04067993,9.804079,0.22449327,-0.0036044565,-0.013168335,0.002105713,-0.013122559,-34.01947,-39.65912,28.559875,1,0.0,0.0,0.0,0.0
1.942389129,-0.0131340185,0.58892626,0.80808014,0.018748835,-0.8078627,0.58907247,0.9997379,0.022887446,-4.3119723E-4,-0.014209236,0.5803541,0.81424034,0.018101111,-0.81403977,0.58052707,0.99973524,0.0229875,0.0010618302,10.045074,0.16151428,0.028717041,9.80408,0.22444917,-0.0042286003,-0.011489868,0.0028686523,-0.0021362305,-33.95996,-39.779663,28.439331,1,0.0,0.0,0.0,0.0
1.950689911,-0.0133396415,0.59833175,0.8011374,0.01855668,-0.8009226,0.59848034,0.9997389,0.022849966,-4.1903247E-4,-0.014166285,0.5806949,0.813998,0.018126348,-0.81379676,0.5808668,0.99973536,0.022983536,0.0010025989,10.063019,0.17347717,-0.011962891,9.80409,0.22408162,-0.004109305,-0.01637268,-9.460449E-4,-0.0076293945,-33.95996,-39.718628,29.09851,1,0.0,0.0,0.0,0.0
1.958990692,-0.013314158,0.598318,0.80114824,0.018541116,-0.8009338,0.598466,0.99973947,0.022822248,-4.2972344E-4,-0.014149469,0.5810505,0.8137445,0.018134544,-0.81354296,0.58122194,0.9997354,0.022980867,9.741155E-4,10.063019,0.17347717,-0.011962891,9.804095,0.22380981,-0.0042141476,-0.015625,-0.008132935,-0.005493164,-33.95996,-39.718628,29.09851,1,0.0,0.0,0.0,0.0
1.967291473,-0.013276553,0.5982974,0.80116403,0.018560437,-0.80094916,0.5984445,0.9997396,0.022815239,-4.708196E-4,-0.014115891,0.5817393,0.81325275,0.01814984,-0.81305075,0.58190984,0.99973565,0.022974584,9.184597E-4,10.052246,0.18664551,-0.007171631,9.804096,0.22374107,-0.004617163,-0.01852417,-0.0015563965,-0.007019043,-33.95996,-39.718628,29.09851,1,0.0,0.0,0.0,0.0
1.975592254,-0.013068468,0.5911964,0.80642176,0.01870392,-0.80620503,0.5913406,0.99973965,0.022811163,-5.218275E-4,-0.014082191,0.58239967,0.8127806,0.018165326,-0.8125781,0.58256924,0.99973583,0.022968275,8.6339965E-4,10.059433,0.18664551,-0.008377075,9.804097,0.2237011,-0.0051173796,-0.019134521,-0.0017242432,-0.008392334,-33.53882,-39.779663,28.619385,1,0.0,0.0,0.0,0.0
1.983893036,-0.0130378045,0.5911797,0.8064344,0.01873737,-0.8062169,0.59132326,0.99973947,0.02282002,-5.6585536E-4,-0.014061835,0.58257633,0.81265426,0.018175825,-0.8124514,0.5827455,0.9997359,0.022965133,8.357504E-4,10.059433,0.18664551,-0.008377075,9.804095,0.22378795,-0.0055491454,-0.024017334,-0.009048462,-0.010375977,-33.53882,-39.779663,28.619385,1,0.0,0.0,0.0,0.0
1.992193817,-0.01293142,0.5881969,0.8086144,0.01883222,-0.80839527,0.5883386,0.999739,0.02283606,-6.2335335E-4,-0.014020902,0.58291835,0.8124098,0.018197697,-0.8122063,0.5830864,0.99973613,0.022959385,7.800946E-4,10.058228,0.17347717,-0.021530151,9.8040905,0.22394525,-0.006113008,-0.024932861,-0.010574341,-0.0064086914,-33.779907,-39.839172,28.439331,1,0.0,0.0,0.0,0.0
2.000494598,-0.012719486,0.5821052,0.8130141,0.018964192,-0.8127932,0.5822438,0.9997393,0.022823993,-7.0084265E-4,-0.013977621,0.5831276,0.81226027,0.018222518,-0.8120561,0.58329475,0.99973625,0.022954501,7.245577E-4,10.061813,0.17228699,-0.010772705,9.804093,0.22382692,-0.0068729185,-0.021118164,-0.007369995,-0.00793457,-33.95996,-39.959717,28.079224,1,0.0,0.0,0.0,0.0
2.008795379,-0.012671182,0.5820782,0.8130341,0.018980736,-0.8128129,0.58221567,0.9997396,0.022809345,-7.4897194E-4,-0.0139525,0.58310735,0.8122753,0.018237367,-0.8120708,0.5832739,0.9997363,0.022951892,6.960743E-4,10.061813,0.17228699,-0.010772705,9.804096,0.22368327,-0.0073449058,-0.019592285,-0.004928589,-0.01159668,-33.95996,-39.959717,28.079224,1,0.0,0.0,0.0,0.0
2.017096161,-0.012630353,0.5820554,0.8130511,0.01901576,-0.8128291,0.5821918,0.99973935,0.022814069,-8.0190663E-4,-0.013901912,0.5830668,0.8123053,0.018266784,-0.8121001,0.58323216,0.99973655,0.022946246,6.3898816E-4,10.061813,0.17108154,-0.017944336,9.804094,0.2237296,-0.007864018,-0.01637268,4.272461E-4,-0.009765625,-33.95996,-39.959717,28.079224,1,0.0,0.0,0.0,0.0
2.025396942,-0.012476195,0.57620156,0.81721246,0.019137975,-0.8169887,0.576336,0.999739,0.02283027,-8.344197E-4,-0.013876481,0.58304673,0.8123202,0.018281806,-0.81211466,0.5832115,0.9997366,0.022943601,6.1014714E-4,10.061813,0.17108154,-0.017944336,9.804091,0.22388849,-0.008182863,-0.015457153,-0.0023345947,-0.013427734,-33.95996,-40.559387,28.079224,1,0.0,0.0,0.0,0.0
2.033697723,-0.01244868,0.57618624,0.81722355,0.019151388,-0.81699955,0.57632,0.99973905,0.02282539,-8.6420024E-4,-0.013821189,0.58277637,0.812515,0.018316202,-0.8123087,0.58294,0.99973667,0.022939114,5.5282266E-4,10.067795,0.16151428,-0.029907227,9.804091,0.22384062,-0.00847491,-0.020202637,0.0022583008,-0.011291504,-33.95996,-40.559387,28.079224,1,0.0,0.0,0.0,0.0
2.041998504,-0.012530621,0.5773843,0.8163762,0.019137174,-0.8161522,0.57751966,0.9997383,0.02285982,-8.2260824E-4,-0.013767061,0.58251595,0.81270266,0.018349689,-0.81249565,0.5826784,0.99973685,0.02293461,4.966899E-4,10.054642,0.1986084,0.007171631,9.804084,0.22417825,-0.008067031,-0.016677856,0.0024108887,-0.008087158,-33.95996,-40.438843,28.079224,1,0.0,0.0,0.0,0.0
2.050299286,-0.01258553,0.5774148,0.81635386,0.019128535,-0.8161301,0.5775514,0.9997378,0.022884447,-7.736692E-4,-0.013742368,0.58241355,0.8127765,0.018365629,-0.81256914,0.58257544,0.9997369,0.022933116,4.7023242E-4,10.054642,0.1986084,0.007171631,9.804079,0.22441977,-0.0075871036,-0.01713562,0.0022583008,-0.0073242188,-33.95996,-40.438843,28.079224,1,0.0,0.0,0.0,0.0
2.058600067,-0.012586509,0.5765497,0.8169651,0.019100385,-0.8167421,0.5766866,0.99973834,0.022862818,-7.323908E-4,-0.013696855,0.5822161,0.8129187,0.018396003,-0.8127106,0.582377,0.99973696,0.022931188,4.2113115E-4,10.069,0.17945862,0.011962891,9.804085,0.22420768,-0.007182301,-0.018661499,1.2207031E-4,-0.0019683838,-34.199524,-40.618896,28.138733,1,0.0,0.0,0.0,0.0
2.066900848,-0.012601393,0.57655805,0.81695896,0.019032104,-0.81673753,0.5766954,0.99973947,0.022815615,-6.810814E-4,-0.013652993,0.58199227,0.81307966,0.01842422,-0.8128709,0.58215225,0.999737,0.022928482,3.7536683E-4,10.053452,0.16989136,0.025131226,9.804095,0.22374475,-0.006679127,-0.019897461,0.0014953613,-0.014038086,-34.199524,-40.618896,28.138733,1,0.0,0.0,0.0,0.0
2.075201629,-0.012619077,0.5750251,0.8180384,0.019005505,-0.8178178,0.5751632,0.99973977,0.022805264,-6.085364E-4,-0.0136320675,0.58188397,0.81315756,0.018436488,-0.8129486,0.5820435,0.9997371,0.022926226,3.5427234E-4,10.053452,0.16989136,0.025131226,9.804098,0.22364326,-0.0059677036,-0.019439697,0.010498047,-0.0119018555,-33.839417,-40.859985,28.199768,1,0.0,0.0,0.0,0.0
2.083502411,-0.012703024,0.5750712,0.81800467,0.018971605,-0.8177848,0.5752113,0.9997393,0.022825785,-5.2168535E-4,-0.01359201,0.58161306,0.813352,0.018459396,-0.8131426,0.58177173,0.9997372,0.022921436,3.1601626E-4,10.059433,0.17945862,0.007171631,9.804093,0.22384448,-0.005115986,-0.02218628,0.00592041,-0.0076293945,-33.839417,-40.859985,28.199768,1,0.0,0.0,0.0,0.0
2.091803192,-0.012548407,0.56841457,0.8226467,0.0190534,-0.82242614,0.5685528,0.99973965,0.022808645,-5.10091E-4,-0.01355698,0.5813547,0.8135373,0.018479906,-0.8133275,0.58151263,0.9997373,0.022917649,2.8288484E-4,10.043869,0.16749573,-0.047851563,9.804097,0.2236764,-0.0050022844,-0.01928711,0.0068359375,-0.00869751,-33.659363,-40.859985,27.719116,1,0.0,0.0,0.0,0.0
2.100103973,-0.012542663,0.56841135,0.82264894,0.019044856,-0.82242864,0.56854945,0.99973994,0.022798354,-5.0986605E-4,-0.013536963,0.5810973,0.8137214,0.018491633,-0.8135114,0.5812549,0.9997373,0.022915468,2.6703416E-4,10.043869,0.16749573,-0.047851563,9.8041,0.22357549,-0.005000078,-0.022949219,0.008361816,-0.012969971,-33.659363,-40.859985,27.719116,1,0.0,0.0,0.0,0.0
2.108404754,-0.012543431,0.56542283,0.82470584,0.019081771,-0.8244851,0.5655618,0.99973917,0.022830931,-4.473995E-4,-0.013497873,0.58059764,0.81407875,0.018514032,-0.8138682,0.5807545,0.9997375,0.02291083,2.3628627E-4,10.064209,0.18544006,-0.010772705,9.804092,0.22389497,-0.0043874905,-0.024475098,0.007598877,-0.012359619,-34.379578,-41.279602,27.778625,1,0.0,0.0,0.0,0.0
2.116705536,-0.012609385,0.56546,0.8246794,0.019075047,-0.8244588,0.56560045,0.9997385,0.02286267,-3.902561E-4,-0.013460315,0.5800005,0.8145049,0.01853712,-0.814294,0.5801566,0.99973756,0.022907665,2.091137E-4,10.066605,0.18304443,-0.010772705,9.804086,0.2242062,-0.0038271048,-0.017440796,0.0053100586,-0.010681152,-34.379578,-41.279602,27.778625,1,0.0,0.0,0.0,0.0
2.125006317,-0.012611498,0.5638649,0.82577074,0.01909179,-0.8255501,0.56400585,0.9997382,0.022878401,-3.5376748E-4,-0.013443499,0.5797114,0.814711,0.018548075,-0.81449986,0.57986724,0.9997376,0.022906765,1.9719591E-4,10.066605,0.18304443,-0.010772705,9.804083,0.22436048,-0.003469274,-0.018218994,0.0018005371,-0.0051879883,-34.799194,-41.459656,27.778625,1,0.0,0.0,0.0,0.0
2.133307098,-0.012654806,0.56388956,0.8257532,0.019055419,-0.82553333,0.5640314,0.9997383,0.022872783,-2.9818618E-4,-0.013410864,0.57908785,0.81515485,0.01857008,-0.8149433,0.5792431,0.9997376,0.02290564,1.7538633E-4,10.095322,0.17468262,0.025131226,9.804084,0.22430538,-0.0029242076,-0.015625,-0.0035552979,-0.00869751,-34.799194,-41.459656,27.778625,1,0.0,0.0,0.0,0.0
2.141607879,-0.012541986,0.55892545,0.8291231,0.019133173,-0.8289023,0.55906606,0.9997383,0.022875553,-2.9793536E-4,-0.013381115,0.5784895,0.81558007,0.018589757,-0.81536824,0.5786442,0.9997377,0.02290434,1.5655621E-4,10.04866,0.18544006,0.013153076,9.804084,0.22433254,-0.002921748,-0.023101807,-0.007369995,-0.0035095215,-35.099792,-41.63971,27.539063,1,0.0,0.0,0.0,0.0
2.149908661,-0.01251285,0.55890864,0.8291348,0.019134946,-0.828914,0.5590486,0.9997386,0.022860741,-3.226103E-4,-0.0133644445,0.5781014,0.81585544,0.018600961,-0.81564337,0.57825583,0.9997377,0.022903765,1.4737951E-4,10.04866,0.18544006,0.013153076,9.804087,0.2241873,-0.0031637265,-0.014709473,-0.0066070557,-0.006713867,-35.099792,-41.63971,27.539063,1,0.0,0.0,0.0,0.0
2.158209442,-0.01253328,0.56258947,0.82664144,0.01913201,-0.8264201,0.56272894,0.9997384,0.022868149,-4.057128E-4,-0.013330981,0.5773473,0.81638986,0.018622722,-0.8161775,0.5775011,0.99973774,0.022902058,1.2866856E-4,10.064209,0.19740295,-0.01675415,9.804085,0.22425994,-0.0039786836,-0.021881104,-0.006149292,-0.0132751465,-35.099792,-41.159058,27.479553,1,0.0,0.0,0.0,0.0
2.166510223,-0.012471492,0.56255364,0.82666665,0.019163283,-0.8264446,0.5626917,0.9997386,0.022859255,-4.7337476E-4,-0.013299612,0.5767661,0.8168011,0.018643353,-0.8165883,0.5769194,0.99973774,0.022900715,1.0745488E-4,10.04985,0.16390991,-0.009567261,9.804087,0.22417271,-0.0046422207,-0.024780273,-0.0053863525,-0.004272461,-35.099792,-41.159058,27.479553,1,0.0,0.0,0.0,0.0
2.174811004,-0.012409785,0.56171894,0.82723504,0.019187495,-0.82701266,0.56185573,0.9997389,0.022845076,-5.149293E-4,-0.013283238,0.57648355,0.8170008,0.018653944,-0.8167878,0.57663655,0.99973774,0.022899887,9.589461E-5,10.04985,0.16390991,-0.009567261,9.80409,0.22403367,-0.0050497316,-0.028442383,1.2207031E-4,-0.010223389,-35.099792,-40.979004,27.2995,1,0.0,0.0,0.0,0.0
2.183111786,-0.012366734,0.5616938,0.8272527,0.019185299,-0.82703036,0.5618296,0.99973947,0.02281909,-5.4859894E-4,-0.013249029,0.57590234,0.8174111,0.018675486,-0.81719774,0.57605475,0.9997378,0.022897717,7.182065E-5,10.041473,0.16270447,-0.025131226,9.804095,0.22377884,-0.005379918,-0.019439697,0.0010375977,-0.0076293945,-35.099792,-40.979004,27.2995,1,0.0,0.0,0.0,0.0
2.191412567,-0.012339923,0.56057966,0.8280086,0.019182622,-0.82778656,0.5607152,0.9997398,0.022802558,-5.3856685E-4,-0.013214366,0.57534283,0.8178056,0.018696135,-0.8175918,0.5754946,0.99973786,0.0228946,4.7269983E-5,10.053452,0.16749573,-0.007171631,9.804099,0.2236167,-0.005281537,-0.017440796,0.0013427734,-0.0061035156,-35.279846,-41.09955,27.2995,1,0.0,0.0,0.0,0.0
2.199713348,-0.012333245,0.5605758,0.82801133,0.019153636,-0.8277899,0.5607112,0.9997404,0.022774816,-5.277279E-4,-0.013197037,0.5750493,0.8180123,0.018706093,-0.8177984,0.5752007,0.9997379,0.02289276,3.5590536E-5,10.053452,0.16749573,-0.007171631,9.804105,0.22334465,-0.0051752427,-0.024017334,0.0013427734,-0.0073242188,-35.279846,-41.09955,27.2995,1,0.0,0.0,0.0,0.0
2.208014129,-0.012396178,0.56213313,0.8269539,0.019102419,-0.82673335,0.56226957,0.99974066,0.022766812,-4.8976956E-4,-0.013163174,0.5744795,0.81841314,0.018724205,-0.8181989,0.57463026,0.99973804,0.022888092,1.34234215E-5,10.058228,0.18185425,0.0,9.804108,0.22326617,-0.004802999,-0.021728516,0.0057678223,-0.00793457,-35.699463,-40.859985,27.23999,1,0.0,0.0,0.0,0.0
2.216314911,-0.012424396,0.56214994,0.8269421,0.019089924,-0.8267218,0.56228703,0.99974054,0.022772335,-4.5987993E-4,-0.01313289,0.57399315,0.8187548,0.018739592,-0.81854033,0.57414335,0.99973816,0.022883292,-6.598494E-6,10.058228,0.18185425,0.0,9.804106,0.22332032,-0.0045098816,-0.020965576,-6.4086914E-4,-0.011749268,-35.699463,-40.859985,27.23999,1,0.0,0.0,0.0,0.0
2.224615692,-0.012374519,0.5594245,0.82878894,0.019148588,-0.82856786,0.55956113,0.99974006,0.022794439,-4.590621E-4,-0.013118803,0.5737576,0.8189201,0.018746752,-0.8187055,0.57390755,0.9997382,0.022881072,-1.5656029E-5,10.069,0.18304443,-0.009567261,9.804101,0.22353709,-0.0045018615,-0.015930176,-0.004928589,-0.011138916,-36.299133,-41.159058,27.23999,1,0.0,0.0,0.0,0.0
2.232916473,-0.012397711,0.55943847,0.82877904,0.019152284,-0.8285578,0.5595756,0.99973965,0.022810474,-4.4230436E-4,-0.013089455,0.5731932,0.8193157,0.018763093,-0.8191008,0.5733427,0.9997383,0.02287764,-3.3294386E-5,10.066605,0.18424988,0.020339966,9.804097,0.22369434,-0.004337524,-0.016067505,-0.0027770996,-0.009155273,-36.299133,-41.159058,27.23999,1,0.0,0.0,0.0,0.0
2.241217254,-0.012622784,0.57004434,0.821517,0.01901749,-0.821297,0.5701839,0.99973947,0.022820499,-4.737589E-4,-0.013062229,0.5726513,0.81969494,0.018778853,-0.8194798,0.5728003,0.99973834,0.022874981,-4.950261E-5,10.031906,0.18424988,-0.015548706,9.804095,0.22379266,-0.004645988,-0.012252808,-0.0015563965,-0.010528564,-36.05957,-40.919495,27.83966,1,0.0,0.0,0.0,0.0
2.249518036,-0.0126162525,0.5700404,0.8215197,0.019049477,-0.821299,0.5701798,0.999739,0.022843057,-4.972551E-4,-0.013053473,0.57259923,0.81973153,0.01878364,-0.81951624,0.572748,0.99973834,0.022873892,-5.7964255E-5,10.031906,0.18424988,-0.015548706,9.8040905,0.22401386,-0.004876407,-0.023712158,-0.0026397705,-0.011749268,-36.05957,-40.919495,27.83966,1,0.0,0.0,0.0,0.0
2.257818817,-0.012784738,0.5769929,0.816649,0.01896299,-0.816429,0.5771344,0.9997385,0.022864621,-5.036803E-4,-0.013036186,0.572498,0.8198025,0.01879422,-0.81958705,0.5726464,0.9997384,0.022872671,-7.536427E-5,10.091736,0.17347717,-0.0047912598,9.804086,0.22422534,-0.004939417,-0.017303467,5.79834E-4,-0.0077819824,-35.939026,-40.19928,27.83966,1,0.0,0.0,0.0,0.0
2.266119598,-0.012814504,0.57701063,0.816636,0.018954288,-0.81641614,0.5771527,0.9997382,0.022874685,-4.748576E-4,-0.013026213,0.57267624,0.8196781,0.018800817,-0.8194625,0.57282436,0.9997384,0.022872351,-9.2287555E-5,10.036697,0.16390991,0.015548706,9.804083,0.22432403,-0.0046567624,-0.012710571,-0.0035552979,-0.01373291,-35.939026,-40.19928,27.83966,1,0.0,0.0,0.0,0.0
2.274420379,-0.013029637,0.5851341,0.81083184,0.01881754,-0.8106136,0.5852789,0.999738,0.022883832,-4.4878386E-4,-0.013021976,0.5727629,0.8196176,0.018803848,-0.8194019,0.57291096,0.9997384,0.022872398,-9.9914956E-5,10.036697,0.16390991,0.015548706,9.804081,0.22441374,-0.0044010663,-0.013168335,0.0042419434,-0.012817383,-35.939026,-39.959717,28.259277,1,0.0,0.0,0.0,0.0
2.282721161,-0.013017712,0.5851271,0.8108371,0.01884955,-0.81061804,0.58527166,0.9997375,0.022902813,-4.7699024E-4,-0.013022351,0.5734943,0.81910604,0.018804524,-0.81889015,0.57364213,0.9997384,0.022873068,-1.20413584E-4,10.060623,0.15792847,-0.020339966,9.804076,0.22459987,-0.0046776766,-0.018356323,0.010345459,-0.010986328,-35.939026,-39.959717,28.259277,1,0.0,0.0,0.0,0.0
2.291021942,-0.013033384,0.5833817,0.8120936,0.018879984,-0.8118743,0.58352715,0.99973685,0.022937644,-4.3276756E-4,-0.013022204,0.5737282,0.81894225,0.018805396,-0.8187263,0.57387596,0.99973834,0.022873662,-1.2756427E-4,10.060623,0.1878357,-0.023925781,9.8040695,0.22494145,-0.004244,-0.018356323,0.0040893555,-0.009613037,-35.879517,-40.13977,28.259277,1,0.0,0.0,0.0,0.0
2.299322723,-0.013083691,0.5834112,0.8120716,0.018876383,-0.8118522,0.5835577,0.99973613,0.022964062,-3.9067058E-4,-0.013022418,0.5739222,0.81880623,0.018806847,-0.8185902,0.5740699,0.99973834,0.022874942,-1.3364234E-4,10.060623,0.1878357,-0.023925781,9.804063,0.22520053,-0.0038311698,-0.025848389,0.008056641,-0.010375977,-35.879517,-40.13977,28.259277,1,0.0,0.0,0.0,0.0
2.307623504,-0.013175364,0.5855226,0.81054896,0.018816384,-0.8103306,0.5856707,0.99973613,0.022968026,-3.410177E-4,-0.013023624,0.57411283,0.81867266,0.018808216,-0.81845653,0.57426053,0.9997383,0.022876723,-1.38767E-4,10.073776,0.17945862,-0.0047912598,9.804063,0.2252394,-0.0033442413,-0.020507813,0.0037841797,-0.007171631,-35.879517,-40.25879,28.49884,1,0.0,0.0,0.0,0.0
2.315924286,-0.013187517,0.58552974,0.8105437,0.018805088,-0.8103256,0.58567816,0.99973625,0.022965984,-3.247548E-4,-0.013032453,0.57478696,0.8181993,0.018808726,-0.8179831,0.5749347,0.99973816,0.022882095,-1.5068479E-4,10.040283,0.17347717,-0.034698486,9.804064,0.22521938,-0.0031847567,-0.017608643,0.021652222,-0.012054443,-35.879517,-40.25879,28.49884,1,0.0,0.0,0.0,0.0
2.324225067,-0.013294498,0.58733034,0.8092381,0.018743392,-0.809021,0.5874807,0.9997359,0.022978129,-2.530356E-4,-0.013035552,0.5750028,0.8180476,0.018808646,-0.81783134,0.57515055,0.99973816,0.022883771,-1.5414096E-4,10.040283,0.17347717,-0.034698486,9.804061,0.22533849,-0.0024814317,-0.016067505,0.017990112,-0.009918213,-35.57892,-40.319824,28.678894,1,0.0,0.0,0.0,0.0
2.332525848,-0.0134036075,0.587393,0.80919075,0.018687163,-0.808975,0.5875459,0.9997356,0.022996716,-1.3352613E-4,-0.013040777,0.5752506,0.81787324,0.018807333,-0.817657,0.5753984,0.9997381,0.022885658,-1.560478E-4,10.088135,0.16870117,0.017944336,9.804057,0.22552076,-0.0013094441,-0.024932861,0.021347046,-0.013427734,-35.57892,-40.319824,28.678894,1,0.0,0.0,0.0,0.0
2.340826629,-0.013609103,0.58751106,0.8091017,0.018575767,-0.80888844,0.58766866,0.9997348,0.023027329,9.477882E-5,-0.013055213,0.5757341,0.8175328,0.018802665,-0.81731653,0.5758821,0.999738,0.022890057,-1.5509436E-4,10.060623,0.18544006,0.059814453,9.8040495,0.22582096,9.294628E-4,-0.024169922,0.010498047,-0.012054443,-35.57892,-40.319824,28.678894,1,0.0,0.0,0.0,0.0
2.349127411,-0.013750738,0.5883318,0.8085027,0.018521093,-0.80829054,0.58849245,0.9997339,0.02306656,2.1804436E-4,-0.013077216,0.57620275,0.81720215,0.018793913,-0.816986,0.5763511,0.99973786,0.022895494,-1.4520256E-4,10.083359,0.19142151,0.034698486,9.804041,0.22620569,0.0021382847,-0.017913818,-0.007675171,-0.00869751,-35.279846,-40.319824,28.73993,1,0.0,0.0,0.0,0.0
2.357428192,-0.013887682,0.59547496,0.80325377,0.018424654,-0.8030425,0.5956369,0.9997338,0.02307169,1.8097654E-4,-0.013090738,0.5764466,0.81703,0.01878861,-0.81681395,0.5765952,0.9997378,0.022898914,-1.3793269E-4,10.065414,0.17108154,-0.013153076,9.80404,0.226256,0.0017747736,-0.014846802,-0.008743286,-0.010528564,-34.61914,-39.89868,28.979492,1,0.0,0.0,0.0,0.0
2.365728973,-0.013838336,0.5954476,0.803275,0.018449046,-0.80306315,0.59560835,0.99973404,0.023061885,1.2761555E-4,-0.013122576,0.5772061,0.8164931,0.018774645,-0.8162772,0.57735527,0.9997376,0.022905756,-1.2518061E-4,10.063019,0.16390991,-0.007171631,9.804042,0.22615984,0.0012514811,-0.017440796,-0.0029449463,-0.010986328,-34.61914,-39.89868,28.979492,1,0.0,0.0,0.0,0.0
2.374029754,-0.01371462,0.5880502,0.80870813,0.018568633,-0.8084949,0.58821005,0.9997335,0.023083683,1.68913E-4,-0.013151163,0.577934,0.8159775,0.01876212,-0.81576174,0.57808363,0.9997375,0.02291194,-1.1505047E-4,10.076172,0.17706299,0.03111267,9.804037,0.2263736,0.0016564707,-0.01852417,4.272461E-4,-0.0048828125,-34.739685,-39.839172,28.379822,1,0.0,0.0,0.0,0.0
2.382330536,-0.013771695,0.58808255,0.80868363,0.018528355,-0.8084714,0.5882437,0.99973345,0.02308469,2.3781715E-4,-0.013162493,0.5781372,0.81583333,0.018758334,-0.8156176,0.57828707,0.9997374,0.022915374,-1.09329914E-4,10.064209,0.17945862,0.049057007,9.804036,0.22638349,0.0023321896,-0.022491455,-0.004470825,-0.005493164,-34.739685,-39.839172,28.379822,1,0.0,0.0,0.0,0.0
2.390631317,-0.013789722,0.5880928,0.80867594,0.018476076,-0.8084649,0.5882544,0.9997342,0.023053022,2.828586E-4,-0.013186653,0.5785328,0.81555253,0.018749483,-0.815337,0.5786831,0.99973726,0.02292208,-9.562443E-5,10.064209,0.17945862,0.049057007,9.804044,0.22607292,0.0027738952,-0.026000977,-0.0038604736,-0.0048828125,-34.739685,-39.839172,28.379822,1,0.0,0.0,0.0,0.0
2.398932098,-0.01379304,0.5889483,0.808053,0.018468685,-0.80784196,0.5891097,0.9997343,0.023049291,2.6549454E-4,-0.01321065,0.5789131,0.8152822,0.018738858,-0.8150669,0.57906383,0.99973714,0.022927267,-8.0608E-5,10.0785675,0.19023132,0.011962891,9.804045,0.22603634,0.0026036121,-0.01852417,-0.0055389404,-0.012359619,-34.67865,-40.078735,28.619385,1,0.0,0.0,0.0,0.0
2.407232879,-0.01377903,0.58846366,0.8084063,0.018502746,-0.8081945,0.5886249,0.9997338,0.023068415,2.4794452E-4,-0.013222332,0.57911456,0.81513894,0.018733578,-0.81492364,0.5792655,0.9997371,0.02292971,-7.369567E-5,10.076172,0.15911865,-0.007171631,9.80404,0.22622389,0.0024315051,-0.01852417,-0.0014038086,-0.0077819824,-34.55963,-39.959717,28.49884,1,0.0,0.0,0.0,0.0
2.415533661,-0.013755764,0.5884506,0.8084161,0.01848965,-0.8082047,0.5886113,0.9997344,0.02304413,2.3722782E-4,-0.013244454,0.57948613,0.81487453,0.018724628,-0.81465936,0.57963747,0.99973696,0.022935202,-6.094362E-5,10.055832,0.17945862,-0.013153076,9.804046,0.22598572,0.0023264103,-0.020050049,0.004852295,-0.008392334,-34.55963,-39.959717,28.49884,1,0.0,0.0,0.0,0.0
2.423834442,-0.0139185535,0.59410864,0.8042644,0.018358774,-0.8040549,0.59427154,0.9997346,0.023036709,2.841761E-4,-0.013264765,0.57984257,0.81462055,0.018715497,-0.8144055,0.5799943,0.99973685,0.022939516,-4.9145E-5,10.053452,0.16749573,0.0035858154,9.804048,0.22591294,0.0027868156,-0.020965576,0.011871338,-0.008239746,-34.67865,-39.718628,28.73993,1,0.0,0.0,0.0,0.0
2.432135223,-0.0139735555,0.59413946,0.80424064,0.018301707,-0.80403244,0.59430367,0.9997348,0.023023512,3.6142627E-4,-0.013277922,0.5801295,0.814416,0.018708529,-0.8142011,0.5802815,0.9997368,0.022941457,-4.2471034E-5,10.058228,0.17945862,-0.037094116,9.80405,0.22578354,0.0035443814,-0.01928711,0.010650635,-0.004119873,-34.67865,-39.718628,28.73993,1,0.0,0.0,0.0,0.0
2.440436004,-0.014054861,0.594185,0.80420554,0.018212356,-0.8039994,0.594351,0.99973536,0.023,4.7859285E-4,-0.0133056445,0.5806878,0.8140176,0.018692786,-0.8138029,0.5808403,0.9997367,0.02294471,-2.6501195E-5,10.058228,0.17945862,-0.037094116,9.804054,0.22555293,0.004693392,-0.022491455,0.021194458,-0.008850098,-34.67865,-39.718628,28.73993,1,0.0,0.0,0.0,0.0
2.448736786,-0.014211807,0.59546745,0.80325377,0.018069506,-0.8030508,0.59563667,0.9997358,0.02297947,6.530014E-4,-0.013335555,0.5812251,0.8136335,0.018674133,-0.81341916,0.5813781,0.99973667,0.0229469,-6.479306E-6,10.060623,0.16630554,-0.0023956299,9.804058,0.2253516,0.006403756,-0.020050049,0.028823853,-0.009155273,-34.67865,-39.839172,28.919983,1,0.0,0.0,0.0,0.0
2.457037567,-0.014297634,0.59223306,0.80563986,0.01798371,-0.80543965,0.592405,0.9997361,0.022958383,8.6533284E-4,-0.013353275,0.5815117,0.8134284,0.018662265,-0.8132143,0.581665,0.99973667,0.02294755,6.7494407E-6,10.076172,0.19502258,0.021530151,9.804062,0.22514483,0.008486017,-0.026000977,0.02760315,-0.009918213,-34.439087,-39.59961,28.49884,1,0.0,0.0,0.0,0.0
2.465338348,-0.0145501215,0.59237456,0.8055313,0.017807463,-0.80533534,0.59255207,0.9997356,0.022966174,0.0011690399,-0.013391131,0.58193815,0.8131228,0.018635692,-0.81290925,0.5820922,0.99973667,0.022947978,4.09535E-5,10.051056,0.18424988,0.06939697,9.804057,0.22522123,0.011464365,-0.022949219,0.022567749,-0.009460449,-34.439087,-39.59961,28.49884,1,0.0,0.0,0.0,0.0
2.473639129,-0.014741942,0.59248203,0.8054488,0.017694274,-0.80525553,0.59266376,0.9997347,0.022988845,0.0013874924,-0.013414565,0.58214784,0.8129723,0.018619344,-0.81275904,0.5823024,0.99973667,0.022948343,6.35973E-5,10.071396,0.18304443,0.057434082,9.804049,0.22544356,0.013606653,-0.023712158,0.007904053,-0.015411377,-34.439087,-39.59961,28.49884,1,0.0,0.0,0.0,0.0
2.481939911,-0.0148527,0.59239364,0.80551165,0.01764182,-0.80531985,0.5925779,0.99973404,0.023012076,0.0015102715,-0.013467544,0.58255893,0.81267685,0.018583294,-0.81246436,0.58271456,0.9997366,0.022949947,1.1603556E-4,10.058228,0.18902588,0.06939697,9.804042,0.22567138,0.014810704,-0.022033691,-0.008285522,-0.0019683838,-34.61914,-39.538574,28.439331,1,0.0,0.0,0.0,0.0
2.490240692,-0.014838471,0.59238565,0.80551785,0.017608305,-0.80532676,0.5925695,0.9997348,0.022976631,0.0015189114,-0.0135227665,0.5829502,0.81239545,0.018546622,-0.8121837,0.583107,0.99973655,0.022952408,1.7121491E-4,10.04985,0.15911865,0.051452637,9.8040495,0.22532378,0.014895434,-0.021575928,-0.009048462,-0.0119018555,-34.61914,-39.538574,28.439331,1,0.0,0.0,0.0,0.0
2.498541473,-0.014718017,0.5895576,0.8075923,0.017667102,-0.80740035,0.58973944,0.9997356,0.02294761,0.001467557,-0.013549261,0.5831397,0.8122589,0.018528143,-0.8120476,0.5832971,0.99973655,0.022952892,1.9814912E-4,10.04985,0.15911865,0.051452637,9.804057,0.22503918,0.014391819,-0.021575928,-0.021118164,-0.00579834,-34.739685,-39.65912,28.318787,1,0.0,0.0,0.0,0.0
2.506842254,-0.01475651,0.5959701,0.8028711,0.017604508,-0.80267924,0.59615123,0.99973613,0.022931261,0.0013529846,-0.013595806,0.58339465,0.81207496,0.018494358,-0.81186444,0.58355296,0.9997365,0.022952681,2.4844217E-4,10.066605,0.17468262,0.044265747,9.804063,0.22487885,0.013268246,-0.01852417,-0.02798462,-0.012817383,-34.07898,-39.479065,28.678894,1,0.0,0.0,0.0,0.0
2.515143036,-0.014608563,0.5958883,0.8029344,0.017748972,-0.8027391,0.59606624,0.9997358,0.022958932,0.001150458,-0.013642137,0.5838955,0.8117142,0.018459795,-0.8115043,0.5840547,0.9997365,0.022951834,2.920613E-4,10.045074,0.18544006,0.037094116,9.804059,0.22515023,0.011282139,-0.019439697,-0.036376953,-0.008392334,-34.07898,-39.479065,28.678894,1,0.0,0.0,0.0,0.0
2.523443817,-0.014495285,0.5958258,0.80298287,0.017823815,-0.80278563,0.59600127,0.9997361,0.022951426,0.0010167185,-0.013661633,0.5841365,0.81154037,0.018445827,-0.8113308,0.58429617,0.9997365,0.022951975,3.092229E-4,10.084549,0.16989136,0.17706299,9.804062,0.22507662,0.009970603,-0.019439697,-0.067840576,-0.009918213,-34.07898,-39.479065,28.678894,1,0.0,0.0,0.0,0.0
2.531744598,-0.014123373,0.5918841,0.8058993,0.018091248,-0.8056965,0.59205216,0.99973655,0.0229415,6.712317E-4,-0.013694924,0.5846018,0.81120473,0.018421588,-0.8109956,0.5847621,0.9997365,0.022951953,3.3722972E-4,10.058228,0.17228699,-0.26560974,9.804067,0.22497927,0.0065825344,-0.008743286,-0.06997681,-0.008850098,-34.199524,-39.538574,28.439331,1,0.0,0.0,0.0,0.0
2.540045379,-0.013617579,0.59160185,0.80611527,0.01842743,-0.8059046,0.59175855,0.99973744,0.022912951,7.276798E-5,-0.013711985,0.58489114,0.81099594,0.018408624,-0.8107871,0.58505166,0.99973655,0.02295154,3.5045846E-4,10.052246,0.15911865,-0.07298279,9.804075,0.2246993,7.1361015E-4,-0.020965576,0.0024108887,-0.012359619,-34.199524,-39.538574,28.439331,1,0.0,0.0,0.0,0.0
2.548346161,-0.0133844325,0.5894711,0.80767864,0.018574957,-0.8074651,0.58962303,0.9997379,0.022894364,-1.4193817E-4,-0.013710138,0.5850256,0.8108989,0.018408932,-0.81069005,0.5851861,0.99973655,0.022950767,3.449763E-4,10.052246,0.15911865,-0.07298279,9.80408,0.22451702,-0.001391938,-0.023712158,0.008056641,-0.010681152,-34.07898,-39.65912,28.379822,1,0.0,0.0,0.0,0.0
2.556646942,-0.013158749,0.5816228,0.8133521,0.018723492,-0.8131366,0.58177155,0.9997381,0.02288418,-1.9014982E-4,-0.01369727,0.58520174,0.81077206,0.018415378,-0.81056297,0.5853619,0.9997366,0.022948535,3.2578866E-4,10.07019,0.18066406,-0.017944336,9.804082,0.22441716,-0.0018647327,-0.024169922,0.0014953613,-0.012359619,-34.318542,-39.959717,28.019714,1,0.0,0.0,0.0,0.0
2.564947723,-0.013185606,0.581638,0.8133409,0.018727181,-0.8131253,0.58178747,0.99973774,0.022902802,-1.7089077E-4,-0.013675938,0.5850603,0.81087446,0.018427702,-0.81066513,0.58522,0.99973667,0.022945987,3.052901E-4,10.054642,0.18544006,-0.017944336,9.804078,0.22459976,-0.001675866,-0.015457153,0.0057678223,-0.012512207,-34.318542,-39.959717,28.019714,1,0.0,0.0,0.0,0.0
2.573248504,-0.013222396,0.5816587,0.81332546,0.018726153,-0.8131099,0.5818089,0.9997372,0.022923367,-1.4096979E-4,-0.013666148,0.58499205,0.8109238,0.018433731,-0.81071436,0.58515155,0.99973667,0.022945123,2.9575586E-4,10.036697,0.16749573,-0.009567261,9.804073,0.22480144,-0.0013824414,-0.013473511,0.011108398,-0.005645752,-34.318542,-39.959717,28.019714,1,0.0,0.0,0.0,0.0
2.581549286,-0.013153249,0.57748294,0.8162967,0.018768009,-0.8160809,0.57763267,0.9997373,0.022918014,-1.04089064E-4,-0.013648632,0.58486044,0.81101906,0.018445363,-0.8108094,0.5850196,0.99973667,0.02294426,2.7847505E-4,10.046265,0.17468262,-0.029907227,9.804074,0.22474895,-0.001020765,-0.020812988,0.0040893555,-0.0146484375,-34.13849,-39.959717,27.719116,1,0.0,0.0,0.0,0.0
2.589850067,-0.013187493,0.57750237,0.8162825,0.018777158,-0.8160665,0.57765293,0.9997367,0.022945259,-8.198272E-5,-0.013629117,0.5845693,0.8112293,0.018458271,-0.81101936,0.584728,0.9997367,0.022943221,2.633395E-4,10.058228,0.19621277,0.023925781,9.804069,0.22501613,-8.0397585E-4,-0.015319824,0.0056152344,-0.015106201,-34.13849,-39.959717,27.719116,1,0.0,0.0,0.0,0.0
2.598150848,-0.013499472,0.5864387,0.8098811,0.018643206,-0.80966645,0.58659405,0.99973506,0.02301749,-3.0267688E-6,-0.013620329,0.5844285,0.81133085,0.018464712,-0.8111208,0.5845871,0.9997367,0.022943262,2.5642716E-4,10.063019,0.1758728,0.04307556,9.804051,0.22572446,-2.9682462E-5,-0.015319824,0.004699707,-0.009765625,-34.318542,-39.89868,28.318787,1,0.0,0.0,0.0,0.0
2.606451629,-0.013555026,0.58487076,0.81101316,0.018616706,-0.8107995,0.5850278,0.9997348,0.023028463,1.02040176E-4,-0.013615543,0.5845082,0.8112736,0.018471753,-0.81106335,0.5846666,0.99973667,0.022946201,2.4617783E-4,10.076172,0.18664551,0.041870117,9.8040495,0.22583209,0.0010006723,-0.015319824,0.0030212402,-0.0076293945,-34.318542,-39.89868,28.199768,1,0.0,0.0,0.0,0.0
2.614752411,-0.013615955,0.58490497,0.81098753,0.0185811,-0.8107746,0.58506334,0.9997346,0.023035236,1.712916E-4,-0.01361304,0.58452255,0.81126326,0.01847757,-0.8110528,0.58468103,0.9997366,0.022949459,2.4033811E-4,10.076172,0.18664551,0.041870117,9.804048,0.2258985,0.0016797968,-0.018829346,-0.0070648193,-0.008239746,-34.318542,-39.89868,28.199768,1,0.0,0.0,0.0,0.0
2.623053192,-0.0135831265,0.58488655,0.8110013,0.018591555,-0.8107882,0.5850442,0.9997349,0.023024509,1.390896E-4,-0.013613056,0.5845301,0.81125784,0.018479673,-0.8110474,0.5846886,0.9997366,0.022951176,2.3890797E-4,10.064209,0.17706299,0.008377075,9.80405,0.2257933,0.0013640032,-0.018829346,-0.009353638,-0.0074768066,-34.318542,-39.89868,28.199768,1,0.0,0.0,0.0,0.0
2.631353973,-0.013446283,0.58110595,0.8137169,0.018688008,-0.8135023,0.5812615,0.999735,0.023022553,7.887044E-5,-0.01361198,0.58454424,0.8112477,0.01848402,-0.8110371,0.5847026,0.99973655,0.022954078,2.3509427E-4,10.069,0.16870117,0.015548706,9.804051,0.22577412,7.7345484E-4,-0.015457153,-0.01210022,-0.010986328,-34.439087,-40.19928,28.138733,1,0.0,0.0,0.0,0.0
2.639654754,-0.01338583,0.5810718,0.81374216,0.018724905,-0.81352675,0.581226,0.9997351,0.023017438,9.216192E-6,-0.013608701,0.5844755,0.81129724,0.018488092,-0.81108654,0.58463395,0.9997365,0.022955446,2.3199563E-4,10.069,0.16870117,0.015548706,9.804052,0.22572397,9.037997E-5,-0.016677856,-0.013626099,-0.009155273,-34.439087,-40.19928,28.138733,1,0.0,0.0,0.0,0.0
2.647955536,-0.013306965,0.5846794,0.81115526,0.018735979,-0.8109389,0.58483076,0.9997359,0.02298011,-1.6340606E-4,-0.013599904,0.5843407,0.8113945,0.0184975,-0.81118363,0.58449894,0.9997364,0.022957899,2.2317645E-4,10.04985,0.14476013,-0.039474487,9.804061,0.22535792,-0.0016024662,-0.015625,-0.01789856,-0.009307861,-34.739685,-40.078735,28.318787,1,0.0,0.0,0.0,0.0
2.656256317,-0.013303808,0.5907314,0.8067585,0.018757747,-0.8065405,0.590881,0.9997355,0.022993945,-3.507319E-4,-0.013588246,0.58435404,0.8113851,0.018506981,-0.81117404,0.584512,0.9997364,0.02295878,2.078025E-4,10.061813,0.18304443,-0.041870117,9.804056,0.22549358,-0.003439505,-0.024780273,-0.010879517,-0.011749268,-34.439087,-39.779663,28.559875,1,0.0,0.0,0.0,0.0
2.664557098,-0.0131773725,0.59066063,0.80681247,0.018864853,-0.806592,0.5908074,0.9997352,0.023005687,-5.139619E-4,-0.0135825835,0.584482,0.811293,0.01851189,-0.81108177,0.5846398,0.99973637,0.022959484,1.9671895E-4,10.061813,0.18304443,-0.041870117,9.804053,0.22560872,-0.0050402447,-0.02218628,-0.012252808,-0.0074768066,-34.439087,-39.779663,28.559875,1,0.0,0.0,0.0,0.0
2.672857879,-0.013144892,0.59064245,0.8068263,0.018935403,-0.80660427,0.5907884,0.9997343,0.023043431,-5.8132684E-4,-0.013566434,0.5847274,0.8111164,0.018525716,-0.8109048,0.58488476,0.99973637,0.022961313,1.6859297E-4,10.04985,0.19502258,-0.015548706,9.804045,0.22597887,-0.005700869,-0.017608643,-3.3569336E-4,-0.0059509277,-34.439087,-39.779663,28.559875,1,0.0,0.0,0.0,0.0
2.681158661,-0.01330881,0.5979838,0.8013978,0.018844275,-0.8011764,0.5981315,0.9997338,0.023062177,-6.05864E-4,-0.013549628,0.584962,0.81094754,0.018541796,-0.8107355,0.5851189,0.9997363,0.022964565,1.3891768E-4,10.065414,0.17347717,-0.041870117,9.80404,0.2261627,-0.005941496,-0.018829346,-6.4086914E-4,-0.006713867,-34.259033,-39.35852,28.799438,1,0.0,0.0,0.0,0.0
2.689459442,-0.013246806,0.59794927,0.80142444,0.018840216,-0.8012032,0.5980956,0.9997347,0.023021867,-6.521091E-4,-0.0135446815,0.5852241,0.8107585,0.018547717,-0.8105463,0.5853808,0.99973625,0.022966517,1.2402044E-4,10.065414,0.17347717,-0.041870117,9.804049,0.2257674,-0.006395006,-0.021728516,0.0031738281,-0.0024414063,-34.259033,-39.35852,28.799438,1,0.0,0.0,0.0,0.0
