Time,Rot1,Rot2,Rot3,Rot4,Rot5,Rot6,Rot7,Rot8,Rot9,FRot1,FRot2,FRot3,FRot4,FRot5,FRot6,FRot7,FRot8,FRot9,AccX,AccY,AccZ,GravX,GravY,GravZ,GyroX,GyroY,GyroZ,MagX,MagY,MagZ,Imid
0.0,-0.0063625528,0.8785358,0.477634,-0.012723828,-0.4776761,0.8784437,0.99989873,-4.881887E-4,0.01421758,1.0,0.0,0.0,0.0,1.0,0.0,0.0,0.0,1.0,10.02832,0.0,0.117248535,9.805657,-0.004787496,0.13942683,-0.00630188,-0.007522583,-0.0119018555,-31.439209,-34.739685,63.479614,0,0.0,0.0,0.0,0.0
0.008300782,-0.006400271,0.8785435,0.4776196,-0.0126159955,-0.4776623,0.878453,0.9998999,-4.0330962E-4,0.014140868,0.99475336,0.081832945,-0.061393227,-0.08167634,0.99664605,0.005060256,0.061601415,-1.9332256E-5,0.9981008,10.053452,-0.008377075,0.14117432,9.805669,-0.0039551165,0.13867454,-0.0017242432,-0.008743286,-0.00869751,-31.439209,-34.739685,63.479614,0,0.0,0.0,0.0,0.0
0.016601563,-0.0063906773,0.8803064,0.47436234,-0.012548336,-0.4744053,0.8802171,0.9999009,-3.2727496E-4,0.014078153,0.9884526,0.12136189,-0.09073395,-0.1208513,0.9926083,0.011120743,0.09141291,-2.7011796E-5,0.9958131,10.053452,-0.008377075,0.14117432,9.805677,-0.0032094708,0.13805951,-0.004928589,-0.004470825,-0.0076293945,-31.3797,-34.498596,63.598633,0,0.0,0.0,0.0,0.0
0.024902344,-0.0063775294,0.88030386,0.47436744,-0.01244075,-0.4744102,0.88021594,0.99990225,-2.8788368E-4,0.013977205,0.96939665,0.19731788,-0.14606763,-0.19510944,0.9803396,0.029439006,0.14900471,-3.8902203E-5,0.98883647,10.060623,-0.009567261,0.117248535,9.805692,-0.0028231747,0.13706957,-0.0037078857,-0.010726929,0.0019989014,-31.3797,-34.498596,63.598633,0,0.0,0.0,0.0,0.0
0.033203125,-0.006324315,0.88039774,0.474194,-0.012347089,-0.47423607,0.8803112,0.9999038,-2.875505E-4,0.013869566,0.94287187,0.26917216,-0.19631357,-0.26351056,0.9630921,0.05491675,0.2038501,-4.876186E-5,0.9790021,10.069,-0.056228638,0.100494385,9.805707,-0.0028199072,0.13601398,-0.0043182373,0.0069885254,-0.0059509277,-31.259155,-34.318542,63.29956,0,0.0,0.0,0.0,0.0
0.041503907,-0.0062594446,0.8803847,0.474219,-0.012325641,-0.47426024,0.88029855,0.9999045,-3.3487298E-4,0.013819911,0.92723197,0.30351594,-0.21936055,-0.29535007,0.9528264,0.0699304,0.2302375,-5.3537628E-5,0.97313446,10.069,-0.056228638,0.100494385,9.805714,-0.0032839822,0.13552703,-0.010269165,0.008361816,-0.0030517578,-31.259155,-34.318542,63.29956,0,0.0,0.0,0.0,0.0
0.049804688,-0.0062389867,0.88159573,0.47196397,-0.012403959,-0.4720051,0.8815085,0.9999036,-3.5450206E-4,0.013880111,0.8920001,0.36900607,-0.2610944,-0.3541271,0.92942697,0.10372788,0.2809444,-6.46785E-5,0.95972407,10.053452,-0.037094116,0.12802124,9.805705,-0.0034764777,0.1361174,0.0034637451,0.018295288,-0.00579834,-30.958557,-34.13849,63.35907,0,0.0,0.0,0.0,0.0
0.058105469,-0.006313248,0.88161045,0.47193554,-0.012557123,-0.4719776,0.88152105,0.9999012,-3.608913E-4,0.014050202,0.8525451,0.43013507,-0.29690203,-0.40617952,0.90276456,0.14154288,0.32891518,-7.61555E-5,0.9443595,10.042679,-0.029907227,0.16749573,9.805681,-0.0035391347,0.13778542,-0.007522583,0.0181427,-0.0030517578,-30.958557,-34.13849,63.35907,0,0.0,0.0,0.0,0.0
0.06640625,-0.006388104,0.8824684,0.47032827,-0.0127419615,-0.47037148,0.88237643,0.9998984,-3.5619168E-4,0.014249161,0.83157283,0.45911264,-0.31257364,-0.42972332,0.8883781,0.1616239,0.3518871,-8.1850216E-5,0.9360424,10.042679,-0.029907227,0.16749573,9.805654,-0.0034930473,0.13973653,-0.0023345947,0.022109985,-0.0074768066,-30.299377,-34.01947,63.41858,0,0.0,0.0,0.0,0.0
0.074707032,-0.00647299,0.88248473,0.47029647,-0.012939379,-0.47034085,0.8823899,0.99989533,-3.7364356E-4,0.014463317,0.7652307,0.5397324,-0.3508716,-0.490569,0.84183663,0.22506247,0.4168501,-9.798367E-5,0.90897524,10.039093,-0.041870117,0.18185425,9.805624,-0.0036641918,0.14183669,-0.0038604736,0.011871338,-0.0059509277,-30.299377,-34.01947,63.41858,0,0.0,0.0,0.0,0.0
0.083007813,-0.0064895023,0.8858095,0.46400386,-0.013284659,-0.46404904,0.88570994,0.9998907,-4.163164E-4,0.014779123,0.74233276,0.5645816,-0.3608182,-0.5077219,0.8253773,0.2469227,0.43721914,-1.03496866E-4,0.899355,10.036697,-0.06460571,0.28355408,9.805578,-0.0040826695,0.14493369,-0.0038604736,-0.008743286,-0.0062561035,-29.87976,-33.659363,63.83972,0,0.0,0.0,0.0,0.0
0.091308594,-0.006548744,0.88582045,0.46398193,-0.013472443,-0.4640279,0.88571805,0.99988776,-4.506289E-4,0.014972966,0.719286,0.58833224,-0.3694493,-0.52327347,0.8086193,0.26892325,0.45696002,-1.0975325E-4,0.8894872,10.036697,-0.06460571,0.28355408,9.80555,-0.00441916,0.14683464,-0.008895874,-0.023101807,-0.0062561035,-29.87976,-33.659363,63.83972,0,0.0,0.0,0.0,0.0
0.099609375,-0.0065094484,0.88667107,0.46235496,-0.013466135,-0.46240056,0.88656896,0.9998882,-4.5505923E-4,0.0149500035,0.6728763,0.63298166,-0.38284677,-0.5500848,0.77416676,0.31316522,0.4946151,-1.2325191E-4,0.86911213,10.067795,-0.047851563,0.24526978,9.805553,-0.0044626067,0.14660946,-0.01210022,-0.026916504,-0.007171631,-29.519653,-33.599854,64.019775,0,0.0,0.0,0.0,0.0
0.107910157,-0.0064023333,0.88665146,0.46239406,-0.013282606,-0.46243814,0.8865521,0.9998913,-4.657955E-4,0.014737724,0.62658995,0.67391574,-0.3914366,-0.5714562,0.7388082,0.3572117,0.5299272,-1.3639146E-4,0.84804314,10.066605,-0.055038452,0.1603241,9.805584,-0.0045678937,0.1445277,-0.008285522,-0.018356323,-0.005645752,-29.519653,-33.599854,64.019775,0,0.0,0.0,0.0,0.0
0.116210938,-0.006275677,0.8878515,0.4600872,-0.013159064,-0.46012974,0.8877541,0.9998937,-4.8305892E-4,0.014570922,0.6036419,0.69306844,-0.3940463,-0.58025163,0.72087175,0.37901443,0.5467398,-1.4297954E-4,0.83730257,10.066605,-0.055038452,0.1603241,9.805608,-0.00473719,0.14289193,-0.0040130615,-0.009506226,-0.005645752,-29.818726,-33.47931,64.19983,0,0.0,0.0,0.0,0.0
0.124511719,-0.00626344,0.8878492,0.4600917,-0.013046533,-0.46013412,0.8877535,0.9998953,-4.4221143E-4,0.014465379,0.5584776,0.72878903,-0.39619362,-0.59427345,0.68473834,0.42186794,0.57874167,-1.5644668E-4,0.8155109,10.036697,-0.015548706,0.13998413,9.805623,-0.0043366128,0.14185691,-0.0070648193,-6.4086914E-4,-0.0074768066,-29.818726,-33.47931,64.19983,0,0.0,0.0,0.0,0.0
0.1328125,-0.006227471,0.8886826,0.4584806,-0.013010209,-0.45852274,0.88858753,0.99989605,-4.312753E-4,0.014417384,0.5145133,0.76132506,-0.39453802,-0.6039908,0.6483704,0.46347705,0.60866344,-1.6776295E-4,0.79342854,10.0295105,-0.037094116,0.12921143,9.805631,-0.004229366,0.14138624,-0.0069122314,0.007904053,-0.010375977,-29.87976,-33.299255,64.138794,0,0.0,0.0,0.0,0.0
0.141113282,-0.0062405895,0.88868505,0.4584758,-0.013006888,-0.4585181,0.8885899,0.99989593,-4.1801753E-4,0.014420449,0.49309894,0.77643555,-0.39242992,-0.6073529,0.63019663,0.4837092,0.62287706,-1.730332E-4,0.7823197,10.0295105,-0.037094116,0.12921143,9.80563,-0.004099352,0.1414163,-0.004623413,0.009124756,-0.0062561035,-29.87976,-33.299255,64.138794,0,0.0,0.0,0.0,0.0
0.149414063,-0.0063181757,0.8858275,0.46397159,-0.012976093,-0.46401438,0.88573253,0.9998958,-4.2432558E-4,0.014426306,0.4720901,0.79082304,-0.38952523,-0.6098024,0.6120449,0.50352967,0.6366098,-1.7793287E-4,0.7711861,10.063019,-0.057434082,0.100494385,9.805629,-0.0041612126,0.14147374,-0.0026397705,0.010498047,-0.009460449,-30.419922,-33.779907,64.079285,0,0.0,0.0,0.0,0.0
0.157714844,-0.0063274596,0.88582927,0.46396816,-0.013011166,-0.4640111,0.8857338,0.99989533,-4.323213E-4,0.014461683,0.43123844,0.8176647,-0.38138944,-0.61227596,0.57569474,0.5419352,0.66268516,-1.8769E-4,0.74889815,10.103699,-0.04067993,0.12322998,9.805624,-0.004239624,0.14182067,-0.0066070557,0.015396118,-0.010070801,-30.419922,-33.779907,64.079285,0,0.0,0.0,0.0,0.0
0.166015625,-0.006455143,0.88330257,0.468759,-0.013128084,-0.46880323,0.8832051,0.999893,-4.526919E-4,0.014622261,0.39227775,0.8418723,-0.37063357,-0.61168486,0.53967685,0.578438,0.68699324,-1.9737739E-4,0.72666377,10.073776,-0.0657959,0.17228699,9.805601,-0.004439391,0.1433954,-0.0029449463,0.014312744,-0.0010528564,-30.778503,-34.199524,64.019775,0,0.0,0.0,0.0,0.0
0.174316407,-0.0065867496,0.88332784,0.46870932,-0.013293262,-0.46875542,0.8832278,0.9998899,-4.130743E-4,0.014829884,0.3734781,0.8531024,-0.36432192,-0.61040264,0.52174354,0.5959801,0.6985147,-2.0248367E-4,0.7155957,10.073776,-0.0657959,0.17228699,9.805571,-0.004050875,0.14543149,8.69751E-4,0.01600647,-0.004425049,-30.778503,-34.199524,64.019775,0,0.0,0.0,0.0,0.0
0.182617188,-0.0066936105,0.88334846,0.46866888,-0.013394811,-0.46871653,0.88324696,0.9998879,-3.6562028E-4,0.014969694,0.33742577,0.8737982,-0.35017222,-0.60599834,0.4862887,0.6295151,0.72035396,-2.1082304E-4,0.6936066,9.993622,0.04547119,0.21655273,9.805551,-0.0035855102,0.14680256,-0.004470825,-0.008132935,-0.009918213,-30.778503,-34.199524,64.019775,0,0.0,0.0,0.0,0.0
0.190917969,-0.0069323154,0.879735,0.47541392,-0.013331086,-0.4754644,0.879634,0.9998871,-2.3988303E-4,0.015023891,0.3034683,0.8922878,-0.33425966,-0.59942436,0.45146704,0.66095984,0.7406736,-2.1695299E-4,0.671865,9.993622,0.04547119,0.21655273,9.805543,-0.0023524489,0.14733404,-0.0011138916,-0.016983032,-0.0036621094,-31.019592,-34.67865,63.719177,0,0.0,0.0,0.0,0.0
0.19921875,-0.007009048,0.8777798,0.479013,-0.013266418,-0.4790642,0.8776795,0.9998874,-2.0308877E-4,0.015002779,0.2871871,0.9008248,-0.3256351,-0.5954685,0.43418273,0.67594564,0.7502938,-2.1741158E-4,0.6611045,10.025925,-0.0011901855,0.22372437,9.805546,-0.0019916205,0.147127,-0.0027923584,-0.023406982,-0.0050354004,-31.3797,-34.858704,63.41858,0,0.0,0.0,0.0,0.0
0.207519532,-0.0069958987,0.8777771,0.47901803,-0.013186355,-0.4790691,0.8776781,0.99988866,-1.763548E-4,0.014926202,0.25611225,0.9164973,-0.30730972,-0.58633894,0.40004086,0.7043962,0.7685137,-2.168444E-4,0.6398334,10.060623,-0.026321411,0.19381714,9.805558,-0.0017294498,0.14637604,1.0681152E-4,-0.02355957,-0.0015258789,-31.3797,-34.858704,63.41858,0,0.0,0.0,0.0,0.0
0.215820313,-0.0069751567,0.8730802,0.48752666,-0.013023514,-0.48757648,0.8729831,0.99989086,-2.601158E-4,0.014771496,0.22713026,0.9303319,-0.28791404,-0.5757477,0.3667187,0.73077494,0.78544664,-2.1524103E-4,0.6189294,10.096512,-0.07537842,0.20219421,9.805579,-0.0025508646,0.14485888,0.0014801025,-0.032714844,0.0013885498,-31.739807,-35.398865,62.939453,0,0.0,0.0,0.0,0.0
0.224121094,-0.0067992453,0.87304366,0.48759472,-0.012904004,-0.487642,0.87294835,0.9998936,-3.5653467E-4,0.014581355,0.21330068,0.93667525,-0.2777451,-0.5700241,0.3501992,0.7432584,0.79345787,-2.1613852E-4,0.6086252,10.092926,-0.052642822,0.16630554,9.805607,-0.0034964108,0.14299425,-1.9836426E-4,-0.032714844,0.0013885498,-31.739807,-35.398865,62.939453,0,0.0,0.0,0.0,0.0
0.232421875,-0.0066476017,0.873012,0.48765346,-0.012747916,-0.4876986,0.872919,0.99989665,-4.1374742E-4,0.014371109,0.18716139,0.94814646,-0.25688323,-0.55776674,0.3178338,0.76673204,0.8086204,-2.2169821E-4,0.58833075,10.031906,-0.023925781,0.11366272,9.805636,-0.0040574763,0.14093244,-5.0354004E-4,-0.020492554,-0.00869751,-31.739807,-35.398865,62.939453,0,0.0,0.0,0.0,0.0
0.240722657,-0.006725277,0.86919856,0.4944175,-0.0125253955,-0.49446312,0.86910844,0.99989897,-3.4777977E-4,0.014212457,0.1629895,0.9581118,-0.23549148,-0.5446109,0.28639442,0.7882748,0.8226989,-2.2930338E-4,0.5684774,10.022339,0.0035858154,0.14356995,9.805659,-0.0034105547,0.1393766,-0.008285522,-0.004470825,-0.0050354004,-32.218933,-35.879517,62.638855,0,0.0,0.0,0.0,0.0
0.249023438,-0.006736178,0.8695698,0.4937642,-0.012430036,-0.49381006,0.86948097,0.99990004,-2.8052874E-4,0.014135175,0.15153225,0.9626129,-0.22453158,-0.53778183,0.2708808,0.79838234,0.8293544,-2.316729E-4,0.55872285,10.033112,-0.007171631,0.114852905,9.80567,-0.0027510473,0.13861872,-0.0070648193,-0.007522583,-0.0035095215,-32.339478,-35.81848,62.638855,0,0.0,0.0,0.0,0.0
0.257324219,-0.0067204875,0.8695663,0.4937703,-0.012358311,-0.49381596,0.8694785,0.999901,-2.5884793E-4,0.014065057,0.1300167,0.9706221,-0.20245601,-0.52367276,0.24060908,0.8172357,0.84193975,-2.3360758E-4,0.5395715,10.033112,-0.007171631,0.114852905,9.805679,-0.002538431,0.1379311,-0.005844116,8.8500977E-4,4.7302246E-4,-32.339478,-35.81848,62.638855,0,0.0,0.0,0.0,0.0
0.265625,-0.0067398925,0.86482286,0.5020318,-0.012281324,-0.502077,0.8647358,0.9999019,-3.373894E-4,0.014005114,0.11027093,0.97741836,-0.18026027,-0.50910413,0.21131349,0.8343618,0.85361195,-2.3460711E-4,0.5209094,10.069,-0.062210083,0.100494385,9.805688,-0.00330866,0.13734326,-0.0041656494,0.0037841797,-0.0035095215,-32.87964,-36.479187,62.399292,0,0.0,0.0,0.0,0.0
0.273925782,-0.006656367,0.8648043,0.50206506,-0.0122851,-0.50210905,0.8647171,0.99990237,-4.1204473E-4,0.013966428,0.10093836,0.98043436,-0.16899692,-0.5017119,0.19684628,0.84234005,0.85912555,-2.3666276E-4,0.5117649,10.101303,-0.059814453,0.13040161,9.805693,-0.0040407786,0.13696387,-5.0354004E-4,0.0011901855,-0.00289917,-32.87964,-36.479187,62.399292,0,0.0,0.0,0.0,0.0
0.282226563,-0.006665579,0.86480635,0.50206137,-0.012323723,-0.5021055,0.86471874,0.9999019,-4.234135E-4,0.014004457,0.08349867,0.9856755,-0.14653262,-0.48674405,0.16865283,0.85710937,0.86954486,-2.4360786E-4,0.493854,10.097717,-0.039474487,0.17826843,9.805688,-0.004152268,0.1373368,-0.0035552979,-0.0137786865,-0.008850098,-32.87964,-36.479187,62.399292,0,0.0,0.0,0.0,0.0
0.290527344,-0.0066444124,0.866535,0.49907202,-0.012252882,-0.49911612,0.86644846,0.99990284,-3.5802924E-4,0.013933885,0.0676104,0.989946,-0.12424036,-0.47163254,0.14144528,0.8703769,0.8791994,-2.5072816E-4,0.47645393,10.021133,0.0011901855,0.16270447,9.805697,-0.0035110675,0.13664474,-0.0052337646,-0.021118164,-0.00869751,-32.63855,-36.11908,62.278748,0,0.0,0.0,0.0,0.0
0.298828125,-0.006668057,0.86540145,0.5010348,-0.0120939445,-0.5010791,0.8653169,0.9999046,-2.895046E-4,0.013807341,0.060248025,0.9917384,-0.11324825,-0.46404976,0.12827675,0.8764719,0.8837578,-2.528742E-4,0.46794435,9.974487,0.0143585205,0.13877869,9.805715,-0.0028390703,0.13540377,-0.00340271,-0.017440796,-0.004425049,-32.63855,-36.239624,62.15973,0,0.0,0.0,0.0,0.0
0.307128907,-0.0066438424,0.865396,0.5010444,-0.011964573,-0.5010884,0.86531335,0.99990636,-2.457762E-4,0.013683247,0.046517335,0.9947254,-0.091418795,-0.44890058,0.102572866,0.88767505,0.89237005,-2.5432475E-4,0.45130426,10.019943,-0.007171631,0.13519287,9.805732,-0.0024102412,0.13418682,-0.0015716553,-0.006454468,-0.0051879883,-32.63855,-36.239624,62.15973,0,0.0,0.0,0.0,0.0
0.315429688,-0.006626361,0.8653922,0.5010513,-0.011888712,-0.5010951,0.8653106,0.99990743,-2.2299385E-4,0.013608836,0.040147543,0.99593455,-0.08063794,-0.4413511,0.09007906,0.89280176,0.8964359,-2.541538E-4,0.44317326,10.019943,-0.007171631,0.13519287,9.805742,-0.0021868227,0.1334571,-0.0015716553,-0.009048462,-7.4768066E-4,-32.63855,-36.239624,62.15973,0,0.0,0.0,0.0,0.0
0.323730469,-0.006486438,0.8680434,0.49644575,-0.01194178,-0.49648806,0.8679614,0.99990773,-2.98468E-4,0.013586425,0.028342612,0.99783295,-0.059380356,-0.42634857,0.06579716,0.90216273,0.9041148,-2.5291985E-4,0.42728952,10.09053,-0.06819153,0.15194702,9.805745,-0.0029269713,0.13323732,-0.008590698,-7.9345703E-4,-0.002746582,-32.63855,-35.758972,62.098694,0,0.0,0.0,0.0,0.0
0.33203125,-0.0064623817,0.86643773,0.49924338,-0.011960219,-0.499285,0.8663552,0.9999075,-3.723418E-4,0.013589354,0.01779995,0.99909,-0.038759246,-0.41152403,0.042650346,0.91040045,0.9112251,-2.5472353E-4,0.4119087,10.115662,-0.07777405,0.122039795,9.805743,-0.003651426,0.13326605,-0.0055389404,-0.007369995,-0.0010528564,-32.57904,-36.05957,62.15973,0,0.0,0.0,0.0,0.0
0.340332032,-0.006445168,0.86643386,0.49925017,-0.011930432,-0.49929163,0.86635184,0.9999081,-3.7248747E-4,0.01355495,0.012912899,0.99950844,-0.028567696,-0.4041992,0.03134948,0.9141336,0.9145798,-2.5707588E-4,0.4044053,10.0785675,-0.021530151,0.13639832,9.805749,-0.0036528544,0.13292865,-0.004623413,-0.0053863525,-0.005340576,-32.57904,-36.05957,62.15973,0,0.0,0.0,0.0,0.0
0.348632813,-0.0064342762,0.8662772,0.49952233,-0.0118906265,-0.4995636,0.8661956,0.99990857,-3.6629115E-4,0.013514907,0.0039089154,0.99995565,-0.0085644405,-0.38974768,0.009410675,0.9208736,0.92091334,-2.6164617E-4,0.38976717,9.994827,0.009567261,0.14476013,9.805754,-0.0035920893,0.13253596,-0.005996704,-0.0033874512,-0.0048828125,-32.51953,-36.11908,62.21924,0,0.0,0.0,0.0,0.0
0.356933594,-0.006471907,0.8662855,0.49950743,-0.0118426485,-0.4995493,0.8662046,0.999909,-3.0949526E-4,0.013492149,-0.004139344,0.99993175,0.01092084,-0.37559107,-0.01167597,0.9267119,0.92677623,-2.657901E-4,0.37561375,9.979263,0.008377075,0.13279724,9.8057575,-0.0030351118,0.13231279,-0.0040130615,-7.9345703E-4,-0.0065612793,-32.51953,-36.11908,62.21924,0,0.0,0.0,0.0,0.0
0.365234375,-0.006531656,0.8662986,0.49948385,-0.011816097,-0.49952653,0.86621803,0.99990886,-2.4411124E-4,0.013499003,-0.007828001,0.99976003,0.020457612,-0.3686333,-0.02190252,0.9293168,0.9295419,-2.666642E-4,0.3687163,9.979263,0.008377075,0.13279724,9.805756,-0.0023939135,0.13238,-0.00630188,0.013549805,-0.006713867,-32.51953,-36.11908,62.21924,0,0.0,0.0,0.0,0.0
0.373535157,-0.006617726,0.8664637,0.49919623,-0.011860132,-0.49924007,0.8663826,0.9999078,-1.8705075E-4,0.013580207,-0.014580074,0.9991286,0.039108973,-0.35497567,-0.041737508,0.93394345,0.9347618,-2.6577112E-4,0.35527486,10.064209,-0.015548706,0.12562561,9.805746,-0.0018343413,0.13317634,-0.002029419,0.010040283,-0.0036621094,-32.398987,-36.05957,62.15973,0,0.0,0.0,0.0,0.0
0.381835938,-0.0067404616,0.86292,0.5052957,-0.011858582,-0.5053406,0.86283845,0.9999069,-1.7616036E-4,0.013639235,-0.020551343,0.99815243,0.057178102,-0.34168187,-0.060758736,0.9378496,0.93959093,-2.626538E-4,0.34229925,10.108475,-0.053833008,0.122039795,9.8057375,-0.0017275431,0.1337552,-0.0015716553,-0.0030822754,-0.0050354004,-32.339478,-36.299133,61.558533,0,0.0,0.0,0.0,0.0
0.390136719,-0.00670637,0.8629123,0.50530916,-0.011872292,-0.5053536,0.86283064,0.999907,-2.127157E-4,0.013633835,-0.023313325,0.9975386,0.06612946,-0.33517304,-0.0701181,0.9395437,0.94186807,-2.6092393E-4,0.33598274,10.108475,-0.07417297,0.1603241,9.805738,-0.0020860285,0.13370225,-0.0017242432,4.272461E-4,-0.0051879883,-32.339478,-36.299133,61.558533,0,0.0,0.0,0.0,0.0
0.3984375,-0.0066856877,0.86204803,0.50678253,-0.011897164,-0.5068265,0.86196595,0.99990684,-2.6644033E-4,0.013644411,-0.028324667,0.99609727,0.08359357,-0.32244155,-0.08826156,0.9424656,0.9461655,-2.590149E-4,0.3236831,10.08934,-0.04067993,0.20100403,9.8057375,-0.0026128872,0.13380598,-0.0096588135,-0.004470825,-0.0065612793,-32.339478,-36.299133,61.31897,0,0.0,0.0,0.0,0.0
0.406738282,-0.0067078546,0.862053,0.5067737,-0.011953465,-0.506818,0.8619701,0.99990606,-2.7573184E-4,0.013704182,-0.032722432,0.99439526,0.10053514,-0.31009766,-0.10572608,0.94480765,0.9501414,-2.593089E-4,0.31181923,9.991226,0.007171631,0.1758728,9.805729,-0.0027040057,0.13439211,-1.9836426E-4,-0.002029419,-0.0033569336,-32.339478,-36.299133,61.31897,0,0.0,0.0,0.0,0.0
0.415039063,-0.006766417,0.86206615,0.5067507,-0.011970528,-0.5067958,0.86198306,0.99990547,-2.3353692E-4,0.013748578,-0.03470077,0.99345934,0.108785614,-0.3040746,-0.11418575,0.9457802,0.952016,-2.5963734E-4,0.30604807,9.991226,-0.29910278,0.15792847,9.805723,-0.0022902149,0.1348275,-1.9836426E-4,0.003326416,-0.001663208,-32.339478,-36.299133,61.31897,0,0.0,0.0,0.0,0.0
0.423339844,-0.0067472598,0.86112577,0.5083473,-0.011946779,-0.508392,0.8610429,0.9999059,-2.6343117E-4,0.013717931,-0.038251232,0.99143827,0.1248475,-0.29232755,-0.1305756,0.9473619,0.95555294,-2.5860374E-4,0.29481938,10.036697,-0.033493042,0.12562561,9.805727,-0.0025833773,0.13452695,-0.0015716553,-0.004928589,-0.0019683838,-32.398987,-36.239624,60.958862,0,0.0,0.0,0.0,0.0
0.431640625,-0.0067068534,0.86111665,0.50836325,-0.01191705,-0.5084074,0.8610343,0.99990654,-2.8336016E-4,0.013671784,-0.041318923,0.98923194,0.1404023,-0.28097394,-0.14635569,0.9484902,0.9588255,-2.587949E-4,0.28399566,10.036697,-0.033493042,0.12562561,9.805734,-0.002778814,0.1340744,-0.0017242432,-0.002166748,-0.006713867,-32.398987,-36.239624,60.958862,0,0.0,0.0,0.0,0.0
0.439941407,-0.006627893,0.86221814,0.5064938,-0.011925776,-0.5065371,0.8621357,0.9999069,-3.2618776E-4,0.013639893,-0.042677768,0.98807126,0.14796533,-0.27544498,-0.15399694,0.94890195,0.960369,-2.592862E-4,0.2787315,10.09053,-0.06819153,0.12921143,9.8057375,-0.0031988092,0.13376166,-0.0017242432,-9.460449E-4,-0.006866455,-32.57904,-36.05957,60.958862,0,0.0,0.0,0.0,0.0
0.448242188,-0.0066025974,0.86225766,0.5064269,-0.011931584,-0.5064698,0.86217517,0.999907,-3.498787E-4,0.013632116,-0.04504938,0.9856652,0.16258734,-0.264686,-0.16871282,0.94946164,0.9632818,-2.619355E-4,0.26849216,10.103699,-0.06700134,0.13160706,9.805738,-0.0034311381,0.1336854,0.0030212402,-0.0050811768,-0.008087158,-32.63855,-36.299133,61.37848,0,0.0,0.0,0.0,0.0
0.456542969,-0.0065692947,0.86225015,0.50644004,-0.011912715,-0.5064825,0.8621679,0.99990743,-3.692412E-4,0.013598973,-0.046084903,0.9844194,0.1696895,-0.2594535,-0.17583592,0.9496134,0.9646554,-2.6369435E-4,0.26351443,10.103699,-0.06700134,0.13160706,9.805742,-0.0036210194,0.13336037,-0.0035552979,-0.009963989,-0.0074768066,-32.63855,-36.299133,61.37848,0,0.0,0.0,0.0,0.0
0.46484375,-0.0065902616,0.86225486,0.5064317,-0.011900306,-0.5064745,0.86217284,0.9999075,-3.447474E-4,0.013598897,-0.047880583,0.9818553,0.18348745,-0.24927764,-0.18963154,0.94968444,0.96724766,-2.6787398E-4,0.25383422,10.016357,-0.0059814453,0.13519287,9.805742,-0.0033808167,0.13335961,-0.009353638,-0.00843811,-0.0038146973,-32.63855,-36.299133,61.37848,0,0.0,0.0,0.0,0.0
0.473144532,-0.006577888,0.8635055,0.5042965,-0.011846124,-0.5043393,0.8634243,0.9999082,-2.9445105E-4,0.013546681,-0.04934122,0.9792107,0.19675323,-0.23948343,-0.20284554,0.9494743,0.96964586,-2.7091816E-4,0.24451338,9.998413,-0.0047912598,0.14356995,9.80575,-0.0028875784,0.13284756,-0.006454468,-0.004776001,-0.009918213,-32.63855,-36.05957,61.31897,0,0.0,0.0,0.0,0.0
0.481445313,-0.006622855,0.8635157,0.50427854,-0.011802804,-0.504322,0.86343503,0.9999084,-2.334957E-4,0.013531957,-0.04994527,0.9778742,0.20314395,-0.23472837,-0.2091935,0.9492843,0.97077703,-2.7138882E-4,0.23998304,9.998413,-0.0047912598,0.14356995,9.805752,-0.0022898107,0.13270317,2.593994E-4,-0.002029419,-0.008392334,-32.63855,-36.05957,61.31897,0,0.0,0.0,0.0,0.0
0.489746094,-0.0066265757,0.86403924,0.50338084,-0.011809949,-0.50342435,0.86395854,0.99990827,-2.1981588E-4,0.013540238,-0.05094612,0.97516376,0.21554592,-0.22549362,-0.2214847,0.94873446,0.97291166,-2.6988826E-4,0.231177,10.022339,-0.032302856,0.15434265,9.805751,-0.0021556574,0.13278438,-0.0096588135,0.002105713,-0.0022735596,-32.57904,-35.939026,61.25946,0,0.0,0.0,0.0,0.0
0.498046875,-0.0066359923,0.8628843,0.50535816,-0.011778754,-0.5054017,0.8628039,0.99990857,-2.2692943E-4,0.013517542,-0.051683806,0.9724248,0.22741748,-0.21662204,-0.23321632,0.94799,0.9748865,-2.679054E-4,0.22270215,10.082153,-0.03111267,0.114852905,9.805754,-0.0022254176,0.1325618,-0.0041656494,0.0011901855,-0.0077819824,-32.87964,-36.05957,61.138916,0,0.0,0.0,0.0,0.0
0.506347657,-0.0066263597,0.862882,0.505362,-0.0117581,-0.5054053,0.8628019,0.99990886,-2.2486087E-4,0.013494851,-0.051975407,0.97103447,0.23321779,-0.21231574,-0.23893914,0.947539,0.97581786,-2.6708588E-4,0.21858487,10.082153,-0.03111267,0.114852905,9.805757,-0.0022051318,0.13233928,-0.0053863525,-0.003692627,-0.005340576,-32.87964,-36.05957,61.138916,0,0.0,0.0,0.0,0.0
0.514648438,-0.0066193314,0.8628804,0.5053648,-0.011763064,-0.50540805,0.86280024,0.99990886,-2.334778E-4,0.013495582,-0.052398894,0.9682406,0.24446757,-0.20396054,-0.2500199,0.9465147,0.9775758,-2.6541375E-4,0.21058366,10.084549,-0.0011901855,0.1651001,9.805757,-0.0022896351,0.13234645,-0.004623413,-0.004623413,-0.0059509277,-32.87964,-36.05957,61.138916,0,0.0,0.0,0.0,0.0
0.522949219,-0.0066927397,0.86195624,0.50693864,-0.0117715355,-0.50698274,0.86187583,0.99990827,-1.9913448E-4,0.0135396505,-0.052628767,0.96543837,0.25526243,-0.19594155,-0.2606312,0.9453456,0.9792023,-2.641491E-4,0.2028862,10.030716,-0.010772705,0.1878357,9.805751,-0.0019528422,0.13277861,-0.008285522,0.0016479492,-0.005645752,-32.998657,-36.17859,61.079407,0,0.0,0.0,0.0,0.0
0.53125,-0.0067558503,0.86197066,0.50691307,-0.011814386,-0.50695807,0.8618897,0.99990743,-1.660685E-4,0.013608588,-0.052685894,0.96402746,0.26052856,-0.19205338,-0.2658023,0.94470346,0.9799692,-2.628488E-4,0.19914877,10.030716,-0.010772705,0.1878357,9.805742,-0.0016285756,0.13345467,-0.0070648193,0.0030212402,-0.0050354004,-32.998657,-36.17859,61.079407,0,0.0,0.0,0.0,0.0
0.539550782,-0.0067441748,0.8648528,0.5019802,-0.011895765,-0.5020255,0.864771,0.99990654,-1.3927116E-4,0.013673834,-0.052681807,0.9612112,0.27073535,-0.18451814,-0.27581322,0.9433346,0.9814161,-2.590163E-4,0.19189124,9.994827,-0.009567261,0.16749573,9.805734,-0.0013657835,0.1340945,-0.0011138916,0.003326416,-0.0015258789,-32.57904,-35.879517,61.37848,0,0.0,0.0,0.0,0.0
0.547851563,-0.006675629,0.8678093,0.49685258,-0.011985952,-0.4968974,0.86772656,0.9999059,-1.6263135E-4,0.013718623,-0.05249478,0.958473,0.28031,-0.17730622,-0.28518298,0.94193053,0.98275465,-2.5427438E-4,0.18491384,10.0247345,-0.034698486,0.1483612,9.805727,-0.0015948687,0.13453373,-0.0052337646,-0.0015563965,-0.0035095215,-32.339478,-35.699463,61.91864,0,0.0,0.0,0.0,0.0
0.556152344,-0.0066714953,0.86780834,0.49685422,-0.012025975,-0.49689898,0.8677251,0.99990547,-1.8613278E-4,0.013751301,-0.052333426,0.9571463,0.284837,-0.17381972,-0.2896046,0.941231,0.9833859,-2.524415E-4,0.1815269,10.0247345,-0.034698486,0.1483612,9.805723,-0.001825339,0.1348542,0.0013275146,0.0027160645,-0.0047302246,-32.339478,-35.699463,61.91864,0,0.0,0.0,0.0,0.0
0.564453125,-0.00666802,0.86780757,0.49685556,-0.012064428,-0.49690026,0.86772376,0.999905,-2.0828015E-4,0.0137829445,-0.05192958,0.95451367,0.2936102,-0.16706564,-0.29816696,0.9397795,0.98457724,-2.4981567E-4,0.17495011,10.107285,-0.04307556,0.15672302,9.805718,-0.0020425306,0.13516451,-0.010574341,-0.0024719238,-0.005645752,-32.339478,-35.699463,61.91864,0,0.0,0.0,0.0,0.0
0.572753907,-0.0066106035,0.8698848,0.4932106,-0.012112465,-0.49325487,0.8698005,0.9999048,-2.2408974E-4,0.013797161,-0.051429193,0.9519132,0.30202037,-0.16059375,-0.30636773,0.9382689,0.9856798,-2.4817087E-4,0.16862755,10.084549,-0.044265747,0.15434265,9.8057165,-0.0021975697,0.13530393,-0.0040130615,-0.0053863525,-0.0013580322,-31.858826,-35.51941,62.21924,0,0.0,0.0,0.0,0.0
0.581054688,-0.006583031,0.8698789,0.49322137,-0.012115381,-0.49326524,0.86979455,0.99990493,-2.4968054E-4,0.013786095,-0.05113357,0.9506525,0.30601498,-0.15746443,-0.31025752,0.9375208,0.9861999,-2.4768926E-4,0.16555852,10.084549,-0.044265747,0.15434265,9.805718,-0.00244853,0.13519542,-0.004776001,-0.0015563965,-0.004425049,-31.858826,-35.51941,62.21924,0,0.0,0.0,0.0,0.0
0.589355469,-0.006579131,0.86988527,0.49321026,-0.012112776,-0.49325407,0.8698009,0.999905,-2.5161117E-4,0.013781908,-0.050486993,0.94816077,0.313755,-0.15140261,-0.31779093,0.93599474,0.98718196,-2.477681E-4,0.15959832,10.04985,-0.021530151,0.14715576,9.805718,-0.0024674628,0.13515435,-0.003250122,-0.0017242432,-0.0038146973,-31.799316,-35.279846,61.79962,0,0.0,0.0,0.0,0.0
0.59765625,-0.0065972363,0.869533,0.4938308,-0.012115904,-0.4938748,0.8694486,0.9999048,-2.4724877E-4,0.0137933865,-0.0497767,0.9457116,0.32117242,-0.14559506,-0.3250067,0.9344371,0.98809123,-2.4792028E-4,0.1538687,10.025925,0.0,0.13519287,9.8057165,-0.0024246823,0.13526691,-0.012710571,0.0014953613,-0.0045776367,-31.858826,-35.339355,61.79962,0,0.0,0.0,0.0,0.0
0.605957032,-0.0066317464,0.8695404,0.49381724,-0.012103618,-0.4938617,0.8694562,0.9999047,-2.1096281E-4,0.013799751,-0.049402975,0.9444992,0.32477772,-0.14278294,-0.32851353,0.9336444,0.98852026,-2.4790684E-4,0.15108791,10.025925,0.0,0.13519287,9.805716,-0.0020688386,0.13532934,-0.0055389404,0.0056152344,-0.00289917,-31.858826,-35.339355,61.79962,0,0.0,0.0,0.0,0.0
0.614257813,-0.006587752,0.869531,0.4938345,-0.012121248,-0.49387836,0.86944646,0.9999048,-2.5819274E-4,0.013793348,-0.048620418,0.94210976,0.3317608,-0.13733663,-0.33530447,0.93204594,0.9893304,-2.4644384E-4,0.14568882,10.055832,-0.049057007,0.10647583,9.8057165,-0.0025320058,0.13526654,-0.0037078857,0.010345459,-0.002746582,-31.858826,-35.339355,61.79962,0,0.0,0.0,0.0,0.0
0.622558594,-0.0065175314,0.87100816,0.4912253,-0.012194592,-0.49126843,0.87092286,0.9999044,-3.1402506E-4,0.013823447,-0.04821215,0.94093305,0.33514255,-0.13470042,-0.33859247,0.93124163,0.9897128,-2.4667883E-4,0.14306833,10.055832,-0.049057007,0.10647583,9.805713,-0.003079534,0.1355617,-4.5776367E-5,0.012786865,-7.4768066E-4,-31.91986,-35.1593,61.91864,0,0.0,0.0,0.0,0.0
0.630859375,-0.0065640328,0.8710181,0.49120697,-0.012296407,-0.49125072,0.8709313,0.99990284,-3.232593E-4,0.01393498,-0.04735111,0.938658,0.34158307,-0.12960286,-0.3448493,0.9296677,0.9904347,-2.4934573E-4,0.13798176,10.060623,-0.0382843,0.16270447,9.805697,-0.003170091,0.13665548,-0.0055389404,0.0013427734,-0.009765625,-31.91986,-35.1593,61.91864,0,0.0,0.0,0.0,0.0
0.639160157,-0.006570741,0.8718866,0.48966378,-0.012333211,-0.48970777,0.87179947,0.99990237,-3.1075778E-4,0.013970903,-0.046462234,0.9364341,0.34775335,-0.12472475,-0.35084334,0.9280908,0.9911029,-2.522727E-4,0.13309747,10.045074,-0.035888672,0.16630554,9.805693,-0.0030474928,0.13700776,0.0042419434,-4.8828125E-4,-0.0076293945,-31.619263,-34.979248,61.85913,0,0.0,0.0,0.0,0.0
0.647460938,-0.0066003078,0.87189287,0.48965222,-0.012359133,-0.48969662,0.87180537,0.9999019,-2.974932E-4,0.014007987,-0.045543175,0.9342872,0.35360032,-0.12005709,-0.3565211,0.9265414,0.99172175,-2.5458873E-4,0.1284049,10.019943,-0.047851563,0.1651001,9.805688,-0.002917412,0.13737144,-9.613037E-4,-7.9345703E-4,-0.007171631,-31.619263,-34.979248,61.85913,0,0.0,0.0,0.0,0.0
0.655761719,-0.006554573,0.8736058,0.48659,-0.012409724,-0.48663402,0.8735177,0.9999015,-3.1291277E-4,0.014030887,-0.045077734,0.93323356,0.35643104,-0.11779845,-0.3592701,0.9257692,0.9920139,-2.5544682E-4,0.12612854,10.019943,-0.047851563,0.1651001,9.805684,-0.0030686262,0.137596,-0.0035552979,-0.0056915283,-0.007171631,-31.498718,-34.858704,62.15973,0,0.0,0.0,0.0,0.0
0.6640625,-0.006557067,0.8736063,0.48658904,-0.012420956,-0.4866331,0.87351805,0.99990135,-3.1618436E-4,0.014041914,-0.0441211,0.93121666,0.36178565,-0.113432005,-0.36446598,0.92428225,0.9925656,-2.5772248E-4,0.12171041,10.033112,-0.028717041,0.18066406,9.805683,-0.0031007095,0.13770413,-0.007827759,0.0014953613,-0.003967285,-31.498718,-34.858704,62.15973,0,0.0,0.0,0.0,0.0
0.672363282,-0.0066107116,0.87289554,0.48786238,-0.012446756,-0.48790705,0.87280685,0.9999007,-3.0243E-4,0.01409013,-0.043639753,0.93022794,0.36437827,-0.11131863,-0.36698213,0.92354333,0.9928261,-2.5889173E-4,0.11956671,10.033112,-0.028717041,0.18066406,9.805676,-0.0029658254,0.13817698,-0.009048462,0.0022583008,-0.0045776367,-31.439209,-34.979248,62.15973,0,0.0,0.0,0.0,0.0
0.680664063,-0.0066507584,0.87290394,0.48784688,-0.012451781,-0.48789215,0.8728152,0.99990034,-2.6967944E-4,0.01411406,-0.042680923,0.92826855,0.36945337,-0.107225366,-0.37191042,0.92205495,0.9933182,-2.6061584E-4,0.115407415,10.040283,-0.008377075,0.14955139,9.805673,-0.002644652,0.13841166,-0.0012664795,-1.8310547E-4,-0.00579834,-31.439209,-34.979248,62.15973,0,0.0,0.0,0.0,0.0
0.688964844,-0.006723439,0.868313,0.49597102,-0.012413871,-0.49601647,0.8682243,0.99990034,-3.1946777E-4,0.014114062,-0.041721154,0.9263624,0.37431538,-0.10330543,-0.37663323,0.9205842,0.99377424,-2.6097475E-4,0.11141184,10.09053,-0.08015442,0.14596558,9.805674,-0.0031329088,0.13841169,-0.00340271,-0.0067596436,-0.00579834,-31.739807,-35.339355,61.439514,0,0.0,0.0,0.0,0.0
0.697265625,-0.006666573,0.86830074,0.49599335,-0.01240689,-0.49603802,0.86821216,0.9999008,-3.6573596E-4,0.014079785,-0.04125941,0.9253584,0.3768413,-0.101400696,-0.37909317,0.9197859,0.9939897,-2.621446E-4,0.109473154,10.09053,-0.08015442,0.14596558,9.805677,-0.0035866448,0.13807553,-0.0017242432,-0.007675171,-0.0073242188,-31.739807,-35.339355,61.439514,0,0.0,0.0,0.0,0.0
0.705566407,-0.0066812574,0.86700416,0.49825627,-0.01236191,-0.4983009,0.86691606,0.99990124,-3.673091E-4,0.014047102,-0.040332925,0.9233914,0.38173494,-0.09771235,-0.38385963,0.918207,0.99439704,-2.6624685E-4,0.10570893,10.064209,-0.044265747,0.16151428,9.805681,-0.0036020717,0.137755,-0.0110321045,-0.010116577,-0.0076293945,-31.91986,-35.51941,61.37848,0,0.0,0.0,0.0,0.0
0.713867188,-0.006681709,0.86700416,0.49825603,-0.012310908,-0.49830073,0.86691684,0.9999019,-3.4149832E-4,0.01400311,-0.03941696,0.921439,0.3865184,-0.09417503,-0.38852295,0.9166139,0.994775,-2.7024894E-4,0.10209094,10.043869,-0.025131226,0.15194702,9.805688,-0.0033489547,0.1373236,-0.0040130615,-0.0055389404,-0.0062561035,-31.91986,-35.51941,61.37848,0,0.0,0.0,0.0,0.0
0.722167969,-0.0066640256,0.8678836,0.4967229,-0.012290169,-0.4967675,0.86779666,0.99990225,-3.2178857E-4,0.013976906,-0.038960155,0.92048347,0.38883454,-0.09246212,-0.3907814,0.9158279,0.9949537,-2.7167395E-4,0.100334756,10.043869,-0.025131226,0.15194702,9.805692,-0.0031556678,0.13706663,-0.004928589,2.746582E-4,-0.004425049,-31.799316,-35.339355,61.31897,0,0.0,0.0,0.0,0.0
0.73046875,-0.006706422,0.8678928,0.49670622,-0.01227673,-0.49675143,0.8678061,0.9999022,-2.780547E-4,0.013986311,-0.0380441,0.91864127,0.39325663,-0.08914685,-0.39509243,0.9143056,0.99529165,-2.7365846E-4,0.096924916,10.030716,0.007171631,0.1603241,9.805691,-0.0027267851,0.13715886,7.171631E-4,-0.0035552979,-0.004425049,-31.799316,-35.339355,61.31897,0,0.0,0.0,0.0,0.0
0.738769532,-0.006675222,0.8682568,0.49607,-0.012320107,-0.49611485,0.86816955,0.9999019,-3.1641102E-4,0.014008694,-0.037137207,0.91685337,0.39749303,-0.08597179,-0.39922398,0.91281384,0.9956052,-2.738326E-4,0.09364959,10.064209,-0.050247192,0.16870117,9.805688,-0.0031029321,0.13737836,-0.0023345947,0.0014953613,-0.008544922,-31.97937,-35.279846,61.31897,0,0.0,0.0,0.0,0.0
0.747070313,-0.006681503,0.86825824,0.4960675,-0.01234949,-0.49611235,0.86817044,0.99990135,-3.2549724E-4,0.014037323,-0.036236223,0.9151305,0.40152597,-0.08293346,-0.40315762,0.91136485,0.99589604,-2.7551872E-4,0.09050385,10.065414,-0.08135986,0.14476013,9.805683,-0.0031920376,0.13765912,-9.613037E-4,-0.0015563965,-0.008544922,-31.97937,-35.279846,61.31897,0,0.0,0.0,0.0,0.0
0.755371094,-0.0067006983,0.86617154,0.49970168,-0.01234174,-0.49974644,0.8660836,0.99990135,-3.6382204E-4,0.014038716,-0.035346854,0.9134599,0.40539056,-0.08002479,-0.40692854,0.9099479,0.99616593,-2.7749786E-4,0.08748308,10.065414,-0.049057007,0.14356995,9.805683,-0.0035678756,0.13767278,-5.0354004E-4,-0.004928589,-0.0051879883,-32.03888,-35.51941,61.138916,0,0.0,0.0,0.0,0.0
0.763671875,-0.006684331,0.866168,0.4997082,-0.012328169,-0.49975276,0.86608034,0.99990165,-3.713188E-4,0.014018779,-0.034912836,0.91260976,0.4073383,-0.07861423,-0.40883166,0.9092175,0.99629354,-2.7922433E-4,0.08601758,10.065414,-0.049057007,0.14356995,9.805686,-0.0036413937,0.13747726,-0.0029449463,-0.010421753,-0.005340576,-32.03888,-35.51941,61.138916,0,0.0,0.0,0.0,0.0
0.771972657,-0.0066716215,0.8649146,0.5018747,-0.012275236,-0.50191885,0.8648275,0.99990237,-3.9082734E-4,0.013965643,-0.034481507,0.91177267,0.40924507,-0.07723335,-0.41069505,0.9084957,0.99641657,-2.8106623E-4,0.084580645,10.065414,-0.049057007,0.14356995,9.805694,-0.0038327072,0.13695619,-0.012710571,-0.008743286,-0.005645752,-32.03888,-35.758972,61.19995,0,0.0,0.0,0.0,0.0
0.780273438,-0.0066672512,0.86491364,0.5018764,-0.012228616,-0.5019205,0.8648272,0.99990296,-3.7123275E-4,0.013923127,-0.033215977,0.9092781,0.41486138,-0.07325796,-0.41618887,0.9063223,0.9967597,-2.8752102E-4,0.08043598,10.035492,-0.01914978,0.1531372,9.805698,-0.0036405497,0.13653924,-0.0056915283,-0.0038604736,-0.005340576,-32.03888,-35.758972,61.19995,0,0.0,0.0,0.0,0.0
0.788574219,-0.006653014,0.8647464,0.5021648,-0.012156323,-0.50220877,0.8646611,0.99990404,-3.5187526E-4,0.013853338,-0.03280091,0.9084726,0.41665527,-0.071988106,-0.41794428,0.905616,0.996866,-2.8919525E-4,0.07910817,10.025925,-0.0143585205,0.117248535,9.805709,-0.0034507175,0.13585484,-0.011489868,0.0027160645,-0.004119873,-31.799316,-35.81848,61.25946,0,0.0,0.0,0.0,0.0
0.796875,-0.0066635176,0.8647487,0.5021606,-0.012122548,-0.5022047,0.8646638,0.9999043,-3.257646E-4,0.013829407,-0.03238976,0.90767705,0.41841748,-0.07074385,-0.41966915,0.90491605,0.9969685,-2.9044886E-4,0.07780555,10.025925,-0.0143585205,0.117248535,9.805712,-0.0031946592,0.13562016,-0.010421753,0.011260986,-0.0062561035,-31.799316,-35.81848,61.25946,0,0.0,0.0,0.0,0.0
0.805175782,-0.00664721,0.866774,0.49865678,-0.012178955,-0.498701,0.86668855,0.9999038,-3.120574E-4,0.013871373,-0.031579167,0.90612423,0.42183128,-0.068333045,-0.42301154,0.90354407,0.99716264,-2.918474E-4,0.075276576,10.07019,-0.021530151,0.12921143,9.805707,-0.003060238,0.1360317,-0.004470825,0.008666992,-0.006866455,-31.619263,-35.51941,61.31897,0,0.0,0.0,0.0,0.0
0.813476563,-0.0067256987,0.866791,0.49862617,-0.012277349,-0.4986715,0.86670417,0.99990207,-2.9261687E-4,0.01399581,-0.03077475,0.90468967,0.42495823,-0.06603,-0.426071,0.90227693,0.99734294,-2.926477E-4,0.072848886,10.063019,-0.028717041,0.17826843,9.80569,-0.0028695913,0.13725202,-0.005844116,8.8500977E-4,-0.00793457,-31.619263,-35.51941,61.31897,0,0.0,0.0,0.0,0.0
0.821777344,-0.0067440155,0.8689261,0.49489573,-0.012369471,-0.4949416,0.868838,0.9999007,-2.621412E-4,0.014086052,-0.03038042,0.9039904,0.42647204,-0.06491715,-0.42755267,0.90165657,0.99742806,-2.9264708E-4,0.071673706,10.063019,-0.028717041,0.17826843,9.805676,-0.0025707271,0.13813698,-0.005844116,-0.0015563965,-0.00579834,-31.439209,-35.339355,61.619568,0,0.0,0.0,0.0,0.0
0.830078125,-0.006825557,0.8689436,0.49486417,-0.01240879,-0.49491113,0.86885494,0.9998996,-2.1024712E-4,0.014160582,-0.029596852,0.9026998,0.4292517,-0.062769346,-0.4302707,0.9005149,0.9975891,-2.9143906E-4,0.06939653,10.045074,-0.0023956299,0.18902588,9.805666,-0.00206182,0.13886787,-0.0067596436,0.003479004,-0.0074768066,-31.439209,-35.339355,61.619568,0,0.0,0.0,0.0,0.0
0.838378907,-0.006868279,0.8705962,0.49195042,-0.01247911,-0.49199834,0.87050676,0.99989855,-1.6022027E-4,0.014243445,-0.028835256,0.90145326,0.43191493,-0.06071298,-0.4328763,0.8994065,0.99773866,-2.882239E-4,0.06721201,10.042679,-0.0011901855,0.18304443,9.8056555,-0.0015712241,0.13968049,-0.0050811768,0.0030212402,-0.0062561035,-31.259155,-35.099792,61.679077,0,0.0,0.0,0.0,0.0
0.846679688,-0.006959666,0.87061536,0.49191502,-0.012523942,-0.49196422,0.87052524,0.9998973,-1.0215015E-4,0.014327443,-0.028459247,0.90087503,0.43314457,-0.05972023,-0.43407843,0.8988934,0.99780935,-2.8566382E-4,0.066154,10.042679,-0.0011901855,0.18304443,9.805643,-0.0010017508,0.14050423,-6.5612793E-4,0.0051574707,-0.00793457,-31.259155,-35.099792,61.679077,0,0.0,0.0,0.0,0.0
0.854980469,-0.0070831366,0.86790484,0.49667996,-0.012536117,-0.49673048,0.86781436,0.99989635,-7.9591155E-5,0.014398566,-0.02772557,0.899749,0.4355261,-0.057798896,-0.4364076,0.8978906,0.99794316,-2.783967E-4,0.06410415,10.045074,-0.028717041,0.16749573,9.805634,-7.805226E-4,0.1412017,-0.0055389404,0.010192871,-0.0051879883,-31.3797,-35.51941,61.619568,0,0.0,0.0,0.0,0.0
0.86328125,-0.007104395,0.8679095,0.49667174,-0.012601596,-0.49672252,0.867818,0.99989533,-9.353455E-5,0.014465956,-0.0270258,0.89856666,0.43800402,-0.05595355,-0.4388369,0.8968229,0.9980675,-2.7052403E-4,0.062137913,10.058228,-0.050247192,0.14715576,9.805624,-9.1726065E-4,0.14186257,-0.007522583,0.0042419434,-0.0045776367,-31.3797,-35.51941,61.619568,0,0.0,0.0,0.0,0.0
0.871582032,-0.007128707,0.867285,0.49776092,-0.0126620345,-0.497812,0.8671927,0.9998945,-1.2070342E-4,0.014530348,-0.02668316,0.8979909,0.43920425,-0.055061247,-0.44001397,0.89630127,0.9981263,-2.6698422E-4,0.061185457,10.058228,-0.050247192,0.14715576,9.805615,-0.0011836962,0.14249404,-0.008743286,0.0051574707,-0.0059509277,-31.318665,-35.51941,61.439514,0,0.0,0.0,0.0,0.0
0.879882813,-0.0071228584,0.86728376,0.49776322,-0.012678681,-0.49781418,0.8671911,0.99989426,-1.341004E-4,0.014541873,-0.026014525,0.8968473,0.44157457,-0.053334042,-0.44234014,0.89526016,0.9982378,-2.611915E-4,0.05933976,10.055832,-0.044265747,0.12083435,9.8056135,-0.0013150757,0.14260706,-0.0110321045,0.0066833496,-0.0045776367,-31.318665,-35.51941,61.439514,0,0.0,0.0,0.0,0.0
0.888183594,-0.0071033514,0.8695554,0.49378428,-0.01275472,-0.49383536,0.86946183,0.9998934,-1.2198751E-4,0.014598822,-0.025363764,0.89574325,0.44384748,-0.05167932,-0.44457152,0.8942513,0.99834156,-2.561587E-4,0.057567414,10.055832,-0.023925781,0.14955139,9.805605,-0.0011962889,0.14316554,-0.007675171,0.005004883,-0.0061035156,-31.199646,-35.279846,61.679077,0,0.0,0.0,0.0,0.0
0.896484375,-0.007135172,0.8695621,0.49377203,-0.012801298,-0.4938236,0.8694679,0.99989265,-1.1712052E-4,0.014655041,-0.025041258,0.89524657,0.4448668,-0.050881162,-0.44557095,0.89379954,0.9983907,-2.5347527E-4,0.056708843,10.055832,-0.023925781,0.14955139,9.805597,-0.00114856,0.14371686,-0.012863159,0.00881958,-0.0013580322,-31.199646,-35.279846,61.679077,0,0.0,0.0,0.0,0.0
0.904785157,-0.0071767555,0.868966,0.4948197,-0.012841591,-0.4948717,0.8688711,0.99989176,-1.1859697E-4,0.014710479,-0.024724022,0.8947588,0.44586465,-0.050100584,-0.44654953,0.89335513,0.99843806,-2.5074818E-4,0.055868443,10.042679,-0.01914978,0.17826843,9.805589,-0.001163039,0.14426053,-0.007217407,0.0053100586,-0.0038146973,-31.498718,-35.279846,61.499023,0,0.0,0.0,0.0,0.0
0.913085938,-0.007210146,0.8689731,0.49480668,-0.0128919,-0.4948592,0.8688774,0.99989086,-1.1426461E-4,0.014770724,-0.024106925,0.8937879,0.44784147,-0.048588917,-0.44848976,0.8924663,0.9985279,-2.45515E-4,0.054239895,10.084549,-0.055038452,0.2141571,9.80558,-0.001120553,0.14485133,-0.006149292,-0.004776001,-0.003967285,-31.498718,-35.279846,61.499023,0,0.0,0.0,0.0,0.0
0.921386719,-0.0072531984,0.8682003,0.49616092,-0.012921354,-0.4962139,0.86810416,0.9998902,-1.1453891E-4,0.014817461,-0.023509393,0.8928519,0.4497364,-0.047141932,-0.4503504,0.89160645,0.9986115,-2.4031749E-4,0.052678227,10.064209,-0.03111267,0.20219421,9.805573,-0.001123243,0.14530966,-0.008132935,-0.0053863525,-0.004425049,-31.439209,-35.339355,61.37848,0,0.0,0.0,0.0,0.0
0.9296875,-0.00727415,0.8682048,0.49615285,-0.012949798,-0.49620616,0.8681083,0.99988973,-1.10329645E-4,0.014852554,-0.02321924,0.8923824,0.4506823,-0.046441063,-0.45128,0.8911731,0.99865115,-2.3780191E-4,0.05192157,10.053452,-0.04307556,0.19262695,9.805569,-0.0010819642,0.1456538,-0.0110321045,-0.004776001,-0.006866455,-31.439209,-35.339355,61.37848,0,0.0,0.0,0.0,0.0
0.937988282,-0.007326583,0.86821604,0.49613237,-0.012941655,-0.49618647,0.8681196,0.99988943,-6.042468E-5,0.014871501,-0.022652842,0.8914688,0.4525154,-0.045084022,-0.453082,0.8903281,0.99872637,-2.3275403E-4,0.050454598,10.02832,-0.0059814453,0.19262695,9.805566,-5.925637E-4,0.14583962,-0.0069122314,-0.0050811768,-0.008544922,-31.439209,-35.339355,61.37848,0,0.0,0.0,0.0,0.0
0.946289063,-0.0073821973,0.8688167,0.49507895,-0.012943478,-0.49513397,0.86872023,0.99988896,5.0207923E-6,0.014900685,-0.022105806,0.8905884,0.45427272,-0.04378273,-0.4548102,0.8895115,0.9987965,-2.259298E-4,0.049046338,10.02832,-0.0059814453,0.19262695,9.805561,4.9237155E-5,0.14612581,-0.0050811768,-0.004470825,-0.00869751,-31.739807,-35.279846,61.439514,0,0.0,0.0,0.0,0.0
0.954589844,-0.007450966,0.8688849,0.4949581,-0.012941523,-0.49501416,0.8687885,0.9998885,6.780159E-5,0.014933028,-0.021839071,0.8901711,0.45510277,-0.043152813,-0.45562643,0.8891245,0.9988298,-2.213108E-4,0.048363842,10.053452,-0.017944336,0.11366272,9.805557,6.649066E-4,0.146443,-0.004470825,-0.0038604736,-0.007019043,-31.799316,-35.339355,61.558533,0,0.0,0.0,0.0,0.0
0.962890625,-0.0074339593,0.8688813,0.4949648,-0.012867883,-0.4950206,0.8687859,0.9998895,8.9369845E-5,0.0148606235,-0.021320816,0.8893618,0.45670673,-0.04193215,-0.45720407,0.8883727,0.99889296,-2.0986194E-4,0.047040816,10.059433,-0.035888672,0.13279724,9.805567,8.7641884E-4,0.14573294,-0.006454468,-0.008285522,-0.010375977,-31.799316,-35.339355,61.558533,0,0.0,0.0,0.0,0.0
0.971191407,-0.0073437253,0.8698014,0.49334723,-0.012822925,-0.49340186,0.86970687,0.9998908,6.07335E-5,0.014776807,-0.020818558,0.88858175,0.4582456,-0.04075878,-0.45871824,0.8876465,0.99895215,-1.9801236E-4,0.045767363,10.073776,-0.0657959,0.15553284,9.805579,5.955922E-4,0.14491098,-0.007827759,-0.016830444,-0.004425049,-31.799316,-35.21881,61.619568,0,0.0,0.0,0.0,0.0
0.979492188,-0.007231707,0.86977726,0.49339128,-0.012727442,-0.49344426,0.8696841,0.99989283,9.691969E-6,0.014638489,-0.02057069,0.8882196,0.45895836,-0.040189732,-0.4594191,0.8873099,0.99898034,-1.9283745E-4,0.045147877,10.071396,-0.06700134,0.14715576,9.805599,9.5045754E-5,0.14355454,-0.007827759,-0.020492554,-0.0051879883,-31.799316,-35.21881,61.619568,0,0.0,0.0,0.0,0.0
0.987792969,-0.0071854913,0.8697674,0.4934095,-0.012582972,-0.49346182,0.86967635,0.999895,4.0494466E-5,0.014490025,-0.02008294,0.88751435,0.4603422,-0.03908272,-0.46078002,0.8866534,0.99903417,-1.8481728E-4,0.043940295,10.046265,-0.009567261,0.14356995,9.80562,3.9711507E-4,0.1420986,-0.006149292,-0.016830444,-0.00793457,-31.799316,-35.21881,61.619568,0,0.0,0.0,0.0,0.0
0.99609375,-0.00707599,0.8706664,0.49182317,-0.012378912,-0.49187407,0.87057847,0.9998984,7.196807E-5,0.014258399,-0.019609664,0.8868347,0.46167055,-0.03801507,-0.4620868,0.8860196,0.9990848,-1.7589495E-4,0.042774454,10.046265,-0.009567261,0.06819153,9.805654,7.057657E-4,0.13982713,-0.0052337646,-0.0015563965,-0.004272461,-31.799316,-35.099792,61.679077,0,0.0,0.0,0.0,0.0
1.004394532,-0.0069579775,0.87297094,0.4877225,-0.012253582,-0.4877721,0.8728849,0.9999007,9.716597E-5,0.014090929,-0.019376071,0.8865213,0.46228197,-0.03749415,-0.46268782,0.885728,0.99910897,-1.709377E-4,0.042204432,10.055832,-0.010772705,0.1483612,9.805676,9.528727E-4,0.13818482,-0.0026397705,-0.0015563965,-0.005645752,-31.498718,-34.979248,62.15973,0,0.0,0.0,0.0,0.0
1.012695313,-0.0069868537,0.8729771,0.4877113,-0.012239178,-0.48776135,0.8728913,0.9999007,1.2957817E-4,0.014092437,-0.018911848,0.88599825,0.46330273,-0.036481492,-0.46368852,0.8852469,0.9991554,-1.603208E-4,0.041091748,10.055832,-0.010772705,0.1483612,9.805676,0.0012707277,0.1381996,-0.0037078857,2.746582E-4,-0.012969971,-31.498718,-34.979248,62.15973,0,0.0,0.0,0.0,0.0
1.020996094,-0.007016754,0.8724568,0.488641,-0.01224059,-0.4886914,0.87237096,0.9999005,1.3995892E-4,0.014108411,-0.018464973,0.8854952,0.4642815,-0.035509348,-0.46464854,0.8847829,0.99919873,-1.488408E-4,0.04002308,10.066605,-0.037094116,0.14955139,9.805675,0.0013725281,0.13835625,-0.004928589,-0.0023345947,-0.0062561035,-31.3797,-35.099792,62.21924,0,0.0,0.0,0.0,0.0
1.029296875,-0.0069912383,0.8724515,0.4886508,-0.012225722,-0.4887008,0.87236583,0.9999008,1.248086E-4,0.014082972,-0.01824849,0.8852409,0.46477467,-0.035037875,-0.46513277,0.88454723,0.99921936,-1.4306481E-4,0.03950493,10.053452,-0.052642822,0.1268158,9.805677,0.0012239544,0.13810678,-0.0056915283,-0.0033874512,-0.0062561035,-31.3797,-35.099792,62.21924,0,0.0,0.0,0.0,0.0
1.037597657,-0.0070146723,0.8724563,0.48864177,-0.012215776,-0.4886921,0.87237084,0.9999008,1.5025688E-4,0.014085746,-0.017825982,0.8847466,0.46573132,-0.034123104,-0.46607235,0.88408834,0.99925864,-1.3245705E-4,0.0384985,10.046265,-0.026321411,0.1603241,9.805677,0.0014735166,0.13813399,-0.0038604736,-0.0010986328,-0.010375977,-31.3797,-35.099792,62.21924,0,0.0,0.0,0.0,0.0
1.045898438,-0.007086609,0.8726642,0.48826948,-0.012226767,-0.48832083,0.8725785,0.9999001,2.136669E-4,0.014130399,-0.01741939,0.8842711,0.4666489,-0.0332452,-0.4669739,0.8836459,0.9992954,-1.212616E-4,0.03753217,10.054642,-0.0023956299,0.1758728,9.805671,0.0020953566,0.13857187,-0.010269165,5.79834E-4,-0.0035095215,-31.259155,-35.099792,62.278748,0,0.0,0.0,0.0,0.0
1.054199219,-0.007154781,0.87244093,0.48866722,-0.012259846,-0.48871952,0.87235487,0.99989927,2.5052283E-4,0.0141926715,-0.01722275,0.8840441,0.4670861,-0.032819934,-0.4674035,0.8834347,0.9993129,-1.1456303E-4,0.037064243,10.04985,-0.011962891,0.17108154,9.805662,0.0024567898,0.13918257,-0.013015747,0.002105713,-0.0019683838,-31.259155,-35.038757,62.098694,0,0.0,0.0,0.0,0.0
1.0625,-0.007144824,0.87243885,0.488671,-0.012284262,-0.48872313,0.87235236,0.99989897,2.2984129E-4,0.014209109,-0.016843151,0.8835945,0.4679499,-0.03199672,-0.4682529,0.88301504,0.9993461,-1.0010565E-4,0.03615898,10.04985,-0.025131226,0.13160706,9.805659,0.0022539732,0.13934377,-0.011947632,0.007904053,-0.0012207031,-31.259155,-35.038757,62.098694,0,0.0,0.0,0.0,0.0
1.070800782,-0.007161449,0.87244236,0.4886646,-0.012322949,-0.488717,0.8723553,0.9998984,2.2553855E-4,0.0142509835,-0.0166582,0.8833761,0.46836856,-0.031598072,-0.4686647,0.88281083,0.9993618,-9.350672E-5,0.035720095,10.069,-0.025131226,0.13160706,9.805654,0.0022117777,0.13975441,-0.011947632,0.007598877,-0.010070801,-31.259155,-35.038757,62.098694,0,0.0,0.0,0.0,0.0
1.079101563,-0.0072958274,0.86894083,0.4948622,-0.012319512,-0.49491593,0.8688535,0.9998975,2.4254501E-4,0.014315748,-0.016298918,0.88295186,0.46918058,-0.03082664,-0.4694636,0.88241357,0.99939185,-8.0872545E-5,0.034870185,10.071396,-0.051452637,0.12921143,9.805645,0.002378554,0.14038953,-0.0035552979,0.012634277,-0.0061035156,-31.559753,-35.4599,61.79962,0,0.0,0.0,0.0,0.0
1.087402344,-0.0073249065,0.868947,0.494851,-0.012449939,-0.49490514,0.8688578,0.99989563,2.0343746E-4,0.01444347,-0.015962783,0.88241094,0.47020856,-0.030083701,-0.4704794,0.881898,0.9994199,-6.8065216E-5,0.03405635,10.082153,-0.06819153,0.15553284,9.805627,0.00199504,0.14164206,-0.004928589,0.019058228,-0.008087158,-31.559753,-35.4599,61.79962,0,0.0,0.0,0.0,0.0
1.095703125,-0.007428668,0.8670442,0.4981758,-0.012562602,-0.49823117,0.86695325,0.9998935,1.819235E-4,0.014593525,-0.01579969,0.8821484,0.47070655,-0.029726354,-0.47097164,0.8816474,0.9994332,-6.263517E-5,0.03366426,10.067795,-0.057434082,0.16749573,9.805606,0.0017840602,0.1431136,-0.004470825,0.010955811,-0.0064086914,-31.559753,-35.639954,61.558533,0,0.0,0.0,0.0,0.0
1.104003907,-0.0075565386,0.86331356,0.5046113,-0.012635439,-0.5046679,0.8632211,0.99989164,1.4697858E-4,0.014721888,-0.015488538,0.88156646,0.47180575,-0.029036777,-0.4720599,0.8810881,0.9994583,-5.2950654E-5,0.032909367,10.033112,0.0035858154,0.19142151,9.805588,0.0014413676,0.1443724,-0.0070648193,0.009277344,-0.008239746,-31.739807,-36.11908,61.31897,0,0.0,0.0,0.0,0.0
1.112304688,-0.0076569887,0.8633355,0.5045723,-0.012707096,-0.5046303,0.8632419,0.9998899,1.9818617E-4,0.014834436,-0.015197525,0.88086694,0.47311994,-0.028375644,-0.47336397,0.8804098,0.9994818,-4.5033463E-5,0.032189127,10.053452,-0.023925781,0.1878357,9.805571,0.0019435425,0.14547612,-0.0052337646,-0.0023345947,-0.005340576,-31.739807,-36.11908,61.31897,0,0.0,0.0,0.0,0.0
1.120605469,-0.0076983124,0.8633445,0.5045562,-0.012738889,-0.5046149,0.86325055,0.99988925,2.1808759E-4,0.014882734,-0.015057638,0.8805272,0.4737563,-0.02805682,-0.47399557,0.88008004,0.9994929,-4.0169074E-5,0.03184205,10.053452,-0.023925781,0.1878357,9.805564,0.0021387087,0.14594977,-0.0067596436,-0.0043182373,-0.007171631,-31.739807,-36.11908,61.31897,0,0.0,0.0,0.0,0.0
1.12890625,-0.0077668964,0.8599179,0.5103733,-0.01266219,-0.5104323,0.8598246,0.9998896,2.157253E-4,0.014852919,-0.014786499,0.87986743,0.47498918,-0.027440146,-0.47521925,0.8794395,0.9995141,-2.9942119E-5,0.03117052,10.053452,-0.0382843,0.1531372,9.805568,0.0021155425,0.14565738,-0.0037078857,-0.0015563965,-0.0076293945,-31.799316,-36.538696,61.079407,0,0.0,0.0,0.0,0.0
1.137207032,-0.007761221,0.8599167,0.51037544,-0.012627375,-0.5104344,0.85982394,0.9998901,2.285811E-4,0.014820084,-0.014531025,0.8791047,0.47640717,-0.026843734,-0.47662875,0.8786947,0.999534,-2.0213698E-5,0.030524356,10.0785675,-0.0382843,0.15672302,9.8055725,0.002241615,0.14533538,-0.009353638,-0.011947632,-0.008087158,-31.799316,-36.538696,61.079407,0,0.0,0.0,0.0,0.0
1.145507813,-0.0078096366,0.8571963,0.51493055,-0.012516011,-0.51498973,0.85710496,0.99989116,2.488021E-4,0.014750561,-0.014406397,0.8787338,0.47709462,-0.026554156,-0.4773121,0.8783325,0.99954355,-1.5237806E-5,0.030210383,10.067795,-0.0382843,0.14715576,9.805583,0.0024399152,0.14465359,-0.009048462,-0.009963989,-0.009307861,-32.03888,-36.839294,60.839844,0,0.0,0.0,0.0,0.0
1.153808594,-0.007843196,0.85734576,0.51468116,-0.012433398,-0.5147408,0.8572557,0.99989194,3.243887E-4,0.014696934,-0.0141680455,0.87791216,0.47861207,-0.025986874,-0.47882172,0.8775275,0.9995619,-4.781835E-6,0.02959816,10.063019,0.01675415,0.16630554,9.805591,0.0031811665,0.1441277,-0.013320923,-0.0040130615,-0.0033569336,-32.03888,-36.779785,60.77881,0,0.0,0.0,0.0,0.0
1.162109375,-0.00786609,0.85735095,0.5146722,-0.012384716,-0.51473224,0.8572616,0.99989235,3.692269E-4,0.014666977,-0.013938659,0.8771262,0.4800576,-0.025439795,-0.4802599,0.8767572,0.9995792,8.253306E-6,0.02900809,10.02713,0.0,0.18304443,9.805594,0.0036208793,0.14383392,-0.013320923,-0.005996704,-4.4250488E-4,-32.03888,-36.779785,60.77881,0,0.0,0.0,0.0,0.0
1.170410157,-0.007869499,0.8573517,0.51467085,-0.012390221,-0.5147308,0.85726225,0.99989223,3.693389E-4,0.014673451,-0.013827256,0.8767442,0.48075816,-0.02517377,-0.48095694,0.87638277,0.9995875,1.5472771E-5,0.028721273,10.02713,0.0,0.18304443,9.8055935,0.0036219773,0.1438974,-0.013320923,-0.004623413,1.6784668E-4,-32.03888,-36.779785,60.77881,0,0.0,0.0,0.0,0.0
1.178710938,-0.007855213,0.8589852,0.5119402,-0.012446374,-0.51200026,0.858895,0.99989164,3.7500513E-4,0.014713122,-0.013610049,0.8760015,0.48211634,-0.024658391,-0.4823084,0.87565434,0.9996033,2.9485855E-5,0.02816503,10.023529,-0.0011901855,0.20100403,9.805588,0.0036775442,0.14428644,4.119873E-4,-0.0024719238,-0.004272461,-31.97937,-36.65924,61.019897,0,0.0,0.0,0.0,0.0
1.187011719,-0.0079033645,0.858996,0.5119214,-0.012476299,-0.5119823,0.8589055,0.999891,4.0135763E-4,0.014763472,-0.013397952,0.87534696,0.48330963,-0.024167152,-0.4834953,0.87501335,0.9996182,4.3168402E-5,0.02763249,10.074982,-0.049057007,0.15553284,9.80558,0.0039359736,0.14478019,-0.0053863525,-0.0041656494,-0.005493164,-31.97937,-36.65924,61.019897,0,0.0,0.0,0.0,0.0
1.1953125,-0.007900239,0.8580483,0.51350814,-0.012473255,-0.51356876,0.8579577,0.999891,3.729527E-4,0.014759973,-0.013295498,0.8750291,0.48388773,-0.023929648,-0.48407036,0.8747018,0.9996252,5.033218E-5,0.027375095,10.066605,-0.08734131,0.15074158,9.805581,0.0036574167,0.14474589,-0.0053863525,0.003479004,-0.006713867,-32.398987,-36.779785,60.958862,0,0.0,0.0,0.0,0.0
1.203613282,-0.007736565,0.8625457,0.5059199,-0.012581757,-0.50597894,0.862454,0.99989086,3.0706954E-4,0.014766881,-0.013096567,0.87437576,0.48507273,-0.023468824,-0.4852495,0.87406075,0.9996388,6.310794E-5,0.026875673,10.120438,-0.052642822,0.13040161,9.80558,0.0030113235,0.14481364,-0.008132935,-0.0029449463,-0.009460449,-31.97937,-36.358643,61.499023,0,0.0,0.0,0.0,0.0
1.211914063,-0.007720328,0.8625422,0.5059263,-0.012557176,-0.50598514,0.8624509,0.99989134,3.0539843E-4,0.0147374645,-0.012994428,0.874144,0.48549294,-0.02324853,-0.48566678,0.87383485,0.9996453,6.798716E-5,0.026633527,10.120438,-0.052642822,0.13040161,9.805585,0.0029949355,0.14452516,-0.011184692,-0.0018615723,-0.010223389,-31.97937,-36.358643,61.499023,0,0.0,0.0,0.0,0.0
1.220214844,-0.007725653,0.86254334,0.50592417,-0.012526953,-0.505983,0.8624524,0.99989164,3.253196E-4,0.014714089,-0.012795063,0.8736938,0.48630795,-0.022820447,-0.48647624,0.87339574,0.9996577,7.7388635E-5,0.026162576,10.0295105,-0.028717041,0.14476013,9.805588,0.0031902953,0.14429593,-0.01210022,-0.0026397705,-0.005645752,-31.97937,-36.358643,61.499023,0,0.0,0.0,0.0,0.0
1.228515625,-0.0076720743,0.86484146,0.5019864,-0.012563256,-0.50204486,0.86475027,0.99989164,3.278449E-4,0.014716951,-0.012603053,0.8732606,0.48709044,-0.022408403,-0.48725346,0.8729731,0.9996695,8.7206696E-5,0.025709257,10.035492,-0.037094116,0.16390991,9.805588,0.0032150603,0.14432399,-3.5095215E-4,0.014312744,-4.4250488E-4,-31.97937,-36.11908,61.738586,0,0.0,0.0,0.0,0.0
1.236816407,-0.007702709,0.86484814,0.5019744,-0.012676774,-0.5020335,0.8647553,0.99989,2.975422E-4,0.014830503,-0.012507742,0.8730947,0.48739028,-0.022209903,-0.48755074,0.87281215,0.9996751,9.201945E-5,0.025489505,10.035492,-0.037094116,0.16390991,9.805572,0.0029178923,0.14543755,-0.0024871826,0.021652222,-9.1552734E-4,-31.97937,-36.11908,61.738586,0,0.0,0.0,0.0,0.0
1.245117188,-0.0077464106,0.8660044,0.49997628,-0.01287787,-0.50003624,0.86590874,0.9998871,2.6905493E-4,0.01502578,-0.012323585,0.87277246,0.48797163,-0.021829473,-0.48812723,0.87249947,0.99968576,1.0015814E-4,0.02506764,10.04866,-0.04067993,0.15792847,9.805543,0.0026385277,0.14735256,-0.007522583,0.022872925,-0.0045776367,-31.858826,-35.998535,61.85913,0,0.0,0.0,0.0,0.0
1.253417969,-0.007788218,0.8677633,0.49691665,-0.013079524,-0.4969776,0.8676647,0.99988407,2.5812886E-4,0.015220501,-0.012146953,0.8725076,0.48844954,-0.02147254,-0.48860055,0.87224334,0.99969566,1.0684645E-4,0.024669962,10.074982,-0.044265747,0.16270447,9.805513,0.0025313795,0.14926213,-0.008285522,0.019058228,-0.0077819824,-31.678772,-35.879517,62.15973,0,0.0,0.0,0.0,0.0
1.26171875,-0.007871664,0.86778104,0.4968844,-0.013243,-0.4969467,0.86768,0.9998813,2.4984565E-4,0.015403822,-0.012061346,0.87241346,0.4886198,-0.021303827,-0.48876864,0.87215334,0.9997003,1.098721E-4,0.024480952,10.074982,-0.044265747,0.16270447,9.805487,0.0024501488,0.1510599,-0.007522583,0.022720337,-0.00793457,-31.678772,-35.879517,62.15973,0,0.0,0.0,0.0,0.0
1.270019532,-0.007945263,0.86779666,0.4968559,-0.013363665,-0.49691936,0.8676938,0.9998791,2.5423875E-4,0.015545099,-0.011898315,0.8722315,0.48894852,-0.020983119,-0.48909327,0.87197906,0.999709,1.15415045E-4,0.024121523,10.0785675,-0.034698486,0.22253418,9.805465,0.0024932304,0.15244535,-0.0041656494,0.014007568,-0.0010528564,-31.678772,-35.879517,62.15973,0,0.0,0.0,0.0,0.0
1.278320313,-0.008027494,0.86768144,0.49705577,-0.013559285,-0.4971205,0.86757547,0.9998758,2.2473645E-4,0.015755773,-0.011744292,0.8720573,0.48926282,-0.020679897,-0.48940372,0.8718121,0.9997172,1.2091246E-4,0.023781756,10.013962,0.0011901855,0.22132874,9.805432,0.0022039118,0.15451135,-0.0035552979,-0.0010986328,-0.0032043457,-32.03888,-35.939026,62.21924,0,0.0,0.0,0.0,0.0
1.286621094,-0.008101758,0.86769736,0.4970268,-0.013645343,-0.49709278,0.8675901,0.99987406,2.4690418E-4,0.015867352,-0.011671183,0.87197053,0.48941928,-0.02053682,-0.4895584,0.87172866,0.999721,1.2298895E-4,0.023621226,10.013962,0.0011901855,0.22132874,9.805415,0.002421303,0.15560557,-0.0070648193,-0.007217407,-0.009765625,-32.03888,-35.939026,62.21924,0,0.0,0.0,0.0,0.0
1.294921875,-0.008244823,0.86608595,0.499827,-0.013635006,-0.49989492,0.8659787,0.9998731,3.246962E-4,0.015930634,-0.0115321195,0.8718025,0.4897218,-0.020262768,-0.48985755,0.8715671,0.9997282,1.2789598E-4,0.023314226,10.001999,0.010772705,0.24765015,9.805406,0.0031841819,0.15622616,-0.008285522,-0.018966675,-0.0119018555,-32.099915,-36.17859,62.15973,0,0.0,0.0,0.0,0.0
1.303222657,-0.008387464,0.86324155,0.50472134,-0.013533679,-0.5047909,0.86313564,0.9998733,4.0878347E-4,0.01591675,-0.011404853,0.8715784,0.4901235,-0.01999887,-0.49025616,0.8713489,0.99973494,1.3568928E-4,0.023021884,10.055832,-0.007171631,0.20817566,9.805408,0.0040087965,0.15608999,-0.010116577,-0.030883789,-0.0021362305,-32.03888,-36.479187,61.85913,0,0.0,0.0,0.0,0.0
1.311523438,-0.008339068,0.863231,0.50474024,-0.01339763,-0.5048089,0.8631271,0.9998754,4.3535227E-4,0.015774885,-0.011346623,0.8714141,0.49041685,-0.01986858,-0.49054807,0.8711876,0.9997382,1.4115115E-4,0.022879826,10.055832,-0.007171631,0.20817566,9.8054285,0.0042693475,0.15469879,-0.008285522,-0.025543213,-0.0033569336,-32.03888,-36.479187,61.85913,0,0.0,0.0,0.0,0.0
1.319824219,-0.008146295,0.863189,0.5048153,-0.013150645,-0.50488085,0.8630889,0.9998803,3.9233017E-4,0.0154644,-0.011231573,0.8710945,0.49098694,-0.019610463,-0.4911154,0.8708737,0.9997446,1.5280151E-4,0.022598565,10.09053,-0.037094116,0.08973694,9.805477,0.0038474451,0.15165398,-0.0012664795,-0.018661499,-0.00289917,-32.03888,-36.479187,61.85913,0,0.0,0.0,0.0,0.0
1.328125,-0.008050597,0.8626988,0.5056539,-0.013026121,-0.5057179,0.86260045,0.9998827,3.577392E-4,0.015308951,-0.011113286,0.8707856,0.49153736,-0.019352777,-0.49166295,0.87057054,0.999751,1.6228683E-4,0.02231611,10.053452,-0.041870117,0.15672302,9.8055,0.0035082232,0.15012953,-0.007369995,-0.010726929,-0.006866455,-31.739807,-36.65924,62.039185,0,0.0,0.0,0.0,0.0
1.336425782,-0.007997311,0.8626873,0.5056744,-0.0129441535,-0.5057375,0.8625902,0.9998842,3.5287396E-4,0.015211297,-0.011054015,0.87062615,0.49182105,-0.019225227,-0.49194527,0.87041384,0.9997541,1.6619588E-4,0.022175955,10.053452,-0.041870117,0.15672302,9.805514,0.0034605116,0.14917187,-0.004776001,-0.009353638,-0.010223389,-31.739807,-36.65924,62.039185,0,0.0,0.0,0.0,0.0
1.344726563,-0.008040774,0.86067873,0.5090849,-0.012841932,-0.5091482,0.86058295,0.99988514,3.8211883E-4,0.015146723,-0.010936678,0.87031597,0.49237233,-0.018974492,-0.49249378,0.8701091,0.99976015,1.7358833E-4,0.02190005,10.0295105,-0.023925781,0.15672302,9.805524,0.0037473056,0.14853862,-0.004470825,0.0025634766,-0.0019683838,-31.799316,-36.779785,61.679077,0,0.0,0.0,0.0,0.0
1.353027344,-0.008160714,0.85748065,0.51445144,-0.01278683,-0.514516,0.8573854,0.99988496,4.1867414E-4,0.015163278,-0.010826485,0.86994046,0.493038,-0.018729527,-0.49315682,0.8697389,0.999766,1.8184613E-4,0.021632727,10.013962,-0.0023956299,0.17706299,9.805522,0.004105791,0.14870097,-0.0035552979,0.0013427734,-0.0047302246,-31.799316,-37.1994,61.499023,0,0.0,0.0,0.0,0.0
1.361328125,-0.008203316,0.85749006,0.5144352,-0.012817102,-0.5145003,0.8573944,0.9998842,4.3990964E-4,0.015211145,-0.01077598,0.8696965,0.49346933,-0.018609269,-0.49358693,0.86949736,0.9997688,1.8658269E-4,0.021503298,10.013962,-0.0023956299,0.17706299,9.805514,0.00431404,0.14917038,-0.008743286,-4.8828125E-4,-0.005493164,-31.799316,-37.1994,61.499023,0,0.0,0.0,0.0,0.0
1.369628907,-0.008231347,0.8574962,0.5144244,-0.012844594,-0.51449,0.85740006,0.9998836,4.4998594E-4,0.015249138,-0.010679323,0.86922276,0.49430534,-0.018377347,-0.49442068,0.8690285,0.9997741,1.9661445E-4,0.021254087,10.080963,-0.021530151,0.18185425,9.805509,0.0044128546,0.14954296,-0.004623413,-0.003250122,-0.0036621094,-31.799316,-37.1994,61.499023,1,0.0,0.0,0.0,0.0
1.377929688,-0.008236244,0.85793716,0.5136886,-0.012876546,-0.5137544,0.8578406,0.9998831,4.5084933E-4,0.015278674,-0.010632882,0.8689928,0.49471053,-0.01826558,-0.49482474,0.8688008,0.99977666,2.0168186E-4,0.021134071,10.080963,-0.021530151,0.18185425,9.805504,0.0044213217,0.1498326,-0.007827759,5.79834E-4,-0.0018310547,-31.739807,-37.01935,61.31897,1,0.0,0.0,0.0,0.0
1.386230469,-0.008193715,0.85792774,0.51370496,-0.012914624,-0.51377016,0.8578306,0.999883,3.9451267E-4,0.015289501,-0.010542422,0.86856294,0.49546677,-0.018050112,-0.49557889,0.8683754,0.99978155,2.1154889E-4,0.02090226,10.11087,-0.053833008,0.18424988,9.805503,0.0038688479,0.14993879,-0.012557983,-0.01133728,-0.006866455,-31.739807,-37.01935,61.31897,1,0.0,0.0,0.0,0.0
1.39453125,-0.008206012,0.8575855,0.5142761,-0.012899126,-0.5143414,0.8574885,0.9998831,4.0284923E-4,0.015282793,-0.010453507,0.8681492,0.49619323,-0.01784485,-0.4963033,0.8679658,0.99978614,2.1879426E-4,0.020680102,10.040283,-0.01675415,0.20219421,9.805504,0.0039506014,0.149873,-0.0070648193,-0.013320923,-0.0018310547,-32.099915,-37.078857,61.31897,1,0.0,0.0,0.0,0.0
1.402832032,-0.0081890235,0.8575816,0.51428264,-0.012868022,-0.51434773,0.85748523,0.9998837,4.041672E-4,0.015247386,-0.01041053,0.8679417,0.49655703,-0.017744927,-0.4966661,0.86776024,0.99978834,2.2247536E-4,0.02057212,10.040283,-0.01675415,0.20219421,9.80551,0.0039635263,0.14952578,-0.0066070557,-0.013320923,-0.0018310547,-32.099915,-37.078857,61.31897,1,0.0,0.0,0.0,0.0
1.411132813,-0.008167897,0.8559326,0.517023,-0.012730971,-0.5170874,0.855838,0.9998856,4.0819164E-4,0.0151203675,-0.010326364,0.86753833,0.49726316,-0.01755009,-0.49737033,0.86736083,0.9997927,2.2967035E-4,0.020361403,10.000809,-0.008377075,0.15434265,9.805529,0.0040029925,0.14828016,-0.004470825,-0.020645142,-0.0048828125,-31.91986,-37.1994,61.079407,1,0.0,0.0,0.0,0.0
1.419433594,-0.008140136,0.85592633,0.51703376,-0.012580738,-0.51709753,0.85583395,0.99988765,4.6193818E-4,0.014977429,-0.010244964,0.86708736,0.4980508,-0.017357182,-0.49815613,0.8669136,0.99979687,2.367398E-4,0.020153783,9.970886,0.0143585205,0.15434265,9.805549,0.004530066,0.1468784,-0.011642456,-0.01499939,-0.0062561035,-31.91986,-37.1994,61.079407,1,0.0,0.0,0.0,0.0
1.427734375,-0.008104432,0.8571154,0.51506066,-0.012457537,-0.5151241,0.85702497,0.9998895,5.2931416E-4,0.014852337,-0.010204862,0.86686826,0.49843284,-0.017260646,-0.49853727,0.86669636,0.99979895,2.4124376E-4,0.02005021,9.970886,0.0143585205,0.15434265,9.805567,0.005190799,0.14565167,-0.010574341,-0.0137786865,-0.008239746,-31.97937,-37.078857,61.19995,1,0.0,0.0,0.0,0.0
1.436035157,-0.008034137,0.8570998,0.5150879,-0.012383196,-0.5151503,0.8570105,0.9998911,5.06906E-4,0.014752421,-0.010125143,0.8664881,0.499095,-0.01706882,-0.49919763,0.86632,0.999803,2.5265134E-4,0.019844376,10.071396,-0.055038452,0.1603241,9.805582,0.00497105,0.14467183,-0.0066070557,-0.017593384,-0.004272461,-31.97937,-37.078857,61.19995,1,0.0,0.0,0.0,0.0
1.444335938,-0.0079224,0.85782605,0.5138791,-0.012232382,-0.5139399,0.857739,0.9998938,5.0938554E-4,0.014564892,-0.010045517,0.8661219,0.4997319,-0.016881593,-0.49983278,0.8659574,0.999807,2.627198E-4,0.019642593,10.077377,-0.032302856,0.11366272,9.805609,0.004995366,0.1428328,5.645752E-4,-0.017440796,-0.010070801,-32.27997,-36.95984,61.19995,1,0.0,0.0,0.0,0.0
1.452636719,-0.007828845,0.8578049,0.51391566,-0.012064826,-0.513975,0.8577202,0.9998965,5.146549E-4,0.014373099,-0.01000453,0.8659582,0.5000163,-0.0167879,-0.5001162,0.8657955,0.99980897,2.6765311E-4,0.019541048,10.077377,-0.032302856,0.11366272,9.805635,0.0050470405,0.14095196,-0.006454468,-0.011947632,-0.006713867,-32.27997,-36.95984,61.19995,1,0.0,0.0,0.0,0.0
1.4609375,-0.007808646,0.8573608,0.51465666,-0.011937804,-0.51471555,0.8572778,0.99989825,5.503099E-4,0.0142542375,-0.009921227,0.8656395,0.50056934,-0.016599482,-0.5006676,0.86548036,0.99981296,2.774344E-4,0.019336404,10.083359,-0.011962891,0.13400269,9.805653,0.0053966967,0.13978632,-0.006149292,-0.00920105,-0.0062561035,-32.398987,-36.95984,61.079407,1,0.0,0.0,0.0,0.0
1.469238282,-0.007833168,0.85736626,0.514647,-0.011863763,-0.5147063,0.8572844,0.99989897,6.096027E-4,0.014203373,-0.009840395,0.865316,0.5011301,-0.01641346,-0.5012266,0.86516035,0.99981683,2.8824026E-4,0.019135097,9.98764,0.020339966,0.1531372,9.805659,0.0059781605,0.13928752,-0.007675171,-0.0050811768,-0.0021362305,-32.398987,-36.95984,61.079407,1,0.0,0.0,0.0,0.0
1.477539063,-0.0078416355,0.85774547,0.51401484,-0.011820108,-0.5140742,0.85766417,0.9998993,6.4978004E-4,0.014169826,-0.0098016,0.86515903,0.5014018,-0.016321775,-0.50149745,0.86500514,0.99981874,2.946675E-4,0.019036409,9.98764,0.020339966,0.1531372,9.805663,0.0063721654,0.13895853,-0.0052337646,-0.007675171,-4.4250488E-4,-32.398987,-36.898804,61.079407,1,0.0,0.0,0.0,0.0
1.485839844,-0.007837276,0.85774446,0.51401657,-0.011793676,-0.5140759,0.85766363,0.99989974,6.596021E-4,0.014144914,-0.009726504,0.86486906,0.5019033,-0.01614247,-0.50199735,0.8647185,0.9998224,3.0872994E-4,0.018843802,9.997208,0.0,0.15792847,9.805667,0.0064684874,0.13871422,-0.0052337646,-1.8310547E-4,-0.008239746,-32.398987,-36.898804,61.079407,1,0.0,0.0,0.0,0.0
1.494140625,-0.0077190525,0.8616074,0.5075165,-0.0118310135,-0.5075748,0.8615264,0.9999002,6.4573286E-4,0.014111687,-0.009654046,0.8645903,0.5023847,-0.01596933,-0.5024773,0.8644429,0.9998259,3.226245E-4,0.018657867,10.119247,-0.034698486,0.13877869,9.805672,0.006332476,0.13838838,-0.007217407,-0.0067596436,-0.00289917,-32.27997,-36.479187,61.439514,1,0.0,0.0,0.0,0.0
1.502441407,-0.0076870206,0.86160034,0.5075291,-0.011804166,-0.5075869,0.8615197,0.9999008,6.3156156E-4,0.014072305,-0.009615812,0.864531,0.5024875,-0.015886322,-0.50257933,0.8643851,0.99982756,3.2908664E-4,0.018566927,10.119247,-0.034698486,0.13877869,9.805677,0.0061935033,0.13800217,-9.613037E-4,-0.008743286,-0.00289917,-32.27997,-36.479187,61.439514,1,0.0,0.0,0.0,0.0
1.510742188,-0.00755219,0.863302,0.50463116,-0.011825326,-0.50468737,0.8632212,0.9999016,5.5178284E-4,0.014020323,-0.009577651,0.8644726,0.50258857,-0.015804373,-0.5026797,0.8643282,0.99982923,3.3513614E-4,0.018476939,10.11087,-0.07777405,0.1483612,9.805685,0.005411141,0.1374924,-0.0024871826,-0.007217407,-0.006866455,-32.03888,-36.299133,61.619568,1,0.0,0.0,0.0,0.0
1.519042969,-0.0075076087,0.8632922,0.50464857,-0.01178576,-0.5047041,0.8632119,0.99990237,5.3299154E-4,0.013963676,-0.009459102,0.86440396,0.50270903,-0.015570206,-0.50279784,0.8642638,0.99983406,3.478767E-4,0.018214962,10.051056,-0.041870117,0.15434265,9.805693,0.0052268617,0.13693689,-0.0070648193,-0.010421753,-0.00579834,-32.03888,-36.299133,61.619568,1,0.0,0.0,0.0,0.0
1.52734375,-0.00743628,0.864305,0.502913,-0.011756046,-0.50296766,0.86422515,0.9999032,5.1435234E-4,0.0139010195,-0.009420255,0.8643818,0.50274783,-0.015494468,-0.5028359,0.864243,0.99983555,3.51579E-4,0.018129978,10.051056,-0.041870117,0.15434265,9.805701,0.0050440733,0.13632244,-0.006149292,-0.006149292,-0.0064086914,-31.97937,-36.05957,61.499023,1,0.0,0.0,0.0,0.0
1.535644532,-0.007427513,0.8643031,0.50291646,-0.011678395,-0.502971,0.8642244,0.9999042,5.4578035E-4,0.013829497,-0.009341773,0.86437875,0.5027545,-0.015346523,-0.5028411,0.86424255,0.9998386,3.5802482E-4,0.017962636,10.003189,-0.007171631,0.1375885,9.805711,0.005352277,0.13562104,-0.009353638,-0.0070648193,-0.0036621094,-31.97937,-36.05957,61.499023,1,0.0,0.0,0.0,0.0
1.543945313,-0.0074139396,0.86561316,0.50065833,-0.011632994,-0.5007129,0.8655352,0.9999049,5.928695E-4,0.013781928,-0.009266058,0.8643759,0.5027608,-0.015201381,-0.50284606,0.86424226,0.9998415,3.654599E-4,0.017799107,10.063019,0.0035858154,0.13040161,9.8057165,0.005814063,0.13515455,-0.0026397705,0.0068359375,-0.006713867,-32.099915,-35.879517,61.558533,1,0.0,0.0,0.0,0.0
1.552246094,-0.007458833,0.86562306,0.5006407,-0.011618352,-0.5006958,0.86554533,0.9999047,6.3933805E-4,0.013791719,-0.00922885,0.8644006,0.50271904,-0.015130109,-0.50280356,0.86426824,0.99984294,3.7000809E-4,0.017718773,10.063019,0.0035858154,0.13040161,9.805716,0.0062697646,0.13525057,-0.0040130615,0.0057678223,-0.004119873,-32.099915,-35.879517,61.558533,1,0.0,0.0,0.0,0.0
1.560546875,-0.00750443,0.8648569,0.5019624,-0.011642864,-0.5020181,0.86477876,0.9999041,6.453916E-4,0.01383677,-0.009158416,0.864449,0.502637,-0.014991176,-0.5027203,0.8643191,0.9998457,3.8067353E-4,0.01756323,10.094116,-0.029907227,0.14117432,9.805709,0.006329129,0.13569236,-0.0043182373,0.004699707,-0.01083374,-32.218933,-35.939026,61.439514,1,0.0,0.0,0.0,0.0
1.568847657,-0.0075011915,0.86485606,0.5019637,-0.011646592,-0.50201935,0.8647779,0.99990404,6.406985E-4,0.013838371,-0.009092819,0.8644652,0.50261045,-0.014858643,-0.5026925,0.8643375,0.99984825,3.9115633E-4,0.01741567,10.122833,-0.049057007,0.117248535,9.805709,0.006283106,0.13570806,-0.010269165,0.011108398,-0.0045776367,-32.218933,-35.939026,61.439514,1,0.0,0.0,0.0,0.0
1.577148438,-0.007437722,0.86749387,0.4973922,-0.011712253,-0.4974474,0.867415,0.99990374,6.260087E-4,0.013860185,-0.009060955,0.864473,0.5025976,-0.014794452,-0.5026791,0.86434644,0.9998495,3.9614717E-4,0.017344156,10.122833,-0.049057007,0.117248535,9.805706,0.0061390484,0.13592198,-0.0043182373,0.007598877,-0.005340576,-32.099915,-35.639954,61.679077,1,0.0,0.0,0.0,0.0
1.585449219,-0.0074997228,0.86750734,0.4973677,-0.011794871,-0.4974239,0.8674274,0.99990237,6.390776E-4,0.01396268,-0.008995988,0.8645933,0.5023918,-0.014672817,-0.50247216,0.8644689,0.9998519,4.052497E-4,0.017206252,10.000809,-0.013153076,0.15792847,9.805693,0.0062672105,0.13692711,-0.002029419,0.017227173,-0.0022735596,-32.099915,-35.639954,61.679077,1,0.0,0.0,0.0,0.0
1.59375,-0.007560833,0.8692842,0.49425486,-0.011951901,-0.4943122,0.8692022,0.9998999,6.6460733E-4,0.0141270105,-0.008936131,0.86470926,0.5021933,-0.014559239,-0.5022726,0.8645868,0.9998541,4.1450927E-4,0.017077882,10.0295105,0.0035858154,0.18185425,9.80567,0.0065175723,0.13853866,-0.005844116,0.008361816,-0.010375977,-32.099915,-35.51941,61.979675,1,0.0,0.0,0.0,0.0
1.602050782,-0.007680944,0.86931,0.49420747,-0.012080504,-0.49426663,0.86922634,0.9998975,7.062036E-4,0.014298138,-0.00890816,0.8648014,0.502035,-0.014507342,-0.5021139,0.8646798,0.9998551,4.1951123E-4,0.01701888,10.0295105,0.0035858154,0.18185425,9.805645,0.006925491,0.14021684,-0.008743286,0.017059326,-0.0073242188,-32.099915,-35.51941,61.979675,1,0.0,0.0,0.0,0.0
1.610351563,-0.007815216,0.8674967,0.49738148,-0.012131262,-0.4974423,0.8674122,0.9998959,7.451498E-4,0.014411449,-0.008858651,0.86498123,0.5017259,-0.014411534,-0.50180393,0.8648613,0.9998569,4.3086422E-4,0.016911013,10.041473,-0.009567261,0.13877869,9.80563,0.0073074237,0.14132805,-0.01637268,0.017227173,-0.0065612793,-32.398987,-35.758972,61.85913,1,0.0,0.0,0.0,0.0
1.618652344,-0.0078645665,0.8675076,0.4973619,-0.012269396,-0.49742353,0.8674211,0.9998938,7.1955955E-4,0.014555813,-0.008816857,0.86508125,0.50155425,-0.014321371,-0.5016315,0.8649629,0.99985856,4.4330995E-4,0.016811963,10.096512,-0.041870117,0.15074158,9.805609,0.0070564686,0.14274377,-0.008590698,0.019210815,-0.0021362305,-32.398987,-35.758972,61.85913,1,0.0,0.0,0.0,0.0
1.626953125,-0.007953581,0.8658779,0.50019217,-0.012388569,-0.5002549,0.8657896,0.99989164,6.894625E-4,0.014705807,-0.0087976465,0.86513007,0.5014704,-0.014280481,-0.50154734,0.86501235,0.99985933,4.488349E-4,0.01676691,10.096512,-0.041870117,0.15074158,9.805588,0.006761318,0.1442147,-0.004623413,0.015075684,-0.0038146973,-32.51953,-35.998535,61.79962,1,0.0,0.0,0.0,0.0
1.635253907,-0.007997405,0.86588764,0.5001748,-0.012568947,-0.50023836,0.8657967,0.999889,6.374556E-4,0.014883901,-0.0087641,0.8651597,0.50141984,-0.014205584,-0.5014962,0.86504316,0.99986064,4.5836376E-4,0.016685262,10.042679,-0.053833008,0.1878357,9.805562,0.0062513044,0.14596121,-0.007369995,-0.002166748,-0.010070801,-32.51953,-35.998535,61.79962,1,0.0,0.0,0.0,0.0
1.643554688,-0.008089154,0.86466986,0.50227535,-0.012608963,-0.50234,0.8645782,0.99988776,6.605347E-4,0.014966098,-0.0087336805,0.86518836,0.50137085,-0.01414086,-0.50144666,0.8650729,0.99986184,4.654558E-4,0.016613984,10.022339,-0.01675415,0.18544006,9.80555,0.006477633,0.14676729,-0.0030975342,-0.00843811,-0.008544922,-32.759094,-36.239624,61.85913,1,0.0,0.0,0.0,0.0
1.651855469,-0.008118744,0.8646765,0.50226355,-0.012588517,-0.50232863,0.8645851,0.99988776,6.965928E-4,0.014963272,-0.00872079,0.8651781,0.50138885,-0.014110161,-0.5014644,0.8650632,0.99986243,4.693574E-4,0.01658097,10.022339,-0.01675415,0.18544006,9.80555,0.006831242,0.14673957,-0.0037078857,-0.010879517,-0.0065612793,-32.759094,-36.239624,61.85913,1,0.0,0.0,0.0,0.0
1.66015625,-0.008213438,0.8616496,0.5074373,-0.012507313,-0.5075032,0.86155915,0.99988806,7.2968594E-4,0.014945267,-0.008708806,0.86516804,0.5014064,-0.014079761,-0.5014818,0.86505365,0.99986297,4.7390207E-4,0.016548667,10.022339,-0.007171631,0.19621277,9.8055525,0.0071557746,0.14656301,-0.005996704,-0.011642456,-0.0038146973,-32.63855,-36.59973,61.619568,1,0.0,0.0,0.0,0.0
1.668457032,-0.008163256,0.8616383,0.5074572,-0.012496518,-0.50752234,0.86154795,0.99988854,6.91587E-4,0.014910514,-0.008680275,0.86496234,0.5017616,-0.013987091,-0.5018365,0.86484945,0.9998645,4.8894424E-4,0.016454386,10.084549,-0.059814453,0.1986084,9.805557,0.0067821518,0.14622219,-0.0056915283,-0.009506226,-0.0030517578,-32.63855,-36.59973,61.619568,1,0.0,0.0,0.0,0.0
1.676757813,-0.008094939,0.8624734,0.5060377,-0.012502559,-0.506102,0.862383,0.999889,6.5417134E-4,0.014879989,-0.008670127,0.8648962,0.50187594,-0.013957211,-0.50195056,0.8647837,0.999865,4.9299706E-4,0.016423514,10.084549,-0.059814453,0.1986084,9.805562,0.0064152293,0.14592285,-0.007369995,-0.011642456,-0.004272461,-32.51953,-36.59973,61.85913,1,0.0,0.0,0.0,0.0
1.685058594,-0.008044411,0.86246216,0.50605756,-0.012498007,-0.5061211,0.8623718,0.9998895,6.1256235E-4,0.014850506,-0.00865876,0.86484784,0.5019594,-0.0139280595,-0.5020338,0.8647359,0.99986553,4.9622054E-4,0.016392643,10.08934,-0.0765686,0.1375885,9.805567,0.0060071847,0.14563371,-0.0069122314,-0.014389038,-0.010070801,-32.51953,-36.59973,61.85913,1,0.0,0.0,0.0,0.0
1.693359375,-0.007960099,0.86244345,0.5060908,-0.012388102,-0.50615305,0.86235464,0.9998916,5.9492385E-4,0.014713066,-0.008634648,0.8647537,0.50212187,-0.013871247,-0.5021959,0.8646426,0.9998665,5.0082774E-4,0.016331498,10.079758,-0.051452637,0.14596558,9.805587,0.00583421,0.14428589,-0.00630188,-0.019729614,-0.0076293945,-32.51953,-36.59973,61.85913,1,0.0,0.0,0.0,0.0
1.701660157,-0.007885437,0.8617204,0.5073221,-0.012262149,-0.507383,0.86163336,0.9998937,5.734966E-4,0.014567481,-0.008608235,0.86466247,0.5022795,-0.013812461,-0.502353,0.86455226,0.99986756,5.045539E-4,0.01626749,10.079758,-0.051452637,0.14596558,9.805608,0.005624081,0.14285819,-0.0027923584,-0.0056915283,-0.0048828125,-32.818604,-36.71875,61.85913,1,0.0,0.0,0.0,0.0
1.709960938,-0.007895989,0.85946786,0.51112896,-0.0121165095,-0.5111896,0.8593827,0.99989545,5.92577E-4,0.014450096,-0.008593908,0.864604,0.5023804,-0.013781292,-0.5024536,0.86449426,0.9998681,5.059328E-4,0.016233401,10.037888,-0.009567261,0.11366272,9.805625,0.0058111954,0.14170703,-0.009963989,0.0018005371,-0.0021362305,-32.998657,-37.01935,61.738586,1,0.0,0.0,0.0,0.0
1.718261719,-0.007881964,0.8594645,0.5111345,-0.012070662,-0.51119494,0.85937995,0.99989605,6.0386956E-4,0.014403528,-0.0085669225,0.86440235,0.50272775,-0.013715125,-0.50280046,0.86429363,0.9998692,5.0936395E-4,0.016162839,10.015152,0.0047912598,0.119644165,9.805631,0.0059219375,0.14125036,-0.0041656494,0.0011901855,-0.0050354004,-32.998657,-37.01935,61.738586,1,0.0,0.0,0.0,0.0
1.7265625,-0.007943914,0.85655445,0.5159955,-0.012010009,-0.5160563,0.85647047,0.99989635,6.066168E-4,0.014386734,-0.008540425,0.86420834,0.50306165,-0.013649778,-0.5031339,0.8641007,0.99987036,5.131064E-4,0.01609323,10.037888,-0.021530151,0.12083435,9.805634,0.0059488784,0.14108567,-0.001876831,0.0042419434,-0.006713867,-33.239746,-37.319946,61.439514,1,0.0,0.0,0.0,0.0
1.734863282,-0.007878422,0.85653937,0.5160217,-0.012056551,-0.5160816,0.85645473,0.9998963,5.2606856E-4,0.014392816,-0.0085289795,0.8640571,0.50332147,-0.013616814,-0.5033935,0.86394995,0.9998709,5.149766E-4,0.01605914,10.073776,-0.07896423,0.13160706,9.805633,0.00515897,0.1411453,-0.001876831,0.0022583008,3.2043457E-4,-33.239746,-37.319946,61.439514,1,0.0,0.0,0.0,0.0
1.743164063,-0.007814931,0.8565245,0.5160471,-0.012105864,-0.51610607,0.856439,0.9998961,4.4581553E-4,0.014402303,-0.008504039,0.8637629,0.5038267,-0.013554571,-0.50389814,0.8636567,0.99987197,5.154159E-4,0.015993105,10.073776,-0.023925781,0.16151428,9.805632,0.004371957,0.14123835,-0.0035552979,-0.0018615723,-0.0076293945,-33.239746,-37.319946,61.439514,1,0.0,0.0,0.0,0.0
1.751464844,-0.007835171,0.85601145,0.51689744,-0.012095633,-0.51695657,0.8559261,0.9998961,4.5412526E-4,0.014404444,-0.008477531,0.8634796,0.50431246,-0.013496838,-0.50438344,0.8633743,0.999873,5.126598E-4,0.015930172,10.073776,-0.023925781,0.16151428,9.805632,0.0044534476,0.14125934,-0.010421753,-0.007827759,-0.011749268,-33.1192,-37.438965,61.499023,1,0.0,0.0,0.0,0.0
1.759765625,-0.007829727,0.8561485,0.5166706,-0.01204196,-0.5167297,0.8560639,0.9998968,4.8101938E-4,0.014355557,-0.0084650675,0.86333215,0.50456506,-0.013468606,-0.5046358,0.86322725,0.99987346,5.114891E-4,0.015899658,10.074982,-0.022735596,0.17706299,9.805638,0.004717189,0.14077993,-0.009506226,-0.010726929,-0.0073242188,-32.998657,-37.379456,61.439514,1,0.0,0.0,0.0,0.0
1.768066407,-0.007863804,0.8561563,0.51665705,-0.01200525,-0.5167166,0.8560723,0.999897,5.293866E-4,0.01434173,-0.008440642,0.863051,0.5050463,-0.013411726,-0.5051166,0.8629469,0.9998745,5.102825E-4,0.015838511,10.042679,0.0047912598,0.18185425,9.80564,0.0051915096,0.14064433,-0.010879517,-0.00630188,3.2043457E-4,-32.998657,-37.379456,61.439514,1,0.0,0.0,0.0,0.0
1.776367188,-0.0079177115,0.85534686,0.5179953,-0.011978883,-0.5180555,0.8552631,0.9998969,5.6672195E-4,0.014347914,-0.008418509,0.862781,0.50550777,-0.013355722,-0.5055776,0.86267775,0.99987537,5.1103905E-4,0.015779272,10.02713,0.011962891,0.18902588,9.805639,0.0055576437,0.14070497,-0.003250122,-0.0024719238,-0.0033569336,-32.998657,-37.25891,61.019897,1,0.0,0.0,0.0,0.0
1.784667969,-0.007884043,0.855339,0.51800865,-0.011940835,-0.5180683,0.85525584,0.9998976,5.574174E-4,0.014297936,-0.008408877,0.8626341,0.50575846,-0.013328036,-0.50582814,0.8625313,0.99987584,5.121527E-4,0.015750665,10.039093,-0.028717041,0.13877869,9.805646,0.0054663974,0.14021486,-0.0027923584,-0.0055389404,-0.0061035156,-32.998657,-37.25891,61.019897,1,0.0,0.0,0.0,0.0
1.79296875,-0.007817939,0.8553236,0.51803505,-0.011940682,-0.5180938,0.85524046,0.9998982,5.005257E-4,0.014263574,-0.008388792,0.8623486,0.50624543,-0.013272735,-0.5063147,0.86224663,0.99987674,5.139452E-4,0.015693095,10.039093,-0.028717041,0.13877869,9.805652,0.00490848,0.13987789,-0.008285522,0.0010375977,-0.00793457,-32.998657,-37.25891,61.019897,1,0.0,0.0,0.0,0.0
1.801269532,-0.0077724387,0.8554782,0.51778054,-0.012015378,-0.51783866,0.85539395,0.9998976,4.2716714E-4,0.0143037625,-0.0083667915,0.8620734,0.5067144,-0.0132195335,-0.5067832,0.8619722,0.99987763,5.1341375E-4,0.015636357,10.08934,-0.08135986,0.16749573,9.805646,0.0041890787,0.14027199,-0.0026397705,0.0030212402,-0.0022735596,-33.239746,-37.379456,61.25946,1,0.0,0.0,0.0,0.0
1.809570313,-0.0077885077,0.85407037,0.52009916,-0.0120144,-0.5201573,0.85398597,0.9998975,4.0259623E-4,0.014312393,-0.008355172,0.8619429,0.50693655,-0.013195239,-0.50700516,0.86184204,0.99987805,5.116888E-4,0.015609657,10.101303,-0.032302856,0.13400269,9.805645,0.0039481204,0.14035663,-0.00920105,0.0042419434,-4.4250488E-4,-33.4198,-37.5,61.079407,1,0.0,0.0,0.0,0.0
1.817871094,-0.007780656,0.8540685,0.5201023,-0.012038793,-0.5201603,0.8539837,0.9998972,3.8314945E-4,0.014329144,-0.008333442,0.8616351,0.5074599,-0.013148198,-0.50752807,0.8615349,0.9998788,5.0736876E-4,0.015558404,10.101303,-0.032302856,0.13400269,9.805642,0.0037574125,0.1405209,-0.005996704,0.0042419434,-0.0077819824,-33.4198,-37.5,61.079407,1,0.0,0.0,0.0,0.0
1.826171875,-0.0077848667,0.85406953,0.52010065,-0.012028597,-0.52015877,0.85398483,0.9998973,3.9207688E-4,0.014322624,-0.008322647,0.8614855,0.507714,-0.0131257465,-0.5077819,0.86138564,0.99987924,5.048844E-4,0.01553373,10.051056,-0.029907227,0.15194702,9.805643,0.0038449608,0.14045696,-0.005996704,-0.0052337646,-0.009002686,-33.4198,-37.5,61.079407,1,0.0,0.0,0.0,0.0
1.834472657,-0.007823692,0.85324275,0.5214553,-0.012020229,-0.5215138,0.8531581,0.9998971,4.0683374E-4,0.014336336,-0.008301828,0.861195,0.5082068,-0.013081785,-0.5082744,0.8610958,0.99987996,5.0041714E-4,0.015485575,10.066605,-0.025131226,0.17347717,9.805642,0.0039896765,0.14059144,-0.0066070557,-0.0023345947,-0.0045776367,-33.239746,-37.55951,60.958862,1,0.0,0.0,0.0,0.0
1.842773438,-0.007823141,0.85324264,0.5214555,-0.01201864,-0.521514,0.85315806,0.9998972,4.071904E-4,0.014334693,-0.008283474,0.8608839,0.5087339,-0.0130393915,-0.50880116,0.86078525,0.9998807,4.9671123E-4,0.015440043,10.0295105,-0.017944336,0.1375885,9.805642,0.003993174,0.14057532,-0.010269165,-0.0069122314,-0.0074768066,-33.239746,-37.55951,60.958862,1,0.0,0.0,0.0,0.0
1.851074219,-0.007803871,0.8533138,0.52133924,-0.011950972,-0.52139753,0.8532303,0.9998982,4.2798827E-4,0.014266849,-0.008274517,0.86073285,0.5089897,-0.013018761,-0.5090567,0.86063457,0.999881,4.949208E-4,0.015417873,10.074982,-0.0657959,0.13877869,9.805652,0.0041971314,0.13991,-0.005844116,-0.009506226,-0.0076293945,-33.4198,-37.438965,60.77881,1,0.0,0.0,0.0,0.0
1.859375,-0.0076602926,0.8554469,0.51783407,-0.011937209,-0.5178906,0.8553637,0.99989945,3.7084246E-4,0.0141788395,-0.008256455,0.8604425,0.5094806,-0.012976213,-0.50954723,0.8603449,0.99988174,4.922703E-4,0.015372341,10.08934,-0.01675415,0.1758728,9.805664,0.0036367225,0.13904692,-0.0069122314,-0.010269165,-0.0035095215,-33.358765,-37.1994,60.958862,1,0.0,0.0,0.0,0.0
1.867675782,-0.0076396014,0.8554419,0.51784235,-0.011885823,-0.51789856,0.85535944,0.99990016,3.7962265E-4,0.01412417,-0.008233189,0.86024624,0.5098123,-0.012934778,-0.5098785,0.86014915,0.99988246,4.8746174E-4,0.01532502,10.051056,0.0035858154,0.19142151,9.805672,0.0037228267,0.13851081,-0.009353638,-0.009963989,-0.008087158,-33.358765,-37.1994,60.958862,1,0.0,0.0,0.0,0.0
1.875976563,-0.007672897,0.85544974,0.51782894,-0.011829491,-0.51788557,0.855368,0.9999006,4.3749862E-4,0.014093219,-0.008221474,0.8601508,0.50997347,-0.012913626,-0.5100395,0.8600541,0.9998828,4.8530495E-4,0.015300943,10.051056,0.0035858154,0.19142151,9.8056755,0.004290396,0.13820727,-0.009963989,-0.011795044,-0.007171631,-33.358765,-37.1994,60.958862,1,0.0,0.0,0.0,0.0
1.884277344,-0.0076455357,0.85581243,0.5172297,-0.01170027,-0.517286,0.8557326,0.99990237,4.908071E-4,0.013968166,-0.008200126,0.85996616,0.51028514,-0.012870511,-0.51035076,0.85986996,0.99988353,4.8341177E-4,0.015253145,10.052246,0.011962891,0.122039795,9.805693,0.004813174,0.13698092,-0.0027923584,-0.009353638,7.7819824E-4,-33.358765,-37.139893,60.958862,1,0.0,0.0,0.0,0.0
1.892578125,-0.007635433,0.8558101,0.51723385,-0.011583932,-0.51728994,0.85573184,0.99990374,5.422815E-4,0.013863377,-0.00817851,0.8598027,0.51056087,-0.012823975,-0.51062614,0.85970724,0.9998843,4.8370464E-4,0.0152022485,10.036697,0.028717041,0.114852905,9.805706,0.0053179646,0.13595329,-0.0026397705,-0.0010986328,-0.005340576,-33.358765,-37.139893,60.958862,1,0.0,0.0,0.0,0.0
1.900878907,-0.007675284,0.854699,0.51906705,-0.0114921415,-0.51912344,0.854622,0.9999045,5.9427397E-4,0.013806743,-0.008167813,0.8597233,0.5106947,-0.012799048,-0.5107598,0.8596282,0.9998847,4.848762E-4,0.01517543,10.061813,-0.050247192,0.09690857,9.805714,0.005827837,0.1353979,-0.0053863525,-0.0017242432,-0.0019683838,-33.299255,-37.319946,60.958862,1,0.0,0.0,0.0,0.0
1.909179688,-0.007626411,0.85149527,0.5243069,-0.011423789,-0.5243621,0.85141873,0.99990565,5.0369784E-4,0.013726302,-0.008148824,0.85952586,0.5110273,-0.012747162,-0.511092,0.85943145,0.99988556,4.892084E-4,0.015121315,10.047455,-0.08255005,0.088531494,9.805725,0.0049395887,0.13460904,-0.014541626,0.0013427734,-0.010070801,-33.53882,-37.799072,60.899353,1,0.0,0.0,0.0,0.0
1.917480469,-0.0075984667,0.85148853,0.5243181,-0.011431281,-0.52437294,0.85141194,0.99990577,4.7579725E-4,0.013718036,-0.008128849,0.8592118,0.5115555,-0.012694342,-0.5116198,0.85911816,0.9998864,4.897822E-4,0.015066008,10.071396,-0.049057007,0.11843872,9.805726,0.0046659773,0.13452798,0.0019378662,0.008514404,-0.005645752,-33.53882,-37.799072,60.899353,1,0.0,0.0,0.0,0.0
1.92578125,-0.007594068,0.8514875,0.5243199,-0.011476748,-0.52437466,0.85141027,0.9999053,4.4817996E-4,0.013754444,-0.008118605,0.85905915,0.5118119,-0.012668918,-0.51187605,0.8589659,0.9998868,4.895025E-4,0.01503907,10.071396,-0.049057007,0.11843872,9.805721,0.004395144,0.13488503,0.0019378662,0.010650635,-0.0030517578,-33.53882,-37.799072,60.899353,1,0.0,0.0,0.0,0.0
1.934082032,-0.00774492,0.8494876,0.5275517,-0.011554841,-0.5276083,0.8494091,0.9999032,4.8283063E-4,0.013901979,-0.008098451,0.85876286,0.51230925,-0.012621348,-0.51237303,0.85867023,0.9998875,4.8786614E-4,0.014988173,10.088135,0.0011901855,0.19621277,9.805701,0.004734951,0.13633184,-0.007217407,7.324219E-4,-0.0074768066,-33.779907,-37.979126,60.65979,1,0.0,0.0,0.0,0.0
1.942382813,-0.007814788,0.84950453,0.52752334,-0.011635479,-0.52758104,0.849425,0.9999018,5.0008995E-4,0.014007327,-0.008085181,0.85840076,0.5129159,-0.012578894,-0.5129794,0.85830873,0.9998882,4.876667E-4,0.014945263,10.055832,-0.020339966,0.19381714,9.805687,0.0049042073,0.13736495,-0.0069122314,-0.004776001,-0.00869751,-33.779907,-37.979126,60.65979,1,0.0,0.0,0.0,0.0
1.950683594,-0.007885859,0.8470762,0.5314131,-0.011622615,-0.5314714,0.8469966,0.99990135,5.0288666E-4,0.014036347,-0.00808003,0.8582252,0.51320964,-0.012559837,-0.513273,0.8581335,0.9998885,4.8791515E-4,0.01492643,10.040283,-0.044265747,0.16989136,9.805683,0.004931634,0.13764955,-0.001876831,-0.0015563965,-0.011291504,-33.839417,-38.21869,60.4187,1,0.0,0.0,0.0,0.0
1.958984375,-0.007878093,0.8467542,0.5319259,-0.011626929,-0.53198403,0.8466745,0.99990135,4.8551467E-4,0.014036171,-0.008072952,0.85779124,0.5139348,-0.012522333,-0.513998,0.85770005,0.999889,4.885081E-4,0.014891028,10.058228,-0.053833008,0.15553284,9.805683,0.0047612726,0.13764782,-0.0040130615,-0.006149292,-0.00579834,-34.13849,-38.15918,60.238647,1,0.0,0.0,0.0,0.0
1.967285157,-0.007874116,0.84675324,0.5319276,-0.011592862,-0.5319856,0.846674,0.9999018,5.0024607E-4,0.01400521,-0.008065827,0.8573614,0.5146517,-0.0124865165,-0.51471466,0.8572706,0.9998895,4.883895E-4,0.0148570575,10.086945,-0.028717041,0.14955139,9.805687,0.0049057384,0.1373442,-0.013015747,-0.0069122314,-0.009613037,-34.13849,-38.15918,60.238647,1,0.0,0.0,0.0,0.0
1.975585938,-0.007865918,0.84675115,0.531931,-0.011545081,-0.53198886,0.84667253,0.99990237,5.186706E-4,0.013960391,-0.008062311,0.8571527,0.5149993,-0.012468515,-0.5150621,0.8570622,0.9998898,4.8862665E-4,0.014840012,10.098907,-0.037094116,0.15911865,9.805693,0.005086421,0.13690467,-0.0066070557,-0.010116577,-0.009765625,-34.13849,-38.15918,60.238647,1,0.0,0.0,0.0,0.0
1.983886719,-0.007906779,0.8459785,0.5331583,-0.011471461,-0.53321666,0.84590095,0.99990296,5.722466E-4,0.013920637,-0.008055246,0.8567473,0.51567346,-0.012431839,-0.5157361,0.85665727,0.99989027,4.898164E-4,0.014805326,10.054642,-0.01675415,0.17706299,9.805698,0.0056118225,0.13651481,-0.0056915283,-0.01576233,-0.0076293945,-33.779907,-38.279724,60.238647,1,0.0,0.0,0.0,0.0
1.9921875,-0.007914672,0.8459805,0.5331551,-0.011396955,-0.5332135,0.845904,0.99990374,6.187078E-4,0.013861811,-0.008052657,0.8565355,0.51602525,-0.0124125695,-0.51608783,0.8564457,0.99989057,4.9146503E-4,0.014787685,10.054642,-0.01675415,0.17706299,9.805706,0.006067451,0.13593793,-0.002029419,-0.010879517,-0.008392334,-33.779907,-38.279724,60.238647,1,0.0,0.0,0.0,0.0
2.000488282,-0.007863928,0.84696805,0.53158563,-0.011372978,-0.5316434,0.8468919,0.9999044,6.141856E-4,0.013813354,-0.008047949,0.85612404,0.5167077,-0.012372218,-0.5167701,0.8560348,0.9998911,4.9650384E-4,0.0147510925,10.030716,-0.041870117,0.15911865,9.805713,0.0060231034,0.13546273,-0.011947632,-0.0052337646,-0.010986328,-33.718872,-38.15918,60.299683,1,0.0,0.0,0.0,0.0
2.008789063,-0.00786381,0.8469716,0.53158,-0.011371213,-0.5316377,0.8468954,0.9999044,6.151156E-4,0.013811793,-0.008038066,0.8555928,0.517587,-0.012313246,-0.5176492,0.85550433,0.9998919,5.0342444E-4,0.014696023,10.042679,-0.050247192,0.110076904,9.805713,0.006032224,0.13544743,-0.007217407,0.0011901855,-0.005645752,-33.779907,-38.15918,60.299683,1,0.0,0.0,0.0,0.0
2.017089844,-0.007832304,0.84696394,0.5315927,-0.01134133,-0.53165007,0.8468882,0.999905,6.0411677E-4,0.01376974,-0.008038066,0.8555928,0.517587,-0.012313246,-0.5176492,0.85550433,0.9998919,5.0342444E-4,0.014696023,10.042679,-0.050247192,0.110076904,9.805718,0.0059243618,0.13503502,-0.007217407,0.0011901855,-0.005645752,-33.779907,-38.15918,60.299683,1,0.0,0.0,0.0,0.0
2.025390625,-0.0077828313,0.8469517,0.53161275,-0.011293655,-0.5316694,0.8468767,0.99990594,5.872468E-4,0.013703075,-0.008030533,0.8552554,0.5181444,-0.012274644,-0.5182064,0.8551675,0.9998924,5.074119E-4,0.01465943,10.079758,-0.04547119,0.086135864,9.805728,0.005758924,0.13438126,-0.00843811,-0.0014038086,-0.0076293945,-33.779907,-38.15918,60.299683,1,0.0,0.0,0.0,0.0
2.033691407,-0.007783929,0.84697634,0.53157353,-0.011288897,-0.53163016,0.84690124,0.99990594,5.9134E-4,0.013699601,-0.0080212,0.8549306,0.5186804,-0.012235463,-0.51874214,0.8548432,0.999893,5.105733E-4,0.014621407,10.069,-0.03111267,0.12802124,9.805728,0.005799065,0.1343472,-6.5612793E-4,0.0054626465,-0.0050354004,-34.199524,-38.15918,60.299683,1,0.0,0.0,0.0,0.0
2.041992188,-0.0077973763,0.84697974,0.53156805,-0.011299171,-0.5316249,0.8469046,0.99990577,5.97356E-4,0.013715447,-0.008016699,0.85477334,0.51893955,-0.012216401,-0.5190012,0.8546862,0.99989325,5.121887E-4,0.014602931,10.069,-0.03111267,0.12802124,9.805726,0.0058580614,0.13450259,0.0011749268,0.0043945313,-0.008850098,-34.199524,-38.15918,60.299683,1,0.0,0.0,0.0,0.0
2.050292969,-0.0078002946,0.8513,0.5246212,-0.011344039,-0.52467865,0.85122466,0.99990517,6.8847917E-4,0.0137498295,-0.0080086095,0.8544684,0.51944155,-0.012180097,-0.51950306,0.85438174,0.9998938,5.155613E-4,0.014568007,10.019943,0.025131226,0.13040161,9.80572,0.006751674,0.13483977,-0.004623413,0.00881958,-0.009918213,-33.95996,-37.61902,60.539246,1,0.0,0.0,0.0,0.0
2.05859375,-0.007847668,0.8540691,0.52010036,-0.011428353,-0.520159,0.85399294,0.99990386,7.5796206E-4,0.013842639,-0.008000474,0.85434353,0.51964706,-0.012146813,-0.5197084,0.85425735,0.99989426,5.224088E-4,0.014535465,10.025925,0.0059814453,0.16151428,9.805707,0.007433068,0.1357499,-0.0027923584,0.010040283,-0.005645752,-33.47931,-37.319946,60.77881,1,0.0,0.0,0.0,0.0
2.066894532,-0.007949409,0.85409325,0.5200591,-0.011488073,-0.5201192,0.85401636,0.99990237,8.144491E-4,0.013946527,-0.007997444,0.854338,0.5196563,-0.012132467,-0.5197176,0.85425204,0.99989444,5.271199E-4,0.014521639,10.025925,0.0059814453,0.16151428,9.805693,0.007987018,0.13676871,-0.006149292,0.0069885254,-0.007019043,-33.47931,-37.319946,60.77881,1,0.0,0.0,0.0,0.0
2.075195313,-0.007994448,0.854104,0.52004087,-0.011586975,-0.52010167,0.8540258,0.9999009,8.017633E-4,0.014054406,-0.007995498,0.8543282,0.51967245,-0.012106851,-0.51973367,0.8542426,0.9998948,5.384981E-4,0.0144987535,10.088135,-0.022735596,0.16630554,9.805678,0.007862613,0.13782665,-0.007980347,0.010498047,-0.0036621094,-33.47931,-37.319946,60.77881,1,0.0,0.0,0.0,0.0
2.083496094,-0.007984085,0.8564949,0.51609373,-0.01172489,-0.5161549,0.856415,0.9998994,7.865478E-4,0.014163334,-0.007995439,0.85431933,0.5196869,-0.012086226,-0.51974803,0.85423404,0.999895,5.4892345E-4,0.014481111,10.114456,-0.026321411,0.19142151,9.805664,0.0077133994,0.13889487,-0.0040130615,-0.007675171,-0.0074768066,-33.299255,-37.078857,61.019897,1,0.0,0.0,0.0,0.0
2.091796875,-0.008005195,0.85649985,0.51608527,-0.011748465,-0.5161467,0.8564196,0.99989897,7.925969E-4,0.014194413,-0.007995202,0.85436296,0.5196152,-0.01207903,-0.5196764,0.8542778,0.99989504,5.53676E-4,0.014474793,10.114456,-0.026321411,0.19142151,9.805659,0.0077727204,0.13919964,-0.004776001,-0.013626099,-0.004425049,-33.299255,-37.078857,61.019897,1,0.0,0.0,0.0,0.0
2.100097657,-0.008001603,0.8572226,0.5148838,-0.011700269,-0.5149453,0.85714316,0.9998995,8.342403E-4,0.014150123,-0.007995553,0.85444784,0.5194756,-0.01206595,-0.5195368,0.85436285,0.9998952,5.6313723E-4,0.014463709,10.053452,-0.0011901855,0.18304443,9.805665,0.008181103,0.1387653,-0.004470825,-0.018661499,-0.004425049,-33.1192,-37.139893,61.31897,1,0.0,0.0,0.0,0.0
2.108398438,-0.0079752905,0.8573758,0.5146292,-0.011608372,-0.5146903,0.8572976,0.9999008,8.631897E-4,0.01405754,-0.007995663,0.85455817,0.5192941,-0.0120513765,-0.5193553,0.8544734,0.9998954,5.73873E-4,0.014451193,10.02713,0.0,0.17347717,9.805677,0.0084649995,0.13785738,-0.010421753,-0.019119263,-0.00793457,-33.17871,-37.078857,61.25946,1,0.0,0.0,0.0,0.0
2.116699219,-0.007948468,0.85736954,0.5146399,-0.011503946,-0.51470053,0.85729283,0.99990225,8.937748E-4,0.013954214,-0.007995207,0.85461485,0.51920074,-0.012042522,-0.51926196,0.8545302,0.9998955,5.796593E-4,0.014443326,10.02713,0.0,0.17347717,9.805692,0.008764937,0.1368441,-0.013320923,-0.014846802,-0.008392334,-33.17871,-37.078857,61.25946,1,0.0,0.0,0.0,0.0
2.125,-0.007833894,0.857343,0.51468587,-0.01137136,-0.51474476,0.85726804,0.9999047,8.630684E-4,0.013781613,-0.007993273,0.8547244,0.5190205,-0.012021248,-0.51908165,0.8546401,0.9998958,5.920982E-4,0.014424016,10.054642,-0.055038452,0.107681274,9.805715,0.008463809,0.13515145,-0.00843811,-0.0096588135,-0.0019683838,-33.17871,-37.078857,61.25946,1,0.0,0.0,0.0,0.0
2.133300782,-0.00779066,0.85444564,0.5194824,-0.011236649,-0.51954013,0.85437214,0.99990654,8.1888237E-4,0.013648666,-0.007990068,0.854777,0.51893395,-0.012008343,-0.51899505,0.8546929,0.999896,5.9751765E-4,0.014411261,10.054642,-0.055038452,0.107681274,9.805734,0.008030493,0.1338477,-0.0069122314,-0.007675171,-0.00579834,-33.358765,-37.438965,61.079407,1,0.0,0.0,0.0,0.0
2.141601563,-0.0077040484,0.85442525,0.5195172,-0.011210953,-0.51957375,0.85435206,0.9999075,7.5768685E-4,0.0135817425,-0.007982153,0.85476375,0.5189559,-0.011977712,-0.51901686,0.85468006,0.9998964,6.062837E-4,0.014380986,10.107285,-0.058624268,0.13519287,9.805742,0.0074303695,0.13319139,-0.0012664795,-0.010879517,-0.005340576,-33.358765,-37.438965,61.079407,1,0.0,0.0,0.0,0.0
2.149902344,-0.007713865,0.85202223,0.52344865,-0.011152349,-0.5235049,0.85194945,0.999908,7.3414104E-4,0.013540298,-0.007971191,0.8547504,0.51897806,-0.011947394,-0.51903886,0.8546672,0.9998969,6.122793E-4,0.014349398,10.092926,-0.037094116,0.16151428,9.805748,0.0071994644,0.13278496,-0.010116577,-0.013473511,-0.0077819824,-33.239746,-37.678528,60.839844,1,0.0,0.0,0.0,0.0
2.158203125,-0.0076767444,0.8520135,0.52346355,-0.011103905,-0.52351934,0.85194147,0.99990886,7.276477E-4,0.0134796,-0.007966109,0.8546961,0.51906765,-0.01193144,-0.5191283,0.85461307,0.9998971,6.1471655E-4,0.014333188,10.092926,-0.037094116,0.16151428,9.805757,0.007135786,0.13218972,-0.009048462,-0.010116577,-0.0077819824,-33.239746,-37.678528,60.839844,1,0.0,0.0,0.0,0.0
2.166503907,-0.007600454,0.85399044,0.5202332,-0.011023089,-0.5202882,0.8539196,0.99991035,7.556002E-4,0.013368038,-0.007954845,0.85459024,0.519242,-0.011898667,-0.51930255,0.8545076,0.9998976,6.1918865E-4,0.014299455,10.013962,-0.01675415,0.114852905,9.805771,0.007409907,0.13109568,-5.0354004E-4,-0.0070648193,-0.006866455,-33.1192,-37.319946,60.77881,1,0.0,0.0,0.0,0.0
2.174804688,-0.007612276,0.8539931,0.5202285,-0.010983793,-0.52028364,0.85392284,0.9999107,7.8621437E-4,0.013340627,-0.007940877,0.85456645,0.51928127,-0.0118640205,-0.51934165,0.8544843,0.9998981,6.2459055E-4,0.014262623,10.051056,-0.015548706,0.1531372,9.805775,0.0077101295,0.13082686,-0.0056915283,-6.4086914E-4,-0.0051879883,-33.1192,-37.319946,60.77881,1,0.0,0.0,0.0,0.0
2.183105469,-0.007695923,0.8511511,0.5248644,-0.010942915,-0.52492017,0.85108113,0.99991053,8.0630794E-4,0.013353819,-0.007934369,0.85455495,0.5193004,-0.01184648,-0.5193606,0.8544731,0.9998984,6.2782306E-4,0.014244267,10.051056,-0.015548706,0.1531372,9.805773,0.00790718,0.13095623,-0.006149292,0.0031738281,-0.0045776367,-33.4198,-37.55951,60.4187,1,0.0,0.0,0.0,0.0
2.19140625,-0.0076546622,0.8511413,0.52488106,-0.010963252,-0.5249363,0.851071,0.9999106,7.6025765E-4,0.013349484,-0.007925197,0.8544208,0.51952124,-0.011810713,-0.51958126,0.8543394,0.99989885,6.3489104E-4,0.014209104,10.043869,-0.06341553,0.114852905,9.805773,0.0074555804,0.1309137,-0.00340271,0.0031738281,-0.007019043,-33.4198,-37.55951,60.4187,1,0.0,0.0,0.0,0.0
2.199707032,-0.0076678265,0.8512911,0.52463764,-0.011022426,-0.52469313,0.8512201,0.9999098,7.4422784E-4,0.013406549,-0.007914718,0.85429144,0.519734,-0.011777139,-0.51979387,0.8542105,0.9998993,6.398555E-4,0.014175132,10.069,-0.04307556,0.15194702,9.805766,0.007298382,0.13147333,-0.01133728,0.0054626465,-0.001663208,-33.47931,-37.5,60.35919,1,0.0,0.0,0.0,0.0
2.208007813,-0.007673265,0.8512925,0.52463543,-0.011084608,-0.524691,0.85122055,0.99990904,7.162617E-4,0.013462335,-0.00790986,0.8542317,0.5198323,-0.01176201,-0.51989204,0.85415095,0.99989957,6.41943E-4,0.014159756,10.069,-0.04307556,0.15194702,9.805758,0.0070241275,0.13202041,-0.014541626,0.0024108887,-0.010375977,-33.47931,-37.5,60.35919,1,0.0,0.0,0.0,0.0
2.216308594,-0.0076320823,0.8540758,0.5200926,-0.0111603765,-0.5201481,0.85400313,0.99990857,7.133926E-4,0.01350162,-0.0079006115,0.8541159,0.5200227,-0.011735098,-0.5200823,0.85403556,0.9999,6.44886E-4,0.014132102,10.052246,-0.03111267,0.13877869,9.805754,0.006995992,0.13240567,-0.0021820068,0.0028686523,-0.0033569336,-33.299255,-37.1994,60.598755,1,0.0,0.0,0.0,0.0
2.224609375,-0.0076455898,0.85407895,0.5200871,-0.01118167,-0.52014285,0.8540061,0.99990827,7.139372E-4,0.013526829,-0.007890073,0.8541142,0.5200256,-0.011712485,-0.5200851,0.8540341,0.9999002,6.475989E-4,0.014107308,10.00798,-0.027511597,0.1375885,9.805751,0.0070013325,0.13265288,0.0040740967,0.0028686523,-0.0024414063,-33.299255,-37.1994,60.598755,1,0.0,0.0,0.0,0.0
2.232910157,-0.007686942,0.8521477,0.5232449,-0.011183735,-0.52330095,0.85207456,0.9999079,6.9801527E-4,0.0135527775,-0.00788521,0.85411346,0.520027,-0.011701908,-0.52008635,0.8540335,0.9999004,6.4892566E-4,0.014095746,10.00798,-0.027511597,0.1375885,9.805747,0.0068451916,0.13290735,0.0014801025,0.007293701,-0.003967285,-33.53882,-37.438965,60.479736,1,0.0,0.0,0.0,0.0
2.241210938,-0.0077173696,0.852155,0.5232326,-0.011252851,-0.523289,0.852081,0.9999069,6.879658E-4,0.013627588,-0.007877458,0.8540357,0.5201548,-0.011681394,-0.520214,0.85395604,0.9999007,6.508696E-4,0.01407429,10.047455,-0.01914978,0.16151428,9.8057375,0.00674664,0.13364099,-0.007675171,0.0039367676,-0.0025787354,-33.53882,-37.438965,60.479736,1,0.0,0.0,0.0,0.0
2.249511719,-0.007643719,0.85444015,0.5194935,-0.011323211,-0.5195493,0.85436535,0.99990666,6.4819393E-4,0.013646296,-0.0078711985,0.8539615,0.52027667,-0.011664441,-0.5203358,0.8538821,0.99990094,6.523386E-4,0.014056649,10.114456,-0.0382843,0.124420166,9.805735,0.0063566114,0.13382445,-0.0038604736,0.003326416,-0.0012207031,-33.1192,-37.139893,60.598755,1,0.0,0.0,0.0,0.0
2.2578125,-0.007616934,0.8544339,0.5195043,-0.011352015,-0.51955974,0.8543587,0.99990654,6.101729E-4,0.013656998,-0.007866634,0.85397106,0.52026105,-0.011657605,-0.5203201,0.85389173,0.99990106,6.522557E-4,0.014048425,10.114456,-0.0382843,0.124420166,9.805734,0.005983752,0.1339294,-0.0026397705,0.003326416,-0.0077819824,-33.1192,-37.139893,60.598755,1,0.0,0.0,0.0,0.0
2.266113282,-0.007618567,0.8553333,0.518022,-0.011421157,-0.5180777,0.85525733,0.99990577,5.9942505E-4,0.013715907,-0.007856801,0.8539893,0.5202312,-0.011645616,-0.52029014,0.85391015,0.9999013,6.505893E-4,0.0140330475,10.0785675,-0.037094116,0.16630554,9.805726,0.0058783516,0.1345071,-8.087158E-4,-7.9345703E-4,-0.011749268,-33.1192,-36.95984,60.539246,1,0.0,0.0,0.0,0.0
2.274414063,-0.0076977606,0.85535204,0.5179901,-0.011460248,-0.5180469,0.8552755,0.9999047,6.4741075E-4,0.013790346,-0.007847368,0.85404265,0.52014387,-0.011636787,-0.52020264,0.8539636,0.9999015,6.485632E-4,0.014020532,10.034302,-0.013153076,0.18066406,9.805716,0.0063489308,0.1352371,-0.0038604736,0.0054626465,-0.00579834,-33.1192,-36.95984,60.539246,1,0.0,0.0,0.0,0.0
2.282714844,-0.0076845186,0.85931474,0.5113894,-0.011570958,-0.51144665,0.8592371,0.9999035,6.855588E-4,0.013873316,-0.007844341,0.85406893,0.5201007,-0.011633225,-0.5201594,0.8539899,0.99990153,6.4854015E-4,0.014015883,10.034302,-0.013153076,0.18066406,9.805704,0.0067230356,0.13605076,-0.0015716553,4.272461E-4,-0.0064086914,-33.17871,-36.538696,60.899353,1,0.0,0.0,0.0,0.0
2.291015625,-0.0077402284,0.85932773,0.5113667,-0.011552122,-0.5114248,0.8592504,0.9999033,7.4342376E-4,0.013885604,-0.007837991,0.85427856,0.5197564,-0.011630839,-0.5198151,0.8541996,0.9999016,6.5000606E-4,0.014010281,10.017548,0.010772705,0.12802124,9.805702,0.007290497,0.13617127,-0.00630188,0.0013427734,-0.009918213,-33.17871,-36.538696,60.899353,1,0.0,0.0,0.0,0.0
2.299316407,-0.007752314,0.8606346,0.50916404,-0.0115977945,-0.5092225,0.86055684,0.99990267,7.661268E-4,0.013929116,-0.007834038,0.85448015,0.519425,-0.011627678,-0.5194836,0.8544013,0.9999017,6.537054E-4,0.0140052745,10.064209,-0.027511597,0.1603241,9.805696,0.0075131375,0.13659796,-0.004470825,2.746582E-4,-0.010375977,-32.939148,-36.538696,61.25946,1,0.0,0.0,0.0,0.0
2.307617188,-0.007801015,0.8606457,0.5091444,-0.01160421,-0.50920355,0.86056787,0.99990225,8.0508436E-4,0.013959419,-0.007832374,0.85460436,0.51922065,-0.01162706,-0.5192793,0.8545255,0.9999017,6.5595383E-4,0.014003726,10.064209,-0.027511597,0.1603241,9.805692,0.007895181,0.13689514,-0.0021820068,-9.460449E-4,-0.011291504,-32.939148,-36.538696,61.25946,1,0.0,0.0,0.0,0.0
2.315917969,-0.007767317,0.8631712,0.5048515,-0.011611459,-0.5049106,0.86309355,0.9999024,8.418581E-4,0.013944479,-0.007831024,0.8548458,0.518823,-0.011626008,-0.51888174,0.854767,0.9999017,6.618594E-4,0.014001818,10.107285,-0.028717041,0.13998413,9.805694,0.008255808,0.13674863,-0.008285522,-0.0055389404,-0.007019043,-32.759094,-36.299133,61.558533,1,0.0,0.0,0.0,0.0
2.32421875,-0.0077777095,0.8631736,0.50484735,-0.011532997,-0.5049064,0.86309695,0.9999032,8.9051534E-4,0.013881994,-0.007828456,0.8551798,0.51827246,-0.0116254175,-0.5183311,0.855101,0.9999018,6.6898734E-4,0.013999553,10.060623,-0.015548706,0.12802124,9.805701,0.008732973,0.13613586,-0.007675171,-0.007980347,-0.010528564,-32.759094,-36.299133,61.558533,1,0.0,0.0,0.0,0.0
2.332519532,-0.007758654,0.8639504,0.50351703,-0.011450759,-0.50357586,0.8638749,0.9999043,9.3685504E-4,0.013799961,-0.007827376,0.85534173,0.5180051,-0.01162353,-0.5180638,0.855263,0.9999018,6.734179E-4,0.013997169,10.060623,-0.015548706,0.12802124,9.805712,0.00918741,0.13533139,-0.0011138916,-0.007827759,-0.009765625,-32.57904,-36.239624,61.679077,1,0.0,0.0,0.0,0.0
2.340820313,-0.007819372,0.86396396,0.50349295,-0.011390931,-0.5035526,0.86388946,0.9999045,0.0010198195,0.013778819,-0.007823189,0.85585487,0.5171569,-0.011613477,-0.5172156,0.85577637,0.99990195,6.8891014E-4,0.013985726,10.037888,-0.0047912598,0.15672302,9.805714,0.010001013,0.13512406,-0.005996704,5.79834E-4,-0.006866455,-32.57904,-36.239624,61.679077,1,0.0,0.0,0.0,0.0
2.349121094,-0.0077932277,0.86615187,0.4997201,-0.011381066,-0.49977973,0.8660778,0.9999049,0.0010621935,0.01375263,-0.007823005,0.8560192,0.5168848,-0.011608971,-0.5169436,0.8559407,0.999902,6.955283E-4,0.013981555,10.015152,0.0023956299,0.13519287,9.805717,0.010416561,0.13486724,-0.005996704,-0.0027770996,-0.0064086914,-32.699585,-35.879517,61.679077,1,0.0,0.0,0.0,0.0
2.357421875,-0.0078257155,0.86615914,0.49970707,-0.011354962,-0.49976712,0.8660854,0.9999049,0.0011035831,0.013746239,-0.007822315,0.85622525,0.5165435,-0.011604423,-0.5166023,0.8561469,0.99990207,7.0286164E-4,0.013977025,10.015152,0.0023956299,0.13519287,9.805717,0.010822454,0.13480456,-0.011642456,0.0024108887,-0.005645752,-32.699585,-35.879517,61.679077,1,0.0,0.0,0.0,0.0
2.365722657,-0.007847362,0.8654384,0.5009541,-0.011364617,-0.50101435,0.86536443,0.9999046,0.0010976767,0.013767014,-0.007822248,0.8566249,0.51588047,-0.011594528,-0.5159393,0.8565467,0.9999022,7.187302E-4,0.013967966,10.066605,-0.033493042,0.14117432,9.805715,0.010764531,0.13500829,-0.0029449463,0.0066833496,-0.008544922,-32.63855,-35.998535,61.679077,1,0.0,0.0,0.0,0.0
2.374023438,-0.007869433,0.86544317,0.5009452,-0.011413631,-0.5010058,0.8653686,0.9999039,0.001092356,0.0138204815,-0.007823031,0.8569788,0.5152923,-0.011585318,-0.5153511,0.8569008,0.99990225,7.337365E-4,0.01395998,10.067795,-0.04307556,0.14596558,9.805708,0.0107123535,0.13553263,-0.0030975342,7.324219E-4,-0.008392334,-32.63855,-35.998535,61.679077,1,0.0,0.0,0.0,0.0
2.382324219,-0.007926395,0.8635866,0.5041383,-0.011413052,-0.5041994,0.86351186,0.99990344,0.0010907799,0.013852642,-0.007823845,0.8571504,0.5150068,-0.011581777,-0.51506567,0.8570724,0.9999023,7.4090884E-4,0.013957119,10.067795,-0.04307556,0.14596558,9.805703,0.010696897,0.13584802,-0.004623413,-0.0041656494,-0.006713867,-33.059692,-36.239624,61.558533,1,0.0,0.0,0.0,0.0
2.390625,-0.007893144,0.8635791,0.50415164,-0.011344807,-0.5042122,0.8635053,0.9999045,0.0010962682,0.013776957,-0.007827847,0.8574078,0.51457816,-0.011575083,-0.51463705,0.85733,0.99990237,7.547638E-4,0.013953066,10.051056,-0.025131226,0.105285645,9.805714,0.010750718,0.1351058,-0.0070648193,-0.010726929,-0.004272461,-33.059692,-36.239624,61.558533,1,0.0,0.0,0.0,0.0
2.398925782,-0.0078374045,0.863101,0.5049705,-0.011282593,-0.5050302,0.86302793,0.99990565,0.0010665228,0.013696143,-0.007830336,0.8576546,0.51416665,-0.011565954,-0.51422566,0.85757685,0.9999024,7.682874E-4,0.013946153,10.034302,-0.041870117,0.12083435,9.805725,0.010459016,0.13431329,-0.0043182373,0.0011901855,-0.009155273,-32.87964,-36.419678,61.738586,1,0.0,0.0,0.0,0.0
2.407226563,-0.007800425,0.86309266,0.50498533,-0.011246243,-0.5050445,0.86302006,0.99990636,0.0010527351,0.013646111,-0.007830407,0.85776436,0.5139834,-0.011560265,-0.51404244,0.8576868,0.99990255,7.742521E-4,0.013941146,10.034302,-0.041870117,0.12083435,9.805732,0.010323806,0.13382263,-0.00843811,-0.0014038086,-0.010986328,-32.87964,-36.419678,61.738586,1,0.0,0.0,0.0,0.0
2.415527344,-0.00785914,0.863406,0.5044485,-0.011258876,-0.5045085,0.86333334,0.99990577,0.0011055334,0.013685984,-0.007829766,0.85787183,0.5138041,-0.01155403,-0.5138631,0.8577944,0.9999026,7.7982177E-4,0.013935306,10.0295105,0.0011901855,0.17228699,9.805726,0.01084158,0.13421366,-0.0023345947,-0.0027770996,-0.0045776367,-32.699585,-36.299133,61.619568,1,0.0,0.0,0.0,0.0
2.423828125,-0.007932964,0.8634226,0.5044191,-0.011288895,-0.5044801,0.86334956,0.9999048,0.0011545864,0.013749109,-0.007831355,0.8582,0.5132557,-0.011536719,-0.51331484,0.8581228,0.9999028,7.989762E-4,0.0139207635,10.100098,0.0011901855,0.18664551,9.8057165,0.011322625,0.1348327,-0.0069122314,0.0031738281,-0.007019043,-32.699585,-36.299133,61.619568,1,0.0,0.0,0.0,0.0
2.432128907,-0.008036349,0.8625033,0.50598764,-0.01131712,-0.50605,0.8624298,0.9999036,0.0012044639,0.013827847,-0.007833316,0.8583054,0.51307946,-0.011531711,-0.51313865,0.85822827,0.99990284,8.0608844E-4,0.013917307,10.100098,0.0011901855,0.18664551,9.805705,0.011811756,0.13560486,-0.0037078857,-0.004623413,-0.008544922,-32.87964,-36.419678,61.558533,1,0.0,0.0,0.0,0.0
2.440429688,-0.00805463,0.86250734,0.5059804,-0.011330318,-0.50604296,0.86243373,0.9999033,0.0012136668,0.013848472,-0.007837337,0.85838985,0.5129381,-0.01152738,-0.51299727,0.85831285,0.99990284,8.1405585E-4,0.013915518,10.074982,-0.021530151,0.17228699,9.805702,0.011902005,0.13580713,-0.00340271,-0.010421753,-0.004425049,-32.87964,-36.419678,61.558533,1,0.0,0.0,0.0,0.0
2.448730469,-0.007976987,0.86400914,0.50341296,-0.011294929,-0.5034748,0.8639361,0.9999044,0.0012055938,0.013775133,-0.007845889,0.85855395,0.5126632,-0.011519522,-0.51272255,0.85847706,0.99990284,8.298804E-4,0.013912896,10.055832,-0.021530151,0.13998413,9.805713,0.011822837,0.1350879,-0.0069122314,-0.010269165,-0.0032043457,-32.759094,-36.239624,61.679077,1,0.0,0.0,0.0,0.0
2.45703125,-0.007929038,0.8639984,0.5034321,-0.011226292,-0.50349313,0.8639263,0.9999056,0.0011984294,0.013691714,-0.007851017,0.8587719,0.51229787,-0.01151063,-0.51235735,0.85869515,0.9999029,8.447587E-4,0.013907532,10.055832,-0.021530151,0.13998413,9.805724,0.0117525775,0.13426985,-0.008895874,-0.0030822754,-0.010223389,-32.759094,-36.239624,61.679077,1,0.0,0.0,0.0,0.0
2.465332032,-0.007885761,0.8656624,0.5005662,-0.011197854,-0.5006268,0.86559075,0.9999062,0.0012205747,0.013641383,-0.0078525245,0.85887736,0.5121211,-0.011504937,-0.5121806,0.8588007,0.99990296,8.518321E-4,0.013903241,10.031906,-0.0059814453,0.13160706,9.805731,0.01196975,0.13377628,-0.010116577,-0.0018615723,-0.01083374,-32.759094,-35.998535,61.738586,1,0.0,0.0,0.0,0.0
2.473632813,-0.007957431,0.8656783,0.5005374,-0.011140155,-0.5005989,0.86560756,0.99990624,0.0013119489,0.013627272,-0.007853655,0.85914904,0.5116652,-0.011492722,-0.51172477,0.85907257,0.99990314,8.664343E-4,0.01389287,10.041473,0.015548706,0.14117432,9.805731,0.012865824,0.13363789,-0.0053863525,-0.0024719238,-0.010986328,-32.759094,-35.998535,61.738586,1,0.0,0.0,0.0,0.0
2.481933594,-0.008041388,0.8632192,0.5047652,-0.011037854,-0.5048274,0.8631497,0.9999067,0.0013693975,0.013587601,-0.00785764,0.85941035,0.51122606,-0.0114788,-0.51128566,0.8593341,0.9999032,8.840767E-4,0.013882499,10.039093,-0.010772705,0.119644165,9.805736,0.013429202,0.13324885,-0.0041656494,-0.004928589,-0.0061035156,-32.51953,-36.299133,61.558533,1,0.0,0.0,0.0,0.0
2.490234375,-0.008042724,0.86321944,0.5047647,-0.011003193,-0.50482684,0.8631504,0.99990714,0.0013880582,0.013558355,-0.007861216,0.859487,0.51109713,-0.011469896,-0.5111568,0.85941094,0.9999033,8.937831E-4,0.01387654,10.066605,-0.020339966,0.13040161,9.805739,0.013612201,0.13296205,-0.004928589,-0.0017242432,-0.0033569336,-32.51953,-36.299133,61.558533,1,0.0,0.0,0.0,0.0
2.498535157,-0.007993687,0.8632086,0.50478417,-0.011021483,-0.5048457,0.8631393,0.9999073,0.001336195,0.013549416,-0.007868247,0.85963565,0.510847,-0.011451321,-0.51090676,0.8595599,0.9999035,9.1335643E-4,0.013863904,10.096512,-0.044265747,0.13400269,9.805741,0.013103597,0.13287438,-0.008743286,0.0025634766,-0.004425049,-32.51953,-36.299133,61.558533,1,0.0,0.0,0.0,0.0
2.506835938,-0.007856182,0.86779773,0.49685547,-0.011132435,-0.4969159,0.8677272,0.99990714,0.0012858122,0.013564564,-0.007873183,0.85977787,0.5106075,-0.011434405,-0.5106673,0.8597023,0.9999036,9.3010085E-4,0.013851627,10.096512,-0.044265747,0.13400269,9.805739,0.012609511,0.13302293,-0.009963989,0.0014953613,-0.0059509277,-32.218933,-35.639954,61.738586,1,0.0,0.0,0.0,0.0
2.515136719,-0.0078010783,0.869084,0.49460322,-0.011201771,-0.49466318,0.8690127,0.99990684,0.0012388031,0.013594183,-0.007872741,0.85994035,0.51033384,-0.01142836,-0.5103937,0.8598649,0.99990374,9.3721505E-4,0.013845906,10.066605,-0.04547119,0.15074158,9.805737,0.01214851,0.1333134,-0.006149292,-0.002166748,6.2561035E-4,-32.218933,-35.4599,61.79962,1,0.0,0.0,0.0,0.0
2.5234375,-0.007772982,0.86907786,0.49461427,-0.011253683,-0.4946739,0.8690058,0.9999064,0.0011885336,0.013625418,-0.007869671,0.86030793,0.5097138,-0.011419329,-0.50977373,0.86023265,0.9999038,9.491579E-4,0.013835892,10.036697,-0.029907227,0.16870117,9.805733,0.011655534,0.13361971,-0.009506226,0.0066833496,-0.00579834,-32.218933,-35.4599,61.79962,1,0.0,0.0,0.0,0.0
2.531738282,-0.0077990717,0.8704176,0.4922524,-0.011314338,-0.4923127,0.8703449,0.9999056,0.0012183718,0.01368778,-0.00786562,0.8606603,0.50911874,-0.011412661,-0.5091786,0.8605852,0.9999039,9.5863716E-4,0.013827429,10.04866,-0.0023956299,0.16390991,9.805724,0.011948146,0.13423127,-0.0026397705,0.0025634766,-0.007019043,-32.099915,-35.339355,61.979675,1,0.0,0.0,0.0,0.0
2.540039063,-0.007837099,0.87042576,0.4922374,-0.0113171935,-0.49229822,0.8703531,0.9999053,0.0012502972,0.013708966,-0.00786425,0.8608586,0.5087834,-0.01141072,-0.50884324,0.8607836,0.999904,9.6383184E-4,0.013824687,10.064209,-0.007171631,0.13877869,9.805721,0.012261228,0.13443904,-0.0027923584,-3.0517578E-5,-0.0048828125,-32.099915,-35.339355,61.979675,1,0.0,0.0,0.0,0.0
2.548339844,-0.00785572,0.87042975,0.49223003,-0.011310703,-0.4922911,0.87035716,0.99990517,0.0012698141,0.013712471,-0.007863013,0.86124367,0.5081313,-0.011406904,-0.5081912,0.8611687,0.99990404,9.7517594E-4,0.013820039,10.095322,-0.041870117,0.14596558,9.80572,0.012452623,0.13447341,-4.5776367E-5,-0.0012512207,-0.005340576,-32.099915,-35.339355,61.979675,1,0.0,0.0,0.0,0.0
2.556640625,-0.0078238165,0.86986065,0.49323553,-0.011290027,-0.493296,0.8697882,0.99990565,0.0012364219,0.013680207,-0.007862593,0.8616129,0.50750506,-0.011402998,-0.507565,0.86153805,0.9999041,9.868436E-4,0.013815748,10.079758,-0.041870117,0.13040161,9.805725,0.012125157,0.134157,-0.004776001,-0.003692627,-0.008392334,-32.159424,-35.398865,61.91864,1,0.0,0.0,0.0,0.0
2.564941407,-0.0077934805,0.86896837,0.49480632,-0.011263245,-0.4948662,0.8688961,0.9999061,0.0011986006,0.013644134,-0.007861807,0.8617801,0.50722116,-0.0114007965,-0.5072811,0.86170524,0.9999041,9.918351E-4,0.013813125,10.079758,-0.051452637,0.13998413,9.80573,0.011754258,0.13380325,-0.0038604736,-0.007980347,-0.00579834,-31.97937,-35.339355,61.558533,1,0.0,0.0,0.0,0.0
2.573242188,-0.0077256816,0.8689537,0.49483308,-0.011232041,-0.494892,0.8688818,0.999907,0.001154719,0.013583502,-0.007859066,0.86206806,0.5067316,-0.011395459,-0.5067916,0.8619933,0.9999042,0.001000023,0.013806569,10.079758,-0.051452637,0.13998413,9.805738,0.011323926,0.13320865,-0.009811401,-0.011184692,-0.00289917,-31.97937,-35.339355,61.558533,1,0.0,0.0,0.0,0.0
2.581542969,-0.007681458,0.8689441,0.49485058,-0.0111116925,-0.4949088,0.8688739,0.99990875,0.0011755901,0.013457061,-0.007856307,0.8622073,0.5064947,-0.011392146,-0.5065546,0.8621326,0.9999043,0.001003117,0.01380204,10.047455,-0.0023956299,0.1040802,9.805756,0.011528601,0.13196869,-0.009811401,-0.008895874,-0.008087158,-31.97937,-35.339355,61.558533,1,0.0,0.0,0.0,0.0
2.58984375,-0.007788688,0.8670339,0.49818832,-0.011109873,-0.4982477,0.8669635,0.9999079,0.0012177,0.013513331,-0.007849188,0.86247706,0.5060352,-0.0113810515,-0.50609505,0.86240256,0.9999044,0.0010099469,0.013788331,10.017548,-0.0011901855,0.18185425,9.805747,0.011941558,0.13252051,-0.010726929,0.011108398,-0.009307861,-31.858826,-35.51941,61.31897,1,0.0,0.0,0.0,0.0
2.598144532,-0.0078508975,0.86704737,0.49816382,-0.011171807,-0.49822417,0.8669763,0.99990684,0.0012411531,0.013597993,-0.0078467075,0.86265886,0.5057253,-0.011370353,-0.5057851,0.8625846,0.9999046,0.0010181739,0.013777484,10.055832,-0.021530151,0.16749573,9.805737,0.012171554,0.13335076,-0.0029449463,0.001953125,-0.0064086914,-31.858826,-35.51941,61.31897,1,0.0,0.0,0.0,0.0
2.606445313,-0.007929098,0.86459357,0.50240934,-0.011228543,-0.5024704,0.86452144,0.99990547,0.001213551,0.013692263,-0.00784676,0.8627472,0.5055745,-0.011366384,-0.50563437,0.8626729,0.9999046,0.0010226334,0.013773908,10.066605,-0.055038452,0.18544006,9.805723,0.01190087,0.13427523,-0.003250122,0.0053100586,-0.0077819824,-31.739807,-35.81848,61.138916,1,0.0,0.0,0.0,0.0
2.614746094,-0.008006574,0.8620457,0.5067673,-0.011272096,-0.5068291,0.8619728,0.9999044,0.0011891198,0.013775026,-0.007850069,0.8628205,0.5054495,-0.011361027,-0.5055093,0.8627463,0.99990463,0.0010301936,0.013770809,10.092926,-0.0765686,0.14237976,9.805713,0.011661282,0.13508686,-0.0066070557,-0.0024719238,-0.00793457,-32.099915,-36.239624,61.138916,1,0.0,0.0,0.0,0.0
2.623046875,-0.008031883,0.8620513,0.5067573,-0.011301408,-0.50681955,0.86197805,0.9999039,0.0011962363,0.013813109,-0.007856183,0.86279,0.5055014,-0.011357371,-0.50556135,0.86271584,0.99990463,0.001036487,0.013770809,10.067795,-0.041870117,0.16870117,9.805708,0.011731071,0.13546033,-8.087158E-4,-0.0027770996,-0.009613037,-32.099915,-36.239624,61.138916,1,0.0,0.0,0.0,0.0
2.631347657,-0.008056698,0.86205685,0.50674754,-0.011330174,-0.5068101,0.86198324,0.9999033,0.0012032002,0.013850471,-0.007859694,0.8627752,0.50552666,-0.011356246,-0.5055866,0.86270106,0.99990463,0.0010396821,0.013771644,10.067795,-0.041870117,0.16870117,9.805702,0.011799363,0.13582672,-0.0043182373,0.0018005371,-0.009460449,-32.099915,-36.239624,61.138916,1,0.0,0.0,0.0,0.0
2.639648438,-0.008133422,0.8611364,0.5083088,-0.011354017,-0.50837237,0.86106235,0.9999024,0.0012320363,0.013912166,-0.007867486,0.8627467,0.50557506,-0.011355203,-0.5056352,0.8626726,0.9999046,0.0010461573,0.013774742,10.041473,-0.01914978,0.18544006,9.805694,0.012082149,0.13643174,-0.0030975342,-3.3569336E-4,-0.009155273,-32.27997,-36.358643,61.079407,1,0.0,0.0,0.0,0.0
2.647949219,-0.008190341,0.8611492,0.5082864,-0.011358151,-0.5083508,0.8610752,0.99990195,0.001279307,0.013944628,-0.007878099,0.86268306,0.50568354,-0.011355323,-0.5057438,0.86260897,0.9999045,0.0010535182,0.013780345,10.023529,-0.0035858154,0.16151428,9.805689,0.012545716,0.13675009,-0.001876831,2.746582E-4,-0.008544922,-32.27997,-36.358643,61.079407,1,0.0,0.0,0.0,0.0
2.65625,-0.0082459785,0.8606553,0.5091213,-0.011331427,-0.5091863,0.86058176,0.9999018,0.0013272677,0.013951192,-0.007884368,0.8626524,0.5057357,-0.011355441,-0.505796,0.86257833,0.99990445,0.0010580339,0.013783682,10.04985,-0.010772705,0.14117432,9.805687,0.013016051,0.13681446,-0.008285522,1.2207031E-4,-0.012817383,-32.27997,-36.299133,60.839844,1,0.0,0.0,0.0,0.0
