Time,Rot1,Rot2,Rot3,Rot4,Rot5,Rot6,Rot7,Rot8,Rot9,FRot1,FRot2,FRot3,FRot4,FRot5,FRot6,FRot7,FRot8,FRot9,AccX,AccY,AccZ,GravX,GravY,GravZ,GyroX,GyroY,GyroZ,MagX,MagY,MagZ,Imid
0.0,-0.020024976,0.9924283,-0.12118244,-0.017007897,0.12085106,0.992525,0.99965477,0.021936344,0.014459077,1.0,0.0,0.0,0.0,1.0,0.0,0.0,0.0,1.0,10.120438,0.20698547,0.1531372,9.803265,0.21512206,0.14179511,0.0,0.0,0.0,-35.51941,3.239441,32.398987,0,0.0,0.0,0.0,0.0
0.008300781,-0.020016957,0.99242944,-0.12117376,-0.016979698,0.12084312,0.99252635,0.9996554,0.021924851,0.014432241,0.9990951,0.028988305,-0.031121245,-0.028987916,0.9995796,4.6379812E-4,0.031121608,4.3876166E-4,0.9995155,10.120438,0.20698547,0.1531372,9.803271,0.21500935,0.14153194,0.005218506,-0.0059051514,0.001953125,-35.51941,3.239441,32.398987,0,0.0,0.0,0.0,0.0
0.016601562,-0.020044629,0.9924252,-0.12120367,-0.0169077,0.12087421,0.99252385,0.99965614,0.021944046,0.01435675,0.9921881,0.08514619,-0.09117553,-0.08490732,0.99636763,0.0065025887,0.091398016,0.0012896793,0.9958136,10.136002,0.2416687,0.13998413,9.803278,0.2151976,0.14079162,-7.324219E-4,-0.010498047,0.0037841797,-35.51941,3.239441,32.398987,0,0.0,0.0,0.0,0.0
0.024902344,-0.020040164,0.9922089,-0.122962795,-0.016852278,0.12263479,0.99230874,0.9996571,0.021958234,0.01426336,0.97922134,0.13882741,-0.14782622,-0.13758941,0.99031436,0.01861853,0.14897919,0.0021076598,0.9888381,10.124039,0.22492981,0.14955139,9.8032875,0.21533671,0.13987578,0.0033874512,-0.008666992,0.003479004,-35.4599,3.2989502,32.398987,0,0.0,0.0,0.0,0.0
0.033203125,-0.020036746,0.99220943,-0.12295911,-0.016794555,0.12263242,0.99231005,0.99965817,0.021947706,0.014206561,0.9707438,0.16469415,-0.17473517,-0.16253854,0.9863415,0.026676964,0.1767421,0.0025047052,0.984254,10.124039,0.22492981,0.14955139,9.803298,0.21523347,0.13931878,0.0014038086,-5.645752E-4,0.0013427734,-35.4599,3.2989502,32.398987,0,0.0,0.0,0.0,0.0
0.041503906,-0.019906558,0.9913297,-0.12988092,-0.016939282,0.1295536,0.9914277,0.99965835,0.021936005,0.014213447,0.95032066,0.21454832,-0.2255208,-0.20952378,0.9767079,0.04627623,0.23019643,0.0032747136,0.97313863,10.137192,0.23449707,0.110076904,9.8033,0.21511874,0.13938631,0.0010986328,0.0030975342,0.001953125,-35.398865,3.479004,31.97937,0,0.0,0.0,0.0,0.0
0.049804687,-0.019970456,0.9918003,-0.12622729,-0.016914673,0.12589926,0.99189883,0.9996575,0.021943765,0.014261713,0.92601144,0.261642,-0.27211446,-0.25219837,0.9651567,0.06977566,0.28088933,0.0040137647,0.95973176,10.133606,0.2368927,0.13998413,9.803291,0.21519482,0.13985963,0.00491333,0.014862061,0.0039367676,-35.639954,3.3599854,32.03888,0,0.0,0.0,0.0,0.0
0.058105469,-0.019965487,0.9918011,-0.12622182,-0.017004898,0.12589185,0.9918982,0.999656,0.02195012,0.0143519845,0.91259766,0.2843406,-0.2937958,-0.27205527,0.9587134,0.08279257,0.30520725,0.004372396,0.95227593,10.133606,0.2368927,0.13998413,9.803277,0.21525715,0.1407449,0.002319336,0.014404297,-6.5612793E-4,-35.639954,3.3599854,32.03888,0,0.0,0.0,0.0,0.0
0.06640625,-0.01993534,0.9918059,-0.12618881,-0.01713935,0.12585634,0.99190044,0.99965435,0.021936666,0.014489919,0.8837225,0.32792196,-0.3339188,-0.30864605,0.9446912,0.11088797,0.35181278,0.0050685345,0.9360567,10.126419,0.23928833,0.16151428,9.803261,0.21512522,0.14209756,-0.0016479492,0.014862061,0.0022583008,-35.639954,3.3599854,32.03888,0,0.0,0.0,0.0,0.0
0.074707031,-0.019724919,0.9903,-0.13753873,-0.017501527,0.13720241,0.9903884,0.9996522,0.021942468,0.014625454,0.852653,0.36913252,-0.3697619,-0.34110853,0.929359,0.14119738,0.39576215,0.0057365703,0.91833514,10.126419,0.23928833,0.16151428,9.80324,0.21518211,0.14342672,4.8828125E-4,0.009353638,0.0042419434,-35.879517,3.718567,31.91986,0,0.0,0.0,0.0,0.0
0.083007812,-0.01967938,0.99030787,-0.13748845,-0.017627912,0.13715003,0.99039346,0.99965096,0.021913962,0.014758032,0.83656245,0.38865846,-0.38614503,-0.3556289,0.921362,0.15690832,0.41676307,0.006060717,0.908995,10.128815,0.22253418,0.15911865,9.803226,0.21490255,0.14472684,0.0055236816,0.024627686,0.0028686523,-35.879517,3.718567,31.91986,0,0.0,0.0,0.0,0.0
0.091308594,-0.019737383,0.9907763,-0.13406208,-0.01771307,0.13372064,0.99086064,0.9996483,0.02193165,0.014910396,0.80345106,0.42604673,-0.4158732,-0.38175362,0.90467644,0.18927419,0.45687035,0.006688561,0.8895081,10.119247,0.2524414,0.15194702,9.803201,0.21507603,0.14622104,0.010101318,0.0121154785,0.0014953613,-36.11908,3.5995483,31.91986,0,0.0,0.0,0.0,0.0
0.099609375,-0.019711912,0.99075395,-0.13423201,-0.017829895,0.1338884,0.9908361,0.99964666,0.021924613,0.015025841,0.7349762,0.4946851,-0.46378508,-0.42317286,0.8690366,0.2563202,0.529844,0.007872011,0.8480586,10.124039,0.2416687,0.15911865,9.803185,0.215007,0.14735317,0.003692627,0.0056915283,0.007446289,-36.239624,3.5385132,31.439209,0,0.0,0.0,0.0,0.0
0.107910156,-0.019681206,0.99075913,-0.13419719,-0.017882403,0.13385288,0.9908398,0.9996463,0.021900691,0.015082769,0.7349762,0.4946851,-0.46378508,-0.42317286,0.8690366,0.2563202,0.529844,0.007872011,0.8480586,10.124039,0.2416687,0.15911865,9.803182,0.21477242,0.14791144,0.003692627,0.0056915283,0.007446289,-36.239624,3.5385132,31.439209,0,0.0,0.0,0.0,0.0
0.116210937,-0.019649131,0.9907648,-0.13416086,-0.017968625,0.13381515,0.9908434,0.9996454,0.021879895,0.015173327,0.71769726,0.5105727,-0.47352532,-0.43137357,0.8597959,0.27325407,0.5466512,0.008152608,0.83732074,10.122833,0.24645996,0.18664551,9.803173,0.21456848,0.14879951,0.0024719238,3.5095215E-4,0.0057678223,-36.239624,3.5385132,31.439209,0,0.0,0.0,0.0,0.0
0.124511719,-0.019776331,0.9917445,-0.12669583,-0.017862393,0.12634991,0.9918249,0.9996448,0.021877749,0.01521619,0.6832312,0.5409051,-0.49052712,-0.44539592,0.8410387,0.30704468,0.5786343,0.008696253,0.8155408,10.128815,0.24885559,0.16749573,9.803167,0.21454743,0.14921986,0.002319336,1.9836426E-4,-3.3569336E-4,-36.358643,3.2989502,31.498718,0,0.0,0.0,0.0,0.0
0.1328125,-0.019794174,0.9917415,-0.1267161,-0.017886806,0.12636939,0.9918219,0.99964404,0.021898843,0.015237712,0.6660445,0.55549747,-0.4978025,-0.45137742,0.83146995,0.32390764,0.5938377,0.008959905,0.80453503,10.128815,0.24885559,0.16749573,9.80316,0.2147543,0.14943092,0.002166748,-0.0031585693,0.0037841797,-36.358643,3.2989502,31.498718,0,0.0,0.0,0.0,0.0
0.141113281,-0.019837182,0.9919441,-0.12511417,-0.017852886,0.1247674,0.99202543,0.9996438,0.021912636,0.015234028,0.6320478,0.58332515,-0.5101445,-0.46121117,0.8121835,0.35727045,0.62273574,0.009472329,0.78237486,10.1276245,0.24406433,0.15911865,9.803157,0.21488956,0.14939478,-0.0016479492,-0.0010223389,0.0018005371,-36.358643,3.2989502,31.91986,0,0.0,0.0,0.0,0.0
0.149414062,-0.019811908,0.9917196,-0.12688461,-0.01786345,0.12653813,0.9918008,0.99964404,0.021916064,0.015208573,0.5986908,0.609472,-0.51972413,-0.4684478,0.792745,0.39001542,0.6497122,0.009965005,0.76011497,10.13002,0.22970581,0.15672302,9.80316,0.21492317,0.14914516,-0.0051727295,-0.0040740967,0.005004883,-36.239624,3.3599854,31.91986,0,0.0,0.0,0.0,0.0
0.157714844,-0.0197935,0.99172264,-0.12686403,-0.017823914,0.12651873,0.9918041,0.99964523,0.021892486,0.0151721295,0.5823339,0.6218951,-0.52357775,-0.47113007,0.7830341,0.40607148,0.66251314,0.010204046,0.7489808,10.13002,0.22970581,0.15672302,9.803171,0.21469195,0.14878777,0.0068969727,-8.69751E-4,0.0037841797,-36.239624,3.3599854,31.91986,0,0.0,0.0,0.0,0.0
0.166015625,-0.0197934,0.9917227,-0.12686394,-0.017766377,0.12651987,0.991805,0.9996462,0.021885103,0.015115059,0.55031663,0.64555717,-0.5295352,-0.4748156,0.7636374,0.43750203,0.6868054,0.010666945,0.726763,10.1324005,0.23449707,0.114852905,9.803181,0.21461955,0.1482281,0.008728027,0.00340271,0.0011901855,-36.239624,3.3599854,31.91986,0,0.0,0.0,0.0,0.0
0.174316406,-0.01974478,0.99132156,-0.12996867,-0.017817603,0.12962449,0.99140316,0.9996463,0.021890765,0.0151035655,0.5346848,0.65681803,-0.5316975,-0.4758758,0.75397044,0.45284745,0.6983226,0.010891326,0.7157003,10.1324005,0.23449707,0.114852905,9.803182,0.21467508,0.14811538,0.0043029785,0.010894775,0.0018005371,-35.998535,3.5385132,32.458496,0,0.0,0.0,0.0,0.0
0.182617187,-0.019741356,0.9913221,-0.12996493,-0.01786588,0.12961973,0.9914029,0.99964553,0.021893576,0.015151969,0.48951975,0.68831545,-0.5353431,-0.4761662,0.72531974,0.49716908,0.7305041,0.01153823,0.68281084,10.11087,0.22732544,0.14596558,9.803174,0.21470264,0.14859006,-0.004852295,0.012878418,0.0024108887,-35.998535,3.5385132,32.458496,0,0.0,0.0,0.0,0.0
0.190917969,-0.019508783,0.9897633,-0.14137927,-0.018179126,0.14103164,0.9898382,0.99964434,0.021880686,0.015241674,0.47503942,0.6981364,-0.53567076,-0.47542188,0.7158685,0.511377,0.74048066,0.011745352,0.671975,10.11087,0.22732544,0.14596558,9.803163,0.21457623,0.14946976,-0.004852295,0.012420654,-9.613037E-4,-35.639954,3.9596558,32.63855,0,0.0,0.0,0.0,0.0
0.19921875,-0.019492604,0.9897661,-0.14136194,-0.018257871,0.14101283,0.98983943,0.99964327,0.021875514,0.015322314,0.46096697,0.70747215,-0.5357169,-0.47419262,0.7066402,0.5251676,0.7501005,0.011948074,0.66121584,10.11087,0.22732544,0.14596558,9.803152,0.21452552,0.15026057,0.008728027,0.0069122314,0.0040893555,-35.639954,3.9596558,32.63855,0,0.0,0.0,0.0,0.0
0.207519531,-0.019524299,0.99016905,-0.13850659,-0.018275732,0.1381564,0.99024177,0.9996423,0.021865083,0.015398657,0.433723,0.7252384,-0.53470886,-0.47071558,0.68838716,0.5518604,0.76831704,0.012341229,0.6399504,10.125229,0.23568726,0.15074158,9.803143,0.21442322,0.15100925,6.4086914E-4,0.011642456,0.0056152344,-35.099792,3.8986206,32.818604,0,0.0,0.0,0.0,0.0
0.215820312,-0.01946908,0.99017817,-0.13844861,-0.018346049,0.13809773,0.9902486,0.99964213,0.021819215,0.015477224,0.40764207,0.74193454,-0.5323167,-0.46606994,0.6703516,0.57741445,0.7852431,0.012718401,0.61905694,10.13002,0.23808289,0.16749573,9.803141,0.21397342,0.15177973,0.0073547363,0.006454468,-9.613037E-4,-35.099792,3.8986206,32.818604,0,0.0,0.0,0.0,0.0
0.224121094,-0.019352425,0.98931277,-0.1445185,-0.01854771,0.14416546,0.98937964,0.99964064,0.021827389,0.015559537,0.38278592,0.75754905,-0.5287669,-0.46036315,0.6526472,0.6017619,0.8009624,0.013078818,0.59857184,10.13002,0.23808289,0.16749573,9.803126,0.21405356,0.15258694,-0.0037994385,0.007369995,0.0037841797,-34.799194,4.1397095,32.998657,0,0.0,0.0,0.0,0.0
0.232421875,-0.019344052,0.9893143,-0.14450985,-0.018600546,0.14415579,0.9893803,0.99963987,0.021826582,0.015613227,0.37087175,0.7648922,-0.526682,-0.4571137,0.64402187,0.613419,0.80839413,0.013253801,0.5884922,10.115662,0.22612,0.1603241,9.803119,0.21404566,0.15311345,7.9345703E-4,0.0029449463,5.79834E-4,-34.799194,4.1397095,32.998657,0,0.0,0.0,0.0,0.0
0.240722656,-0.019299781,0.98893195,-0.14710887,-0.018704088,0.14675339,0.98899615,0.99963874,0.021838948,0.015664764,0.34794384,0.7788602,-0.52183515,-0.45001087,0.6270503,0.63584447,0.8224508,0.013593305,0.5686738,10.1276245,0.22372437,0.20219421,9.803107,0.21416692,0.15361886,0.007507324,-0.0019378662,0.0025634766,-34.67865,4.258728,33.17871,0,0.0,0.0,0.0,0.0
0.249023437,-0.019280788,0.9889353,-0.14708945,-0.01875952,0.14673308,0.9889983,0.99963814,0.021827994,0.01572282,0.3369481,0.7854676,-0.51914024,-0.44617173,0.6187498,0.64659065,0.82909393,0.013758229,0.55894,10.1276245,0.22372437,0.20219421,9.803102,0.2140595,0.1541882,0.0038452148,-0.010650635,0.0028686523,-34.67865,4.258728,33.17871,0,0.0,0.0,0.0,0.0
0.257324219,-0.019338803,0.9895477,-0.14290349,-0.018585281,0.14254974,0.98961323,0.9996403,0.021793833,0.01563428,0.31582755,0.79803616,-0.51321656,-0.4380324,0.60244507,0.66722375,0.84165347,0.0140778115,0.53983444,10.1324005,0.20817566,0.14476013,9.8031225,0.2137245,0.15331991,0.0030822754,-0.008666992,-0.002319336,-34.67865,4.1397095,33.358765,0,0.0,0.0,0.0,0.0
0.265625,-0.019327544,0.98954964,-0.142892,-0.018478584,0.14254074,0.9896165,0.99964243,0.021767296,0.01553051,0.29576793,0.80988663,-0.50656193,-0.42941263,0.58641005,0.6868246,0.8533031,0.014383385,0.5212168,10.137192,0.24287415,0.14237976,9.8031435,0.21346426,0.15230228,0.003540039,-0.0068359375,0.0030212402,-34.67865,4.1397095,33.358765,0,0.0,0.0,0.0,0.0
0.273925781,-0.019279663,0.9889354,-0.14708829,-0.018476062,0.14673811,0.98900276,0.9996434,0.021785256,0.015442571,0.28615382,0.8155191,-0.5030354,-0.42493168,0.5785478,0.69621515,0.8588068,0.014531073,0.51209354,10.137192,0.24287415,0.14237976,9.803153,0.21364038,0.15143989,0.00491333,-0.006515503,0.0010375977,-34.67865,4.258728,33.17871,0,0.0,0.0,0.0,0.0
0.282226562,-0.01928685,0.9889343,-0.14709565,-0.018387962,0.14674728,0.98900306,0.9996448,0.021779543,0.015354192,0.26780212,0.82613534,-0.4957645,-0.41564116,0.5632768,0.714116,0.8692091,0.014818355,0.49422258,10.092926,0.23091125,0.1483612,9.803167,0.21358436,0.1505732,0.0027770996,-0.016143799,0.008361816,-34.67865,4.258728,33.17871,0,0.0,0.0,0.0,0.0
0.290527344,-0.019233614,0.9885393,-0.14973378,-0.018323949,0.1493878,0.9886089,0.9996471,0.021758232,0.015240676,0.25048804,0.83606184,-0.4881151,-0.4060498,0.5484276,0.730993,0.8788511,0.015094035,0.47685727,10.133606,0.22253418,0.17228699,9.803189,0.21337537,0.14945997,0.0010986328,-0.01751709,0.0013427734,-34.61914,4.3792725,33.358765,0,0.0,0.0,0.0,0.0
0.298828125,-0.019214598,0.98854256,-0.14971448,-0.018208135,0.14937131,0.9886134,0.9996495,0.021721832,0.015129407,0.24222817,0.8407518,-0.48421267,-0.40115118,0.54120654,0.73903525,0.8834044,0.015227326,0.4683641,10.133606,0.22253418,0.17228699,9.803213,0.21301842,0.1483688,0.0072021484,-0.015380859,0.0030212402,-34.61914,4.3792725,33.358765,0,0.0,0.0,0.0,0.0
0.307128906,-0.019335942,0.98928624,-0.14470275,-0.017986853,0.14436218,0.98936146,0.99965125,0.021732982,0.015002767,0.22643033,0.8496744,-0.47621706,-0.39122,0.5270803,0.7544092,0.8920069,0.015484522,0.45175663,10.108475,0.2416687,0.13877869,9.80323,0.21312776,0.14712688,0.0024719238,-0.006668091,7.324219E-4,-34.799194,4.1992188,33.358765,0,0.0,0.0,0.0,0.0
0.315429687,-0.019353492,0.9892832,-0.14472067,-0.017922193,0.14438124,0.98935974,0.999652,0.021741278,0.014935845,0.21148132,0.8581231,-0.46786788,-0.38120487,0.51320285,0.76896405,0.89997697,0.015731974,0.43565354,10.114456,0.23449707,0.15194702,9.803238,0.21320912,0.1464706,0.0056762695,-0.0084991455,-0.0012664795,-34.799194,4.1992188,33.358765,0,0.0,0.0,0.0,0.0
0.323730469,-0.01941903,0.9895614,-0.14279747,-0.01782873,0.14245895,0.9896401,0.99965245,0.021763748,0.014876209,0.20434308,0.8621395,-0.46363708,-0.37616482,0.5064229,0.7759097,0.9037389,0.015852166,0.42779055,10.114456,0.23449707,0.15194702,9.803242,0.21342947,0.14588578,0.0030822754,-0.006515503,-7.9345703E-4,-34.799194,4.1397095,33.4198,0,0.0,0.0,0.0,0.0
0.33203125,-0.01945624,0.98955524,-0.14283547,-0.017742997,0.14249827,0.989636,0.9996532,0.021788921,0.014785195,0.19068284,0.8698178,-0.4550352,-0.36606663,0.49311078,0.78920025,0.91084313,0.016086275,0.41243902,10.1324005,0.2368927,0.12083435,9.803249,0.21367633,0.14499323,0.008117676,0.0017242432,0.0013427734,-34.799194,4.1397095,33.4198,0,0.0,0.0,0.0,0.0
0.340332031,-0.01949601,0.9898993,-0.14042538,-0.017670145,0.140089,0.9899813,0.9996538,0.021782022,0.014760489,0.17172797,0.8804115,-0.44202378,-0.3509152,0.47392604,0.8076216,0.9205259,0.016421653,0.39033616,10.112076,0.21296692,0.14715576,9.803255,0.21360867,0.14475095,0.009033203,0.0014190674,0.0030212402,-34.91974,4.0786743,33.599854,0,0.0,0.0,0.0,0.0
0.348632812,-0.019492934,0.9898999,-0.14042225,-0.017652104,0.14008631,0.98998207,0.9996542,0.021776399,0.0147431195,0.17172797,0.8804115,-0.44202378,-0.3509152,0.47392604,0.8076216,0.9205259,0.016421653,0.39033616,10.112076,0.21296692,0.14715576,9.803259,0.21355353,0.14458062,0.009033203,0.0014190674,0.0030212402,-34.91974,4.0786743,33.599854,0,0.0,0.0,0.0,0.0
0.356933594,-0.019442404,0.98958856,-0.14260589,-0.017689424,0.14227004,0.98966974,0.9996545,0.021764176,0.01473918,0.1600207,0.8869514,-0.43325576,-0.34088472,0.4615631,0.81899756,0.926386,0.016633712,0.37620783,10.119247,0.21534729,0.1531372,9.803262,0.21343365,0.14454198,-0.0010375977,0.0040130615,0.0030212402,-34.858704,4.1397095,33.47931,0,0.0,0.0,0.0,0.0
0.365234375,-0.019435696,0.9895898,-0.14259905,-0.017712433,0.1422628,0.9896705,0.9996542,0.021760708,0.014763062,0.14906693,0.8930296,-0.42459065,-0.33092198,0.4496829,0.82962394,0.9318099,0.016836887,0.36255595,10.119247,0.23210144,0.1531372,9.803259,0.21339965,0.14477618,0.0026245117,-0.0016326904,0.008514404,-34.858704,4.1397095,33.47931,0,0.0,0.0,0.0,0.0
0.373535156,-0.019464755,0.9900134,-0.13962318,-0.017667852,0.13928722,0.99009436,0.99965435,0.021738784,0.014780217,0.14384796,0.89592063,-0.4202785,-0.32598126,0.4438913,0.8346836,0.93436825,0.016935367,0.35590616,10.119247,0.23210144,0.1531372,9.803261,0.21318465,0.14494441,-5.79834E-4,-0.0027008057,2.746582E-4,-34.858704,4.0786743,33.779907,0,0.0,0.0,0.0,0.0
0.381835937,-0.019446233,0.99001634,-0.13960443,-0.017641176,0.13926934,0.99009734,0.99965525,0.021716451,0.014756789,0.13386431,0.90147454,-0.41161147,-0.31621206,0.4324932,0.84436935,0.93919665,0.017125593,0.34295252,10.116852,0.22372437,0.14117432,9.803269,0.21296564,0.14471467,0.0056762695,9.613037E-4,2.746582E-4,-34.858704,4.0786743,33.779907,0,0.0,0.0,0.0,0.0
0.390136719,-0.019224372,0.98807245,-0.15278506,-0.017920593,0.15244822,0.988149,0.9996546,0.021734541,0.014776123,0.124507084,0.9066723,-0.40304255,-0.30658484,0.42148045,0.8534401,0.943665,0.017307399,0.33044928,10.122833,0.22612,0.16390991,9.803263,0.21314304,0.14490427,0.0027770996,-8.69751E-4,0.0011901855,-34.799194,4.499817,33.47931,0,0.0,0.0,0.0,0.0
0.3984375,-0.01922349,0.98807263,-0.15278415,-0.01793752,0.15244696,0.98814887,0.9996543,0.021736236,0.0147930095,0.12013195,0.9090342,-0.39903027,-0.3017993,0.41635826,0.8576497,0.9457724,0.017395945,0.32436383,10.122833,0.22612,0.16390991,9.80326,0.21315967,0.14506987,0.0032348633,-0.003921509,0.0042419434,-34.799194,4.499817,33.47931,0,0.0,0.0,0.0,0.0
0.406738281,-0.01939093,0.9895291,-0.14302543,-0.017760584,0.14268884,0.9896082,0.9996542,0.021729637,0.014807744,0.11179374,0.91353446,-0.391097,-0.2923667,0.40638167,0.86566484,0.9497494,0.017567826,0.31251803,10.119247,0.22372437,0.16749573,9.803259,0.21309495,0.14521436,0.006286621,0.0030975342,0.0024108887,-34.799194,4.1397095,33.358765,0,0.0,0.0,0.0,0.0
0.415039062,-0.019370995,0.98953235,-0.14300506,-0.017791716,0.14266808,0.9896107,0.99965405,0.021714048,0.014841856,0.10386683,0.91790855,-0.38295633,-0.28316933,0.39639553,0.8733188,0.9534289,0.017732637,0.3010959,10.11087,0.21894836,0.16870117,9.803258,0.21294208,0.1455489,3.3569336E-4,0.001876831,0.003326416,-34.799194,4.1397095,33.358765,0,0.0,0.0,0.0,0.0
0.423339844,-0.019443527,0.9903381,-0.1373045,-0.017722005,0.13696751,0.99041706,0.9996539,0.021690512,0.014887642,0.10009367,0.9199911,-0.37894285,-0.2786446,0.39153433,0.87695956,0.9551641,0.017812267,0.29554063,10.11087,0.21894836,0.16870117,9.803256,0.21271126,0.1459979,0.002319336,0.001876831,0.003326416,-34.739685,3.9596558,33.47931,0,0.0,0.0,0.0,0.0
0.431640625,-0.019437434,0.990339,-0.13729829,-0.017739825,0.136961,0.99041754,0.9996537,0.021686826,0.0149062695,0.09284744,0.9240455,-0.37083587,-0.26977006,0.38186008,0.88397235,0.95843804,0.01796585,0.28473455,10.121643,0.23091125,0.14955139,9.803254,0.21267512,0.14618057,0.0033874512,0.0021820068,8.8500977E-4,-34.739685,3.9596558,33.47931,0,0.0,0.0,0.0,0.0
0.439941406,-0.019412717,0.9897694,-0.14134955,-0.017811723,0.14101139,0.9898477,0.99965286,0.021733312,0.014892084,0.086062826,0.9278438,-0.36290365,-0.2611022,0.3725289,0.8905323,0.9614671,0.018113207,0.27432296,10.1276245,0.25723267,0.13279724,9.8032465,0.213131,0.14604147,0.0017089844,-0.0045318604,-0.0041656494,-34.91974,4.019165,32.939148,0,0.0,0.0,0.0,0.0
0.448242187,-0.01948418,0.9897575,-0.14142384,-0.01777386,0.14108545,0.98983794,0.99965215,0.021799823,0.014842873,0.0828545,0.9296221,-0.3590793,-0.25684085,0.36806536,0.8936222,0.9628956,0.018185612,0.26926082,10.1276245,0.25723267,0.13279724,9.803239,0.21378325,0.14555886,0.006286621,-0.012329102,-0.00340271,-34.91974,4.019165,32.939148,0,0.0,0.0,0.0,0.0
0.456542969,-0.019668821,0.990772,-0.13410413,-0.017602086,0.13376613,0.9908565,0.99965155,0.021849494,0.014808633,0.07974847,0.93134344,-0.35530218,-0.25263342,0.36368406,0.8966104,0.9642699,0.018257897,0.2642917,10.116852,0.2416687,0.1758728,9.803234,0.21427037,0.1452231,0.010101318,-0.010192871,-3.0517578E-5,-35.21881,3.718567,32.63855,0,0.0,0.0,0.0,0.0
0.46484375,-0.019690203,0.99076855,-0.13412683,-0.01757662,0.13378908,0.9908539,0.99965155,0.021867609,0.014780027,0.07375997,0.9347284,-0.3476238,-0.24440493,0.3548863,0.9023979,0.9668639,0.01840013,0.25462863,10.104889,0.23449707,0.17826843,9.803234,0.214448,0.14494257,0.0020141602,-0.0043792725,8.8500977E-4,-35.21881,3.718567,32.63855,0,0.0,0.0,0.0,0.0
0.473144531,-0.019703086,0.9907297,-0.13441172,-0.01754076,0.1340746,0.99081606,0.999652,0.021879816,0.014736468,0.068153374,0.9379008,-0.34014297,-0.23639405,0.34640798,0.9078102,0.96926415,0.018537447,0.24532303,10.101303,0.2416687,0.16630554,9.803237,0.21456769,0.14451538,0.0015563965,-0.011413574,0.0028686523,-35.398865,3.6590576,32.159424,0,0.0,0.0,0.0,0.0
0.481445312,-0.019703077,0.99072963,-0.13441172,-0.017473912,0.13407604,0.9908169,0.9996531,0.021870842,0.014670213,0.065486714,0.93940985,-0.33648267,-0.23247021,0.3422908,0.9103816,0.97039634,0.018604295,0.24080029,10.103699,0.22970581,0.1483612,9.803248,0.2144797,0.14386564,-0.0013427734,1.9836426E-4,0.0027160645,-35.398865,3.6590576,32.159424,0,0.0,0.0,0.0,0.0
0.489746094,-0.01968579,0.9907326,-0.13439302,-0.017463299,0.13405785,0.9908197,0.9996537,0.021852009,0.014662424,0.060409583,0.9422865,-0.3293126,-0.22478627,0.33428305,0.9152737,0.9725337,0.018733656,0.23200697,10.114456,0.22492981,0.13639832,9.803254,0.21429501,0.14378926,9.460449E-4,0.0066070557,0.004547119,-35.398865,3.6590576,32.159424,0,0.0,0.0,0.0,0.0
0.498046875,-0.019880692,0.9923784,-0.12161301,-0.01723142,0.12127888,0.9924688,0.9996538,0.02182653,0.014688983,0.055656735,0.9449852,-0.32234347,-0.21732396,0.32656914,0.91984934,0.9745115,0.018857148,0.22354369,10.114456,0.22492981,0.13639832,9.803255,0.21404515,0.14404972,0.008270264,0.0055389404,-3.3569336E-4,-35.758972,3.239441,32.27997,0,0.0,0.0,0.0,0.0
0.506347656,-0.019857822,0.992382,-0.12158805,-0.017282229,0.121253155,0.9924711,0.9996534,0.021809628,0.014742748,0.053340673,0.9463547,-0.31869686,-0.21369006,0.3225757,0.9221071,0.97544414,0.018916536,0.21943298,10.104889,0.22132874,0.1603241,9.803252,0.2138794,0.14457698,0.0033874512,0.00630188,2.746582E-4,-35.758972,3.239441,32.27997,0,0.0,0.0,0.0,0.0
0.514648437,-0.019849619,0.9923005,-0.12225269,-0.01731478,0.12191726,0.99238926,0.99965304,0.021815326,0.0147614535,0.048935242,0.9489642,-0.31156456,-0.20658551,0.3148094,0.9264003,0.9772041,0.019031104,0.2114475,10.120438,0.22970581,0.13160706,9.803247,0.21393527,0.14476041,-0.0016479492,0.004470825,0.001953125,-35.758972,3.239441,32.099915,0,0.0,0.0,0.0,0.0
0.522949219,-0.019922836,0.99289453,-0.11731813,-0.017289564,0.11698173,0.9929835,0.999652,0.021811428,0.014836106,0.04481949,0.951402,-0.3046727,-0.19969516,0.30735618,0.9304053,0.97883254,0.019141363,0.20376593,10.116852,0.22851563,0.1758728,9.803238,0.21389703,0.14549251,0.0044555664,0.006149292,0.003479004,-35.699463,3.1188965,32.458496,0,0.0,0.0,0.0,0.0
0.53125,-0.019916348,0.9928954,-0.117311075,-0.01732556,0.11697399,0.9929838,0.99965155,0.021809094,0.014872776,0.042843018,0.9525937,-0.30121374,-0.19633557,0.3036393,0.9323388,0.9796003,0.019194767,0.20003684,10.107285,0.23449707,0.14476013,9.803233,0.21387416,0.14585212,0.003540039,0.006149292,0.003479004,-35.699463,3.1188965,32.458496,0,0.0,0.0,0.0,0.0
0.539550781,-0.019891668,0.9928992,-0.11728428,-0.017368477,0.116946615,0.9929864,0.99965125,0.021789204,0.0149188815,0.03908331,0.9548647,-0.29445878,-0.18977486,0.29641366,0.93601525,0.9810495,0.019298298,0.19279413,10.1324005,0.22612,0.14476013,9.80323,0.2136791,0.14630425,0.0055236816,0.009048462,0.0027160645,-35.699463,3.1188965,32.458496,0,0.0,0.0,0.0,0.0
0.547851562,-0.019735502,0.9919631,-0.124978445,-0.017571222,0.124639355,0.9920464,0.9996508,0.021774558,0.014970185,0.03556734,0.9569945,-0.28791773,-0.18342309,0.2894571,0.93945235,0.98239046,0.019396938,0.1858301,10.1324005,0.22612,0.14476013,9.8032255,0.21353547,0.14680737,4.8828125E-4,-1.0681152E-4,0.0014953613,-35.57892,3.4194946,32.759094,0,0.0,0.0,0.0,0.0
0.556152344,-0.019604182,0.99113524,-0.13140272,-0.017707651,0.13106315,0.9912159,0.99965096,0.021758806,0.01498129,0.03392379,0.9579649,-0.2848728,-0.18031976,0.28622586,0.9410418,0.98302287,0.019444492,0.18244986,10.146759,0.22372437,0.1375885,9.803227,0.213381,0.14691627,0.003540039,1.9836426E-4,0.0042419434,-35.57892,3.5995483,32.458496,0,0.0,0.0,0.0,0.0
0.564453125,-0.019612739,0.9911338,-0.13141194,-0.01770012,0.13107242,0.99121475,0.99965096,0.021766445,0.0149725,0.030839726,0.9597449,-0.27917495,-0.17425875,0.2801929,0.94399464,0.98421687,0.019536141,0.17588502,10.128815,0.24047852,0.14356995,9.803227,0.21345592,0.14683007,0.0018615723,-0.003768921,2.746582E-4,-35.57892,3.5995483,32.458496,0,0.0,0.0,0.0,0.0
0.572753906,-0.019650444,0.9916454,-0.12748769,-0.017606104,0.12714933,0.99172735,0.99965197,0.021732446,0.014960474,0.027949177,0.96141857,-0.2736662,-0.16840076,0.27438882,0.9467587,0.9853223,0.019624464,0.16957255,10.133606,0.21057129,0.14596558,9.803237,0.2131225,0.14671214,0.0043029785,-0.002090454,0.0043945313,-35.51941,3.5385132,32.998657,0,0.0,0.0,0.0,0.0
0.581054687,-0.019613668,0.99165124,-0.12744872,-0.017580325,0.12711148,0.9917327,0.9996531,0.021692105,0.014940428,0.026560023,0.9622392,-0.2709063,-0.16554825,0.2714938,0.94809544,0.98584396,0.019666625,0.1665079,10.108475,0.23808289,0.1651001,9.803248,0.21272689,0.14651555,0.009185791,-1.0681152E-4,0.003479004,-35.51941,3.5385132,32.998657,0,0.0,0.0,0.0,0.0
0.589355469,-0.019623121,0.99164975,-0.12745874,-0.017572591,0.12712151,0.9917315,0.99965304,0.021700647,0.014931335,0.023914522,0.9638073,-0.26552528,-0.15998837,0.2658677,0.9506409,0.98682916,0.019746836,0.16055606,10.121643,0.2368927,0.15074158,9.803247,0.21281065,0.14642638,0.0070495605,8.087158E-4,0.0027160645,-35.51941,3.5385132,32.998657,0,0.0,0.0,0.0,0.0
0.59765625,-0.019576546,0.991201,-0.13090985,-0.01765328,0.13057184,0.9912817,0.9996525,0.021716857,0.014941804,0.021434553,0.965282,-0.26032898,-0.15461919,0.26045656,0.95302427,0.9877416,0.019824209,0.1548339,10.121643,0.2368927,0.14237976,9.803243,0.21296963,0.14652905,-4.272461E-4,0.011947632,0.005004883,-35.398865,3.6590576,32.998657,0,0.0,0.0,0.0,0.0
0.605957031,-0.019525724,0.9909153,-0.1330627,-0.017754428,0.13272345,0.9909941,0.9996517,0.021712327,0.015001613,0.020263666,0.96596843,-0.25786492,-0.1520038,0.25789616,0.95414066,0.9881722,0.019862061,0.15205678,10.10968,0.23330688,0.14955139,9.803234,0.2129252,0.14711557,0.0032348633,0.0040130615,0.0016479492,-35.51941,3.779602,33.358765,0,0.0,0.0,0.0,0.0
0.614257812,-0.019514764,0.990917,-0.13305123,-0.017800292,0.13271113,0.9909949,0.9996511,0.02170738,0.015048786,0.018044515,0.9672594,-0.25314772,-0.14691152,0.25300583,0.95624536,0.98898506,0.019935332,0.14666691,10.10968,0.23330688,0.14955139,9.803228,0.21287669,0.14757818,0.010253906,0.0030975342,0.0024108887,-35.51941,3.779602,33.358765,0,0.0,0.0,0.0,0.0
0.622558594,-0.019511381,0.9909175,-0.13304769,-0.017818742,0.13270725,0.9909951,0.9996509,0.021706427,0.015067603,0.016986936,0.9678767,-0.25085106,-0.1444342,0.25063115,0.95724756,0.9893686,0.019970773,0.14405195,10.10968,0.23330688,0.14955139,9.803226,0.21286733,0.14776272,0.010253906,0.0021820068,0.0030212402,-35.51941,3.779602,33.358765,0,0.0,0.0,0.0,0.0
0.630859375,-0.019499613,0.990875,-0.13336614,-0.017833881,0.13302556,0.99095213,0.9996508,0.021701617,0.015077201,0.014969634,0.96905786,-0.24637938,-0.13961288,0.24601893,0.95915735,0.990093,0.020039506,0.13897578,10.124039,0.23091125,0.1483612,9.8032255,0.21282017,0.14785683,0.0029296875,-0.0023956299,0.0028686523,-35.279846,3.779602,33.239746,0,0.0,0.0,0.0,0.0
0.639160156,-0.019458318,0.99075687,-0.13424684,-0.017872697,0.13390613,0.9908328,0.9996509,0.021679295,0.015101908,0.013077393,0.9701685,-0.24207863,-0.13496433,0.24159648,0.96094525,0.9907642,0.020105325,0.1340976,10.108475,0.2141571,0.17706299,9.803226,0.21260126,0.14809912,0.004760742,-0.00819397,0.0010375977,-35.21881,3.779602,32.998657,0,0.0,0.0,0.0,0.0
0.647460937,-0.019455465,0.99075735,-0.13424386,-0.017816212,0.13390441,0.9908341,0.99965197,0.021668853,0.015046371,0.012177702,0.9706957,-0.24000323,-0.13270333,0.23946682,0.96179277,0.991081,0.020136803,0.13173072,10.140778,0.22372437,0.15553284,9.803237,0.21249886,0.1475545,0.003692627,-0.011871338,0.0031738281,-35.21881,3.779602,32.998657,0,0.0,0.0,0.0,0.0
0.655761719,-0.019627856,0.99197525,-0.12489936,-0.017577065,0.12456175,0.99205613,0.9996528,0.0216673,0.0149911335,0.01046006,0.9717054,-0.2359645,-0.12830232,0.2353311,0.9634095,0.99167997,0.020197475,0.12713364,10.13121,0.22612,0.1483612,9.803246,0.21248363,0.1470128,0.0010986328,0.0011138916,0.001953125,-35.639954,3.4194946,32.759094,0,0.0,0.0,0.0,0.0
0.6640625,-0.01963266,0.9919745,-0.124904506,-0.017556418,0.12456727,0.99205583,0.9996531,0.02166957,0.014969933,0.008798953,0.9727447,-0.2317117,-0.12406275,0.23099229,0.96501344,0.99223536,0.020255681,0.12271387,10.13121,0.22612,0.1375885,9.803248,0.21250589,0.1468049,0.0012512207,8.087158E-4,0.0011901855,-35.639954,3.4194946,32.759094,0,0.0,0.0,0.0,0.0
0.672363281,-0.019647393,0.99197215,-0.1249203,-0.017543688,0.12458313,0.992054,0.99965304,0.02168284,0.014955119,0.008006725,0.97324187,-0.22964361,-0.12200069,0.22888613,0.96577793,0.9924977,0.02028396,0.1205688,10.146759,0.23210144,0.1375885,9.803247,0.21263602,0.14665963,0.0056762695,-2.593994E-4,-0.0017089844,-35.639954,3.4194946,32.759094,0,0.0,0.0,0.0,0.0
0.680664062,-0.019709744,0.99208784,-0.12398862,-0.017507566,0.12365122,0.9921712,0.99965245,0.021726182,0.014931911,0.0064943377,0.9741934,-0.22562157,-0.117989235,0.22479673,0.9672358,0.99299365,0.020339357,0.11640423,10.116852,0.24885559,0.1268158,9.803242,0.21306106,0.14643203,0.0059814453,0.004470825,0.0018005371,-35.879517,3.2989502,32.099915,0,0.0,0.0,0.0,0.0
0.688964844,-0.019891113,0.9933103,-0.11374932,-0.017286729,0.11341313,0.9933975,0.99965274,0.021726137,0.014915174,0.0050674807,0.9750992,-0.22171134,-0.114124514,0.2208295,0.96861243,0.99345356,0.020394275,0.112401776,10.118057,0.21894836,0.110076904,9.803245,0.21306063,0.14626789,-0.0027160645,0.00920105,7.324219E-4,-36.11908,2.9388428,31.97937,0,0.0,0.0,0.0,0.0
0.697265625,-0.019879417,0.9933121,-0.11373628,-0.01730176,0.11339995,0.9933989,0.99965274,0.021716025,0.014931723,0.0043634735,0.97557783,-0.21961054,-0.11224637,0.21870257,0.9693141,0.99367076,0.020420913,0.11045938,10.116852,0.2141571,0.16270447,9.803245,0.21296147,0.14643018,-0.003189087,0.011505127,0.003479004,-36.11908,2.9388428,31.97937,0,0.0,0.0,0.0,0.0
0.705566406,-0.019921387,0.99393106,-0.10818511,-0.017292934,0.10784785,0.9940169,0.99965197,0.021673035,0.015039508,0.0030212738,0.9764936,-0.21552531,-0.10859423,0.21457209,0.9706524,0.99408156,0.020472199,0.10668985,10.112076,0.23808289,0.17108154,9.803237,0.21253987,0.1474872,0.006439209,0.013641357,0.0065307617,-36.05957,2.6992798,31.439209,0,0.0,0.0,0.0,0.0
0.713867187,-0.01988744,0.993936,-0.108146615,-0.017370826,0.10780817,0.99401987,0.99965125,0.021647105,0.01512146,0.0017406419,0.97740316,-0.21137659,-0.10508059,0.21038543,0.9719548,0.99446225,0.02051975,0.103072315,10.120438,0.22732544,0.13519287,9.80323,0.2122856,0.14829087,3.3569336E-4,0.014099121,5.79834E-4,-36.05957,2.6992798,31.439209,0,0.0,0.0,0.0,0.0
0.722167969,-0.0198778,0.99393743,-0.10813567,-0.017453188,0.1077956,0.99402,0.9996501,0.021646239,0.015204637,0.001131108,0.9778381,-0.20935966,-0.10337419,0.20835249,0.9725755,0.9946419,0.020542298,0.10131889,10.120438,0.22732544,0.13519287,9.803219,0.2122771,0.14910656,3.3569336E-4,0.0110321045,-3.0517578E-5,-36.05957,2.6992798,31.439209,0,0.0,0.0,0.0,0.0
0.73046875,-0.020128733,0.9953776,-0.09390542,-0.01723183,0.0935651,0.9954639,0.9996488,0.021655591,0.0152688315,-3.0769035E-5,0.97867,-0.2054386,-0.100059345,0.20440459,0.9737591,0.99498147,0.020586014,0.0979188,10.112076,0.24287415,0.20219421,9.803206,0.2123688,0.14973609,0.010559082,0.0052337646,5.79834E-4,-36.11908,2.218628,31.259155,0,0.0,0.0,0.0,0.0
0.738769531,-0.020187702,0.9956144,-0.09134796,-0.017285222,0.09100536,0.9957004,0.9996468,0.021679873,0.015372227,-0.00117613,0.97956747,-0.20111234,-0.09686954,0.20005506,0.9749843,0.9952964,0.020628368,0.09465496,10.097717,0.2368927,0.19262695,9.803186,0.21260694,0.15075006,0.0044555664,0.001876831,-1.8310547E-4,-35.998535,2.0996094,30.839539,0,0.0,0.0,0.0,0.0
0.747070312,-0.02019345,0.9956137,-0.09135462,-0.017338729,0.09101078,0.995699,0.9996457,0.02169057,0.015424852,-0.0017264653,0.98000604,-0.19896041,-0.095320955,0.19789349,0.9755778,0.99544513,0.0206494,0.09307346,10.102493,0.22970581,0.18424988,9.803176,0.21271183,0.15126613,0.0044555664,-0.0013275146,0.0024108887,-35.998535,2.0996094,30.839539,0,0.0,0.0,0.0,0.0
0.755371094,-0.020014608,0.9946528,-0.10131739,-0.017568685,0.10097215,0.99473417,0.99964535,0.021689227,0.015453823,-0.0027748123,0.98084325,-0.19477881,-0.09231213,0.19369663,0.9767088,0.9957262,0.020690631,0.09000625,10.102493,0.22970581,0.18424988,9.803172,0.21269865,0.15155023,0.0046081543,-0.006362915,0.0031738281,-36.299133,2.3986816,30.718994,0,0.0,0.0,0.0,0.0
0.763671875,-0.020020401,0.994652,-0.10132417,-0.017538149,0.10097951,0.99473387,0.9996457,0.021692012,0.015422705,-0.0037217066,0.9815552,-0.1911429,-0.08941734,0.19005188,0.9776937,0.99598736,0.020730175,0.087060735,10.108475,0.24047852,0.15672302,9.803176,0.21272597,0.15124507,0.002166748,-0.0072784424,0.0022583008,-36.299133,2.3986816,30.718994,0,0.0,0.0,0.0,0.0
0.771972656,-0.020035805,0.9946498,-0.10134221,-0.017464912,0.10099889,0.99473315,0.99964666,0.021700215,0.015347878,-0.0041734055,0.9818956,-0.18937702,-0.08801036,0.18828312,0.9781634,0.9961108,0.02074941,0.0856312,10.108475,0.24047852,0.15672302,9.803185,0.21280642,0.15051128,4.8828125E-4,-0.015991211,0.004547119,-36.299133,2.3986816,30.718994,0,0.0,0.0,0.0,0.0
0.780273437,-0.020008579,0.9946935,-0.10091744,-0.01731416,0.10057779,0.99477845,0.9996499,0.02165141,0.015209866,-0.0050362777,0.98254687,-0.18594693,-0.08527294,0.18485,0.97906023,0.99634486,0.020787062,0.082853705,10.124039,0.2141571,0.12921143,9.803217,0.2123278,0.14915784,0.0032348633,-0.006362915,0.004852295,-36.299133,2.3986816,30.839539,0,0.0,0.0,0.0,0.0
0.788574219,-0.01997148,0.99469876,-0.10087418,-0.017191371,0.10053773,0.9947848,0.99965274,0.021601487,0.015092347,-0.0054481924,0.98286,-0.18427281,-0.083940215,0.18317568,0.97949004,0.9964559,0.02080435,0.0815035,10.124039,0.2141571,0.12921143,9.803245,0.21183823,0.14800537,0.009643555,-0.006515503,0.0028686523,-36.299133,2.3986816,30.839539,0,0.0,0.0,0.0,0.0
0.796875,-0.019737564,0.9932055,-0.11468769,-0.01740897,0.11435123,0.99328774,0.9996536,0.021601677,0.015033672,-0.006233583,0.9834599,-0.1810188,-0.08134549,0.17992367,0.9803114,0.99666643,0.020835916,0.078878455,10.101303,0.21894836,0.15672302,9.803253,0.2118401,0.14742996,0.008728027,-0.012023926,0.010192871,-35.699463,2.8793335,31.079102,0,0.0,0.0,0.0,0.0
0.805175781,-0.019622542,0.99271864,-0.11884704,-0.017410433,0.11851262,0.9927999,0.99965584,0.021550437,0.014958142,-0.006928768,0.9839284,-0.17842908,-0.078850485,0.1773402,0.9809858,0.9968624,0.020866241,0.076354474,10.11087,0.23808289,0.1375885,9.803275,0.2113376,0.14668927,1.8310547E-4,-0.010040283,0.0066833496,-35.639954,3.0593872,31.439209,0,0.0,0.0,0.0,0.0
0.813476562,-0.019606493,0.9927212,-0.1188291,-0.01730377,0.11849722,0.9928037,0.99965805,0.021521589,0.014854503,-0.0072539942,0.9841384,-0.17725377,-0.077638,0.17616908,0.98129344,0.99695516,0.020879924,0.07512861,10.11087,0.23808289,0.1375885,9.803297,0.2110547,0.14567292,-0.0018005371,-0.009429932,0.007446289,-35.639954,3.0593872,31.439209,0,0.0,0.0,0.0,0.0
0.821777344,-0.019572286,0.9927264,-0.118790835,-0.01721876,0.11846128,0.9928093,0.99966013,0.021476978,0.014774958,-0.007876483,0.98454225,-0.17497025,-0.07527881,0.17389536,0.98188263,0.99713147,0.020905335,0.07274549,10.118057,0.22970581,0.1651001,9.803317,0.21061721,0.14489284,0.0017089844,-0.0023956299,0.0027160645,-35.639954,3.0593872,31.439209,0,0.0,0.0,0.0,0.0
0.830078125,-0.019403622,0.99179024,-0.12639475,-0.017364467,0.1260652,0.99187,0.9996609,0.021440646,0.0147757875,-0.008462975,0.9849254,-0.17277275,-0.07300699,0.17170925,0.9824388,0.99729556,0.020927975,0.07045327,10.124039,0.22372437,0.19023132,9.803325,0.21026091,0.14490098,-0.007156372,-0.008361816,0.0039367676,-35.398865,3.3599854,31.799316,0,0.0,0.0,0.0,0.0
0.838378906,-0.019381922,0.9917937,-0.12637097,-0.017368965,0.12604162,0.9918729,0.99966127,0.021419335,0.0147835,-0.00873208,0.9850833,-0.17185658,-0.071905285,0.17079967,0.98267853,0.9973732,0.020938227,0.06934126,10.124039,0.22372437,0.19023132,9.8033285,0.21005192,0.14497662,-0.0022583008,-0.0016326904,-1.8310547E-4,-35.398865,3.3599854,31.799316,0,0.0,0.0,0.0,0.0
0.846679687,-0.01928894,0.9910504,-0.1320871,-0.017406337,0.1317588,0.99112904,0.99966246,0.021416983,0.01470907,-0.009247631,0.98538744,-0.17007637,-0.06976619,0.1690334,0.98313797,0.99752045,0.02095728,0.06718358,10.124039,0.22372437,0.19023132,9.80334,0.21002886,0.14424671,0.0058288574,-0.010345459,-7.9345703E-4,-35.279846,3.5995483,32.159424,0,0.0,0.0,0.0,0.0
0.854980469,-0.019192893,0.9901485,-0.1387003,-0.017455552,0.13837287,0.99022645,0.9996634,0.021426396,0.01462781,-0.009720488,0.9856385,-0.16858914,-0.06770932,0.1675614,0.9835338,0.9976578,0.020975484,0.06510813,10.165909,0.23091125,0.1531372,9.8033495,0.21012117,0.14344981,0.006591797,-0.007446289,0.0024108887,-35.21881,3.8391113,32.27997,0,0.0,0.0,0.0,0.0
0.86328125,-0.019208422,0.99014574,-0.1387169,-0.017404163,0.13839035,0.99022484,0.999664,0.021434909,0.014574399,-0.009939174,0.98573714,-0.16799867,-0.0667108,0.16697901,0.983701,0.99772286,0.020984503,0.06409968,10.165909,0.23091125,0.1531372,9.803355,0.21020465,0.14292604,0.009490967,-0.0068359375,0.0042419434,-35.21881,3.8391113,32.27997,0,0.0,0.0,0.0,0.0
0.871582031,-0.019213034,0.99014497,-0.13872187,-0.01737601,0.13839583,0.9902245,0.99966437,0.02143565,0.014545765,-0.010360767,0.98592734,-0.16685262,-0.06477044,0.16584946,0.98402166,0.99784636,0.02100234,0.06214062,10.120438,0.21774292,0.14237976,9.803359,0.21021192,0.14264522,0.009643555,-0.0025482178,0.0014953613,-35.21881,3.8391113,32.27997,0,0.0,0.0,0.0,0.0
0.879882812,-0.019253116,0.99049056,-0.13622727,-0.017284308,0.13590243,0.9905715,0.99966526,0.021426182,0.014503398,-0.010761689,0.98610896,-0.16575085,-0.06290467,0.16476448,0.984325,0.9979615,0.0210195,0.06025771,10.124039,0.21894836,0.16870117,9.803368,0.21011907,0.14222975,0.0030822754,-0.0014801025,0.0024108887,-35.21881,3.779602,32.458496,0,0.0,0.0,0.0,0.0
0.888183594,-0.019240092,0.99049264,-0.13621338,-0.017293153,0.13588855,0.99057317,0.9996654,0.02141428,0.014514235,-0.010957727,0.9862048,-0.16516647,-0.061997946,0.16418853,0.9844788,0.9980161,0.021027632,0.05934354,10.124039,0.21894836,0.16870117,9.803369,0.21000235,0.14233603,0.0068969727,0.005996704,7.324219E-4,-35.21881,3.779602,32.458496,0,0.0,0.0,0.0,0.0
0.896484375,-0.019458566,0.9922267,-0.122912094,-0.017018158,0.122588865,0.9923116,0.99966586,0.0214007,0.01450047,-0.011334593,0.98639,-0.1640313,-0.060238075,0.16307034,0.98477376,0.99811965,0.021042941,0.0575699,10.122833,0.22132874,0.119644165,9.803373,0.20986918,0.14220104,9.460449E-4,0.0012664795,0.004699707,-35.21881,3.3599854,32.699585,0,0.0,0.0,0.0,0.0
0.904785156,-0.019544873,0.99289316,-0.11739273,-0.016936943,0.117069505,0.99297917,0.99966544,0.021395927,0.014528468,-0.011723409,0.9866526,-0.16241662,-0.058540292,0.16147196,0.9851395,0.9982162,0.02105711,0.055865932,10.121643,0.23808289,0.15792847,9.8033695,0.20982237,0.1424756,0.0039978027,0.0027923584,0.0028686523,-35.21881,3.1799316,32.759094,0,0.0,0.0,0.0,0.0
0.913085937,-0.019538412,0.99289423,-0.11738589,-0.016946685,0.11706255,0.99298,0.99966544,0.021390552,0.014539047,-0.011916269,0.9867969,-0.1615234,-0.057715446,0.1605868,0.9853328,0.998262,0.021063887,0.055039834,10.121643,0.23808289,0.15792847,9.8033695,0.20976965,0.14257935,0.0033874512,-0.0014801025,0.003479004,-35.21881,3.1799316,32.759094,0,0.0,0.0,0.0,0.0
0.921386719,-0.019523934,0.9928962,-0.11737052,-0.016967826,0.117046945,0.9929814,0.9996654,0.021378426,0.014562075,-0.012286004,0.98707473,-0.15978894,-0.05611442,0.15886855,0.9857038,0.9983487,0.021076825,0.053437266,10.107285,0.2368927,0.14237976,9.803369,0.20965074,0.14280517,-8.8500977E-4,0.0024871826,0.006072998,-35.21881,3.1799316,32.759094,0,0.0,0.0,0.0,0.0
0.9296875,-0.01966054,0.9939498,-0.10806185,-0.016817339,0.10773869,0.99403703,0.99966526,0.021360617,0.014597389,-0.012463043,0.9872085,-0.15894692,-0.055337775,0.15803468,0.98588175,0.9983899,0.021082856,0.052660327,10.10968,0.23210144,0.1603241,9.803368,0.2094761,0.14315149,-7.324219E-4,0.004776001,0.0036315918,-35.51941,2.8198242,32.398987,0,0.0,0.0,0.0,0.0
0.937988281,-0.019632587,0.99395365,-0.10803155,-0.016819557,0.10770874,0.99404025,0.99966574,0.021332623,0.014603258,-0.01282189,0.9875239,-0.15694615,-0.053826492,0.15604982,0.98628145,0.998468,0.021093855,0.051154096,10.114456,0.22013855,0.14476013,9.803372,0.20920157,0.14320904,-8.8500977E-4,1.9836426E-4,0.0013427734,-35.51941,2.8198242,32.398987,0,0.0,0.0,0.0,0.0
0.946289062,-0.019771188,0.99483275,-0.09958336,-0.01665341,0.09926131,0.9949219,0.99966574,0.02132919,0.014604844,-0.013159761,0.98782337,-0.15502216,-0.05237383,0.15414181,0.98665965,0.9985409,0.02110331,0.04970762,10.126419,0.22851563,0.15074158,9.803372,0.20916791,0.1432246,0.0015563965,0.0030975342,0.002105713,-35.51941,2.519226,32.218933,0,0.0,0.0,0.0,0.0
0.954589844,-0.019772043,0.9948327,-0.0995843,-0.016672494,0.099261835,0.9949216,0.99966544,0.021331953,0.014623731,-0.013330333,0.98799324,-0.15392086,-0.051666543,0.15304832,0.9868672,0.9985754,0.021107826,0.049006008,10.126419,0.22851563,0.15074158,9.8033695,0.209195,0.14340982,0.0140686035,0.0029449463,0.002105713,-35.51941,2.519226,32.218933,0,0.0,0.0,0.0,0.0
0.962890625,-0.019916303,0.99569255,-0.090552084,-0.016508238,0.090230204,0.9957841,0.9996654,0.021327194,0.014640078,-0.013656886,0.9883195,-0.15178277,-0.050293844,0.15092582,0.9872648,0.9986411,0.021116702,0.047645215,10.133606,0.22851563,0.14596558,9.803369,0.20914833,0.14357013,0.009338379,4.5776367E-5,0.0036315918,-35.81848,2.1591187,31.619263,0,0.0,0.0,0.0,0.0
0.971191406,-0.01991057,0.99569327,-0.09054563,-0.016524984,0.09022348,0.99578446,0.9996652,0.021322902,0.0146574145,-0.013982292,0.98868203,-0.14937341,-0.048969913,0.14853166,0.98769444,0.99870235,0.021125035,0.046338856,10.11087,0.24765015,0.16270447,9.803368,0.20910625,0.14374015,0.003692627,0.006454468,-9.613037E-4,-35.81848,2.1591187,31.619263,0,0.0,0.0,0.0,0.0
0.979492187,-0.019929312,0.995637,-0.0911581,-0.016589884,0.090834334,0.99572784,0.9996637,0.02135647,0.014707237,-0.0141377095,0.9888558,-0.14820398,-0.04832764,0.14736982,0.9879001,0.9987315,0.021128993,0.045705598,10.11087,0.24765015,0.16270447,9.803352,0.20943545,0.14422873,0.0039978027,0.007217407,0.0013427734,-35.939026,2.1591187,31.439209,0,0.0,0.0,0.0,0.0
0.987792969,-0.019922748,0.9956378,-0.09115065,-0.016649775,0.09082571,0.99572754,0.9996628,0.02135527,0.014767649,-0.014434926,0.98918545,-0.14595787,-0.04708278,0.14513874,0.9882904,0.9987867,0.021138003,0.044478536,10.104889,0.21774292,0.15911865,9.803344,0.20942366,0.14482117,-1.2207031E-4,0.005844116,0.0065307617,-35.939026,2.1591187,31.439209,0,0.0,0.0,0.0,0.0
0.99609375,-0.019876655,0.9954004,-0.09371753,-0.016752342,0.093391314,0.9954886,0.9996621,0.02135697,0.014818979,-0.014714717,0.9894974,-0.14379945,-0.0458887,0.14299518,0.98865896,0.9988382,0.021146609,0.043302618,10.11087,0.23808289,0.17228699,9.803337,0.20944035,0.14532456,0.004760742,9.613037E-4,0.005004883,-35.998535,2.218628,31.199646,0,0.0,0.0,0.0,0.0
1.004394531,-0.019853946,0.99540335,-0.093691535,-0.016778976,0.09336507,0.99549055,0.99966204,0.021336464,0.014848182,-0.0148461405,0.98963976,-0.142803,-0.04531089,0.14200616,0.9888281,0.99886256,0.021150814,0.04273321,10.11087,0.23808289,0.17228699,9.803336,0.20923924,0.14561093,-0.0022583008,-0.0030059814,0.0082092285,-35.998535,2.218628,31.199646,0,0.0,0.0,0.0,0.0
1.012695312,-0.019844342,0.9955788,-0.09181007,-0.016739473,0.09148444,0.99566585,0.99966294,0.021295184,0.014850016,-0.015096981,0.9899133,-0.14086787,-0.044189967,0.14008571,0.98915285,0.99890906,0.021158166,0.041629367,10.091736,0.22492981,0.16870117,9.803345,0.20883442,0.14562891,0.0044555664,-0.0025482178,0.0036315918,-36.299133,2.1591187,31.259155,0,0.0,0.0,0.0,0.0
1.020996094,-0.019838635,0.99557954,-0.09180349,-0.01671339,0.0914785,0.99566686,0.99966353,0.021287017,0.0148247,-0.015335416,0.9901828,-0.13893443,-0.043111373,0.13816676,0.9894703,0.99895257,0.021163592,0.040569294,10.1324005,0.2368927,0.15074158,9.80335,0.20875433,0.14538065,-0.0034942627,0.002029419,0.0022583008,-36.299133,2.1591187,31.259155,0,0.0,0.0,0.0,0.0
1.029296875,-0.01980967,0.995384,-0.09390648,-0.016774027,0.093580805,0.9954704,0.99966305,0.021295128,0.014842791,-0.015449492,0.9903123,-0.1379961,-0.0425874,0.1372356,0.98962253,0.99897325,0.02116606,0.0400546,10.1324005,0.2368927,0.15074158,9.803346,0.20883387,0.14555806,0.009796143,0.0110321045,0.0043945313,-36.419678,2.218628,31.199646,0,0.0,0.0,0.0,0.0
1.037597656,-0.019836647,0.99538034,-0.0939377,-0.016837675,0.09361027,0.99546635,0.9996614,0.021328412,0.014902981,-0.015664814,0.9905496,-0.13625765,-0.041572146,0.13551131,0.9899032,0.9990127,0.021171173,0.039056513,10.108475,0.24645996,0.15672302,9.803329,0.20916027,0.14614832,0.002166748,-0.0014801025,4.272461E-4,-36.419678,2.218628,31.199646,0,0.0,0.0,0.0,0.0
1.045898437,-0.019904457,0.99554104,-0.09220535,-0.016861726,0.09187625,0.99562764,0.9996597,0.02137217,0.014957794,-0.015869241,0.99077445,-0.1345886,-0.04059905,0.13385606,0.9901688,0.9990495,0.021177398,0.038100306,10.10968,0.23091125,0.1531372,9.803313,0.20958939,0.14668585,0.004760742,0.0134887695,-0.0021820068,-36.538696,2.1591187,31.199646,0,0.0,0.0,0.0,0.0
1.054199219,-0.019944198,0.9955359,-0.09225154,-0.016941257,0.09192014,0.9956222,0.9996576,0.021419745,0.0150323585,-0.015969353,0.99088717,-0.13374443,-0.040127505,0.1330186,0.9903009,0.99906695,0.021181295,0.03763761,10.106079,0.24526978,0.16749573,9.803292,0.21005595,0.14741708,0.0024719238,0.011810303,-0.0014038086,-36.538696,2.1591187,31.199646,0,0.0,0.0,0.0,0.0
1.0625,-0.019925524,0.9952676,-0.09510679,-0.017094811,0.09477262,0.99535215,0.9996553,0.021458743,0.01512552,-0.016255535,0.9912076,-0.13131337,-0.03877254,0.13060705,0.9906758,0.9991158,0.021195317,0.03630855,10.1479645,0.21176147,0.15553284,9.803269,0.21043837,0.14833067,0.0017089844,0.015472412,0.006225586,-36.479187,2.279663,31.498718,0,0.0,0.0,0.0,0.0
1.070800781,-0.019904109,0.9952705,-0.09508218,-0.017208807,0.09474589,0.9953528,0.9996538,0.02144786,0.015241584,-0.016344082,0.9913015,-0.13059188,-0.038341485,0.12989189,0.99078655,0.99913096,0.021200584,0.035885006,10.1479645,0.21176147,0.15553284,9.803255,0.21033166,0.14946888,0.0012512207,0.0110321045,0.002105713,-36.479187,2.279663,31.498718,0,0.0,0.0,0.0,0.0
1.079101562,-0.019610992,0.9937658,-0.10974996,-0.017594466,0.10941104,0.9938408,0.9996528,0.021421194,0.0153391175,-0.016429774,0.991393,-0.12988426,-0.037921138,0.12919049,0.9908945,0.9991456,0.021205531,0.03547218,10.1479645,0.21176147,0.15553284,9.803246,0.21007016,0.15042536,0.0041503906,0.004928589,7.324219E-4,-36.479187,2.758789,31.498718,0,0.0,0.0,0.0,0.0
1.087402344,-0.019574732,0.993771,-0.10970843,-0.017666392,0.10936853,0.9938442,0.9996523,0.021392388,0.015415491,-0.016571127,0.9914944,-0.12908947,-0.0371188,0.12840816,0.9910265,0.9991734,0.021214072,0.03467522,10.118057,0.20817566,0.17228699,9.803241,0.20978767,0.15117432,0.007507324,-0.0011749268,0.0030212402,-36.479187,2.758789,31.498718,0,0.0,0.0,0.0,0.0
1.095703125,-0.019540692,0.99335366,-0.11343117,-0.017781908,0.1130896,0.99342567,0.99965096,0.02142925,0.015453875,-0.016704254,0.9915916,-0.12832418,-0.036350682,0.12765497,0.9911522,0.99919945,0.021221131,0.033912655,10.124039,0.21534729,0.13998413,9.803226,0.21014914,0.15155074,-4.272461E-4,0.00630188,0.0056152344,-36.239624,2.9388428,31.97937,0,0.0,0.0,0.0,0.0
1.104003906,-0.019519046,0.9933568,-0.113406934,-0.01777976,0.113065735,0.99342835,0.9996514,0.021407124,0.015454711,-0.016766328,0.9916289,-0.12802725,-0.035980254,0.12736394,0.9912032,0.9992118,0.021225292,0.033543635,10.124039,0.21534729,0.13998413,9.803231,0.20993218,0.15155895,-0.0042419434,0.00340271,0.0013427734,-36.239624,2.9388428,31.97937,0,0.0,0.0,0.0,0.0
1.112304687,-0.019356849,0.99235034,-0.12192593,-0.017992452,0.121583275,0.992418,0.99965066,0.021403834,0.015501348,-0.016885335,0.9917013,-0.12744999,-0.035261154,0.12679824,0.99130166,0.9992355,0.021232493,0.0328275,10.137192,0.22612,0.16870117,9.803225,0.20989992,0.1520163,0.0029296875,6.5612793E-4,-1.8310547E-4,-36.11908,3.239441,32.099915,0,0.0,0.0,0.0,0.0
1.120605469,-0.019380888,0.9923467,-0.12195261,-0.017963083,0.121610224,0.99241537,0.9996508,0.021424538,0.0154686915,-0.016986737,0.9917274,-0.12723225,-0.034578033,0.12659182,0.991352,0.9992576,0.021239279,0.032141604,10.108475,0.2416687,0.13519287,9.803226,0.21010296,0.15169606,-1.2207031E-4,-0.0052948,0.0042419434,-36.11908,3.239441,32.099915,0,0.0,0.0,0.0,0.0
1.12890625,-0.019455021,0.9927541,-0.118577495,-0.017838899,0.118236385,0.9928251,0.99965155,0.021430729,0.01540935,-0.017036308,0.9917401,-0.12712707,-0.03424601,0.12649214,0.9913763,0.99926823,0.021242984,0.031808183,10.108475,0.2416687,0.13519287,9.803233,0.21016367,0.1511141,0.0017089844,-0.0011749268,7.324219E-4,-35.939026,3.1799316,32.51953,0,0.0,0.0,0.0,0.0
1.137207031,-0.019451516,0.99275476,-0.118573695,-0.01779689,0.11823354,0.9928263,0.9996523,0.021422215,0.015368126,-0.01713735,0.99178153,-0.12678953,-0.03359709,0.12616533,0.9914401,0.9992885,0.021250417,0.031158835,10.13002,0.23568726,0.14715576,9.803241,0.21008018,0.15070984,6.4086914E-4,-0.0043792725,0.0053100586,-35.939026,3.1799316,32.51953,0,0.0,0.0,0.0,0.0
1.145507812,-0.01927277,0.9915216,-0.12850499,-0.017960617,0.12816478,0.99159026,0.9996529,0.021418719,0.0153382495,-0.017233869,0.99182135,-0.12646519,-0.032972116,0.12585142,0.99150103,0.9993077,0.021257222,0.030533541,10.114456,0.22851563,0.14596558,9.8032465,0.21004587,0.15041685,0.0026245117,8.087158E-4,0.0036315918,-35.57892,3.5385132,32.63855,0,0.0,0.0,0.0,0.0
1.153808594,-0.019258248,0.99152386,-0.1284894,-0.017927933,0.12815012,0.9915927,0.9996538,0.02139989,0.015308027,-0.017274005,0.9918154,-0.12650625,-0.032671805,0.12589765,0.9915051,0.9993169,0.021260452,0.030229645,10.114456,0.22851563,0.14596558,9.803255,0.20986122,0.15012047,-0.002105713,-5.645752E-4,0.0018005371,-35.57892,3.5385132,32.63855,0,0.0,0.0,0.0,0.0
1.162109375,-0.019008992,0.98957115,-0.142785,-0.0182092,0.14244446,0.98963535,0.9996535,0.021411972,0.015311574,-0.017351387,0.99180394,-0.12658554,-0.032087807,0.12598702,0.99151284,0.99933445,0.021265974,0.029638762,10.126419,0.24406433,0.1603241,9.803252,0.20997973,0.15015525,0.0012512207,8.087158E-4,5.79834E-4,-35.038757,4.019165,32.51953,0,0.0,0.0,0.0,0.0
1.170410156,-0.019021954,0.98956895,-0.14279869,-0.018200502,0.14245816,0.9896335,0.9996534,0.021423772,0.01530082,-0.017408233,0.99172074,-0.12722816,-0.03153713,0.1266395,0.9914474,0.999351,0.021271758,0.029071458,10.113266,0.23568726,0.14715576,9.803251,0.21009544,0.15004979,0.0055236816,-4.119873E-4,0.0027160645,-35.038757,4.019165,32.51953,0,0.0,0.0,0.0,0.0
1.178710937,-0.018895518,0.98845303,-0.15034464,-0.018340403,0.15000351,0.98851526,0.9996532,0.02143589,0.015294234,-0.017436324,0.99168015,-0.12754005,-0.03126983,0.1269562,0.99141526,0.9993589,0.021274796,0.02879602,10.113266,0.23568726,0.14715576,9.803249,0.21021429,0.14998521,0.006286621,0.0026397705,0.0043945313,-34.67865,4.319763,32.759094,0,0.0,0.0,0.0,0.0
1.187011719,-0.018901369,0.988452,-0.15035067,-0.018355224,0.15000914,0.9885141,0.9996528,0.021443993,0.01530788,-0.01748253,0.99156255,-0.12844466,-0.030756464,0.12787017,0.99131393,0.99937403,0.021281177,0.028261464,10.144379,0.23330688,0.15911865,9.803246,0.21029374,0.15011902,0.009185791,8.087158E-4,-0.004470825,-34.67865,4.319763,32.759094,0,0.0,0.0,0.0,0.0
1.1953125,-0.018798161,0.9873956,-0.1571512,-0.018506696,0.15680842,0.9874556,0.999652,0.021470703,0.015325721,-0.017528059,0.9914488,-0.12931374,-0.030263964,0.12874825,0.9912154,0.9993882,0.021287628,0.027748462,10.115662,0.23330688,0.1603241,9.803238,0.21055567,0.15029399,0.009643555,-0.0019378662,0.0066833496,-34.379578,4.559326,32.759094,0,0.0,0.0,0.0,0.0
1.203613281,-0.01880459,0.9873944,-0.1571578,-0.018507354,0.15681489,0.98745453,0.99965185,0.021477254,0.01532522,-0.017546799,0.99137557,-0.12987167,-0.030028021,0.12931055,0.99114937,0.999395,0.021291288,0.027500061,10.115662,0.23330688,0.1603241,9.803236,0.21061993,0.15028907,0.0078125,-0.007751465,0.006072998,-34.379578,4.559326,32.759094,0,0.0,0.0,0.0,0.0
1.211914062,-0.01894331,0.9885303,-0.14982985,-0.018330194,0.14948818,0.9885936,0.9996525,0.021473648,0.015288152,-0.01758421,0.99123245,-0.13095447,-0.029570177,0.13040186,0.99102014,0.999408,0.021298653,0.027017904,10.11087,0.24526978,0.15194702,9.803242,0.21058454,0.14992554,-0.0041046143,-5.645752E-4,0.0018005371,-34.379578,4.3792725,33.239746,0,0.0,0.0,0.0,0.0
1.220214844,-0.018952528,0.98846734,-0.1502436,-0.01831313,0.14990218,0.9885312,0.9996526,0.021486592,0.015260906,-0.017652016,0.99108374,-0.13206601,-0.028907634,0.1315255,0.9908912,0.99942625,0.021308944,0.026328199,10.128815,0.24765015,0.1603241,9.803244,0.2107115,0.14965837,4.8828125E-4,0.004470825,0.0013427734,-34.61914,4.3792725,33.17871,0,0.0,0.0,0.0,0.0
1.228515625,-0.018978715,0.9884628,-0.1502703,-0.018299084,0.1499288,0.9885275,0.99965245,0.021510787,0.015242508,-0.017652016,0.99108374,-0.13206601,-0.028907634,0.1315255,0.9908912,0.99942625,0.021308944,0.026328199,10.128815,0.24765015,0.1603241,9.803242,0.21094877,0.14947794,4.8828125E-4,0.004470825,0.0013427734,-34.61914,4.3792725,33.17871,0,0.0,0.0,0.0,0.0
1.236816406,-0.018965889,0.988465,-0.15025721,-0.018303484,0.14991578,0.98852926,0.9996525,0.021498566,0.015249066,-0.017674645,0.9910346,-0.13243063,-0.02869491,0.13189398,0.99084836,0.9994319,0.021312982,0.026106475,10.128815,0.24765015,0.1603241,9.803243,0.21082892,0.14954226,3.0517578E-5,8.087158E-4,7.324219E-4,-34.61914,4.3792725,33.17871,0,0.0,0.0,0.0,0.0
1.245117187,-0.01896193,0.98846567,-0.15025316,-0.018295499,0.14991198,0.98853004,0.9996528,0.021493398,0.015241853,-0.017718513,0.99093914,-0.13313766,-0.028282374,0.13260853,0.9907649,0.9994429,0.021320332,0.025676485,10.112076,0.21774292,0.16151428,9.803246,0.21077824,0.14947152,9.460449E-4,-0.007446289,2.746582E-4,-34.61914,4.3792725,33.17871,0,0.0,0.0,0.0,0.0
1.253417969,-0.01895777,0.9885075,-0.14997846,-0.018251285,0.14963828,0.98857236,0.9996537,0.021478426,0.015204724,-0.017761061,0.990847,-0.13381633,-0.027885864,0.13329448,0.99068415,0.9994533,0.021327185,0.025263172,10.104889,0.21774292,0.15672302,9.803254,0.21063142,0.14910741,0.0059814453,-0.003768921,0.0039367676,-34.61914,4.3792725,33.239746,0,0.0,0.0,0.0,0.0
1.26171875,-0.018917482,0.98823446,-0.15177222,-0.018251363,0.15143277,0.9882991,0.9996545,0.02146618,0.0151718985,-0.017802319,0.99075943,-0.13445726,-0.02750362,0.13394243,0.9906073,0.99946314,0.021333171,0.024864988,10.11087,0.22970581,0.1531372,9.803262,0.21051133,0.1487855,0.0033874512,1.9836426E-4,0.003479004,-34.799194,4.4387817,33.239746,0,0.0,0.0,0.0,0.0
1.270019531,-0.01891235,0.98823535,-0.15176697,-0.018243758,0.15142775,0.9882999,0.99965465,0.021459876,0.015165272,-0.017821377,0.99071205,-0.13480413,-0.02731815,0.13429272,0.99056506,0.9994679,0.021335833,0.024671137,10.139587,0.23449707,0.16390991,9.803264,0.2104495,0.14872052,0.0026245117,1.9836426E-4,0.003479004,-34.799194,4.4387817,33.239746,0,0.0,0.0,0.0,0.0
1.278320312,-0.018854482,0.9879281,-0.15376174,-0.018291572,0.1534225,0.9879914,0.9996549,0.021440608,0.0151780555,-0.017858533,0.99061954,-0.13547695,-0.026957914,0.13497223,0.99048257,0.999477,0.021340743,0.024294632,10.146759,0.21894836,0.15792847,9.803266,0.21026054,0.14884588,-0.0016479492,0.0043182373,5.79834E-4,-34.799194,4.499817,33.17871,0,0.0,0.0,0.0,0.0
1.286621094,-0.018851956,0.9879285,-0.15375915,-0.018349316,0.1534187,0.98799086,0.9996539,0.021446934,0.01523557,-0.017875249,0.99056906,-0.13584319,-0.026784081,0.1353417,0.9904369,0.9994814,0.02134274,0.024112215,10.146759,0.21894836,0.15792847,9.803256,0.21032259,0.1494099,0.00491333,-1.0681152E-4,0.0025634766,-34.799194,4.499817,33.17871,0,0.0,0.0,0.0,0.0
1.294921875,-0.018850233,0.98792875,-0.15375736,-0.0184077,0.15341568,0.98799014,0.9996528,0.021454168,0.015293577,-0.017907968,0.9904708,-0.13655375,-0.026449302,0.13605857,0.9903477,0.9994897,0.021346865,0.023760729,10.126419,0.23568726,0.15074158,9.803246,0.21039352,0.14997876,0.0010986328,0.001876831,8.8500977E-4,-34.799194,4.499817,33.17871,0,0.0,0.0,0.0,0.0
1.303222656,-0.019189239,0.9905108,-0.13608901,-0.018091485,0.13574779,0.99057823,0.99965215,0.021470493,0.015314913,-0.017924,0.9904229,-0.13689831,-0.026288124,0.13640615,0.9903041,0.99949366,0.021349013,0.023591418,10.126419,0.23568726,0.15074158,9.803239,0.21055362,0.150188,0.0056762695,0.0043182373,0.0010375977,-35.339355,3.8986206,33.358765,0,0.0,0.0,0.0,0.0
1.311523437,-0.01919046,0.9904058,-0.13685091,-0.018152198,0.13650842,0.9904727,0.9996511,0.02149177,0.01535838,-0.017974356,0.99042636,-0.13686657,-0.025963424,0.13638017,0.9903162,0.9995012,0.021353824,0.023263514,10.119247,0.23091125,0.14955139,9.803228,0.21076226,0.15061426,-0.0025634766,0.007217407,0.001953125,-35.398865,3.8986206,33.17871,0,0.0,0.0,0.0,0.0
1.319824219,-0.019185688,0.9904065,-0.1368459,-0.018175174,0.136503,0.9904729,0.9996508,0.021490106,0.015381907,-0.018022494,0.9904256,-0.13686626,-0.025654132,0.13638535,0.9903236,0.99950844,0.021359287,0.022950506,10.128815,0.23568726,0.13639832,9.803225,0.21074595,0.15084498,0.010864258,-0.006515503,0.0057678223,-35.398865,3.8986206,33.17871,0,0.0,0.0,0.0,0.0
1.328125,-0.019404056,0.9921266,-0.12372659,-0.017869283,0.12338599,0.9921978,0.999652,0.021463571,0.015334401,-0.018068537,0.9904249,-0.13686568,-0.025358014,0.13639006,0.99033064,0.9995152,0.021364467,0.022650838,10.143173,0.21774292,0.13160706,9.803238,0.21048573,0.1503791,0.012084961,-0.007751465,0.0013427734,-35.939026,3.3599854,32.57904,0,0.0,0.0,0.0,0.0
1.336425781,-0.01945121,0.99211925,-0.12377785,-0.017686712,0.12344046,0.99219435,0.99965435,0.021488605,0.015146263,-0.018097151,0.9904606,-0.13660325,-0.025208564,0.13613018,0.9903702,0.9995184,0.021366451,0.022504518,10.11087,0.24287415,0.057434082,9.803261,0.21073124,0.1485341,0.021102905,-0.014007568,8.8500977E-4,-35.939026,3.3599854,32.57904,0,0.0,0.0,0.0,0.0
1.344726562,-0.019659406,0.99330735,-0.11381563,-0.017388366,0.113480724,0.99338806,0.99965554,0.021508483,0.015041029,-0.01815439,0.9905293,-0.13609591,-0.024911359,0.13562799,0.99044657,0.9995248,0.021371288,0.022213189,10.1324005,0.23091125,0.14117432,9.803272,0.21092618,0.14750211,0.053009033,-0.0095825195,-0.0021820068,-35.998535,2.999878,32.398987,0,0.0,0.0,0.0,0.0
1.353027344,-0.019698685,0.99330163,-0.11385873,-0.017291049,0.11352534,0.99338466,0.99965644,0.021537108,0.014938928,-0.018220186,0.9906487,-0.13521509,-0.02461475,0.13475211,0.9905736,0.999531,0.021376722,0.021929363,10.1324005,0.23091125,0.14117432,9.803281,0.21120688,0.14650084,0.05683899,-0.01965332,0.0066833496,-35.998535,2.999878,32.398987,0,0.0,0.0,0.0,0.0
1.361328125,-0.019695982,0.99331105,-0.11377737,-0.017234497,0.11344523,0.9933948,0.9996575,0.02152678,0.014884801,-0.018252764,0.99070626,-0.13478868,-0.024468742,0.13432814,0.9906348,0.99953395,0.021379929,0.021789474,10.103699,0.21774292,0.19621277,9.803291,0.2111056,0.14597003,0.0566864,-0.014923096,0.001953125,-36.17859,2.9388428,31.91986,0,0.0,0.0,0.0,0.0
1.369628906,-0.019717582,0.9933078,-0.11380155,-0.017181592,0.11347021,0.9933927,0.99965787,0.021542594,0.014829251,-0.018315563,0.9908177,-0.13395804,-0.02418324,0.13350232,0.9907534,0.99953973,0.021385746,0.021516014,10.106079,0.24047852,0.17826843,9.803295,0.21126069,0.14542527,0.034072876,5.0354004E-4,2.746582E-4,-36.17859,2.9388428,31.91986,0,0.0,0.0,0.0,0.0
1.377929687,-0.019722218,0.99330705,-0.11380674,-0.017199611,0.11347496,0.9933919,0.9996576,0.021549327,0.014846519,-0.018346302,0.9908715,-0.13355552,-0.024043735,0.13310212,0.99081063,0.9995426,0.021388883,0.02138232,10.106079,0.24047852,0.17826843,9.803292,0.21132672,0.14559461,0.034072876,-0.013549805,0.0028686523,-36.17859,2.9388428,31.91986,0,0.0,0.0,0.0,0.0
1.386230469,-0.020087061,0.9953431,-0.09427938,-0.016702589,0.093951166,0.99543667,0.9996587,0.021570107,0.014737604,-0.01843451,0.9910255,-0.13239598,-0.023642644,0.13194938,0.9909744,0.9995505,0.021398319,0.02099804,10.125229,0.24526978,0.14955139,9.803304,0.2115305,0.14452654,0.020187378,-0.017669678,-0.0010986328,-36.779785,2.218628,31.259155,0,0.0,0.0,0.0,0.0
1.39453125,-0.020091636,0.99534255,-0.09428473,-0.016602261,0.093958616,0.99543774,0.9996603,0.02156531,0.014637153,-0.018472474,0.991126,-0.1316355,-0.023504931,0.1311911,0.9910784,0.999553,0.021401756,0.020872926,10.13121,0.22013855,0.18185425,9.803319,0.21148346,0.14354144,0.016525269,-0.016448975,-0.0024871826,-36.779785,2.218628,31.259155,0,0.0,0.0,0.0,0.0
1.402832031,-0.02015208,0.99558836,-0.09163829,-0.016485203,0.091313556,0.99568564,0.99966097,0.021575816,0.0145723205,-0.018509652,0.99122405,-0.13089034,-0.023367913,0.13044813,0.99117976,0.9995556,0.021405026,0.020748287,10.1479645,0.2416687,0.13998413,9.803326,0.21158648,0.14290565,0.0020141602,-0.003616333,-4.8828125E-4,-36.779785,2.0996094,30.899048,0,0.0,0.0,0.0,0.0
1.411132812,-0.020366004,0.99650186,-0.0810511,-0.016220268,0.08072791,0.99660414,0.99966097,0.021611514,0.014519421,-0.018584423,0.99142617,-0.12933968,-0.023097374,0.1289018,0.99138826,0.9995605,0.021411788,0.020503776,10.115662,0.22732544,0.1603241,9.803326,0.21193656,0.14238688,-0.002105713,-0.0059051514,0.0028686523,-37.139893,1.739502,30.718994,0,0.0,0.0,0.0,0.0
1.419433594,-0.020368181,0.99650156,-0.08105371,-0.016194593,0.08073106,0.9966043,0.9996614,0.021611651,0.014493593,-0.018666755,0.99167156,-0.1274328,-0.022827668,0.12699907,0.99164015,0.9995651,0.021419697,0.020266887,10.115662,0.22732544,0.1603241,9.803329,0.2119379,0.1421336,0.0039978027,-0.0068359375,4.272461E-4,-37.139893,1.739502,30.718994,0,0.0,0.0,0.0,0.0
1.427734375,-0.020367412,0.99650174,-0.081052795,-0.016157568,0.08073095,0.9966051,0.99966204,0.02160788,0.014456763,-0.018706415,0.9917892,-0.12650777,-0.022696206,0.12607607,0.9917609,0.9995674,0.021423535,0.020151421,10.113266,0.22013855,0.14117432,9.803335,0.2119009,0.1417724,0.006439209,-0.0033111572,0.0016479492,-37.139893,1.739502,30.718994,0,0.0,0.0,0.0,0.0
1.436035156,-0.020209897,0.9956965,-0.09044318,-0.016314398,0.09012119,0.9957971,0.99966264,0.021600487,0.014422851,-0.018782757,0.9920151,-0.12471246,-0.022439439,0.12428479,0.99199283,0.9995718,0.021430837,0.019925853,10.125229,0.23808289,0.13040161,9.803342,0.21182841,0.14143986,0.0056762695,0.0021820068,0.0027160645,-37.01935,1.979065,30.059814,0,0.0,0.0,0.0,0.0
1.444335937,-0.02021003,0.99569654,-0.09044334,-0.016307347,0.09012149,0.9957973,0.99966276,0.021599984,0.01441581,-0.018846828,0.9921832,-0.123358145,-0.022198472,0.12293439,0.9921665,0.9995759,0.021437554,0.019708028,10.128815,0.23568726,0.12921143,9.803343,0.21182348,0.1413708,0.006286621,0.0067596436,0.007446289,-37.01935,1.979065,30.059814,0,0.0,0.0,0.0,0.0
1.452636719,-0.02025143,0.996119,-0.0856547,-0.016244158,0.08533313,0.99622,0.99966294,0.021566272,0.014452997,-0.018877693,0.9922641,-0.12270116,-0.022081383,0.12227933,0.99225,0.99957794,0.021440804,0.019602213,10.128815,0.23568726,0.12921143,9.803345,0.21149288,0.14173548,0.0041503906,0.0066070557,0.006072998,-37.379456,1.7990112,29.759216,0,0.0,0.0,0.0,0.0
1.4609375,-0.020128997,0.9955536,-0.09202141,-0.016466692,0.091697454,0.99565077,0.99966174,0.021556739,0.014547695,-0.018939825,0.9924428,-0.12123728,-0.021851761,0.12081917,0.99243397,0.9995818,0.021445774,0.01939833,10.121643,0.22732544,0.13639832,9.803333,0.21139939,0.14266416,0.003540039,0.011642456,2.746582E-4,-37.139893,2.0385742,30.178833,0,0.0,0.0,0.0,0.0
1.469238281,-0.02012715,0.99555373,-0.09201915,-0.016546385,0.091693506,0.9956497,0.9996605,0.021562178,0.01462729,-0.018992595,0.99258226,-0.120082386,-0.021639563,0.11966783,0.9925781,0.99958545,0.021450166,0.019206243,10.136002,0.23091125,0.16390991,9.803321,0.21145274,0.14344472,0.0058288574,0.009048462,0.0018005371,-37.139893,2.0385742,30.178833,0,0.0,0.0,0.0,0.0
1.477539062,-0.020124406,0.99555415,-0.092015795,-0.016615966,0.09168869,0.99564904,0.9996594,0.02156578,0.014696915,-0.019017953,0.9926494,-0.11952205,-0.02153814,0.11910918,0.9926475,0.9995871,0.021452405,0.019114608,10.104889,0.22492981,0.14356995,9.80331,0.21148805,0.1441275,0.0058288574,0.00843811,-9.613037E-4,-37.139893,2.0385742,30.178833,0,0.0,0.0,0.0,0.0
1.485839844,-0.01999226,0.9948235,-0.09963186,-0.016851237,0.09930233,0.9949146,0.99965805,0.02156951,0.014778729,-0.01906664,0.9927788,-0.11843445,-0.021344267,0.11802482,0.9927812,0.99959034,0.021456897,0.018939797,10.104889,0.22492981,0.14356995,9.803297,0.21152465,0.14492983,0.009033203,0.010421753,5.79834E-4,-36.95984,2.279663,30.178833,0,0.0,0.0,0.0,0.0
1.494140625,-0.019988364,0.9948241,-0.09962713,-0.016928656,0.099295996,0.99491405,0.9996569,0.021573253,0.014856269,-0.019106401,0.9928665,-0.11769084,-0.021166753,0.11728427,0.9928728,0.9995934,0.021461358,0.018774878,10.13002,0.22253418,0.1651001,9.803286,0.21156135,0.14569023,0.0058288574,9.613037E-4,-0.0027923584,-36.95984,2.279663,30.178833,0,0.0,0.0,0.0,0.0
1.502441406,-0.020054646,0.99519014,-0.095887326,-0.016909078,0.09555528,0.99528044,0.99965584,0.021581365,0.014911421,-0.019125488,0.99290884,-0.11733004,-0.021082213,0.11692492,0.99291694,0.9995948,0.021463597,0.018696468,10.13002,0.24885559,0.16630554,9.803275,0.2116409,0.14623109,0.005065918,8.087158E-4,0.0011901855,-36.779785,2.218628,30.718994,0,0.0,0.0,0.0,0.0
1.510742187,-0.019860072,0.9938602,-0.108845815,-0.017183041,0.10851191,0.99394655,0.99965507,0.021610154,0.014922488,-0.019165514,0.99300784,-0.11648197,-0.020917665,0.11607962,0.99301964,0.9995975,0.021468261,0.01854668,10.108475,0.23808289,0.15434265,9.803268,0.21192323,0.14633963,0.011627197,-0.0045318604,0.002105713,-36.239624,2.6992798,31.259155,0,0.0,0.0,0.0,0.0
1.519042969,-0.019881712,0.993857,-0.10887063,-0.017174467,0.108536586,0.993944,0.99965477,0.021631105,0.014911073,-0.019194076,0.9930427,-0.11617982,-0.020770004,0.115780115,0.99305767,0.9996,0.02147388,0.018403208,10.106079,0.22372437,0.15074158,9.803266,0.2121287,0.14622769,0.0070495605,-0.009887695,0.0043945313,-36.239624,2.6992798,31.259155,0,0.0,0.0,0.0,0.0
1.52734375,-0.019876363,0.99385786,-0.10886451,-0.017122718,0.10853167,0.99394554,0.99965584,0.021620078,0.014860332,-0.01920833,0.9930595,-0.116033755,-0.020698197,0.11563533,0.9930761,0.99960124,0.021477023,0.01833338,10.106079,0.22372437,0.15074158,9.803275,0.21202055,0.14573008,0.0059814453,-0.0046844482,0.0025634766,-36.239624,2.6992798,31.259155,0,0.0,0.0,0.0,0.0
1.535644531,-0.019821258,0.99355143,-0.111635864,-0.01713981,0.11130372,0.9936386,0.9996566,0.021608585,0.014823104,-0.019235747,0.9930921,-0.115749925,-0.020556789,0.11535403,0.9931117,0.9996036,0.021482691,0.018195864,10.11087,0.2416687,0.16390991,9.803283,0.21190783,0.145365,0.0018615723,-0.0043792725,-1.8310547E-4,-36.05957,2.8198242,31.498718,0,0.0,0.0,0.0,0.0
1.543945312,-0.019839998,0.9935487,-0.11165707,-0.017151956,0.11132438,0.993636,0.999656,0.021628875,0.014832629,-0.019247727,0.9931015,-0.11566769,-0.020488502,0.11527305,0.9931225,0.9996048,0.021485208,0.018128417,10.11087,0.2416687,0.16390991,9.803277,0.21210682,0.1454584,0.006439209,0.0021820068,0.003326416,-36.05957,2.8198242,31.498718,0,0.0,0.0,0.0,0.0
1.552246094,-0.019904068,0.9940417,-0.10716784,-0.017084565,0.10683527,0.9941299,0.9996559,0.021618146,0.014856314,-0.01927168,0.9931195,-0.115509,-0.020356487,0.11511677,0.9931434,0.999607,0.021490898,0.017997932,10.126419,0.23210144,0.15792847,9.803276,0.2120016,0.14569068,0.0067443848,0.0055389404,0.003326416,-35.758972,2.6992798,31.678772,0,0.0,0.0,0.0,0.0
1.560546875,-0.019830037,0.9936872,-0.11041921,-0.01717195,0.11008613,0.9937736,0.99965584,0.02160268,0.014880537,-0.019297719,0.99315727,-0.11517899,-0.020227218,0.11478905,0.993184,0.9996092,0.021495936,0.017873643,10.121643,0.21655273,0.17108154,9.803276,0.21184996,0.14592823,0.003692627,-0.0040740967,0.0042419434,-35.4599,2.8793335,32.27997,0,0.0,0.0,0.0,0.0
1.568847656,-0.01979992,0.9936915,-0.11038648,-0.017187644,0.11005351,0.99377704,0.9996562,0.021573987,0.014900164,-0.019308645,0.9931682,-0.115083866,-0.020166202,0.11469504,0.9931961,0.99961025,0.021498073,0.017813822,10.121643,0.21655273,0.17108154,9.803278,0.21156853,0.14612068,0.0043029785,-0.005142212,1.2207031E-4,-35.4599,2.8793335,32.27997,0,0.0,0.0,0.0,0.0
1.577148437,-0.01980633,0.99369055,-0.11039346,-0.017157635,0.11006104,0.9937767,0.9996566,0.021577159,0.014869477,-0.019328618,0.9931893,-0.11489792,-0.020048361,0.11451128,0.9932196,0.9996122,0.02150108,0.017698472,10.1276245,0.23330688,0.15553284,9.803283,0.21159965,0.14581975,0.008575439,-0.013549805,0.0056152344,-35.4599,2.8793335,32.27997,0,0.0,0.0,0.0,0.0
1.585449219,-0.019971272,0.99470216,-0.10084139,-0.01689845,0.10051126,0.99479246,0.9996577,0.02157133,0.014801582,-0.019348027,0.9932094,-0.11471951,-0.019933974,0.11433497,0.9932422,0.99961406,0.021504093,0.017586457,10.133606,0.24047852,0.13877869,9.803293,0.21154249,0.14515394,0.0030822754,-0.009887695,0.0028686523,-35.699463,2.519226,31.91986,0,0.0,0.0,0.0,0.0
1.59375,-0.019978547,0.9947011,-0.10084944,-0.016802263,0.100521296,0.99479306,0.99965924,0.021569021,0.0147049595,-0.019361291,0.9932412,-0.114442214,-0.019873332,0.11405874,0.9932752,0.9996151,0.021505438,0.017530689,10.133606,0.24047852,0.13877869,9.8033085,0.21151984,0.14420639,0.004760742,-0.009887695,0.0043945313,-35.699463,2.519226,31.91986,0,0.0,0.0,0.0,0.0
1.602050781,-0.019946387,0.9944574,-0.10323054,-0.016752938,0.10290414,0.99455017,0.9996607,0.021567099,0.014607518,-0.01938726,0.9933025,-0.113904275,-0.019751979,0.11352295,0.99333894,0.9996169,0.021507956,0.017418792,10.121643,0.24526978,0.1483612,9.803322,0.21150097,0.14325081,0.005218506,-0.010803223,0.0042419434,-35.699463,2.5787354,31.739807,0,0.0,0.0,0.0,0.0
1.610351562,-0.019908274,0.99408054,-0.106806874,-0.0167211,0.10648205,0.9941741,0.999662,0.021578215,0.014502243,-0.01941058,0.99335045,-0.11348178,-0.019633433,0.11310257,0.9933893,0.9996188,0.0215103,0.017307492,10.13002,0.25004578,0.12802124,9.803335,0.21161,0.14221843,-0.0014953613,-0.0033111572,0.0030212402,-35.81848,2.6992798,31.799316,0,0.0,0.0,0.0,0.0
1.618652344,-0.019943908,0.9940755,-0.10684659,-0.016651725,0.10652276,0.9941709,0.99966246,0.021606829,0.014428591,-0.019420909,0.9933655,-0.113348305,-0.019575223,0.11297017,0.9934055,0.9996198,0.021511657,0.017251367,10.13002,0.25004578,0.12802124,9.80334,0.21189062,0.14149615,-0.0011901855,-0.0023956299,-0.004776001,-35.81848,2.6992798,31.799316,0,0.0,0.0,0.0,0.0
1.626953125,-0.019968402,0.994072,-0.106873885,-0.016636332,0.10655004,0.99416816,0.9996622,0.02162994,0.014410079,-0.019442314,0.9933944,-0.11309088,-0.019459689,0.11271485,0.99343675,0.99962157,0.021515425,0.017139709,10.126419,0.23210144,0.13160706,9.803337,0.21211725,0.1413146,0.0041503906,-0.0014801025,0.0018005371,-35.81848,2.6992798,31.799316,0,0.0,0.0,0.0,0.0
1.635253906,-0.019875979,0.99339443,-0.11301511,-0.016747547,0.11269077,0.9934889,0.99966216,0.021639293,0.014397082,-0.0194638,0.993422,-0.11284489,-0.019348007,0.11247089,0.99346656,0.99962336,0.02151996,0.017031625,10.137192,0.21655273,0.1531372,9.803337,0.21220897,0.14118715,0.0029296875,0.0024871826,-9.613037E-4,-35.879517,2.8793335,31.619263,0,0.0,0.0,0.0,0.0
1.643554687,-0.01986096,0.99339664,-0.11299827,-0.016772147,0.11267361,0.9934904,0.99966204,0.021626899,0.014423589,-0.019472046,0.99342144,-0.11284828,-0.019295897,0.11247527,0.9934671,0.9996242,0.021522349,0.016978834,10.137192,0.21655273,0.1531372,9.803336,0.21208744,0.1414471,0.0039978027,0.0037078857,0.0065307617,-35.879517,2.8793335,31.619263,0,0.0,0.0,0.0,0.0
1.651855469,-0.01993224,0.9939959,-0.10758697,-0.016686173,0.107262634,0.9940907,0.99966204,0.021609668,0.014448002,-0.019487428,0.9934204,-0.11285432,-0.019195972,0.11248319,0.99346817,0.9996258,0.021526488,0.016877662,10.138382,0.22851563,0.13400269,9.803336,0.21191846,0.1416865,0.0018615723,0.0067596436,0.0024108887,-36.05957,2.6992798,31.619263,0,0.0,0.0,0.0,0.0
1.66015625,-0.019917695,0.9939979,-0.10757055,-0.016729884,0.10724548,0.9940918,0.9996617,0.021599662,0.014493387,-0.019514319,0.99345505,-0.11254475,-0.019048378,0.11217633,0.9935058,0.9996282,0.02153138,0.016734663,10.107285,0.24526978,0.1483612,9.803332,0.21182033,0.14213158,-1.2207031E-4,0.013336182,0.0053100586,-36.05957,2.6992798,31.619263,0,0.0,0.0,0.0,0.0
1.668457031,-0.019934554,0.99399555,-0.107589595,-0.016811207,0.107262515,0.9940886,0.9996599,0.021625422,0.014572034,-0.019514319,0.99345505,-0.11254475,-0.019048378,0.11217633,0.9935058,0.9996282,0.02153138,0.016734663,10.107285,0.24526978,0.1483612,9.803315,0.21207295,0.14290284,-1.2207031E-4,0.013336182,0.0053100586,-36.05957,2.6992798,31.619263,0,0.0,0.0,0.0,0.0
1.676757812,-0.01991774,0.99399793,-0.10757062,-0.016879136,0.107242316,0.9940896,0.9996591,0.021615716,0.014641801,-0.019531362,0.9934768,-0.112348676,-0.018959936,0.111981854,0.9935294,0.9996295,0.021535104,0.0166491,10.112076,0.23210144,0.14955139,9.803307,0.21197775,0.14358701,0.0024719238,0.007369995,0.006378174,-36.05957,2.6992798,31.619263,0,0.0,0.0,0.0,0.0
1.685058594,-0.019751273,0.9931198,-0.11542494,-0.017116344,0.11509468,0.99320704,0.99965847,0.021592759,0.014725315,-0.019539269,0.99348754,-0.11225317,-0.018918458,0.11188711,0.9935409,0.99963015,0.021536717,0.01660906,10.112076,0.23210144,0.14955139,9.803301,0.21175262,0.14440602,0.005218506,0.008895874,0.003326416,-35.699463,2.999878,31.91986,0,0.0,0.0,0.0,0.0
1.693359375,-0.019732336,0.9931226,-0.11540401,-0.017162355,0.11507302,0.9932087,0.999658,0.021578934,0.014773664,-0.019547427,0.9934732,-0.11237871,-0.01884718,0.11201407,0.99352777,0.9996313,0.021538937,0.016534582,10.113266,0.22253418,0.14356995,9.803296,0.21161707,0.14488016,0.004760742,0.0069122314,7.324219E-4,-35.699463,2.999878,31.91986,0,0.0,0.0,0.0,0.0
1.701660156,-0.019773666,0.9932066,-0.11467125,-0.017202744,0.11433871,0.99329275,0.99965644,0.0216137,0.0148249855,-0.019554535,0.99345946,-0.112498656,-0.018780578,0.11213533,0.99351543,0.9996324,0.021540523,0.016464988,10.108475,0.24645996,0.15434265,9.803281,0.211958,0.14538345,0.0010986328,6.5612793E-4,0.0010375977,-35.81848,2.999878,32.159424,0,0.0,0.0,0.0,0.0
1.709960937,-0.019799383,0.99320287,-0.11469954,-0.017232575,0.11436597,0.9932891,0.9996554,0.021643084,0.014851067,-0.019558843,0.99345446,-0.1125421,-0.018749038,0.11217938,0.993511,0.99963295,0.021541985,0.016432216,10.108475,0.24645996,0.15434265,9.803271,0.21224615,0.14563923,-0.0022583008,-0.0016326904,0.0016479492,-35.81848,2.999878,32.159424,0,0.0,0.0,0.0,0.0
1.718261719,-0.019444006,0.9906701,-0.1348875,-0.017622864,0.13455246,0.9907498,0.99965566,0.021641249,0.014842206,-0.019568238,0.99344456,-0.11262751,-0.018689016,0.112265944,0.9935024,0.99963385,0.02154599,0.016369654,10.112076,0.22851563,0.16270447,9.803273,0.21222816,0.14555232,0.0017089844,-0.0072784424,0.0022583008,-35.099792,3.779602,32.818604,0,0.0,0.0,0.0,0.0
1.7265625,-0.019461004,0.9906674,-0.13490537,-0.01756924,0.13457122,0.99074817,0.9996562,0.021651138,0.014786381,-0.019562213,0.99334425,-0.11351023,-0.018646805,0.113149725,0.993403,0.9996348,0.021549761,0.016309235,10.13121,0.2524414,0.13400269,9.803279,0.21232514,0.14500487,9.460449E-4,-0.008804321,0.006378174,-35.099792,3.779602,32.818604,0,0.0,0.0,0.0,0.0
1.734863281,-0.019489128,0.9906398,-0.13510297,-0.017487332,0.13477021,0.9907225,0.9996571,0.021670911,0.014697095,-0.019559635,0.9932952,-0.113938704,-0.018625284,0.11357872,0.9933544,0.9996352,0.02155179,0.016278846,10.13121,0.2524414,0.13400269,9.8032875,0.21251905,0.14412928,0.0014038086,-0.009735107,0.0024108887,-34.858704,3.8391113,33.17871,0,0.0,0.0,0.0,0.0
1.743164062,-0.019486273,0.99064034,-0.13510002,-0.01740545,0.13476908,0.99072415,0.9996586,0.021657,0.0146163935,-0.019555746,0.99319875,-0.114777796,-0.018580202,0.11441891,0.9932589,0.9996362,0.02155651,0.016216286,10.15036,0.23568726,0.14356995,9.803302,0.21238261,0.14333786,0.005065918,-0.007446289,0.0036315918,-34.858704,3.8391113,33.17871,0,0.0,0.0,0.0,0.0
1.751464844,-0.019402346,0.99003863,-0.13945287,-0.017425401,0.1391231,0.9901218,0.9996599,0.021640707,0.014552505,-0.019551922,0.9931053,-0.115583524,-0.018533554,0.11522575,0.9931664,0.99963707,0.021560486,0.016152887,10.118057,0.22732544,0.16151428,9.803315,0.21222284,0.14271133,0.0020141602,-0.007583618,7.324219E-4,-34.67865,4.019165,33.358765,0,0.0,0.0,0.0,0.0
1.759765625,-0.01940434,0.99003834,-0.13945492,-0.017377548,0.13912614,0.99012226,0.9996607,0.021636052,0.014504786,-0.01954829,0.9930496,-0.11606158,-0.018511433,0.115704365,0.99311125,0.99963754,0.02156209,0.016120948,10.118057,0.22732544,0.16151428,9.803323,0.21217719,0.14224336,3.3569336E-4,-8.69751E-4,0.0022583008,-34.67865,4.019165,33.358765,0,0.0,0.0,0.0,0.0
1.768066406,-0.019408077,0.9901311,-0.13879444,-0.017299274,0.13846725,0.990216,0.999662,0.021619229,0.014441164,-0.019541347,0.9929409,-0.116989195,-0.018466601,0.116633125,0.99300337,0.9996385,0.021565016,0.016057076,10.126419,0.22492981,0.11843872,9.803335,0.21201222,0.14161944,-1.2207031E-4,-7.171631E-4,0.003326416,-34.379578,4.019165,33.47931,0,0.0,0.0,0.0,0.0
1.776367187,-0.019377392,0.99013597,-0.1387635,-0.017222527,0.1384384,0.9902213,0.9996639,0.021577764,0.014370068,-0.019534914,0.9928388,-0.11785396,-0.018420327,0.11749905,0.99290216,0.99963945,0.021567166,0.015993083,10.13002,0.21655273,0.10887146,9.803354,0.21160558,0.14092223,0.007507324,0.0027923584,0.004852295,-34.379578,4.019165,33.47931,0,0.0,0.0,0.0,0.0
1.784667969,-0.019161722,0.9886054,-0.14930548,-0.01737608,0.14898105,0.9886873,0.9996654,0.021539297,0.014323356,-0.019531177,0.9927891,-0.11827269,-0.018396407,0.11791838,0.9928529,0.99964,0.021567378,0.01596067,10.13002,0.21655273,0.10887146,9.803369,0.21122836,0.14046414,3.3569336E-4,0.008132935,0.0030212402,-34.199524,4.4387817,33.779907,1,0.0,0.0,0.0,0.0
1.79296875,-0.019149331,0.9886075,-0.14929321,-0.017410045,0.14896823,0.9886887,0.999665,0.02153193,0.014359059,-0.019514969,0.9926419,-0.11950377,-0.018356131,0.11915067,0.9927064,0.999641,0.021566264,0.015895844,10.13121,0.23449707,0.12802124,9.803365,0.21115609,0.14081426,0.002166748,0.004470825,0.0056152344,-34.199524,4.4387817,33.779907,1,0.0,0.0,0.0,0.0
1.801269531,-0.019105047,0.9882174,-0.15185945,-0.017522793,0.15153289,0.9882968,0.9996639,0.02154246,0.014421287,-0.019499082,0.99249923,-0.12068551,-0.018318746,0.120333545,0.99256444,0.99964195,0.021564905,0.015834948,10.116852,0.24406433,0.14356995,9.803354,0.21125937,0.14142452,-0.004547119,0.008132935,-0.0010986328,-34.318542,4.499817,33.599854,1,0.0,0.0,0.0,0.0
1.809570312,-0.019116977,0.9882153,-0.15187134,-0.01757579,0.15154347,0.9882943,0.99966276,0.021562457,0.014471613,-0.019490536,0.9924233,-0.12131027,-0.018302815,0.12095883,0.99248874,0.9996425,0.021564458,0.015806587,10.116852,0.24406433,0.14356995,9.803343,0.21145548,0.14191805,0.0039978027,0.008132935,-0.0010986328,-34.318542,4.499817,33.599854,1,0.0,0.0,0.0,0.0
1.817871094,-0.019271154,0.9894132,-0.14384037,-0.017490242,0.14351146,0.989494,0.99966127,0.021584496,0.014539447,-0.01947455,0.99227464,-0.122522816,-0.018274102,0.12217232,0.9923407,0.9996433,0.02156438,0.015753677,10.113266,0.23330688,0.15194702,9.8033285,0.2116716,0.14258327,0.0018615723,0.0029449463,-0.0020141602,-34.739685,4.1992188,33.53882,1,0.0,0.0,0.0,0.0
1.826171875,-0.019281508,0.98941153,-0.1438509,-0.017522793,0.14352113,0.98949206,0.9996605,0.02159957,0.01456995,-0.019465689,0.99217004,-0.12336814,-0.018243017,0.1230185,0.99223673,0.99964404,0.021565177,0.015705533,10.115662,0.23928833,0.1531372,9.803321,0.21181943,0.1428824,4.8828125E-4,-0.0011749268,0.0024108887,-34.739685,4.1992188,33.53882,1,0.0,0.0,0.0,0.0
1.834472656,-0.019376917,0.9900661,-0.1392613,-0.017435662,0.13893165,0.99014854,0.9996602,0.021614136,0.014570391,-0.019461637,0.992119,-0.12377825,-0.01822856,0.12342902,0.99218595,0.9996444,0.021565864,0.015682772,10.115662,0.23928833,0.1531372,9.803318,0.21196227,0.14288673,0.0033874512,4.5776367E-5,0.0028686523,-35.279846,3.9596558,33.059692,1,0.0,0.0,0.0,0.0
1.842773437,-0.01934505,0.9900713,-0.13922791,-0.017434938,0.13889875,0.990153,0.9996608,0.021581994,0.014574831,-0.019457702,0.99204236,-0.124391854,-0.018197326,0.124043405,0.99210995,0.999645,0.021567777,0.015638918,10.139587,0.2141571,0.16270447,9.803325,0.2116471,0.14293028,-0.0030212402,8.087158E-4,0.004547119,-35.279846,3.9596558,33.059692,1,0.0,0.0,0.0,0.0
1.851074219,-0.01947555,0.99109083,-0.13175584,-0.017230595,0.13142855,0.9911759,0.99966186,0.02157393,0.014517441,-0.019452728,0.9919685,-0.12498,-0.01816708,0.12463233,0.99203664,0.99964565,0.021568341,0.015596733,10.121643,0.23449707,0.12562561,9.803334,0.21156797,0.14236747,0.0018615723,-0.010650635,0.0057678223,-35.81848,3.6590576,32.818604,1,0.0,0.0,0.0,0.0
1.859375,-0.019474447,0.9910911,-0.13175468,-0.017152146,0.13142909,0.9911772,0.99966323,0.021562504,0.014439829,-0.019453049,0.99195147,-0.12511557,-0.018148355,0.12476831,0.9920199,0.999646,0.021568453,0.015575164,10.121643,0.23449707,0.12562561,9.803348,0.21145593,0.14160635,-0.0011901855,-0.003616333,0.0022583008,-35.81848,3.6590576,32.818604,1,0.0,0.0,0.0,0.0
1.867675781,-0.01958395,0.9919001,-0.12550136,-0.017010642,0.12517671,0.9919886,0.99966353,0.021561917,0.014421404,-0.019453602,0.9919182,-0.12537867,-0.018109038,0.12503225,0.9919874,0.9996467,0.021568216,0.015530357,10.128815,0.2368927,0.16151428,9.80335,0.21145017,0.14142567,0.010559082,-5.645752E-4,8.8500977E-4,-36.358643,3.4194946,32.699585,1,0.0,0.0,0.0,0.0
1.875976562,-0.01958455,0.9919,-0.12550204,-0.017008917,0.1251774,0.9919886,0.99966353,0.0215623,0.014419602,-0.01945875,0.9919175,-0.12538359,-0.018065603,0.12503803,0.99198747,0.9996474,0.021567967,0.015486504,10.107285,0.22253418,0.15194702,9.80335,0.21145394,0.141408,0.012542725,-0.0019378662,-7.9345703E-4,-36.358643,3.4194946,32.699585,1,0.0,0.0,0.0,0.0
1.884277344,-0.019757757,0.99304634,-0.116054125,-0.01682132,0.11573018,0.9931382,0.9996633,0.021574367,0.0144177815,-0.019461261,0.99191713,-0.12538603,-0.018044477,0.12504087,0.9919875,0.99964774,0.021567853,0.015465173,10.107285,0.22253418,0.15194702,9.803348,0.21157226,0.14139013,0.004760742,4.5776367E-5,-7.9345703E-4,-36.538696,3.0593872,32.398987,1,0.0,0.0,0.0,0.0
1.892578125,-0.019786738,0.993042,-0.11608639,-0.016820077,0.11576206,0.99313456,0.99966276,0.021603474,0.01441249,-0.019473406,0.99196345,-0.12501672,-0.017996125,0.124672405,0.99203473,0.99964833,0.021568112,0.015423702,10.1324005,0.23568726,0.14715576,9.803343,0.21185772,0.14133824,0.0059814453,0.0011138916,-9.613037E-4,-36.538696,3.0593872,32.398987,1,0.0,0.0,0.0,0.0
1.900878906,-0.020003105,0.9942304,-0.10538401,-0.016582586,0.105060674,0.9943275,0.99966234,0.021637173,0.014385372,-0.019486183,0.99200773,-0.1246633,-0.017949637,0.12431978,0.99207985,0.999649,0.02156951,0.015383662,10.102493,0.23928833,0.124420166,9.803339,0.2121882,0.14107232,-5.79834E-4,-0.005142212,0.002105713,-36.839294,2.6992798,32.458496,1,0.0,0.0,0.0,0.0
1.909179687,-0.020031704,0.9942264,-0.105416134,-0.01654095,0.10509329,0.99432474,0.99966246,0.021661699,0.014340253,-0.019496975,0.99205583,-0.12427809,-0.017922377,0.123934954,0.9921285,0.9996492,0.021570863,0.015363641,10.102493,0.23928833,0.124420166,9.80334,0.2124287,0.14062984,0.003540039,-0.0060577393,0.001953125,-36.839294,2.6992798,32.458496,1,0.0,0.0,0.0,0.0
1.917480469,-0.020062318,0.99409765,-0.106618024,-0.016553892,0.10629459,0.99419695,0.9996617,0.021710835,0.014323669,-0.01951901,0.99214864,-0.123531975,-0.017867953,0.12318963,0.99222225,0.99964976,0.02157446,0.015323124,10.120438,0.2632141,0.1651001,9.803332,0.21291058,0.14046721,0.0030822754,-0.0054473877,5.79834E-4,-36.839294,2.6992798,32.099915,1,0.0,0.0,0.0,0.0
1.92578125,-0.020070795,0.99409646,-0.10662764,-0.016502647,0.1063052,0.9941966,0.99966234,0.021713953,0.014271593,-0.019541267,0.99223125,-0.122862846,-0.017816188,0.12252122,0.99230605,0.9996503,0.02157986,0.015283558,10.134796,0.22732544,0.14237976,9.803339,0.21294115,0.13995652,0.0055236816,-0.0059051514,0.0043945313,-36.839294,2.6992798,32.099915,1,0.0,0.0,0.0,0.0
1.934082031,-0.020054612,0.99397975,-0.10771342,-0.016472626,0.10739197,0.9940803,0.9996631,0.021710217,0.014219751,-0.019552225,0.9922711,-0.122538365,-0.01779002,0.122197114,0.9923464,0.99965054,0.02158254,0.0152632985,10.134796,0.22732544,0.14237976,9.803347,0.2129045,0.13944812,-0.0014953613,-0.0069732666,-6.5612793E-4,-36.95984,2.758789,32.339478,1,0.0,0.0,0.0,0.0
1.942382812,-0.02006751,0.9939778,-0.10772798,-0.016414365,0.107407615,0.99407953,0.9996639,0.02171699,0.014160113,-0.019572772,0.992343,-0.1219518,-0.017738156,0.12161131,0.99241924,0.999651,0.021587597,0.015222064,10.125229,0.24047852,0.1483612,9.803353,0.2129709,0.13886327,-4.272461E-4,-0.008056641,0.0030212402,-36.95984,2.758789,32.339478,1,0.0,0.0,0.0,0.0
1.950683594,-0.0200482,0.99384403,-0.10895884,-0.016387612,0.10863945,0.9939461,0.99966466,0.021712406,0.014108706,-0.019592997,0.9924116,-0.12138885,-0.01768604,0.121049136,0.9924889,0.99965155,0.021592721,0.015180116,10.102493,0.21774292,0.1531372,9.803362,0.21292597,0.13835914,0.011169434,-0.0031585693,0.0039367676,-36.71875,2.758789,31.91986,1,0.0,0.0,0.0,0.0
1.958984375,-0.020026071,0.99384725,-0.10893366,-0.0163541,0.1086153,0.9939493,0.9996657,0.02168641,0.014078341,-0.019602394,0.9924419,-0.12114035,-0.017660134,0.12080105,0.9925196,0.99965185,0.021595115,0.015158665,10.102493,0.21774292,0.1531372,9.803371,0.21267104,0.13806137,0.013305664,-0.008056641,0.0051574707,-36.71875,2.758789,31.91986,1,0.0,0.0,0.0,0.0
1.967285156,-0.020120192,0.99449515,-0.10283309,-0.016155481,0.10251709,0.99460006,0.999667,0.02167286,0.014003883,-0.019619724,0.9925003,-0.120657176,-0.01760856,0.12031867,0.99257916,0.9996524,0.021598728,0.015115882,10.116852,0.22970581,0.11843872,9.803385,0.21253815,0.13733119,0.00491333,-0.0043792725,0.002105713,-36.59973,2.5787354,32.099915,1,0.0,0.0,0.0,0.0
1.975585937,-0.02012943,0.99449384,-0.10284352,-0.01610646,0.10252845,0.99459964,0.9996676,0.021677168,0.013953936,-0.019640421,0.99258536,-0.11995205,-0.017551202,0.11961442,0.99266523,0.999653,0.021601668,0.01507179,10.126419,0.23330688,0.14237976,9.8033905,0.21258041,0.13684137,0.007965088,-0.009887695,-6.5612793E-4,-36.59973,2.5787354,32.099915,1,0.0,0.0,0.0,0.0
1.983886719,-0.020173926,0.994698,-0.10084129,-0.015992494,0.10052787,0.9948057,0.9996686,0.02168184,0.0138796605,-0.019650638,0.9926265,-0.11961024,-0.01752238,0.119273044,0.9927069,0.99965334,0.021603178,0.015049386,10.126419,0.23330688,0.14237976,9.8034,0.21262622,0.13611297,0.0039978027,-0.0071411133,0.001953125,-36.538696,2.519226,32.159424,1,0.0,0.0,0.0,0.0
1.9921875,-0.02020181,0.99469423,-0.10087267,-0.015870454,0.10056151,0.9948042,0.9996699,0.02169774,0.0137547245,-0.01966159,0.9926713,-0.11923536,-0.017491957,0.11889863,0.99275225,0.99965364,0.02160475,0.015026027,10.126419,0.23449707,0.102890015,9.803413,0.21278214,0.13488777,-0.0013427734,-0.008361816,-4.8828125E-4,-36.538696,2.519226,32.159424,1,0.0,0.0,0.0,0.0
2.000488281,-0.020230725,0.9946903,-0.100905225,-0.015789535,0.10059542,0.99480206,0.9996706,0.021718813,0.0136705795,-0.019683989,0.99275786,-0.11850894,-0.017428074,0.1181732,0.99284005,0.99965435,0.021608435,0.014975739,10.126419,0.23449707,0.102890015,9.80342,0.21298881,0.13406259,4.8828125E-4,3.5095215E-4,-7.9345703E-4,-36.538696,2.519226,32.159424,1,0.0,0.0,0.0,0.0
2.008789062,-0.020404866,0.99560434,-0.09140968,-0.01557546,0.09110107,0.99571985,0.99967045,0.021741277,0.013648089,-0.019706612,0.9928403,-0.1178125,-0.017363543,0.11747775,0.99292374,0.999655,0.021612804,0.014924137,10.1324005,0.24406433,0.124420166,9.803418,0.2132091,0.13384204,-0.0054779053,0.0030975342,0.0011901855,-36.299133,2.1591187,31.619263,1,0.0,0.0,0.0,0.0
2.017089844,-0.020358615,0.9954303,-0.09329578,-0.015606353,0.09298735,0.99554497,0.9996709,0.021723922,0.013641942,-0.019721365,0.99290246,-0.11728518,-0.017328054,0.11695093,0.99298656,0.9996553,0.021615373,0.014898634,10.112076,0.21534729,0.1268158,9.803423,0.2130389,0.13378176,0.0068969727,0.002029419,-0.002319336,-36.419678,2.218628,31.619263,1,0.0,0.0,0.0,0.0
2.025390625,-0.02038066,0.9954274,-0.093320966,-0.015617267,0.093012005,0.99554247,0.9996703,0.021747233,0.013650211,-0.019747948,0.9930135,-0.11633639,-0.017260352,0.11600313,0.99309886,0.99965596,0.021619674,0.01484894,10.121643,0.22970581,0.12921143,9.803417,0.21326752,0.13386284,0.003540039,0.003250122,-0.0017089844,-36.419678,2.218628,31.619263,1,0.0,0.0,0.0,0.0
2.033691406,-0.020158784,0.9940731,-0.10682835,-0.015917584,0.106517404,0.99418336,0.99967,0.021741977,0.013675981,-0.01977424,0.99311924,-0.11542603,-0.017195718,0.1150937,0.9932058,0.99965656,0.021624723,0.014801509,10.114456,0.21296692,0.12802124,9.803414,0.21321596,0.13411556,0.0017089844,0.009506226,0.0011901855,-36.11908,2.6397705,31.3797,1,0.0,0.0,0.0,0.0
2.041992187,-0.020157177,0.99407333,-0.106826514,-0.016028967,0.10651317,0.99418205,0.9996683,0.021752223,0.013786963,-0.01977424,0.99311924,-0.11542603,-0.017195718,0.1150937,0.9932058,0.99965656,0.021624723,0.014801509,10.114456,0.21296692,0.12802124,9.803397,0.21331644,0.13520393,0.0017089844,0.009506226,0.0011901855,-36.11908,2.6397705,31.3797,1,0.0,0.0,0.0,0.0
2.050292969,-0.020163156,0.9940725,-0.10683334,-0.016089085,0.106518604,0.99418056,0.9996672,0.021764664,0.013845965,-0.01979728,0.9931774,-0.11492045,-0.01712721,0.114589214,0.99326533,0.9996573,0.02163222,0.014741803,10.124039,0.24406433,0.14356995,9.803387,0.21343845,0.13578254,0.0015563965,-0.0014801025,0.0037841797,-36.11908,2.6397705,31.3797,1,0.0,0.0,0.0,0.0
2.05859375,-0.02040806,0.995586,-0.09160716,-0.01580238,0.09129359,0.9956985,0.9996668,0.02176789,0.013869505,-0.01981206,0.99321413,-0.11460023,-0.01708627,0.11426964,0.9933029,0.9996577,0.021637466,0.014706408,10.124039,0.24406433,0.14356995,9.803383,0.21347009,0.13601339,0.0043029785,0.0030975342,0.0037841797,-36.538696,2.0996094,30.958557,1,0.0,0.0,0.0,0.0
2.066894531,-0.02070748,0.99717784,-0.0721631,-0.015410394,0.071851656,0.9972963,0.9996668,0.021763558,0.013879037,-0.01982445,0.99326676,-0.11414097,-0.017060833,0.1138107,0.993356,0.99965787,0.021640075,0.014689723,10.134796,0.23091125,0.14476013,9.803383,0.21342759,0.13610686,0.003540039,-0.0042266846,-0.0030975342,-36.71875,1.4389038,30.419922,1,0.0,0.0,0.0,0.0
2.075195312,-0.020707972,0.9971778,-0.072163686,-0.015374424,0.07185301,0.99729663,0.9996673,0.02176147,0.013843104,-0.019861396,0.99345523,-0.11248193,-0.016996166,0.11215237,0.99354565,0.9996582,0.021644967,0.014657428,10.102493,0.22492981,0.1375885,9.803388,0.21340713,0.13575448,0.0024719238,-0.011108398,0.0037841797,-36.71875,1.4389038,30.419922,1,0.0,0.0,0.0,0.0
2.083496094,-0.020690234,0.99692297,-0.07560775,-0.01535274,0.07529821,0.9970429,0.99966806,0.021789836,0.013747561,-0.019896783,0.9936337,-0.11088854,-0.016932713,0.110559694,0.99372524,0.99965864,0.02164958,0.014625132,10.115662,0.24047852,0.12322998,9.803394,0.21368529,0.13481751,0.0012512207,-0.0028533936,-4.8828125E-4,-36.898804,1.5594482,30.659485,1,0.0,0.0,0.0,0.0
2.091796875,-0.020713864,0.99692035,-0.07563606,-0.015301522,0.075327314,0.99704146,0.99966836,0.021809928,0.013694078,-0.019913508,0.9937117,-0.11018407,-0.016901385,0.1098556,0.99380386,0.9996588,0.021652384,0.014607494,10.115662,0.24047852,0.12322998,9.803398,0.21388234,0.13429303,0.0018615723,-1.0681152E-4,0.0028686523,-36.898804,1.5594482,30.659485,1,0.0,0.0,0.0,0.0
2.100097656,-0.02067554,0.9969246,-0.07559015,-0.0152947735,0.07528207,0.997045,0.99966925,0.02177058,0.013691238,-0.019946866,0.9938615,-0.1088182,-0.016838554,0.10849047,0.9939549,0.9996592,0.021658625,0.014571145,10.096512,0.2141571,0.14955139,9.803407,0.21349646,0.13426518,-0.0013427734,-0.0030059814,0.007904053,-36.898804,1.5594482,30.659485,1,0.0,0.0,0.0,0.0
2.108398437,-0.020814247,0.997756,-0.06363733,-0.015054452,0.06333113,0.997879,0.99967,0.021728124,0.013702481,-0.019977251,0.9940039,-0.10750461,-0.016777946,0.10717764,0.99409837,0.99965966,0.021663057,0.014536227,10.096512,0.2141571,0.14955139,9.803414,0.21308012,0.13437544,-2.746582E-4,0.0037078857,-0.0010986328,-37.078857,1.1398315,29.99878,1,0.0,0.0,0.0,0.0
2.116699219,-0.020715518,0.9973776,-0.06934613,-0.015202931,0.06903875,0.9974982,0.99966985,0.021717954,0.013732889,-0.01999509,0.99409777,-0.10662898,-0.016743895,0.10630238,0.9941929,0.99965984,0.021664359,0.014519543,10.118057,0.2368927,0.122039795,9.803412,0.21298037,0.13467364,0.0026245117,-2.593994E-4,-4.8828125E-4,-37.078857,1.3198853,30.059814,1,0.0,0.0,0.0,0.0
2.125,-0.020713639,0.99737775,-0.06934381,-0.015194368,0.06903665,0.99749845,0.99967,0.021715458,0.013724524,-0.020025259,0.99425423,-0.105155095,-0.016683532,0.104829244,0.9943503,0.99966025,0.021666482,0.01448844,10.125229,0.20698547,0.12921143,9.803413,0.21295589,0.1345916,3.3569336E-4,-0.0011749268,-0.0035552979,-37.078857,1.3198853,30.059814,1,0.0,0.0,0.0,0.0
2.133300781,-0.020721558,0.9972822,-0.07070336,-0.015233062,0.0703954,0.99740297,0.99966925,0.021744769,0.013732958,-0.02005404,0.99440235,-0.10373934,-0.016625224,0.103414185,0.99449944,0.9996607,0.02166842,0.014458289,10.114456,0.23449707,0.13998413,9.803407,0.21324335,0.13467431,-0.0036315918,0.0043182373,-0.0021820068,-37.1994,1.3793945,30.358887,1,0.0,0.0,0.0,0.0
2.141601562,-0.020760804,0.9972779,-0.07075125,-0.015233731,0.07044274,0.99739945,0.99966836,0.021784622,0.013729815,-0.02006808,0.99447066,-0.10307953,-0.016597614,0.102754705,0.9945682,0.9996608,0.021669947,0.01444375,10.097717,0.24406433,0.11843872,9.803398,0.21363416,0.1346435,-0.0014953613,0.0011138916,-0.0035552979,-37.1994,1.3793945,30.358887,1,0.0,0.0,0.0,0.0
2.149902344,-0.02075104,0.997279,-0.07073934,-0.015305122,0.07042941,0.9973994,0.9996675,0.021779746,0.013801993,-0.02009679,0.9946017,-0.1018012,-0.016544059,0.101477005,0.9947003,0.99966115,0.02167449,0.014415387,10.125229,0.21057129,0.17945862,9.80339,0.21358635,0.13535132,0.0073547363,-0.0068359375,0.0016479492,-37.1994,1.3793945,30.358887,1,0.0,0.0,0.0,0.0
2.158203125,-0.020848773,0.99784636,-0.062192667,-0.01516129,0.061883483,0.99796826,0.9996677,0.021749338,0.013838444,-0.020110438,0.9946648,-0.10118081,-0.016519524,0.100856885,0.9947638,0.99966127,0.021676594,0.014403111,10.125229,0.21057129,0.14955139,9.803391,0.21328814,0.13570878,-0.0011901855,-0.0042266846,0.0053100586,-37.5,1.0787964,29.87976,1,0.0,0.0,0.0,0.0
2.166503906,-0.021269016,0.999274,-0.03160894,-0.014497988,0.031304494,0.9994048,0.99966866,0.02171462,0.013821646,-0.02014109,0.99481976,-0.0996395,-0.016466461,0.09931613,0.99491966,0.9996615,0.021679476,0.014380826,10.104889,0.21176147,0.15553284,9.803401,0.21294768,0.13554405,0.0026245117,-0.006362915,0.001953125,-38.09967,0.119018555,29.399109,1,0.0,0.0,0.0,0.0
2.174804687,-0.021247284,0.9992754,-0.031580787,-0.014463588,0.03127739,0.99940616,0.9996697,0.02169144,0.013788546,-0.020189015,0.9950842,-0.096952215,-0.016390085,0.09662954,0.9951855,0.9996618,0.021680867,0.01435866,10.104889,0.21176147,0.15553284,9.803411,0.21272036,0.13521945,0.0039978027,-0.009429932,0.002105713,-38.09967,0.119018555,29.399109,1,0.0,0.0,0.0,0.0
2.183105469,-0.02123208,0.9992763,-0.031561084,-0.014367934,0.03125996,0.99940795,0.9996713,0.021672977,0.013693822,-0.020211775,0.99521,-0.09564799,-0.016352247,0.09532568,0.9953118,0.9996619,0.021681078,0.01434722,10.1276245,0.21296692,0.12921143,9.803427,0.21253932,0.13429052,0.0041503906,-0.010955811,1.2207031E-4,-38.09967,0.119018555,29.399109,1,0.0,0.0,0.0,0.0
2.19140625,-0.021100257,0.99893916,-0.04093203,-0.014491795,0.040631253,0.9990692,0.99967235,0.021673795,0.0136190895,-0.020255396,0.9954492,-0.093115985,-0.016274894,0.092794456,0.99555224,0.99966234,0.021680757,0.014321241,10.114456,0.22732544,0.105285645,9.803437,0.21254733,0.13355765,0.0010986328,3.5095215E-4,-0.004776001,-37.979126,0.4196167,29.818726,1,0.0,0.0,0.0,0.0
2.199707031,-0.021108456,0.99893856,-0.04094246,-0.014486039,0.040641695,0.99906886,0.9996723,0.021681892,0.013612779,-0.020291312,0.99563926,-0.09105352,-0.016205229,0.09073278,0.9957434,0.99966276,0.021680484,0.014293475,10.13002,0.21176147,0.14596558,9.803436,0.21262673,0.13349576,0.0033874512,5.0354004E-4,2.746582E-4,-37.979126,0.4196167,29.818726,1,0.0,0.0,0.0,0.0
2.208007812,-0.020798124,0.9978716,-0.06180349,-0.014899205,0.061500646,0.9979958,0.99967265,0.021677265,0.013588397,-0.020308832,0.9957299,-0.09005313,-0.016171312,0.08973278,0.99583465,0.999663,0.021680513,0.014279891,10.108475,0.21894836,0.105285645,9.80344,0.21258135,0.13325666,0.0033874512,0.007522583,0.0039367676,-37.919617,1.0787964,30.178833,1,0.0,0.0,0.0,0.0
2.216308594,-0.020956144,0.99858624,-0.04885084,-0.014632613,0.04855,0.9987137,0.99967337,0.021644002,0.013594505,-0.020329256,0.99582994,-0.088935554,-0.016121322,0.08861587,0.9959354,0.99966335,0.021680385,0.0142526,10.126419,0.20578003,0.10169983,9.803447,0.21225515,0.13331656,-0.0051727295,0.0050811768,0.003326416,-38.09967,0.6591797,29.818726,1,0.0,0.0,0.0,0.0
2.224609375,-0.020919042,0.9985893,-0.048803505,-0.014657229,0.048502624,0.99871546,0.9996737,0.021607498,0.013621924,-0.020355713,0.99596965,-0.08735052,-0.016062949,0.08703155,0.996076,0.9996637,0.021678945,0.014226621,10.126419,0.20578003,0.10169983,9.803451,0.21189718,0.13358545,0.0014038086,0.0096588135,0.0031738281,-38.09967,0.6591797,29.818726,1,0.0,0.0,0.0,0.0
2.232910156,-0.020904848,0.9985905,-0.048785396,-0.014693771,0.048483912,0.9987159,0.9996734,0.021594843,0.01365951,-0.020367747,0.99603665,-0.08658066,-0.016034983,0.08626205,0.9961434,0.99966395,0.021677516,0.014214467,10.112076,0.23091125,0.10647583,9.803448,0.21177307,0.13395403,0.0014038086,0.013336182,0.004699707,-38.09967,0.6591797,29.818726,1,0.0,0.0,0.0,0.0
2.241210937,-0.020577457,0.99738955,-0.06921406,-0.015164165,0.0689094,0.99750763,0.99967325,0.021575743,0.0137066,-0.020390376,0.9961649,-0.08508608,-0.015982287,0.08476813,0.99627244,0.9996643,0.021674244,0.01419254,10.112076,0.23091125,0.10647583,9.803446,0.21158578,0.13441584,-0.0034942627,0.015014648,0.0053100586,-37.739563,1.3198853,30.239868,1,0.0,0.0,0.0,0.0
2.249511719,-0.020546662,0.99739283,-0.06917577,-0.015312596,0.068868324,0.99750817,0.99967164,0.021554725,0.01385766,-0.020398173,0.9962182,-0.08445783,-0.015950104,0.08414039,0.9963262,0.99966466,0.021670345,0.014173474,10.120438,0.22732544,0.1651001,9.803431,0.21137966,0.13589723,-0.0027160645,0.01133728,0.0011901855,-37.739563,1.3198853,30.239868,1,0.0,0.0,0.0,0.0
2.2578125,-0.0206866,0.99802595,-0.05929876,-0.015233825,0.05898992,0.99814236,0.9996699,0.021551518,0.013983451,-0.020401286,0.996244,-0.084152296,-0.015937364,0.083835065,0.99635214,0.9996648,0.021668034,0.01416716,10.116852,0.22970581,0.15074158,9.803413,0.2113482,0.13713081,-0.0054779053,0.007827759,0.0014953613,-37.678528,1.0192871,30.299377,1,0.0,0.0,0.0,0.0
2.266113281,-0.020700248,0.99802464,-0.059315693,-0.015315801,0.059004888,0.99814016,0.99966836,0.021570215,0.01406413,-0.020413006,0.9963264,-0.083168946,-0.015909597,0.08285204,0.9964348,0.999665,0.021663416,0.014159892,10.128815,0.23928833,0.13400269,9.803398,0.21153155,0.137922,0.0041503906,0.0121154785,0.0016479492,-37.678528,1.0192871,30.299377,1,0.0,0.0,0.0,0.0
2.274414062,-0.020680944,0.99781173,-0.06280028,-0.015485063,0.062486496,0.9979255,0.99966615,0.02161051,0.014158901,-0.02042469,0.99640447,-0.082225166,-0.015886275,0.081908494,0.99651325,0.99966514,0.021659726,0.014156198,10.140778,0.25483704,0.13998413,9.803376,0.21192671,0.13885139,-5.79834E-4,0.006149292,0.0037841797,-37.379456,1.1398315,30.419922,1,0.0,0.0,0.0,0.0
2.282714844,-0.020705855,0.99780935,-0.062830806,-0.015553927,0.062515184,0.9979227,0.9996646,0.02164011,0.014225424,-0.020429898,0.9964363,-0.08183692,-0.015878236,0.081520304,0.9965452,0.99966514,0.021658743,0.014156198,10.140778,0.25483704,0.13998413,9.803361,0.21221699,0.13950376,0.003692627,0.005996704,0.0031738281,-37.379456,1.1398315,30.419922,1,0.0,0.0,0.0,0.0
2.291015625,-0.02059237,0.9973877,-0.069236204,-0.015722886,0.06891926,0.99749833,0.9996643,0.021629445,0.014262604,-0.020440912,0.99649763,-0.08108472,-0.015865602,0.08076815,0.99660665,0.99966514,0.021658005,0.014159059,10.1276245,0.22732544,0.12802124,9.803358,0.21211241,0.13986836,0.0058288574,0.010894775,0.0037841797,-37.078857,1.3793945,30.899048,1,0.0,0.0,0.0,0.0
2.299316406,-0.020587344,0.9973883,-0.06923019,-0.015770458,0.06891229,0.99749815,0.9996637,0.021627624,0.014310548,-0.020443937,0.99651676,-0.08084786,-0.015862834,0.08053128,0.9966258,0.99966514,0.021657433,0.014161204,10.1276245,0.22732544,0.12802124,9.803352,0.21209455,0.14033854,0.002166748,0.007369995,-3.3569336E-4,-37.078857,1.3793945,30.899048,1,0.0,0.0,0.0,0.0
2.307617187,-0.020346146,0.996225,-0.084390216,-0.016172688,0.08406869,0.99632865,0.99966216,0.021636266,0.014401163,-0.020449601,0.99655384,-0.08038805,-0.015859244,0.08007142,0.9966629,0.999665,0.021656254,0.014167163,10.140778,0.23928833,0.1603241,9.803337,0.21217929,0.14122717,0.0024719238,0.0069122314,0.0016479492,-36.65924,1.9195557,31.498718,1,0.0,0.0,0.0,0.0
2.315917969,-0.020262055,0.995862,-0.08859107,-0.016288035,0.0882687,0.9959635,0.999662,0.021623243,0.014432129,-0.020445555,0.99654114,-0.0805466,-0.015871579,0.080229774,0.99665,0.99966496,0.021655465,0.01417634,10.125229,0.21534729,0.12802124,9.803336,0.21205159,0.14153086,0.002166748,0.0056915283,0.0010375977,-36.479187,2.0385742,31.259155,1,0.0,0.0,0.0,0.0
2.32421875,-0.020238014,0.995865,-0.088563204,-0.016310908,0.08824069,0.99596566,0.99966216,0.021600911,0.014457644,-0.020441936,0.9965282,-0.080707565,-0.015879935,0.080390625,0.9966369,0.9996649,0.02165482,0.014181464,10.125229,0.21534729,0.12802124,9.803337,0.21183258,0.14178106,0.008880615,0.009048462,0.0042419434,-36.479187,2.0385742,31.259155,1,0.0,0.0,0.0,0.0
2.332519531,-0.020233748,0.9958655,-0.08855826,-0.016419182,0.08823347,0.99596465,0.9996605,0.021606147,0.014566002,-0.020433955,0.9965031,-0.08101868,-0.015897188,0.080701515,0.99661154,0.9996648,0.021652685,0.014192548,10.13121,0.23928833,0.17706299,9.80332,0.21188392,0.14284368,-5.79834E-4,0.008895874,7.324219E-4,-36.479187,2.0385742,31.259155,1,0.0,0.0,0.0,0.0
2.340820312,-0.020472515,0.9969981,-0.07467056,-0.016253581,0.07434445,0.9971001,0.9996583,0.021626813,0.014682772,-0.020426149,0.9964789,-0.081317276,-0.015918005,0.0809998,0.99658704,0.9996646,0.021650843,0.014207443,10.120438,0.24287415,0.098098755,9.803299,0.21208659,0.1439888,0.0044555664,0.01638794,-0.0020141602,-36.538696,1.5594482,30.839539,1,0.0,0.0,0.0,0.0
2.349121094,-0.020514948,0.9969935,-0.07472061,-0.016304046,0.074392796,0.99709576,0.9996566,0.021673614,0.014728862,-0.02042789,0.9965004,-0.081054136,-0.01593118,0.08073633,0.9966082,0.99966437,0.021649892,0.0142261535,10.118057,0.24406433,0.16989136,9.803283,0.21254556,0.1444408,0.0055236816,0.017456055,-0.0014038086,-36.538696,1.5594482,30.839539,1,0.0,0.0,0.0,0.0
2.357421875,-0.02017391,0.99508685,-0.09692823,-0.016933504,0.09659398,0.99517983,0.9996531,0.021718003,0.0149016315,-0.020429581,0.99651057,-0.08092746,-0.015938597,0.08060945,0.99661833,0.9996642,0.021650366,0.014236163,10.118057,0.22013855,0.14596558,9.803248,0.21298085,0.14613509,0.006286621,0.015625,0.001953125,-36.299133,2.279663,30.958557,1,0.0,0.0,0.0,0.0
2.365722656,-0.02033044,0.99597925,-0.08724627,-0.016848467,0.08691062,0.99607366,0.9996514,0.021720583,0.0150137935,-0.020419966,0.9964591,-0.081561506,-0.015978051,0.081242844,0.9965663,0.99966383,0.021653043,0.014262499,10.103699,0.20100403,0.17826843,9.803231,0.21300615,0.14723502,0.00491333,0.004928589,-0.0056915283,-36.419678,1.979065,31.079102,1,0.0,0.0,0.0,0.0
2.374023437,-0.020307753,0.99598217,-0.08721987,-0.01694829,0.08688238,0.9960745,0.9996501,0.021706259,0.015115805,-0.020418268,0.9964498,-0.08167516,-0.015995454,0.08135616,0.99655676,0.99966353,0.021654394,0.014277514,10.103699,0.20100403,0.17826843,9.803219,0.21286568,0.14823541,3.3569336E-4,0.0017242432,0.001953125,-36.419678,1.979065,31.079102,1,0.0,0.0,0.0,0.0
2.382324219,-0.02033682,0.99597853,-0.087253705,-0.016904168,0.086916745,0.99607223,0.9996503,0.021731889,0.015068578,-0.020414079,0.9964319,-0.081894815,-0.01603325,0.08157507,0.9965383,0.999663,0.021656448,0.014310761,10.124039,0.23568726,0.112457275,9.803221,0.21311703,0.14777227,0.010559082,-0.007888794,0.0036315918,-36.419678,1.979065,31.079102,1,0.0,0.0,0.0,0.0
2.390625,-0.020230122,0.9953952,-0.09369769,-0.016955111,0.093361825,0.99548787,0.99965155,0.021727493,0.014988313,-0.020411188,0.9964145,-0.082106926,-0.016067764,0.081786506,0.9965204,0.9996625,0.021659438,0.014340792,10.1324005,0.23091125,0.16749573,9.803233,0.21307392,0.14698514,0.007507324,0.0041656494,-0.0017089844,-36.59973,2.1591187,30.839539,1,0.0,0.0,0.0,0.0
2.398925781,-0.020226192,0.9953956,-0.093693055,-0.016967991,0.093356974,0.99548805,0.99965143,0.021724718,0.015001609,-0.020407736,0.9963954,-0.082338855,-0.016085567,0.08201813,0.996501,0.99966234,0.021660797,0.01435378,10.1324005,0.23091125,0.16749573,9.803232,0.2130467,0.14711553,0.0099487305,9.613037E-4,0.0013427734,-36.59973,2.1591187,30.839539,1,0.0,0.0,0.0,0.0
2.407226562,-0.020276124,0.9956788,-0.09062335,-0.016890347,0.09028792,0.9957724,0.99965173,0.021721069,0.014986671,-0.020400874,0.9963583,-0.0827888,-0.016120635,0.08246746,0.9964634,0.9996619,0.02166333,0.014379521,10.108475,0.24765015,0.21296692,9.803235,0.21301092,0.14696904,0.009796143,-0.014770508,0.00592041,-36.65924,2.0385742,30.599976,1,0.0,0.0,0.0,0.0
2.415527344,-0.020312129,0.99584764,-0.088741064,-0.016837202,0.08840606,0.9959422,0.99965185,0.021723857,0.014971571,-0.020396147,0.9963326,-0.08309912,-0.016151043,0.08277722,0.9964372,0.9996615,0.021665616,0.014403473,10.107285,0.23449707,0.1603241,9.803236,0.21303827,0.14682096,0.006134033,-0.013702393,0.004852295,-36.65924,1.979065,30.599976,1,0.0,0.0,0.0,0.0
2.423828125,-0.020308064,0.9958482,-0.08873622,-0.016737355,0.08840346,0.9959442,0.9996537,0.021710906,0.014872559,-0.02039454,0.9963232,-0.08321197,-0.016164728,0.08288981,0.9964276,0.9996613,0.02166678,0.014414794,10.107285,0.23449707,0.1603241,9.803254,0.21291126,0.14584999,0.003540039,-0.015533447,0.0040893555,-36.65924,1.979065,30.599976,1,0.0,0.0,0.0,0.0
2.432128906,-0.020314911,0.99584717,-0.088744365,-0.016658857,0.0884132,0.99594444,0.99965477,0.021710904,0.014793573,-0.020391222,0.9963049,-0.08343081,-0.016187398,0.08310822,0.99640906,0.999661,0.021668525,0.014432907,10.125229,0.24047852,0.18185425,9.803266,0.21291126,0.14507541,0.0041503906,-0.014923096,-0.0017089844,-36.65924,1.979065,30.599976,1,0.0,0.0,0.0,0.0
2.440429687,-0.020326234,0.995771,-0.0895936,-0.01649437,0.08926592,0.9958712,0.9996573,0.0217201,0.014610173,-0.020388281,0.99628735,-0.083641365,-0.016206095,0.083318435,0.9963912,0.99966073,0.021670204,0.014447206,10.118057,0.22970581,0.112457275,9.803289,0.21300143,0.14327686,-0.0036315918,-0.018432617,0.0037841797,-36.59973,1.979065,30.299377,1,0.0,0.0,0.0,0.0
2.448730469,-0.020348635,0.9957681,-0.08962046,-0.016303448,0.08929662,0.9958716,0.99966,0.021725753,0.01441739,-0.02038707,0.9962774,-0.08376046,-0.016211819,0.083437435,0.9963811,0.9996607,0.021671202,0.014450423,10.118057,0.22970581,0.112457275,9.803316,0.21305686,0.1413863,0.0043029785,-0.018432617,0.0037841797,-36.59973,1.979065,30.299377,1,0.0,0.0,0.0,0.0
2.45703125,-0.020449623,0.9961776,-0.08492226,-0.016032118,0.08460236,0.99628574,0.99966234,0.021735156,0.014240753,-0.020385548,0.99625784,-0.083992556,-0.016215561,0.0836695,0.9963616,0.9996607,0.021673365,0.014449231,10.112076,0.24526978,0.12562561,9.803339,0.21314907,0.13965409,0.004760742,-0.011871338,0.0037841797,-36.538696,1.8585205,30.599976,1,0.0,0.0,0.0,0.0
2.465332031,-0.020466397,0.9961756,-0.08494216,-0.015897565,0.08462496,0.996286,0.9996641,0.02174076,0.014104799,-0.020386826,0.9962563,-0.08401126,-0.016211892,0.08368827,0.9963601,0.99966073,0.021674601,0.01444506,10.112076,0.24526978,0.12562561,9.803357,0.21320406,0.13832085,-8.8500977E-4,-0.006515503,0.004699707,-36.538696,1.8585205,30.599976,1,0.0,0.0,0.0,0.0
2.473632812,-0.020362524,0.9955991,-0.09147603,-0.01595015,0.091159865,0.9957086,0.99966544,0.021734195,0.014023709,-0.020389967,0.9962531,-0.08404796,-0.016199445,0.08372519,0.99635714,0.99966085,0.021677222,0.014431593,10.128815,0.22492981,0.114852905,9.803369,0.21313964,0.1375256,0.007659912,-0.0059051514,-0.001876831,-36.419678,2.0996094,30.958557,1,0.0,0.0,0.0,0.0
2.481933594,-0.020399489,0.9955943,-0.091519184,-0.015913691,0.0912033,0.9957051,0.99966526,0.021768283,0.01398308,-0.020388786,0.9962283,-0.0843421,-0.016189625,0.0840196,0.9963326,0.999661,0.021679478,0.014415504,10.11087,0.24287415,0.13998413,9.803368,0.21347395,0.13712718,0.006439209,-0.0055999756,-6.5612793E-4,-36.419678,2.0996094,30.958557,1,0.0,0.0,0.0,0.0
2.490234375,-0.020619277,0.9965958,-0.07982262,-0.01561084,0.079508945,0.99671197,0.99966556,0.021797577,0.0139182815,-0.020388952,0.99621606,-0.084485784,-0.016184049,0.08416341,0.99632055,0.9996611,0.021681253,0.014406805,10.11087,0.24287415,0.13998413,9.80337,0.21376121,0.13649172,0.003692627,-0.009124756,7.324219E-4,-36.239624,1.739502,31.079102,1,0.0,0.0,0.0,0.0
2.498535156,-0.02061782,0.996596,-0.07982093,-0.015524315,0.07950916,0.9967133,0.9996669,0.02178922,0.013832164,-0.020398162,0.99623156,-0.08430112,-0.016161421,0.08397909,0.99633646,0.9996613,0.021685857,0.014387499,10.122833,0.22013855,0.12921143,9.803384,0.21367925,0.1356472,-2.746582E-4,-0.007583618,0.006225586,-36.239624,1.739502,31.079102,1,0.0,0.0,0.0,0.0
2.506835937,-0.020509921,0.99599254,-0.08705311,-0.015608931,0.08674183,0.9961086,0.9996678,0.02178891,0.01376731,-0.020406958,0.99624634,-0.08412364,-0.016136283,0.08380201,0.9963518,0.9996615,0.021689951,0.014365569,10.126419,0.2368927,0.14476013,9.803392,0.21367621,0.1350112,0.008880615,-0.012176514,4.272461E-4,-36.05957,1.979065,31.13861,1,0.0,0.0,0.0,0.0
2.515136719,-0.020517284,0.9959916,-0.087061584,-0.015528344,0.086751945,0.9961088,0.99966884,0.021789372,0.013686186,-0.020408982,0.99624133,-0.08418222,-0.016125776,0.08386079,0.996347,0.9996616,0.021691931,0.014353651,10.126419,0.2368927,0.14476013,9.803403,0.21368074,0.13421564,0.0053710938,-0.015838623,0.0036315918,-36.05957,1.979065,31.13861,1,0.0,0.0,0.0,0.0
2.5234375,-0.020413078,0.9954827,-0.092723936,-0.015542097,0.09241609,0.99559927,0.9996708,0.021764366,0.013585389,-0.020413203,0.9962316,-0.08429635,-0.016102081,0.08397539,0.9963377,0.9996619,0.02169579,0.014327195,10.140778,0.22013855,0.16870117,9.803422,0.21343553,0.13322715,-4.272461E-4,-0.018432617,0.0022583008,-35.879517,2.1591187,31.079102,1,0.0,0.0,0.0,0.0
2.531738281,-0.020433223,0.99548,-0.09274701,-0.015374373,0.09244255,0.99559927,0.99967295,0.021769227,0.013415982,-0.02041299,0.9962033,-0.08463024,-0.016079826,0.08430981,0.9963098,0.9996623,0.021698505,0.01429776,10.121643,0.24406433,0.13639832,9.803444,0.21348321,0.13156585,-0.0018005371,-0.02897644,0.0042419434,-35.879517,2.1591187,31.079102,1,0.0,0.0,0.0,0.0
2.540039062,-0.020309221,0.9945158,-0.102596134,-0.015383931,0.1022943,0.9946353,0.9996754,0.021778598,0.013222043,-0.020413268,0.9961895,-0.08479273,-0.016065704,0.08447261,0.9962963,0.99966246,0.021699918,0.014280122,10.121643,0.24406433,0.13639832,9.803467,0.2135751,0.12966396,-0.0030212402,-0.025299072,0.0010375977,-35.758972,2.519226,31.498718,1,0.0,0.0,0.0,0.0
2.548339844,-0.020321434,0.99451405,-0.10260986,-0.015165938,0.10231262,0.9946367,0.9996785,0.02176862,0.013003601,-0.020408565,0.9961292,-0.08549834,-0.016038634,0.08517894,0.99623656,0.99966305,0.021703035,0.014238173,10.118057,0.2368927,0.13160706,9.803497,0.21347725,0.12752177,0.0039978027,-0.020874023,0.007446289,-35.758972,2.519226,31.498718,1,0.0,0.0,0.0,0.0
2.556640625,-0.02011152,0.9929775,-0.11658155,-0.015235061,0.11628723,0.99309886,0.9996817,0.021748852,0.012789358,-0.020404425,0.9960709,-0.086176544,-0.016004078,0.08585804,0.9961788,0.99966365,0.021705631,0.014189312,10.116852,0.24047852,0.11366272,9.803529,0.21328339,0.12542076,0.0024719238,-0.021484375,0.0024108887,-35.51941,2.999878,31.678772,1,0.0,0.0,0.0,0.0
2.564941406,-0.02012326,0.99297565,-0.116594546,-0.015050303,0.116304085,0.9930995,0.9996842,0.021739185,0.012604169,-0.020397918,0.9960182,-0.08678554,-0.01598873,0.08646752,0.99612635,0.99966407,0.021706495,0.014161307,10.116852,0.24047852,0.11366272,9.803554,0.21318859,0.12360468,0.0027770996,-0.014465332,0.0024108887,-35.51941,2.999878,31.678772,1,0.0,0.0,0.0,0.0
2.573242187,-0.020026917,0.9923278,-0.1220021,-0.014939462,0.12171594,0.9924526,0.99968785,0.02169841,0.012387248,-0.020385621,0.9959147,-0.08796767,-0.01595168,0.08765077,0.9960235,0.9996649,0.02170779,0.014099698,10.128815,0.20698547,0.037094116,9.803589,0.21278872,0.12147741,0.0026245117,0.0050811768,-7.9345703E-4,-35.398865,3.239441,32.159424,1,0.0,0.0,0.0,0.0
2.581542969,-0.020036673,0.9923264,-0.122012705,-0.014934145,0.121726535,0.9924514,0.99968773,0.021707578,0.012380548,-0.020369658,0.9957949,-0.08931753,-0.015911618,0.08900187,0.9959044,0.9996659,0.021707417,0.014031771,10.120438,0.23330688,0.08135986,9.803588,0.21287861,0.1214117,-0.002105713,0.030288696,-0.001876831,-35.398865,3.239441,32.159424,1,0.0,0.0,0.0,0.0
2.58984375,-0.019998906,0.99191684,-0.12530407,-0.015138265,0.12501436,0.9920395,0.9996854,0.021736588,0.012515748,-0.020362152,0.9957361,-0.089972414,-0.01589214,0.08965735,0.9958459,0.99966633,0.02170742,0.013998762,10.120438,0.23330688,0.08135986,9.803565,0.21316312,0.122737564,0.0014038086,0.03364563,-0.002319336,-35.21881,3.3599854,32.218933,1,0.0,0.0,0.0,0.0
2.598144531,-0.020007413,0.99191546,-0.12531322,-0.015381679,0.1250181,0.9920352,0.99968153,0.021775588,0.012756036,-0.020346263,0.99560875,-0.09137399,-0.015862396,0.091059946,0.9957191,0.9996671,0.021708572,0.01394001,10.113266,0.23928833,0.114852905,9.803527,0.21354558,0.12509398,0.012237549,0.036392212,0.0031738281,-35.21881,3.3599854,32.218933,1,0.0,0.0,0.0,0.0
2.606445312,-0.019883778,0.99091244,-0.13303047,-0.015800081,0.13272873,0.9910264,0.9996774,0.021807244,0.01301735,-0.020331778,0.9954846,-0.09272034,-0.015843397,0.09240706,0.9955953,0.9996677,0.021711227,0.013893057,10.119247,0.24047852,0.15553284,9.803487,0.21385601,0.1276566,0.009643555,0.043258667,0.0022583008,-35.21881,3.6590576,32.51953,1,0.0,0.0,0.0,0.0
2.614746094,-0.019848624,0.9909182,-0.13299304,-0.016165497,0.13268378,0.9910266,0.9996723,0.021820411,0.013385095,-0.020322457,0.9954092,-0.093528345,-0.015842631,0.0932153,0.99551994,0.99966794,0.021713147,0.0138755385,10.119247,0.24047852,0.15553284,9.803436,0.21398515,0.13126294,0.008270264,0.03929138,0.0040893555,-35.21881,3.6590576,32.51953,1,0.0,0.0,0.0,0.0
2.623046875,-0.019933332,0.99216974,-0.12329571,-0.016351052,0.12298021,0.9922744,0.9996676,0.021795353,0.013771612,-0.02030357,0.9952612,-0.095094286,-0.015855769,0.09478139,0.9953718,0.9996681,0.021717394,0.013856231,10.13121,0.21057129,0.20458984,9.8033905,0.2137394,0.13505338,0.007507324,0.014862061,-0.0024871826,-35.81848,3.239441,31.858826,1,0.0,0.0,0.0,0.0
2.631347656,-0.019930298,0.9921702,-0.123292364,-0.016610386,0.12297125,0.9922712,0.9996634,0.021824196,0.014029477,-0.020289145,0.995154,-0.09621254,-0.015875427,0.09589955,0.9952644,0.99966806,0.02172048,0.013852774,10.128815,0.2368927,0.19740295,9.8033495,0.21402225,0.13758217,9.460449E-4,0.007217407,0.0054626465,-35.81848,3.239441,31.858826,1,0.0,0.0,0.0,0.0
2.639648437,-0.019961845,0.99248374,-0.12073786,-0.016730357,0.12041341,0.9925828,0.9996607,0.021833772,0.014200931,-0.020282213,0.9951015,-0.09675496,-0.015890239,0.0964418,0.99521184,0.999668,0.021722555,0.013856349,10.128815,0.2368927,0.19740295,9.803323,0.21411616,0.13926357,0.0020141602,0.012252808,0.0054626465,-35.81848,3.1188965,31.559753,1,0.0,0.0,0.0,0.0
2.647949219,-0.019943073,0.99248666,-0.12071684,-0.016841274,0.120390244,0.99258375,0.99965924,0.021828197,0.014313786,-0.020270072,0.99500895,-0.097705655,-0.015923671,0.09739205,0.9951187,0.9996677,0.02172696,0.013870052,10.13121,0.24645996,0.17706299,9.8033085,0.21406148,0.1403703,9.460449E-4,-0.0010223389,0.00881958,-35.81848,3.1188965,31.559753,1,0.0,0.0,0.0,0.0
2.65625,-0.020006428,0.9931875,-0.11479748,-0.016770132,0.11447096,0.9932851,0.99965924,0.021797253,0.014365729,-0.020257732,0.9949191,-0.09861792,-0.015960071,0.09830379,0.99502844,0.99966735,0.02173097,0.013887568,10.124039,0.23928833,0.16390991,9.8033085,0.21375804,0.14087968,-0.0037994385,0.0017242432,0.0051574707,-35.879517,2.9388428,31.678772,1,0.0,0.0,0.0,0.0
2.664550781,-0.019972362,0.99319255,-0.11475935,-0.016791442,0.11443284,0.9932891,0.99965954,0.021765303,0.01439164,-0.020252917,0.9948871,-0.09894171,-0.015976278,0.09862733,0.9949962,0.9996672,0.021732295,0.013897101,10.124039,0.23928833,0.16390991,9.803311,0.21344471,0.14113379,0.0018615723,-2.593994E-4,0.0043945313,-35.879517,2.9388428,31.678772,1,0.0,0.0,0.0,0.0
2.672851562,-0.019887948,0.9927094,-0.1188804,-0.016909653,0.11855294,0.9928038,0.99965924,0.021755055,0.014428596,-0.020242192,0.99482477,-0.09956874,-0.01600873,0.09925387,0.9949333,0.99966687,0.0217336,0.0139167635,10.121643,0.23568726,0.18304443,9.803308,0.2133442,0.14149618,0.0033874512,-0.008804321,-0.0021820068,-35.939026,3.0593872,31.559753,1,0.0,0.0,0.0,0.0
2.681152344,-0.019889658,0.9927091,-0.11888231,-0.016826037,0.11855665,0.99280477,0.9996606,0.021746865,0.01434531,-0.020228684,0.9947481,-0.10033425,-0.016044537,0.100018874,0.9948561,0.99966663,0.021734448,0.013937023,10.114456,0.22253418,0.124420166,9.803322,0.2132639,0.14067943,-0.001953125,-0.005142212,0.0051574707,-35.939026,3.0593872,31.559753,1,0.0,0.0,0.0,0.0
2.689453125,-0.020014776,0.99363893,-0.11082052,-0.01658235,0.110497564,0.9937381,0.99966216,0.021727106,0.014265282,-0.020222116,0.99471074,-0.100705504,-0.016060289,0.10038991,0.9948185,0.9996665,0.021734696,0.013945245,10.114456,0.22253418,0.124420166,9.803337,0.21307012,0.13989463,7.9345703E-4,0.0023345947,0.0057678223,-36.11908,2.758789,31.259155,1,0.0,0.0,0.0,0.0
2.697753906,-0.020010496,0.9936395,-0.110815614,-0.01652417,0.11049399,0.9937395,0.99966323,0.021716354,0.014208028,-0.020214085,0.9946703,-0.10110623,-0.016080849,0.10079035,0.99477774,0.99966633,0.021734394,0.013957758,10.120438,0.23330688,0.098098755,9.803348,0.2129647,0.13933316,0.0010986328,0.016998291,-6.5612793E-4,-36.11908,2.758789,31.259155,1,0.0,0.0,0.0,0.0
2.706054687,-0.020020772,0.99363375,-0.1108651,-0.016594857,0.11054179,0.9937329,0.99966186,0.021735093,0.014276078,-0.020206157,0.99463123,-0.10149076,-0.016098429,0.101174645,0.9947384,0.9996662,0.02173368,0.01396765,10.120438,0.24287415,0.12562561,9.803334,0.21314846,0.1400005,0.008422852,0.018371582,0.007904053,-36.17859,2.758789,31.259155,1,0.0,0.0,0.0,0.0
