Time,Rot1,Rot2,Rot3,Rot4,Rot5,Rot6,Rot7,Rot8,Rot9,FRot1,FRot2,FRot3,FRot4,FRot5,FRot6,FRot7,FRot8,FRot9,AccX,AccY,AccZ,GravX,GravY,GravZ,GyroX,GyroY,GyroZ,MagX,MagY,MagZ,Imid
0.0,0.0,0.0,0.0,0.0,0.0,0.0,0.0,0.0,0.0,0.0,0.0,0.0,0.0,0.0,0.0,0.0,0.0,0.0,0.0,0.0,0.0,9.802068,0.19061159,-0.23132609,0.0,0.0,0.0,0.0,0.0,0.0,0,0.0,0.0,0.0,0.0
0.008300781,-0.016790679,0.99414355,0.10675497,0.025606245,-0.106307454,0.99400353,0.9995311,0.01942359,-0.023671309,1.0,0.0,0.0,0.0,1.0,0.0,0.0,0.0,1.0,10.052246,0.19262695,-0.15911865,9.802052,0.19048034,-0.23213625,-0.003112793,-0.05307007,0.005508423,-26.339722,-4.0786743,33.839417,0,0.0,0.0,0.0,0.0
0.016601563,-0.016823562,0.9945351,0.10303827,0.025780885,-0.102587104,0.99438983,0.999526,0.019385597,-0.023914116,0.99892884,0.033540178,-0.03187914,-0.033535507,0.99943733,6.8131695E-4,0.031884048,3.8849586E-4,0.9994915,10.063019,0.19381714,-0.14955139,9.802003,0.19010778,-0.23451738,-0.0064697266,-0.07078552,0.0073394775,-26.45874,-3.9596558,33.898926,0,0.0,0.0,0.0,0.0
0.024902344,-0.016707772,0.99452776,0.103127785,0.026319765,-0.10266898,0.9943673,0.9995139,0.019327963,-0.024460368,0.9907705,0.09833265,-0.093297854,-0.09800697,0.99515295,0.008077564,0.093639925,0.0011408282,0.99560547,10.057037,0.19381714,-0.24645996,9.801884,0.18954256,-0.23987427,-0.0012817383,-0.08085632,0.008865356,-26.45874,-3.9596558,33.898926,0,0.0,0.0,0.0,0.0
0.033203125,-0.016612932,0.99470663,0.10140335,0.02692401,-0.100935526,0.99452853,0.99949944,0.019252222,-0.025104659,0.97547656,0.16017547,-0.15096103,-0.15857928,0.9870868,0.022633247,0.15263692,0.0018610848,0.98828053,10.057037,0.19381714,-0.24645996,9.801742,0.18879981,-0.2461926,-0.011810303,-0.081466675,0.0048980713,-26.879883,-3.8986206,33.839417,0,0.0,0.0,0.0,0.0
0.041503906,-0.016475733,0.9946979,0.10151133,0.027603036,-0.101033926,0.99450004,0.9994832,0.019187137,-0.025792075,0.9654902,0.18992847,-0.17820148,-0.18718165,0.98179543,0.032260418,0.18108457,0.0022089302,0.9834651,10.055832,0.19502258,-0.26919556,9.801582,0.18816155,-0.25293386,-0.026473999,-0.072006226,0.0070343018,-26.879883,-3.8986206,33.839417,0,0.0,0.0,0.0,0.0
0.049804688,-0.016624572,0.9955273,0.092999764,0.028077072,-0.09251113,0.99531573,0.99946755,0.019157857,-0.026413534,0.94147223,0.2471458,-0.22923568,-0.24083257,0.968974,0.05557902,0.23585954,0.0028813109,0.97178286,10.072586,0.1986084,-0.27397156,9.801429,0.1878744,-0.2590283,-0.04296875,-0.068344116,0.0042877197,-26.45874,-3.6590576,34.439087,0,0.0,0.0,0.0,0.0
0.058105469,-0.016560182,0.9955238,0.09304885,0.028586663,-0.092552155,0.9952974,0.99945414,0.01914226,-0.026926024,0.9277337,0.2744403,-0.2529679,-0.26564953,0.9615988,0.06897879,0.26218417,0.003206863,0.96501255,10.036697,0.19621277,-0.23449707,9.801297,0.18772146,-0.2640541,-0.04449463,-0.06742859,0.002456665,-26.45874,-3.6590576,34.439087,0,0.0,0.0,0.0,0.0
0.06640625,-0.016361285,0.99504805,0.098039515,0.029340908,-0.09753261,0.99479973,0.99943554,0.019152768,-0.027599853,0.8973146,0.32675853,-0.29674122,-0.3115071,0.94510007,0.098738,0.3127136,0.0038379468,0.94983965,10.051056,0.2033844,-0.36489868,9.801115,0.1878245,-0.2706621,-0.0134887695,-0.061920166,0.0013885498,-27.119446,-3.8391113,34.439087,0,0.0,0.0,0.0,0.0
0.074707031,-0.016263483,0.9950421,0.09811587,0.029868446,-0.09760156,0.9947772,0.9994215,0.019109111,-0.02813302,0.8636257,0.3762645,-0.335523,-0.35245886,0.9265016,0.1317858,0.36044893,0.0044444543,0.93276834,10.061813,0.16390991,-0.33021545,9.800978,0.18739638,-0.2758907,-0.013946533,-0.029556274,0.0029144287,-27.119446,-3.8391113,34.439087,0,0.0,0.0,0.0,0.0
0.083007813,-0.01617083,0.9950364,0.0981882,0.030213881,-0.09766991,0.99476004,0.9994126,0.019052744,-0.028484512,0.84582776,0.39990798,-0.35305646,-0.3710346,0.91654307,0.149272,0.38328654,0.004737767,0.9236173,10.061813,0.16390991,-0.33021545,9.80089,0.1868436,-0.27933764,-0.015777588,-0.020080566,0.0027618408,-27.119446,-3.8391113,34.439087,0,0.0,0.0,0.0,0.0
0.091308594,-0.016136395,0.9950733,0.097820245,0.030308783,-0.09730123,0.9947934,0.99941033,0.01901719,-0.028589368,0.80878717,0.44502318,-0.38447067,-0.40445834,0.89550334,0.18570732,0.42693883,0.0053046774,0.904265,10.066605,0.17468262,-0.2596283,9.800868,0.18649495,-0.28036594,-0.026168823,-0.008483887,-2.89917E-4,-26.879883,-3.8391113,34.61914,0,0.0,0.0,0.0,0.0
0.099609375,-0.016104043,0.99507135,0.097845145,0.030365847,-0.097325966,0.99478924,0.99940914,0.01899128,-0.028648842,0.7703829,0.4873018,-0.41115338,-0.4330501,0.873214,0.22352819,0.46795058,0.0058477283,0.88373524,10.088135,0.1758728,-0.28355408,9.800856,0.18624084,-0.28094918,-0.011810303,-0.0037384033,0.0015411377,-26.879883,-3.8391113,34.61914,0,0.0,0.0,0.0,0.0
0.107910156,-0.016349556,0.99587864,0.08921068,0.030294716,-0.08868825,0.9955987,0.9994073,0.018980209,-0.028719844,0.7508536,0.50741434,-0.42278793,-0.44560918,0.86168057,0.2427738,0.48749503,0.006110617,0.8731044,10.061813,0.18185425,-0.3409729,9.8008375,0.18613227,-0.28164548,-0.011810303,0.011672974,-0.0021209717,-26.638794,-3.5385132,34.61914,0,0.0,0.0,0.0,0.0
0.116210938,-0.01640104,0.9959429,0.08848006,0.0301902,-0.08795834,0.9956665,0.9994096,0.019001195,-0.028625108,0.71162826,0.54536474,-0.4429023,-0.46717203,0.8381727,0.2814549,0.5247242,0.006620286,0.85124654,10.039093,0.19023132,-0.28953552,9.80086,0.18633808,-0.28071642,-0.005859375,0.020996094,-0.0033416748,-26.818848,-3.5385132,34.858704,0,0.0,0.0,0.0,0.0
0.124511719,-0.016451458,0.99594545,0.088441536,0.030037342,-0.08792129,0.9956744,0.9994134,0.019036846,-0.028469123,0.67236835,0.58076614,-0.45894608,-0.48458037,0.8140394,0.32019007,0.55955577,0.007110601,0.82876223,10.059433,0.18304443,-0.29193115,9.800898,0.1866877,-0.27918673,-0.011810303,0.02130127,-0.008850098,-26.818848,-3.5385132,34.858704,0,0.0,0.0,0.0,0.0
0.1328125,-0.01651924,0.995949,0.08838973,0.02987493,-0.08787067,0.9956837,0.99941707,0.019088576,-0.02830235,0.6528446,0.59755677,-0.46553177,-0.49182972,0.8017929,0.33945784,0.5761054,0.0073491414,0.8173424,10.059433,0.18304443,-0.29193115,9.800934,0.18719499,-0.27755123,-0.011810303,0.021148682,-0.0074768066,-26.818848,-3.5385132,34.858704,0,0.0,0.0,0.0,0.0
0.141113281,-0.016303942,0.99506104,0.09791692,0.02985062,-0.09740187,0.99479735,0.99942136,0.019141998,-0.028115155,0.614219,0.62939286,-0.47602484,-0.5036142,0.77704805,0.37758327,0.60754234,0.0078140525,0.7942488,10.04866,0.18424988,-0.27876282,9.800976,0.18771888,-0.2757155,-0.0015869141,0.0234375,-0.006713867,-27.119446,-3.8391113,34.498596,0,0.0,0.0,0.0,0.0
0.149414063,-0.016362049,0.9950645,0.09787162,0.029673923,-0.09735834,0.9948068,0.99942565,0.019181317,-0.027934488,0.5761933,0.65929013,-0.48305044,-0.512262,0.75184315,0.41511372,0.6368586,0.008262667,0.7709363,10.061813,0.18424988,-0.27876282,9.801018,0.18810447,-0.27394375,-0.009979248,0.014434814,-0.0047302246,-27.119446,-3.8391113,34.498596,0,0.0,0.0,0.0,0.0
0.157714844,-0.016217789,0.99442226,0.10421835,0.029596975,-0.10370893,0.9941672,0.9994303,0.01920774,-0.027749958,0.5575543,0.67343074,-0.48541138,-0.51541185,0.73920166,0.43351063,0.65075636,0.008481055,0.7592393,10.057037,0.18424988,-0.2524414,9.801064,0.1883636,-0.27213413,-0.0134887695,0.015350342,-0.0028839111,-27.23999,-4.0786743,34.67865,0,0.0,0.0,0.0,0.0
0.166015625,-0.016105188,0.9939022,0.10908284,0.029515333,-0.10857688,0.99364984,0.9994346,0.019222533,-0.027586702,0.521014,0.7003537,-0.48790273,-0.51969063,0.7137404,0.46957022,0.6771012,0.008905858,0.7358361,10.085754,0.19621277,-0.22253418,9.8011055,0.18850866,-0.27053314,-0.009521484,-0.0046539307,0.0036773682,-27.119446,-4.258728,34.799194,0,0.0,0.0,0.0,0.0
0.174316406,-0.016112834,0.99390274,0.109076954,0.0294688,-0.10857168,0.9936518,0.99943584,0.019224912,-0.027539723,0.48566324,0.7254387,-0.48771906,-0.5214205,0.6882237,0.50444895,0.70160663,0.0093144225,0.71250355,10.060623,0.20458984,-0.23091125,9.801118,0.188532,-0.27007243,0.003768921,-0.022064209,3.2043457E-4,-27.119446,-4.258728,34.799194,0,0.0,0.0,0.0,0.0
0.182617188,-0.016079364,0.9939004,0.10910276,0.029583229,-0.10859619,0.9936456,0.9994329,0.019204803,-0.027656626,0.46851176,0.73727345,-0.486749,-0.5213789,0.67552745,0.52137005,0.7132046,0.009512645,0.7008914,10.051056,0.18544006,-0.26200867,9.801089,0.18833478,-0.27121887,0.003768921,-0.026031494,3.2043457E-4,-27.119446,-4.258728,34.799194,0,0.0,0.0,0.0,0.0
0.190917969,-0.015824886,0.99291694,0.11775141,0.02990793,-0.11724341,0.9926527,0.9994274,0.019230321,-0.027840732,0.4353117,0.75960124,-0.4832284,-0.519655,0.65031374,0.5541215,0.7351615,0.009896478,0.6778198,10.071396,0.21176147,-0.27038574,9.801035,0.18858503,-0.27302432,-0.0049438477,-0.026809692,0.0013885498,-27.418518,-4.499817,34.259033,0,0.0,0.0,0.0,0.0
0.19921875,-0.015825309,0.992917,0.11775108,0.030102741,-0.117239304,0.9926473,0.9994215,0.019253582,-0.028034177,0.41918927,0.77023345,-0.4806462,-0.5181123,0.6376823,0.5700183,0.74554676,0.010083166,0.66637707,10.071396,0.21176147,-0.27038574,9.800978,0.18881315,-0.2749214,-0.012420654,-0.027114868,9.3078613E-4,-27.418518,-4.499817,34.259033,0,0.0,0.0,0.0,0.0
0.207519531,-0.015932085,0.99340516,0.113544606,0.030262072,-0.113027915,0.9931309,0.99941504,0.019258741,-0.028261727,0.38811737,0.7902623,-0.474184,-0.51365817,0.6126797,0.60064864,0.7651929,0.010446335,0.64371634,10.052246,0.19740295,-0.29910278,9.800914,0.18886374,-0.27715287,-0.01914978,-0.017944336,-0.0022735596,-26.759338,-4.3792725,34.55963,0,0.0,0.0,0.0,0.0
0.215820313,-0.015929813,0.9935026,0.112689584,0.030436296,-0.11216984,0.9932229,0.9994098,0.019251706,-0.02845169,0.35871747,0.8086356,-0.4662942,-0.5075204,0.5882108,0.6296278,0.7834187,0.010795326,0.6214005,10.052246,0.17945862,-0.3026886,9.800862,0.18879475,-0.27901578,-0.020370483,-0.0115356445,-0.003036499,-27.059937,-4.319763,34.259033,0,0.0,0.0,0.0,0.0
0.224121094,-0.01592355,0.993502,0.11269447,0.030550852,-0.1121727,0.99321896,0.9994064,0.019258482,-0.02856615,0.34462216,0.81726587,-0.46185714,-0.5039119,0.57615644,0.6435189,0.792028,0.0109644625,0.61038625,10.052246,0.17945862,-0.3026886,9.800828,0.18886119,-0.28013822,-0.016998291,6.866455E-4,-0.004425049,-27.059937,-4.319763,34.259033,0,0.0,0.0,0.0,0.0
0.232421875,-0.015939152,0.9935033,0.1126823,0.0305548,-0.112160005,0.9932203,0.999406,0.01927407,-0.028568555,0.31761914,0.8334978,-0.45210552,-0.49576256,0.55240726,0.67012364,0.808293,0.011292923,0.58867216,10.061813,0.17945862,-0.29193115,9.800825,0.18901408,-0.28016183,-0.009521484,0.004501343,-0.0022735596,-27.059937,-4.319763,34.259033,0,0.0,0.0,0.0,0.0
0.240722656,-0.015729772,0.99268204,0.119728975,0.03063605,-0.11920907,0.9923964,0.99940675,0.019278191,-0.028536722,0.29218513,0.8484373,-0.44134098,-0.48653525,0.5291684,0.695172,0.82335365,0.011608994,0.5674098,10.076172,0.17945862,-0.28115845,9.800833,0.18905447,-0.27984965,-0.014862061,0.006942749,-0.0050354004,-27.418518,-4.559326,34.199524,0,0.0,0.0,0.0,0.0
0.249023438,-0.015744722,0.99268323,0.11971715,0.030583614,-0.11919784,0.9923994,0.9994081,0.019286433,-0.028483102,0.27997884,0.85552466,-0.43553346,-0.48161376,0.51762843,0.7071839,0.83045775,0.011762385,0.5569574,10.076172,0.17945862,-0.28115845,9.800846,0.18913531,-0.27932382,-0.017303467,0.0077056885,-0.0039520264,-27.418518,-4.559326,34.199524,0,0.0,0.0,0.0,0.0
0.257324219,-0.015843613,0.99284893,0.11832113,0.030471217,-0.11780157,0.99256945,0.99941003,0.019331276,-0.028386915,0.2567083,0.8688276,-0.4233668,-0.47116694,0.49496785,0.7300742,0.84386164,0.012060352,0.53642523,10.055832,0.20219421,-0.2644043,9.800865,0.18957508,-0.27838057,-0.0066223145,0.005722046,0.0016937256,-27.479553,-4.499817,34.07898,0,0.0,0.0,0.0,0.0
0.265625,-0.015881304,0.9929149,0.11776116,0.030387236,-0.11724232,0.99263835,0.99941206,0.01934283,-0.02830998,0.23494528,0.88101244,-0.41063097,-0.46003032,0.47293192,0.7514702,0.8562551,0.012348294,0.5164055,10.074982,0.19262695,-0.27278137,9.800884,0.18968837,-0.27762607,-0.0105896,0.0029754639,-0.0010528564,-27.2995,-4.499817,34.259033,0,0.0,0.0,0.0,0.0
0.273925781,-0.015894307,0.992916,0.11775094,0.030329414,-0.11723287,0.9926413,0.9994136,0.019348662,-0.028251221,0.22460759,0.8867167,-0.40408525,-0.4542504,0.46214446,0.76162916,0.8620951,0.012488192,0.5065926,10.074982,0.19262695,-0.27278137,9.8008995,0.18974556,-0.27704984,-0.008911133,0.005569458,-0.0024261475,-27.2995,-4.499817,34.259033,0,0.0,0.0,0.0,0.0
0.282226563,-0.01590503,0.99291676,0.1177425,0.030274356,-0.11722518,0.9926438,0.99941504,0.019352607,-0.028195446,0.2049729,0.89740753,-0.39069915,-0.44235137,0.44101802,0.78091514,0.87310445,0.012759879,0.48736617,10.074982,0.19621277,-0.24885559,9.800914,0.18978424,-0.27650288,-3.6621094E-4,-3.8146973E-4,4.7302246E-4,-27.2995,-4.499817,34.259033,0,0.0,0.0,0.0,0.0
0.290527344,-0.015814112,0.9925849,0.12052015,0.030317899,-0.12000378,0.99231035,0.99941516,0.019346427,-0.028195336,0.18667479,0.9072012,-0.37701273,-0.43009406,0.42049557,0.7988758,0.88327324,0.013020965,0.46867776,10.066605,0.18664551,-0.27038574,9.800915,0.18972364,-0.2765018,-0.0064697266,-0.019622803,0.002456665,-27.359009,-4.559326,33.95996,0,0.0,0.0,0.0,0.0
0.298828125,-0.015788008,0.99258274,0.120540895,0.030401396,-0.120023645,0.99230534,0.9994131,0.019331137,-0.02828097,0.17798343,0.9118058,-0.37004334,-0.42387274,0.41041115,0.80739987,0.8880618,0.01314748,0.45953602,10.066605,0.18664551,-0.27038574,9.800895,0.1895737,-0.27734157,-0.006011963,-0.0184021,0.0012359619,-27.359009,-4.559326,33.95996,0,0.0,0.0,0.0,0.0
0.307128906,-0.015732894,0.99242306,0.121856004,0.030591357,-0.121336274,0.9921399,0.9994081,0.019336974,-0.028450599,0.16152582,0.9204207,-0.3559988,-0.41127682,0.39069986,0.823532,0.8970846,0.013392363,0.44165578,10.07019,0.20458984,-0.29431152,9.800846,0.18963094,-0.27900508,-0.011810303,-0.023742676,-0.0013580322,-27.359009,-4.559326,33.599854,0,0.0,0.0,0.0,0.0
0.315429688,-0.015764548,0.99270594,0.119525746,0.030723752,-0.11900322,0.9924184,0.9994036,0.019317308,-0.028623618,0.14622572,0.92831284,-0.3418382,-0.39855167,0.37155026,0.83851475,0.90541404,0.01362778,0.42431083,10.052246,0.18544006,-0.27757263,9.800801,0.18943809,-0.28070182,-0.015167236,-0.020843506,6.2561035E-4,-27.23999,-4.499817,33.779907,0,0.0,0.0,0.0,0.0
0.323730469,-0.015722401,0.99270254,0.11955929,0.030895233,-0.11903464,0.9924092,0.9993989,0.019296868,-0.028798267,0.13901672,0.9319806,-0.33479336,-0.3921531,0.3622477,0.84557235,0.9093351,0.013741575,0.4158376,10.052246,0.18544006,-0.27757263,9.8007555,0.18923764,-0.28241453,-0.015625,-0.019622803,6.2561035E-4,-27.23999,-4.499817,33.779907,0,0.0,0.0,0.0,0.0
0.33203125,-0.015684998,0.99269956,0.119589046,0.031053519,-0.11906242,0.99240094,0.9993946,0.019279469,-0.02895932,0.12540036,0.9388317,-0.3207333,-0.37934098,0.3440933,0.8588948,0.9167198,0.013961573,0.39928675,10.057037,0.17826843,-0.29910278,9.800714,0.189067,-0.28399393,-0.016235352,-0.0049743652,-0.0062561035,-27.23999,-4.499817,33.779907,0,0.0,0.0,0.0,0.0
0.340332031,-0.015577034,0.9922798,0.123036645,0.031202385,-0.12250924,0.9919768,0.99939173,0.019291094,-0.02905317,0.11897742,0.94202775,-0.31373256,-0.3729426,0.33524,0.86517507,0.9201946,0.014067936,0.39120826,10.057037,0.17826843,-0.29910278,9.800685,0.18918101,-0.28491428,-0.0069274902,-0.0049743652,-0.0062561035,-27.418518,-4.559326,33.299255,0,0.0,0.0,0.0,0.0
0.348632813,-0.01556862,0.9922791,0.123043455,0.031235883,-0.12251564,0.99197483,0.9993907,0.019287052,-0.029087316,0.10681375,0.9480347,-0.29970166,-0.36021173,0.31784663,0.8770525,0.92673534,0.01427478,0.3754436,10.041473,0.16270447,-0.29910278,9.800675,0.18914136,-0.28524914,-0.0107421875,8.392334E-4,-0.0047302246,-27.418518,-4.559326,33.299255,0,0.0,0.0,0.0,0.0
0.356933594,-0.015254067,0.9910261,0.13279511,0.03138258,-0.1322706,0.9907167,0.999391,0.019279912,-0.029083293,0.095582135,0.9535016,-0.28583017,-0.34758732,0.30104047,0.8880077,0.93276316,0.014473273,0.36019912,10.065414,0.17347717,-0.29193115,9.800678,0.18907136,-0.2852097,-0.0047912598,0.0016021729,-9.0026855E-4,-27.418518,-4.8599243,33.1192,0,0.0,0.0,0.0,0.0
0.365234375,-0.015237264,0.99102455,0.13280879,0.031360257,-0.1322852,0.9907155,0.999392,0.01926071,-0.02906312,0.090230234,0.9561036,-0.27879095,-0.34134617,0.29266638,0.89321285,0.93559676,0.01456941,0.35276964,10.065414,0.17347717,-0.29193115,9.800688,0.18888305,-0.28501186,-0.0032653809,0.0037384033,0.001083374,-27.418518,-4.8599243,33.1192,0,0.0,0.0,0.0,0.0
0.373535156,-0.015076908,0.9904453,0.13707913,0.03136976,-0.13655868,0.99013513,0.9993941,0.019228317,-0.029011155,0.08016407,0.96094286,-0.26488212,-0.328987,0.27635324,0.902993,0.9409258,0.014755192,0.33829132,10.04866,0.17826843,-0.27038574,9.800709,0.18856537,-0.28450224,-0.008911133,8.392334E-4,0.0016937256,-27.598572,-4.978943,32.939148,0,0.0,0.0,0.0,0.0
0.381835938,-0.01506979,0.99044466,0.137085,0.03137437,-0.13656467,0.99013424,0.9993941,0.019222068,-0.029016575,0.070847236,0.965373,-0.2510692,-0.31683153,0.26044592,0.91202295,0.94583213,0.0149323335,0.32431245,10.074982,0.19142151,-0.30867004,9.800708,0.18850408,-0.28455538,-0.009979248,-0.0016021729,-0.0018157959,-27.598572,-4.978943,32.939148,0,0.0,0.0,0.0,0.0
0.390136719,-0.015110364,0.990612,0.13586642,0.031368595,-0.13534538,0.99030185,0.99939364,0.01922576,-0.029028986,0.066474654,0.967427,-0.24426627,-0.31083247,0.25270408,0.9162553,0.9481373,0.015018132,0.31750613,10.074982,0.19142151,-0.30867004,9.800704,0.1885403,-0.28467712,-0.009063721,0.0031280518,0.0032196045,-27.418518,-4.9194336,32.818604,0,0.0,0.0,0.0,0.0
0.3984375,-0.015120864,0.99061286,0.13585778,0.03133365,-0.13533711,0.99030393,0.9993946,0.019231174,-0.028993107,0.058282252,0.971224,-0.23092662,-0.29900357,0.2376833,0.9241772,0.95247054,0.015184758,0.30425218,10.057037,0.20100403,-0.28115845,9.800714,0.1885934,-0.28432527,-0.010894775,0.001449585,-0.0015106201,-27.418518,-4.9194336,32.818604,0,0.0,0.0,0.0,0.0
0.406738281,-0.015334434,0.99150133,0.12918952,0.031211061,-0.1286671,0.9911966,0.9993952,0.019231582,-0.028972773,0.05076413,0.97465104,-0.21789555,-0.28742394,0.22320393,0.9314331,0.9564573,0.015345001,0.29146877,10.045074,0.19502258,-0.3014984,9.800718,0.18859738,-0.28412583,-0.0105896,0.0090789795,-0.0010528564,-27.418518,-4.73938,33.1192,0,0.0,0.0,0.0,0.0
0.415039063,-0.015356648,0.99150336,0.12917143,0.031184724,-0.12864888,0.99119973,0.9993956,0.019249681,-0.028944144,0.047280703,0.9762064,-0.21162611,-0.2817263,0.21629429,0.9347979,0.9583292,0.015422734,0.28524956,10.045074,0.19502258,-0.3014984,9.800723,0.18877488,-0.2838451,-0.0037231445,0.0035858154,-1.373291E-4,-27.418518,-4.73938,33.1192,0,0.0,0.0,0.0,0.0
0.423339844,-0.0154341115,0.9917113,0.12755588,0.031128656,-0.12703265,0.99140996,0.9993962,0.019272175,-0.028910002,0.04075326,0.97908455,-0.19933043,-0.27054033,0.20285682,0.94109356,0.96184564,0.015574287,0.27314892,10.033112,0.19262695,-0.29670715,9.800729,0.18899548,-0.28351027,-0.009521484,0.0016021729,-0.0036468506,-27.479553,-4.6798706,33.059692,0,0.0,0.0,0.0,0.0
0.431640625,-0.015479926,0.99171543,0.12751839,0.03104608,-0.12699546,0.99141735,0.99939805,0.01930601,-0.028822994,0.034792215,0.9816624,-0.18742608,-0.2596394,0.18997867,0.94683444,0.9650787,0.015720729,0.26148802,10.061813,0.19381714,-0.24287415,9.800747,0.18932728,-0.28265703,-0.009216309,7.6293945E-5,-0.0013580322,-27.479553,-4.6798706,33.059692,0,0.0,0.0,0.0,0.0
0.439941406,-0.0155508295,0.9918688,0.12631051,0.030954743,-0.12578766,0.99157405,0.9993998,0.01932971,-0.028746944,0.032004267,0.9828516,-0.18159986,-0.25430062,0.18372092,0.9495145,0.9665956,0.015792437,0.25581965,10.061813,0.19381714,-0.24287415,9.800764,0.18955971,-0.28191122,-0.002960205,0.0023651123,-0.0036468506,-27.539063,-4.6798706,33.358765,0,0.0,0.0,0.0,0.0
0.448242188,-0.0155444285,0.99186826,0.1263157,0.03092298,-0.12579364,0.9915743,0.99940085,0.019319516,-0.028716134,0.026800914,0.985037,-0.17024633,-0.2438482,0.17160495,0.9545103,0.969443,0.015932515,0.24479866,10.061813,0.17706299,-0.27397156,9.800775,0.18945974,-0.2816091,-0.004180908,-0.0035858154,-1.373291E-4,-27.539063,-4.6798706,33.358765,0,0.0,0.0,0.0,0.0
0.456542969,-0.015651649,0.9923198,0.12270472,0.030848542,-0.12218209,0.9920282,0.9994015,0.01931214,-0.028699268,0.022047635,0.9869953,-0.1592298,-0.23369826,0.15994401,0.9590636,0.97205913,0.016066642,0.23418549,10.060623,0.16630554,-0.31106567,9.800781,0.1893874,-0.2814437,-0.004638672,0.0011444092,-0.0034942627,-27.539063,-4.559326,33.358765,0,0.0,0.0,0.0,0.0
0.46484375,-0.0156245595,0.99231744,0.12272675,0.03087195,-0.122204445,0.9920246,0.9994012,0.019288765,-0.028725388,0.01984556,0.9878843,-0.15391812,-0.2287358,0.15435158,0.961174,0.9732862,0.016131552,0.2290277,10.060623,0.16630554,-0.31106567,9.800778,0.18915817,-0.28169984,-0.008300781,0.005264282,-2.89917E-4,-27.539063,-4.559326,33.358765,0,0.0,0.0,0.0,0.0
0.473144531,-0.015329544,0.9909726,0.13318495,0.030945938,-0.13266657,0.9906774,0.9994035,0.019308168,-0.02863286,0.015733989,0.9895189,-0.14354368,-0.21903844,0.14348543,0.96510834,0.9755894,0.01625658,0.2190003,10.065414,0.19502258,-0.275177,9.8008,0.18934846,-0.28079244,-0.0067749023,0.022827148,-0.0022735596,-27.659607,-4.9194336,33.4198,0,0.0,0.0,0.0,0.0
0.481445313,-0.015359038,0.99097544,0.13316096,0.030790202,-0.13264476,0.9906853,0.9994078,0.019316025,-0.028475037,0.0118986,0.99103177,-0.13309586,-0.20965399,0.13261925,0.9687401,0.9777033,0.016377427,0.20935175,10.040283,0.18185425,-0.27278137,9.800843,0.1894255,-0.27924472,-0.001739502,0.011520386,-0.0048675537,-27.659607,-4.9194336,33.4198,0,0.0,0.0,0.0,0.0
0.489746094,-0.015301436,0.99055094,0.13628888,0.030708801,-0.13577498,0.9902636,0.9994112,0.019337723,-0.028341081,0.010112887,0.9917225,-0.1280006,-0.20507725,0.12734315,0.9704262,0.97869354,0.0164362,0.20466754,10.040283,0.18185425,-0.27278137,9.800877,0.18963829,-0.27793106,-0.010131836,0.005569458,-0.0064086914,-27.539063,-5.039978,33.53882,0,0.0,0.0,0.0,0.0
0.498046875,-0.015372959,0.9905578,0.13623117,0.030593714,-0.1357175,0.9902751,0.99941367,0.019391276,-0.028218461,0.0067623593,0.9929974,-0.11794257,-0.19615261,0.11697111,0.9735717,0.98055005,0.016551103,0.19557004,10.063019,0.20817566,-0.24765015,9.8009,0.19016346,-0.27672857,-0.0018920898,0.0019073486,-9.0026855E-4,-27.539063,-5.039978,33.53882,0,0.0,0.0,0.0,0.0
0.506347656,-0.01529642,0.9903009,0.13809466,0.030564707,-0.13758318,0.99001855,0.99941576,0.019364564,-0.028163726,0.0037193876,0.99411935,-0.10822596,-0.18752655,0.107000075,0.97641426,0.98225254,0.016663577,0.18682176,10.060623,0.19740295,-0.28474426,9.8009205,0.1899015,-0.2761918,-0.0032653809,-0.0016021729,-4.4250488E-4,-27.359009,-5.0994873,33.53882,0,0.0,0.0,0.0,0.0
0.514648438,-0.015299033,0.99030113,0.13809256,0.03057134,-0.13758087,0.9900186,0.9994155,0.019368006,-0.028169978,0.0022995044,0.99463135,-0.10345597,-0.18332341,0.10212221,0.9777339,0.9830499,0.016717598,0.18257405,10.060623,0.19740295,-0.28474426,9.800919,0.18993525,-0.27625313,-0.004486084,-8.392334E-4,-0.0013580322,-27.359009,-5.0994873,33.53882,0,0.0,0.0,0.0,0.0
0.522949219,-0.015228317,0.9900955,0.13956705,0.030555416,-0.13905723,0.98981285,0.99941707,0.019337712,-0.028135173,-3.3805892E-4,0.9955566,-0.09416465,-0.17513154,0.0926504,0.980176,0.984545,0.016822556,0.17432202,10.055832,0.16749573,-0.24645996,9.800934,0.18963818,-0.2759118,0.0011749268,-0.0063323975,-9.0026855E-4,-27.479553,-5.1589966,33.599854,0,0.0,0.0,0.0,0.0
0.53125,-0.015225208,0.99009514,0.13956952,0.030588971,-0.13905916,0.9898114,0.99941605,0.019339375,-0.028168792,-0.0027328338,0.9963652,-0.0851409,-0.16722262,0.08348701,0.982378,0.98591536,0.01692216,0.16638663,10.080963,0.18902588,-0.28234863,9.800924,0.1896545,-0.2762415,-0.0021972656,-0.0029754639,-0.004257202,-27.479553,-5.1589966,33.599854,0,0.0,0.0,0.0,0.0
0.539550781,-0.015139712,0.9896849,0.14245942,0.03067612,-0.14194894,0.98939854,0.9994147,0.019349312,-0.028210625,-0.003842121,0.99672705,-0.080749735,-0.16337134,0.07903975,0.9833934,0.9865572,0.016970506,0.16253294,10.080963,0.18902588,-0.28234863,9.80091,0.18975194,-0.27665174,-0.0011138916,-0.008483887,-0.001663208,-27.23999,-5.218506,33.358765,0,0.0,0.0,0.0,0.0
0.547851563,-0.015137476,0.9896846,0.14246121,0.030738365,-0.14194958,0.9893965,0.99941283,0.019355992,-0.02827253,-0.0059151007,0.9973806,-0.072089955,-0.15587074,0.07029044,0.98527336,0.98775977,0.017064705,0.15504667,10.052246,0.18902588,-0.29193115,9.800892,0.18981744,-0.2772588,-0.010437012,-0.0072631836,-0.0062561035,-27.23999,-5.218506,33.358765,0,0.0,0.0,0.0,0.0
0.556152344,-0.015366734,0.9906658,0.13544388,0.030685524,-0.13492882,0.99038,0.999411,0.019375075,-0.028325684,-0.007782559,0.997936,-0.06374313,-0.14863423,0.06188252,0.98695415,0.9888616,0.01715544,0.14784585,10.04985,0.1878357,-0.29910278,9.800874,0.19000459,-0.2777801,-0.005706787,0.012451172,-0.0028839111,-27.178955,-5.039978,33.779907,0,0.0,0.0,0.0,0.0
0.564453125,-0.015397872,0.99066865,0.13541926,0.030675007,-0.13490354,0.9903837,0.99941075,0.019403793,-0.028311545,-0.008624362,0.9981716,-0.059824623,-0.14511433,0.0579442,0.98771673,0.9893773,0.017199835,0.14434928,10.04985,0.1878357,-0.29910278,9.800872,0.1902862,-0.27764142,-0.0023498535,0.013366699,-0.0015106201,-27.178955,-5.039978,33.779907,0,0.0,0.0,0.0,0.0
0.572753906,-0.015612622,0.9915711,0.12861985,0.030493934,-0.1281035,0.99129194,0.999413,0.019398788,-0.02823687,-0.010179602,0.9985845,-0.05220523,-0.13826777,0.05030076,0.9891167,0.99034256,0.017287115,0.13756,10.058228,0.18185425,-0.30508423,9.800894,0.19023713,-0.2769091,-0.010131836,0.023132324,-9.0026855E-4,-26.998901,-4.798889,33.718872,0,0.0,0.0,0.0,0.0
0.581054688,-0.015650908,0.99157435,0.12858966,0.030297637,-0.12807605,0.9913014,0.9994184,0.01941073,-0.028037855,-0.011538571,0.9989142,-0.045136753,-0.13167807,0.043228723,0.99034953,0.9912254,0.017370738,0.1310363,10.060623,0.20100403,-0.2524414,9.800946,0.19035424,-0.27495745,-0.0054016113,0.022827148,-0.0024261475,-26.998901,-4.798889,33.718872,0,0.0,0.0,0.0,0.0
0.589355469,-0.015316148,0.9898651,0.14118207,0.030264828,-0.14067498,0.98959315,0.9994246,0.019429607,-0.027803501,-0.012164168,0.99905604,-0.04170245,-0.12847935,0.039798234,0.9909133,0.9916376,0.01741154,0.12787396,10.060623,0.20100403,-0.2524414,9.801007,0.19053936,-0.2726592,-0.0067749023,0.02267456,-0.0012054443,-26.998901,-5.218506,33.659363,0,0.0,0.0,0.0,0.0
0.59765625,-0.015349171,0.98986834,0.14115605,0.030067468,-0.14065188,0.98960245,0.99943,0.019433783,-0.027603947,-0.01337751,0.9993142,-0.034527782,-0.122263595,0.032637008,0.991961,0.9924075,0.017491456,0.12174314,10.074982,0.18664551,-0.26081848,9.801061,0.19058032,-0.27070224,-0.0093688965,0.012451172,4.7302246E-4,-26.998901,-5.218506,33.659363,0,0.0,0.0,0.0,0.0
0.605957031,-0.016053,0.9929204,0.11769159,0.029560206,-0.11718402,0.9926702,0.9994341,0.019414324,-0.027469778,-0.014458947,0.9995138,-0.027624184,-0.116287775,0.025758669,0.9928815,0.9931103,0.017568376,0.1158588,10.055832,0.16989136,-0.275177,9.801101,0.19038948,-0.2693865,-0.0020446777,0.012893677,-0.0025787354,-26.45874,-4.4387817,33.839417,0,0.0,0.0,0.0,0.0
0.614257813,-0.016043134,0.9929197,0.11769922,0.029455898,-0.11719394,0.99267215,0.99943733,0.019392507,-0.027367184,-0.014899821,0.9995829,-0.024741212,-0.11339413,0.022895107,0.99328625,0.99343836,0.017605295,0.11300569,10.055832,0.16989136,-0.275177,9.801132,0.19017553,-0.2683804,-0.0050964355,0.006942749,0.0036773682,-26.45874,-4.4387817,33.839417,0,0.0,0.0,0.0,0.0
0.622558594,-0.016086988,0.9930398,0.11667473,0.02935813,-0.11617039,0.99279517,0.9994395,0.01939644,-0.027284965,-0.015707118,0.9996934,-0.019139793,-0.107776284,0.017337874,0.994024,0.9940511,0.017676068,0.10747092,10.045074,0.2033844,-0.27757263,9.801153,0.1902141,-0.2675741,-0.0066223145,0.016571045,-7.4768066E-4,-26.638794,-4.3792725,33.599854,0,0.0,0.0,0.0,0.0
0.630859375,-0.016098658,0.9930408,0.11666561,0.02925936,-0.116162874,0.9927991,0.99944216,0.019396294,-0.02718567,-0.016074123,0.99973565,-0.01644007,-0.10505013,0.014662616,0.99435884,0.994337,0.017710477,0.10478668,10.045074,0.2033844,-0.27757263,9.80118,0.19021267,-0.26660034,-0.001739502,0.016571045,-7.4768066E-4,-26.638794,-4.3792725,33.599854,0,0.0,0.0,0.0,0.0
0.639160156,-0.016220262,0.993596,0.11182026,0.029053727,-0.11131939,0.99335986,0.9994463,0.019361354,-0.02706204,-0.016744554,0.9997971,-0.011196614,-0.09975891,0.009471761,0.99496657,0.9948707,0.017777234,0.09958007,10.079758,0.17228699,-0.2596283,9.80122,0.18987003,-0.26538795,-0.0093688965,0.0023651123,0.0019989014,-26.759338,-4.258728,33.95996,0,0.0,0.0,0.0,0.0
0.647460938,-0.016185768,0.9935936,0.11184714,0.028973132,-0.11134875,0.9933589,0.99944913,0.01931884,-0.026985254,-0.017039783,0.99981654,-0.00874783,-0.097194165,0.0070513203,0.99524045,0.9951196,0.01780892,0.09705618,10.063019,0.20100403,-0.24287415,9.801248,0.1894531,-0.26463494,-0.007843018,0.006942749,0.0013885498,-26.759338,-4.258728,33.95996,0,0.0,0.0,0.0,0.0
0.655761719,-0.016201187,0.99359465,0.11183513,0.02890964,-0.11133755,0.99336195,0.9994507,0.019326758,-0.026920667,-0.017575625,0.9998376,-0.0039908784,-0.092216335,0.002353485,0.99573624,0.99558383,0.01786871,0.092159994,10.063019,0.20100403,-0.25602722,9.801263,0.18953075,-0.26400155,-0.0021972656,0.0051116943,-0.0013580322,-26.759338,-4.258728,33.95996,0,0.0,0.0,0.0,0.0
0.6640625,-0.016146533,0.9932859,0.11455304,0.02890615,-0.11405637,0.9930537,0.9994517,0.019345662,-0.026870456,-0.01804648,0.999837,5.818773E-4,-0.08743318,-0.0021578602,0.9961681,0.9960069,0.017926449,0.087457865,10.063019,0.20100403,-0.25602722,9.801273,0.18971613,-0.26350915,-0.0020446777,-0.0066375732,-4.4250488E-4,-26.939392,-4.319763,33.659363,0,0.0,0.0,0.0,0.0
0.672363281,-0.016095053,0.9932025,0.115281515,0.028937163,-0.114785455,0.9929688,0.99945164,0.019317804,-0.026892982,-0.018264355,0.99982905,0.002855893,-0.08511173,-0.004400765,0.9963617,0.99620396,0.017954834,0.085177556,10.058228,0.16749573,-0.27876282,9.801272,0.18944295,-0.26373008,-0.005706787,-0.002670288,-0.0015106201,-26.998901,-4.3792725,33.95996,0,0.0,0.0,0.0,0.0
0.680664063,-0.016099846,0.99320287,0.11527775,0.02892543,-0.11478179,0.9929696,0.9994519,0.019321112,-0.02688085,-0.018658683,0.99979925,0.0073005334,-0.08060291,-0.008782204,0.99670756,0.9965716,0.018008808,0.08075059,10.036697,0.18544006,-0.2596283,9.801275,0.18947539,-0.26361108,-0.002960205,0.0063323975,-0.0028839111,-26.998901,-4.3792725,33.95996,0,0.0,0.0,0.0,0.0
0.688964844,-0.015983565,0.9926524,0.119940415,0.02894355,-0.11944613,0.9924187,0.99945325,0.01933389,-0.02682171,-0.01900033,0.99975246,0.011572018,-0.07626999,-0.012989702,0.99700254,0.9969061,0.01806078,0.07649793,10.072586,0.18902588,-0.25723267,9.801289,0.18960069,-0.26303113,-0.008911133,0.007095337,-2.89917E-4,-26.879883,-4.499817,33.659363,0,0.0,0.0,0.0,0.0
0.697265625,-0.01597842,0.99265206,0.11994447,0.028895406,-0.119451255,0.99241954,0.99945474,0.019323139,-0.026774438,-0.019160155,0.999722,0.013738576,-0.07416667,-0.015124412,0.9971311,0.9970618,0.018086243,0.07443585,10.073776,0.1758728,-0.26679993,9.801303,0.18949527,-0.26256755,-0.013183594,0.0011444092,-0.0019683838,-26.879883,-4.499817,33.659363,0,0.0,0.0,0.0,0.0
0.705566406,-0.01599417,0.99265325,0.119932055,0.028854072,-0.119439214,0.9924221,0.99945563,0.019333497,-0.026731757,-0.019444296,0.99964994,0.017944414,-0.0700855,-0.01926646,0.9973549,0.99735147,0.018135222,0.07043559,10.055832,0.20458984,-0.24765015,9.801312,0.18959686,-0.262149,-0.0034179688,5.340576E-4,0.0062713623,-26.879883,-4.499817,33.659363,0,0.0,0.0,0.0,0.0
0.713867188,-0.016192095,0.99349856,0.1126877,0.028729126,-0.11219367,0.99327105,0.9994561,0.019320555,-0.026725693,-0.019685809,0.99956447,0.021985218,-0.06616553,-0.02324373,0.9975379,0.99761444,0.018182676,0.06659428,10.055832,0.20458984,-0.24765015,9.801316,0.18946993,-0.26208952,-0.0049438477,-0.01184082,0.001083374,-26.638794,-4.258728,33.718872,0,0.0,0.0,0.0,0.0
0.722167969,-0.0163717,0.99426264,0.10570639,0.028656185,-0.10521055,0.994037,0.9994552,0.019303218,-0.026769295,-0.019782104,0.99952096,0.023800349,-0.06426652,-0.025026992,0.99761885,0.99773663,0.018205434,0.06473082,10.04866,0.19262695,-0.25602722,9.801308,0.1892999,-0.26251712,-0.0037231445,-0.009094238,-0.0028839111,-26.759338,-4.019165,33.659363,0,0.0,0.0,0.0,0.0
0.73046875,-0.016381573,0.9942633,0.10569862,0.02871289,-0.10520142,0.99403644,0.9994535,0.019318791,-0.026824806,-0.01993202,0.9994354,0.027045764,-0.06058452,-0.028208796,0.99776435,0.997964,0.018248904,0.06111258,10.04866,0.19262695,-0.25602722,9.8012905,0.18945263,-0.2630615,-0.009216309,-0.0071105957,-0.0036468506,-26.759338,-4.019165,33.659363,0,0.0,0.0,0.0,0.0
0.738769531,-0.01593033,0.9923886,0.122111335,0.029021993,-0.12161645,0.9921528,0.9994518,0.019349234,-0.026863702,-0.02005443,0.99934375,0.03016339,-0.057045344,-0.031264033,0.99788195,0.99817014,0.018291272,0.057634894,10.066605,0.19621277,-0.25483704,9.801274,0.18975116,-0.26344293,-0.006011963,-0.008636475,-0.0012054443,-26.939392,-4.559326,33.53882,0,0.0,0.0,0.0,0.0
0.747070313,-0.015887786,0.99238515,0.12214503,0.029113004,-0.12164952,0.99214613,0.99944985,0.019319013,-0.026958568,-0.020124856,0.9992851,0.032005653,-0.0553208,-0.03307607,0.99792063,0.9982658,0.018312432,0.055946905,10.058228,0.15911865,-0.29193115,9.801255,0.1894548,-0.26437324,-0.012420654,-0.00894165,-0.0010528564,-26.939392,-4.559326,33.53882,0,0.0,0.0,0.0,0.0
0.755371094,-0.01585804,0.9923827,0.1221686,0.029170062,-0.121672794,0.9921416,0.9994487,0.019297086,-0.027018372,-0.020242458,0.9991617,0.035582595,-0.05197016,-0.036593325,0.99797803,0.9984434,0.018352294,0.05266733,10.043869,0.17706299,-0.27397156,9.801244,0.18923977,-0.26495972,-0.0035705566,0.0032806396,-0.0059509277,-26.939392,-4.559326,33.53882,0,0.0,0.0,0.0,0.0
0.763671875,-0.015684513,0.9914856,0.12926807,0.029251073,-0.12877363,0.99124247,0.999449,0.019328386,-0.026982268,-0.020332314,0.99903154,0.03901934,-0.04874919,-0.03997162,0.9980109,0.99860406,0.01838971,0.049514696,10.061813,0.18544006,-0.27038574,9.801247,0.18954672,-0.26460567,-0.008605957,0.008926392,-0.0051727295,-26.939392,-4.798889,33.53882,0,0.0,0.0,0.0,0.0
0.771972656,-0.015301915,0.9895231,0.14356145,0.029428585,-0.14307037,0.989275,0.9994498,0.019362612,-0.026931014,-0.020375479,0.99895835,0.04082929,-0.047184523,-0.041753065,0.9980132,0.9986783,0.018408485,0.047986113,10.082153,0.1878357,-0.28355408,9.801254,0.18988237,-0.26410303,-0.008605957,0.008621216,-0.0048675537,-27.2995,-5.218506,33.059692,0,0.0,0.0,0.0,0.0
0.780273438,-0.015323983,0.9895254,0.14354359,0.029408552,-0.1430523,0.98927814,0.99944997,0.019381087,-0.026908377,-0.020470044,0.9987812,0.044911973,-0.044138398,-0.04578038,0.99797595,0.99881566,0.018446267,0.045021724,10.082153,0.1878357,-0.28474426,9.801257,0.19006357,-0.26388106,-0.0037231445,-0.001449585,-0.004257202,-27.2995,-5.218506,33.059692,0,0.0,0.0,0.0,0.0
0.788574219,-0.015168726,0.98884946,0.14814386,0.02949427,-0.14765394,0.9885992,0.99944985,0.019365186,-0.026925674,-0.020538643,0.99859583,0.048832532,-0.041213386,-0.049646955,0.99791616,0.9989393,0.018483289,0.042175196,10.07019,0.17468262,-0.28474426,9.801255,0.1899076,-0.26405066,-0.007080078,0.001449585,-0.004425049,-27.2995,-5.3985596,33.239746,0,0.0,0.0,0.0,0.0
0.796875,-0.015159913,0.98884857,0.14815095,0.029503955,-0.14766106,0.98859787,0.9994497,0.019358095,-0.026936414,-0.02056718,0.99849564,0.05082695,-0.039792422,-0.05161496,0.99787396,0.9989962,0.018500926,0.040794134,10.072586,0.1878357,-0.2524414,9.801253,0.18983807,-0.26415598,-0.009521484,0.0032806396,-0.003189087,-27.2995,-5.3985596,33.239746,0,0.0,0.0,0.0,0.0
0.805175781,-0.015043601,0.9882062,0.15238838,0.029532708,-0.1519,0.98795456,0.99945056,0.019362835,-0.02689928,-0.020606402,0.9982903,0.05469726,-0.037034526,-0.055433493,0.9977753,0.9991015,0.018534873,0.038113497,10.053452,0.19502258,-0.24645996,9.801262,0.18988454,-0.26379183,-0.0093688965,0.0023651123,0.0016937256,-27.659607,-5.519104,33.059692,0,0.0,0.0,0.0,0.0
0.813476563,-0.015037219,0.98820555,0.1523936,0.029515322,-0.15190573,0.9879543,0.9994512,0.019354029,-0.026882961,-0.020621087,0.99818057,0.05666004,-0.03569583,-0.05737102,0.9977146,0.9991499,0.018551433,0.036813933,10.04985,0.18544006,-0.275177,9.801269,0.18979819,-0.2636318,-0.013336182,0.0060272217,-0.0022735596,-27.659607,-5.519104,33.059692,0,0.0,0.0,0.0,0.0
0.821777344,-0.015261842,0.98931164,0.14501601,0.029339261,-0.14452736,0.9890657,0.99945295,0.019349627,-0.026819916,-0.02063458,0.99795675,0.060468532,-0.033098992,-0.061130133,0.9975808,0.9992391,0.018583216,0.034292758,10.069,0.19740295,-0.26679993,9.801286,0.18975502,-0.26301354,-0.0079956055,0.007858276,-0.0013580322,-27.539063,-5.279541,33.1192,0,0.0,0.0,0.0,0.0
0.830078125,-0.015248508,0.9893102,0.14502686,0.029276947,-0.14453977,0.9890658,0.99945503,0.019327722,-0.026759967,-0.020620208,0.99774766,0.06383099,-0.030613549,-0.06444473,0.99745166,0.99931854,0.018613566,0.03187346,10.04985,0.1758728,-0.2632141,9.801306,0.1895402,-0.26242563,-0.0037231445,-0.0048065186,0.001083374,-27.539063,-5.279541,33.1192,0,0.0,0.0,0.0,0.0
0.838378906,-0.015227839,0.9893081,0.14504373,0.029255448,-0.1445576,0.9890638,0.99945587,0.01930462,-0.02674135,-0.020606976,0.9976422,0.06546204,-0.029409293,-0.066052474,0.99738264,0.999355,0.01862785,0.030701095,10.04985,0.1758728,-0.2632141,9.801314,0.18931367,-0.26224306,-0.009674072,0.0061798096,-0.0010528564,-27.539063,-5.279541,33.1192,0,0.0,0.0,0.0,0.0
0.846679688,-0.015083382,0.9885728,0.14998755,0.029297829,-0.14950323,0.98832697,0.9994569,0.019301623,-0.026708024,-0.020569483,0.9974303,0.06862738,-0.027073853,-0.06917243,0.99723727,0.9994218,0.018654648,0.028427122,10.080963,0.19023132,-0.25602722,9.801324,0.18928427,-0.26191625,-0.005554199,-0.0016021729,-0.0013580322,-27.89917,-5.4595947,33.17871,0,0.0,0.0,0.0,0.0
0.854980469,-0.0150625575,0.9885705,0.15000467,0.029280385,-0.14952125,0.9883248,0.9994577,0.019278895,-0.026693555,-0.020524703,0.9972033,0.07186429,-0.02482843,-0.07236565,0.99706906,0.999481,0.018680269,0.026244273,10.057037,0.18066406,-0.26081848,9.801332,0.18906139,-0.26177436,0.0016326904,-7.6293945E-5,0.002609253,-27.89917,-5.4595947,33.17871,0,0.0,0.0,0.0,0.0
0.86328125,-0.01474448,0.9869963,0.1600656,0.0294281,-0.1595853,0.9867454,0.99945813,0.019259471,-0.026692422,-0.02049742,0.9970894,0.073434494,-0.023739785,-0.07391462,0.996982,0.999508,0.018692242,0.025185747,10.046265,0.18664551,-0.275177,9.801336,0.1888709,-0.26176324,0.0016326904,0.005569458,-2.89917E-4,-27.89917,-5.758667,32.939148,0,0.0,0.0,0.0,0.0
0.871582031,-0.014656179,0.9864703,0.16328342,0.029425424,-0.16280471,0.9862194,0.9994595,0.019258894,-0.026641212,-0.020442879,0.9968305,0.07688308,-0.021619607,-0.077321924,0.9967717,0.99955726,0.018714704,0.023131767,10.063019,0.19381714,-0.2524414,9.801351,0.18886524,-0.26126108,-0.0038757324,0.005722046,4.7302246E-4,-28.079224,-5.8792114,32.998657,0,0.0,0.0,0.0,0.0
0.879882813,-0.014680274,0.98647326,0.16326344,0.029375859,-0.16278505,0.9862241,0.99946064,0.019274045,-0.026588771,-0.020379668,0.9965606,0.080323115,-0.01958325,-0.08072228,0.99654424,0.9996005,0.018736253,0.021160984,10.066605,0.20219421,-0.2596283,9.801361,0.18901382,-0.26074678,-0.007232666,0.006942749,-0.0028839111,-28.079224,-5.8792114,32.998657,0,0.0,0.0,0.0,0.0
0.888183594,-0.014722304,0.98647845,0.1632286,0.029304245,-0.16275048,0.98623204,0.9994621,0.019302897,-0.026511943,-0.020344444,0.99642545,0.08199091,-0.018596817,-0.08237085,0.99642825,0.9996201,0.018747007,0.02020613,10.066605,0.20219421,-0.2596283,9.801375,0.18929677,-0.25999334,-6.713867E-4,0.012588501,-0.005340576,-28.079224,-5.8792114,32.998657,0,0.0,0.0,0.0,0.0
0.896484375,-0.015260655,0.9892393,0.14550896,0.028967312,-0.14502743,0.98900354,0.99946386,0.019307844,-0.026442386,-0.020268269,0.99615556,0.08522511,-0.016686143,-0.08556779,0.9961926,0.9996553,0.018769022,0.018356306,10.0785675,0.17468262,-0.26200867,9.801393,0.18934527,-0.25931123,-0.0038757324,-7.6293945E-5,-0.003036499,-28.019714,-5.3390503,33.358765,0,0.0,0.0,0.0,0.0
0.904785156,-0.015299498,0.9892433,0.14547698,0.028930925,-0.14499512,0.9890093,0.99946433,0.019340131,-0.02640137,-0.020173583,0.99594945,0.087622575,-0.014868824,-0.087929584,0.9960157,0.9996859,0.01879036,0.016582452,10.047455,0.1986084,-0.26919556,9.801397,0.1896619,-0.25890902,-0.0023498535,0.012588501,-0.0039520264,-28.019714,-5.3390503,33.358765,0,0.0,0.0,0.0,0.0
0.913085938,-0.015299155,0.9890493,0.14679024,0.028897127,-0.14630874,0.98881686,0.99946535,0.019369878,-0.026342284,-0.02012528,0.9958475,0.08878463,-0.013988297,-0.08907438,0.99592674,0.99969953,0.018801356,0.015722856,10.059433,0.18664551,-0.24406433,9.801407,0.18995363,-0.25832957,-0.0050964355,0.0066375732,-0.0021209717,-27.95868,-5.3390503,33.059692,0,0.0,0.0,0.0,0.0
0.921386719,-0.015194818,0.98831594,0.1516599,0.028860865,-0.15118071,0.98808473,0.99946797,0.019390803,-0.026226489,-0.020027827,0.99564105,0.091091335,-0.012281178,-0.091347724,0.99574333,0.999724,0.018823868,0.014057142,10.071396,0.19262695,-0.22851563,9.801433,0.19015883,-0.257194,-0.0049438477,0.0060272217,-4.4250488E-4,-28.138733,-5.4595947,32.759094,0,0.0,0.0,0.0,0.0
0.9296875,-0.01523143,0.9883202,0.15162918,0.028759785,-0.15115099,0.9880923,0.9994703,0.019410877,-0.026121626,-0.019930284,0.99541974,0.093500406,-0.010642727,-0.0937249,0.9955413,0.9997447,0.01884632,0.012461944,10.071396,0.18902588,-0.25004578,9.8014555,0.19035567,-0.25616565,-0.006164551,0.009384155,-0.0076293945,-28.138733,-5.4595947,32.759094,0,0.0,0.0,0.0,0.0
0.937988281,-0.015271659,0.9883247,0.15159537,0.028681388,-0.15111767,0.98809963,0.99947196,0.019437883,-0.026038704,-0.019880764,0.99531037,0.094668046,-0.009850217,-0.09487715,0.99544024,0.99975383,0.018857611,0.011690254,10.040283,0.18664551,-0.2536316,9.801472,0.19062053,-0.25535247,-0.008758545,0.010147095,-0.004562378,-28.138733,-5.4595947,32.759094,0,0.0,0.0,0.0,0.0
0.946289063,-0.015368332,0.9884416,0.15082105,0.028535342,-0.15034385,0.9882219,0.99947464,0.019491054,-0.025894985,-0.019780852,0.9950944,0.09693193,-0.008315928,-0.09711129,0.99523884,0.99976975,0.01888059,0.010196078,10.054642,0.20219421,-0.22132874,9.801498,0.19114195,-0.25394306,-0.0066223145,0.012756348,-0.0050354004,-28.079224,-5.3985596,32.51953,0,0.0,0.0,0.0,0.0
0.954589844,-0.015425609,0.988448,0.15077266,0.028395899,-0.1502967,0.9882329,0.9994777,0.019525424,-0.025749456,-0.019731158,0.9949894,0.09801414,-0.007575074,-0.09817919,0.99513996,0.99977666,0.018892799,0.009474308,10.054642,0.20219421,-0.22132874,9.801528,0.191479,-0.2525159,-0.0076904297,0.0090789795,6.2561035E-4,-28.079224,-5.3985596,32.51953,0,0.0,0.0,0.0,0.0
0.962890625,-0.015276776,0.9877436,0.15533645,0.028395973,-0.15486334,0.98752785,0.99948,0.01949717,-0.025682122,-0.01963214,0.9947825,0.100111745,-0.0061433287,-0.100249186,0.9949434,0.9997884,0.01891785,0.008079382,10.042679,0.17108154,-0.25483704,9.801551,0.19120191,-0.25185558,-0.009979248,-0.002822876,7.7819824E-4,-28.199768,-5.5786133,32.699585,0,0.0,0.0,0.0,0.0
0.971191406,-0.015151385,0.9871603,0.15901247,0.028403962,-0.1585416,0.98694366,0.9994817,0.019470148,-0.025637139,-0.019531503,0.994561,0.102307685,-0.0047677867,-0.10241868,0.99473,0.9997979,0.01894079,0.0067422455,10.055832,0.15792847,-0.27876282,9.801567,0.19093692,-0.25141445,0.003921509,0.010604858,-0.0019683838,-28.138733,-5.6991577,32.699585,0,0.0,0.0,0.0,0.0
0.979492188,-0.01512193,0.9871568,0.15903719,0.02836171,-0.15856789,0.9869406,0.9994833,0.019435013,-0.0255996,-0.019480413,0.9944442,0.10344671,-0.0041002734,-0.103544936,0.9946163,0.9998018,0.018951377,0.0060945908,10.055832,0.15792847,-0.27876282,9.801583,0.19059238,-0.25104633,-0.0066223145,0.010604858,-0.0019683838,-28.138733,-5.6991577,32.699585,0,0.0,0.0,0.0,0.0
0.987792969,-0.015149252,0.9871601,0.15901427,0.028265795,-0.15854615,0.98694694,0.9994857,0.01944617,-0.025501007,-0.019375784,0.9942138,0.1056576,-0.0028069397,-0.10573112,0.9943908,0.9998083,0.018970529,0.0048393216,10.058228,0.19142151,-0.2679901,9.801606,0.19070178,-0.25007945,-0.005554199,0.019622803,-0.0022735596,-28.138733,-5.6991577,32.699585,0,0.0,0.0,0.0,0.0
0.99609375,-0.015508911,0.98900634,0.14705764,0.027899759,-0.14659002,0.98880386,0.99949044,0.019438142,-0.025319587,-0.019270882,0.9939881,0.10777928,-0.0015692681,-0.107829235,0.9941682,0.9998131,0.018989364,0.0036377981,10.054642,0.17468262,-0.23928833,9.801653,0.19062306,-0.24830034,-0.001739502,0.025878906,-0.0059509277,-28.138733,-5.3390503,32.939148,0,0.0,0.0,0.0,0.0
1.004394531,-0.015543126,0.98901004,0.147029,0.02768081,-0.14656478,0.9888137,0.999496,0.019439138,-0.025098525,-0.019218128,0.9939033,0.10856758,-9.772975E-4,-0.108606264,0.9940843,0.9998148,0.018998338,0.0030585483,10.054642,0.17468262,-0.23928833,9.801707,0.19063284,-0.24613245,0.0030059814,0.028930664,-0.0024261475,-28.138733,-5.3390503,32.939148,0,0.0,0.0,0.0,0.0
1.012695313,-0.015922844,0.990799,0.13440144,0.027275573,-0.13393803,0.99061424,0.9995011,0.019439273,-0.024891937,-0.019114144,0.9937371,0.11009581,1.6241893E-4,-0.11011284,0.993919,0.99981725,0.019015795,0.0019433111,10.045074,0.18066406,-0.25723267,9.801758,0.19063415,-0.24410652,-0.004333496,0.023895264,-0.0033416748,-28.079224,-4.9194336,32.939148,0,0.0,0.0,0.0,0.0
1.020996094,-0.015745303,0.98977435,0.14177042,0.02719945,-0.14131154,0.9895915,0.999506,0.019437494,-0.024696324,-0.019012615,0.9936317,0.11106115,0.0012387524,-0.11105773,0.99381316,0.99981844,0.019032564,8.8063406E-4,10.066605,0.19502258,-0.23808289,9.8018055,0.1906167,-0.24218822,-0.0037231445,0.021606445,-7.4768066E-4,-27.719116,-5.1589966,32.939148,0,0.0,0.0,0.0,0.0
1.029296875,-0.01579121,0.98977906,0.14173253,0.027004607,-0.14127631,0.98960185,0.9995106,0.019454438,-0.02449767,-0.018962765,0.9935636,0.11167718,0.0017597021,-0.111663915,0.9937445,0.9998186,0.019040661,3.6908052E-4,10.066605,0.19502258,-0.23808289,9.801851,0.19078289,-0.24024008,0.003616333,0.016723633,-1.373291E-4,-27.719116,-5.1589966,32.939148,0,0.0,0.0,0.0,0.0
1.037597656,-0.015820196,0.989782,0.14170858,0.02683114,-0.14125504,0.98960954,0.99951476,0.01945802,-0.024322297,-0.018865777,0.9934305,0.11287089,0.0027627074,-0.11283875,0.9936095,0.9998182,0.019057045,-6.1576697E-4,10.065414,0.1878357,-0.22372437,9.801892,0.19081801,-0.23852028,-0.0063171387,0.013809204,-0.005340576,-27.719116,-5.1589966,32.939148,0,0.0,0.0,0.0,0.0
1.045898438,-0.016048672,0.990751,0.13474035,0.026584156,-0.13428727,0.99058586,0.99951774,0.019479545,-0.024183145,-0.018771365,0.9933016,0.114015885,0.0037186914,-0.113965824,0.9934777,0.9998169,0.019072922,-0.0015544877,10.055832,0.18424988,-0.20698547,9.801921,0.19102909,-0.23715565,-0.003112793,0.010910034,-0.0025787354,-27.2995,-4.978943,33.358765,0,0.0,0.0,0.0,0.0
1.054199219,-0.016077384,0.9907536,0.13471726,0.02645241,-0.13426605,0.9905921,0.9995208,0.019489728,-0.024049174,-0.01872611,0.99325466,0.114431426,0.0041770944,-0.114372775,0.99342906,0.99981594,0.019081054,-0.0020071613,10.055832,0.18424988,-0.20698547,9.80195,0.19112894,-0.23584184,-0.004180908,0.0060272217,6.2561035E-4,-27.2995,-4.978943,33.358765,0,0.0,0.0,0.0,0.0
1.0625,-0.01614708,0.990871,0.13384248,0.026344433,-0.13339184,0.9907131,0.9995225,0.01952313,-0.023950048,-0.01863823,0.99316317,0.11523657,0.005061334,-0.1151614,0.9933339,0.99981344,0.019097237,-0.002880326,10.053452,0.21774292,-0.2033844,9.801968,0.19145651,-0.23486975,-0.010284424,-0.008483887,0.0015411377,-27.359009,-4.9194336,33.1192,0,0.0,0.0,0.0,0.0
1.070800781,-0.016060706,0.9904429,0.13698544,0.026323594,-0.13653679,0.9902852,0.9995245,0.019510627,-0.023879139,-0.018554509,0.9930788,0.115974925,0.0059057986,-0.11588401,0.9932452,0.9998104,0.019114101,-0.0037147524,10.072586,0.19262695,-0.16870117,9.801987,0.19133389,-0.23417436,-0.008300781,-0.016571045,0.0012359619,-27.2995,-5.039978,33.239746,0,0.0,0.0,0.0,0.0
1.079101563,-0.016047938,0.9904416,0.13699573,0.02633303,-0.13654718,0.9902834,0.99952435,0.01949952,-0.023890028,-0.018512972,0.9930303,0.11639612,0.0063151084,-0.11629761,0.99319434,0.99980867,0.019122032,-0.0041180793,10.072586,0.19262695,-0.16870117,9.801986,0.19122498,-0.23428115,-0.0076904297,-0.02130127,-7.4768066E-4,-27.2995,-5.039978,33.239746,0,0.0,0.0,0.0,0.0
1.087402344,-0.016011395,0.9904382,0.13702524,0.026446573,-0.13657536,0.99027675,0.99952203,0.019479554,-0.024006931,-0.018430907,0.99293566,0.11721382,0.007109627,-0.117100626,0.99309456,0.99980485,0.019136982,-0.0049011316,10.051056,0.17945862,-0.22492981,9.801963,0.19102918,-0.23542757,-0.009979248,-0.028335571,-9.0026855E-4,-27.2995,-5.039978,33.239746,0,0.0,0.0,0.0,0.0
1.095703125,-0.015758479,0.9892834,0.14515519,0.026732884,-0.14470448,0.98911375,0.9995184,0.019467345,-0.024166077,-0.018349553,0.992844,0.11799989,0.007876998,-0.11787254,0.99299747,0.99980056,0.019150546,-0.0056577213,10.045074,0.17108154,-0.23808289,9.801928,0.19090945,-0.23698828,-0.00982666,-0.025421143,-0.0010528564,-27.479553,-5.279541,32.998657,0,0.0,0.0,0.0,0.0
1.104003906,-0.01570212,0.98927754,0.14520118,0.026938468,-0.14474781,0.98910177,0.99951375,0.019442491,-0.024376774,-0.018307686,0.99277997,0.118544355,0.008255329,-0.11841009,0.9929305,0.9997983,0.019156883,-0.0060279104,10.045074,0.17108154,-0.23808289,9.801882,0.1906657,-0.2390545,-0.0038757324,-0.023132324,6.2561035E-4,-27.479553,-5.279541,32.998657,0,0.0,0.0,0.0,0.0
1.112304688,-0.015736671,0.98977315,0.14177941,0.027102068,-0.14132263,0.9895925,0.9995088,0.019415407,-0.024600953,-0.018223276,0.9926546,0.119602695,0.008997651,-0.1194549,0.99279886,0.99979347,0.019168193,-0.0067546996,10.060623,0.17706299,-0.27876282,9.801833,0.19040011,-0.24125294,-0.0034179688,-0.011688232,-0.0012054443,-27.178955,-5.1589966,32.998657,0,0.0,0.0,0.0,0.0
1.120605469,-0.015685225,0.9897681,0.141821,0.027250677,-0.1413626,0.98958284,0.9995056,0.019386545,-0.024754545,-0.018181356,0.9926017,0.120047234,0.009360724,-0.11989283,0.9927428,0.9997909,0.019173136,-0.007111656,10.060623,0.17706299,-0.27876282,9.801802,0.19011706,-0.24275917,0.0030059814,-0.00541687,6.2561035E-4,-27.178955,-5.1589966,32.998657,0,0.0,0.0,0.0,0.0
1.12890625,-0.015666503,0.9898069,0.14155169,0.027286174,-0.14109312,0.98962027,0.9995049,0.019366292,-0.024797607,-0.018097205,0.99249834,0.12091153,0.010071115,-0.12074425,0.99263257,0.9997855,0.019181587,-0.0078104306,10.051056,0.18424988,-0.24526978,9.801795,0.18991846,-0.24318147,-0.007843018,-7.6293945E-5,0.0032196045,-27.23999,-5.1589966,33.059692,0,0.0,0.0,0.0,0.0
1.137207031,-0.015647504,0.989805,0.14156704,0.027278692,-0.14110908,0.9896182,0.9995054,0.019346818,-0.02479258,-0.018014356,0.9923997,0.121730834,0.010754626,-0.12155122,0.9925269,0.9997799,0.019188903,-0.008483221,10.043869,0.18304443,-0.23449707,9.8018,0.18972749,-0.24313216,4.119873E-4,0.0025177002,-0.0018157959,-27.23999,-5.1589966,33.059692,0,0.0,0.0,0.0,0.0
1.145507813,-0.015344012,0.9882157,0.15229702,0.027422173,-0.15184176,0.9880244,0.9995062,0.01933657,-0.024769159,-0.017973397,0.99235153,0.12212848,0.011085942,-0.12194291,0.9924752,0.999777,0.01919206,-0.008809424,10.043869,0.18304443,-0.23449707,9.801807,0.18962698,-0.24290247,-0.0023498535,-5.340576E-4,6.2561035E-4,-27.059937,-5.4595947,32.699585,0,0.0,0.0,0.0,0.0
1.153808594,-0.015308018,0.9882118,0.15232615,0.027389102,-0.15187241,0.9880206,0.9995076,0.019296711,-0.024741365,-0.017887851,0.99220496,0.123326324,0.011735441,-0.12312921,0.99232125,0.9997711,0.019197784,-0.009441446,10.088135,0.16390991,-0.23928833,9.801822,0.18923609,-0.2426299,0.0060577393,0.00541687,3.2043457E-4,-27.059937,-5.4595947,32.699585,0,0.0,0.0,0.0,0.0
1.162109375,-0.015561327,0.9896011,0.14299503,0.027233796,-0.1425398,0.9894143,0.9995079,0.019290896,-0.024732484,-0.017802788,0.9920627,0.124477565,0.012357915,-0.12426946,0.9921716,0.99976516,0.019201703,-0.010047484,10.067795,0.18902588,-0.26560974,9.801825,0.18917908,-0.24254282,-0.0014343262,0.0061798096,-0.0025787354,-27.598572,-5.1589966,32.699585,0,0.0,0.0,0.0,0.0
1.170410156,-0.015565114,0.9896015,0.1429919,0.02720264,-0.14253718,0.9894156,0.99950874,0.019290123,-0.024701163,-0.01776333,0.99201673,0.124848746,0.0126561215,-0.124635346,0.99212193,0.9997621,0.019203488,-0.010341146,10.067795,0.18902588,-0.26560974,9.801833,0.18917151,-0.24223569,-0.0023498535,0.009536743,3.2043457E-4,-27.598572,-5.1589966,32.699585,0,0.0,0.0,0.0,0.0
1.178710938,-0.015418558,0.9885537,0.15007891,0.027180811,-0.14962688,0.98836875,0.9995116,0.019318493,-0.024562664,-0.017686244,0.9919272,0.1255688,0.013233592,-0.12534522,0.9920249,0.999756,0.01920692,-0.010909875,10.053452,0.20219421,-0.21894836,9.801861,0.1894497,-0.24087745,-8.087158E-4,0.022369385,-0.006866455,-27.83966,-5.3985596,32.699585,0,0.0,0.0,0.0,0.0
1.187011719,-0.015581886,0.9885718,0.14994286,0.026977032,-0.14949082,0.988395,0.9995146,0.019446073,-0.024339387,-0.017609313,0.991805,0.12654154,0.013787906,-0.12630826,0.99189526,0.9997499,0.019211337,-0.011450713,10.061813,0.25723267,-0.20100403,9.801889,0.19070083,-0.23868784,0.003768921,0.024658203,-0.009155273,-27.83966,-5.3985596,32.699585,0,0.0,0.0,0.0,0.0
1.1953125,-0.015770866,0.98856413,0.14997429,0.026731817,-0.14952245,0.9883969,0.9995182,0.01959696,-0.024068017,-0.017574765,0.99174565,0.1270106,0.01405249,-0.12677266,0.99183226,0.9997468,0.019216033,-0.011708496,10.061813,0.25723267,-0.20100403,9.801926,0.19218053,-0.23602661,0.012466431,0.035507202,-0.009155273,-27.83966,-5.4595947,33.059692,0,0.0,0.0,0.0,0.0
1.203613281,-0.015845448,0.98857224,0.14991282,0.026493125,-0.14946389,0.98841214,0.9995234,0.019633492,-0.023822045,-0.017514287,0.99162954,0.12792179,0.014556054,-0.12767497,0.9917092,0.9997406,0.019231116,-0.012198078,10.058228,0.18424988,-0.2368927,9.801976,0.1925388,-0.23361446,0.010635376,0.022369385,-5.950928E-4,-27.83966,-5.4595947,33.059692,0,0.0,0.0,0.0,0.0
1.211914063,-0.01600905,0.9893558,0.14463286,0.026191331,-0.14418682,0.9892037,0.9995287,0.019624341,-0.023604255,-0.017458117,0.99151766,0.12879428,0.01502976,-0.12853913,0.9915905,0.9997346,0.01924705,-0.012658222,10.07019,0.16630554,-0.22612,9.802029,0.19244905,-0.23147868,-0.0037231445,0.012283325,-0.008544922,-27.598572,-5.279541,33.059692,0,0.0,0.0,0.0,0.0
1.220214844,-0.016029418,0.989358,0.14461622,0.026049422,-0.14417249,0.9892097,0.99953216,0.019623622,-0.023461202,-0.017432574,0.9914769,0.12911145,0.015253385,-0.12885234,0.9915465,0.99973166,0.019254595,-0.012877149,10.07019,0.16630554,-0.22612,9.802062,0.192442,-0.2300758,-0.0063171387,0.010757446,-0.0027313232,-27.598572,-5.279541,33.059692,0,0.0,0.0,0.0,0.0
1.228515625,-0.016182296,0.9900283,0.13993585,0.025887331,-0.13949242,0.9898847,0.9995339,0.019641174,-0.023371883,-0.017383331,0.99139744,0.12972623,0.01568163,-0.12945956,0.9914606,0.9997259,0.01926921,-0.01329629,10.057037,0.17706299,-0.23928833,9.802079,0.19261412,-0.22919987,-0.005554199,0.015045166,-0.004119873,-27.659607,-5.0994873,32.87964,0,0.0,0.0,0.0,0.0
1.236816406,-0.016245667,0.9900347,0.13988355,0.02579012,-0.13944055,0.9898945,0.9995353,0.019689111,-0.023267807,-0.01733971,0.99134517,0.13013095,0.016086197,-0.12985706,0.9914022,0.9997202,0.01928394,-0.013695288,10.046265,0.20698547,-0.24526978,9.8020935,0.19308423,-0.22817925,-0.0050964355,0.021759033,-0.0013580322,-27.659607,-5.0994873,32.87964,0,0.0,0.0,0.0,0.0
1.245117188,-0.016128726,0.9890661,0.14658847,0.02575668,-0.1461479,0.9889274,0.99953806,0.019725772,-0.023117878,-0.017319683,0.99131995,0.13032618,0.016280401,-0.13004886,0.99137396,0.9997175,0.019292044,-0.013886683,10.046265,0.20698547,-0.24526978,9.802121,0.19344376,-0.22670896,-0.008605957,0.023895264,-0.003036499,-28.199768,-5.279541,32.51953,0,0.0,0.0,0.0,0.0
1.253417969,-0.016156299,0.989069,0.14656505,0.025594441,-0.14612706,0.98893464,0.9995419,0.019728778,-0.022953799,-0.017278338,0.9912356,0.13097101,0.016656226,-0.13068704,0.9912837,0.99971193,0.019309219,-0.014252189,10.058228,0.18664551,-0.23210144,9.802157,0.19347322,-0.22509988,-0.009674072,0.015045166,-0.0039520264,-28.199768,-5.279541,32.51953,0,0.0,0.0,0.0,0.0
1.26171875,-0.01611079,0.98870194,0.14902605,0.025486007,-0.14859091,0.98857015,0.99954534,0.01972473,-0.022804152,-0.017239152,0.99115443,0.13158943,0.017010795,-0.13129918,0.9911968,0.9997067,0.019325834,-0.014596838,10.046265,0.18066406,-0.20936584,9.802192,0.19343352,-0.22363234,-0.007232666,0.005569458,0.002456665,-27.95868,-5.3390503,32.398987,0,0.0,0.0,0.0,0.0
1.270019531,-0.016104322,0.98870134,0.14903155,0.025386792,-0.1485985,0.98857176,0.99954796,0.019703707,-0.022706876,-0.017219441,0.9911083,0.13193868,0.017180683,-0.13164546,0.99114794,0.99970406,0.019333811,-0.014761057,10.046265,0.18066406,-0.20936584,9.8022175,0.19322737,-0.22267838,-0.008605957,0.002670288,0.0013885498,-27.95868,-5.3390503,32.398987,0,0.0,0.0,0.0,0.0
1.278320313,-0.016334396,0.9899743,0.1402995,0.025199387,-0.13986604,0.9898497,0.999549,0.019704059,-0.022662122,-0.01718057,0.99101853,0.13261646,0.017506193,-0.13231754,0.9910528,0.9996991,0.01934846,-0.015075671,10.066605,0.2141571,-0.20100403,9.802227,0.19323081,-0.22223951,-0.0066223145,-0.0032806396,0.0027618408,-28.199768,-5.0994873,32.699585,0,0.0,0.0,0.0,0.0
1.286621094,-0.016315505,0.9899725,0.14031549,0.025248386,-0.1398815,0.98984635,0.9995481,0.01969258,-0.022712966,-0.017149277,0.9909783,0.13292097,0.017811188,-0.13261664,0.9910074,0.9996943,0.019362539,-0.015376221,10.080963,0.20817566,-0.2416687,9.8022175,0.19311823,-0.2227381,-0.005554199,-0.016571045,3.2043457E-4,-28.199768,-5.0994873,32.699585,0,0.0,0.0,0.0,0.0
1.294921875,-0.016375998,0.990348,0.137632,0.0253012,-0.13719593,0.9902207,0.99954575,0.01969811,-0.022810275,-0.01713368,0.9909587,0.133069,0.017960006,-0.13276203,0.9909852,0.9996919,0.019369142,-0.015522921,10.080963,0.20817566,-0.2416687,9.802196,0.19317247,-0.22369239,-0.020065308,-0.016571045,-0.0027313232,-27.95868,-5.039978,32.939148,0,0.0,0.0,0.0,0.0
1.303222656,-0.01645688,0.9903561,0.1375646,0.025427796,-0.1371242,0.9902274,0.99954116,0.019794015,-0.022925936,-0.017104931,0.99093485,0.13324982,0.01825089,-0.13293767,0.99095637,0.9996871,0.019382168,-0.015811553,10.037888,0.25483704,-0.25602722,9.802151,0.19411299,-0.22482663,-0.017456055,0.0032806396,-0.0077819824,-27.95868,-5.039978,32.939148,0,0.0,0.0,0.0,0.0
1.311523438,-0.017040877,0.9928014,0.11855363,0.02511832,-0.118108355,0.99268305,0.99953926,0.019894054,-0.022924833,-0.017080436,0.99091226,0.13342085,0.01853518,-0.1331036,0.99092877,0.99968225,0.019398477,-0.016093269,10.058228,0.2416687,-0.21894836,9.802132,0.19509403,-0.22481582,-0.028457642,-0.0048065186,-0.004562378,-27.778625,-4.4387817,33.17871,0,0.0,0.0,0.0,0.0
1.319824219,-0.017142085,0.9928097,0.118470006,0.025126537,-0.11802225,0.99269307,0.9995373,0.01999357,-0.02292272,-0.017077662,0.9909523,0.13312377,0.01866683,-0.13280399,0.99096656,0.99967986,0.01940839,-0.016229957,10.058228,0.2416687,-0.21894836,9.802113,0.19606994,-0.2247951,-0.023117065,-0.004043579,1.6784668E-4,-27.778625,-4.4387817,33.17871,0,0.0,0.0,0.0,0.0
1.328125,-0.017429667,0.9939334,0.10859351,0.024945915,-0.1081439,0.9938221,0.9995368,0.020030955,-0.022909667,-0.017076481,0.99103004,0.1325439,0.01892268,-0.13221917,0.99103993,0.9996751,0.01943156,-0.016495103,10.041473,0.21894836,-0.20698547,9.802108,0.19643657,-0.2246671,-0.028457642,0.0034332275,-0.0013580322,-27.479553,-4.1397095,33.47931,0,0.0,0.0,0.0,0.0
1.336425781,-0.017448576,0.99393475,0.10857817,0.024906727,-0.10812891,0.9938248,0.99953747,0.020045156,-0.022868967,-0.017084748,0.9911561,0.13159661,0.019161172,-0.13126709,0.9911618,0.99967045,0.019455297,-0.016749049,10.059433,0.19381714,-0.22492981,9.8021145,0.19657584,-0.22426796,-0.022506714,0.0077056885,-0.008544922,-27.479553,-4.1397095,33.47931,0,0.0,0.0,0.0,0.0
1.344726563,-0.017368041,0.9932869,0.11436604,0.024932755,-0.11391747,0.99317735,0.99953824,0.020101003,-0.022786852,-0.017089304,0.99121696,0.13113676,0.019276218,-0.13080491,0.9912207,0.9996681,0.019467093,-0.01687155,10.059433,0.19381714,-0.22492981,9.802122,0.19712351,-0.22346269,-0.009979248,0.009689331,-0.008239746,-27.778625,-4.319763,33.299255,0,0.0,0.0,0.0,0.0
1.353027344,-0.017299585,0.9932815,0.11442244,0.024832837,-0.113977425,0.9931729,0.99954194,0.020022916,-0.02269424,-0.017096598,0.9913044,0.13047318,0.019500293,-0.13013685,0.9913043,0.9996636,0.019492196,-0.017105829,10.042679,0.100494385,-0.22372437,9.802158,0.19635773,-0.22255448,-0.009521484,0.015045166,-0.003036499,-27.778625,-4.319763,33.299255,0,0.0,0.0,0.0,0.0
1.361328125,-0.017380634,0.9939752,0.108218394,0.024644004,-0.10777598,0.9938697,0.99954516,0.019941019,-0.022622315,-0.017101265,0.9913878,0.12983799,0.019711452,-0.12949747,0.9913838,0.9996594,0.019513214,-0.01732712,10.04866,0.117248535,-0.23330688,9.80219,0.1955546,-0.22184913,-0.010131836,0.0031280518,-0.003189087,-27.539063,-4.1397095,33.599854,0,0.0,0.0,0.0,0.0
1.369628906,-0.017290186,0.9939687,0.10829173,0.024600841,-0.10785221,0.99386245,0.9995478,0.019848136,-0.022587683,-0.01710466,0.9914442,0.1294061,0.019810138,-0.12906358,0.9914384,0.9996574,0.01952177,-0.017433057,10.04866,0.117248535,-0.23330688,9.802216,0.19464374,-0.2215095,2.4414063E-4,0.0019073486,-0.0018157959,-27.539063,-4.1397095,33.599854,0,0.0,0.0,0.0,0.0
1.377929688,-0.01739509,0.99449646,0.103315614,0.024525622,-0.10287576,0.99439186,0.9995479,0.019831415,-0.022601113,-0.017107978,0.99155277,0.12857087,0.019999795,-0.1282246,0.99154353,0.9996536,0.019534694,-0.017637188,10.074982,0.17706299,-0.24526978,9.802217,0.19447975,-0.22164121,-0.008911133,0.0063323975,-0.003189087,-27.178955,-3.9596558,33.53882,0,0.0,0.0,0.0,0.0
1.386230469,-0.017395154,0.9944965,0.10331556,0.024526399,-0.10287569,0.99439186,0.99954784,0.019831557,-0.02260188,-0.017114734,0.99168164,0.12757204,0.02017916,-0.12722215,0.991669,0.99964994,0.019546445,-0.017833931,10.052246,0.19262695,-0.24526978,9.802217,0.19448116,-0.22164875,-0.0064697266,0.018859863,-0.0024261475,-27.178955,-3.9596558,33.53882,0,0.0,0.0,0.0,0.0
1.39453125,-0.017534353,0.9950146,0.09817642,0.024370398,-0.09773703,0.994914,0.99954927,0.019837769,-0.022535145,-0.017118143,0.9917438,0.12708752,0.020266185,-0.12673588,0.99172944,0.9996481,0.019552145,-0.01792938,10.059433,0.1878357,-0.24645996,9.80223,0.19454207,-0.22099428,2.4414063E-4,0.017791748,-5.950928E-4,-27.359009,-3.779602,33.4198,0,0.0,0.0,0.0,0.0
1.402832031,-0.017557308,0.995016,0.0981578,0.024223026,-0.09772082,0.994919,0.99955237,0.019845778,-0.022386583,-0.017123977,0.99181753,0.12651025,0.020348303,-0.1261569,0.9918016,0.9996463,0.019557856,-0.018021494,10.061813,0.18664551,-0.23330688,9.80226,0.19462061,-0.21953738,-6.1035156E-5,0.024810791,-0.0064086914,-27.359009,-3.779602,33.4198,0,0.0,0.0,0.0,0.0
1.411132813,-0.017376985,0.99409664,0.107097566,0.024206568,-0.10666406,0.9940004,0.99955595,0.019865196,-0.022210168,-0.01713665,0.9919596,0.12538919,0.020501886,-0.12503263,0.9919408,0.99964297,0.019569257,-0.018194402,10.063019,0.19262695,-0.18424988,9.802296,0.19481103,-0.21780734,-9.765625E-4,0.022827148,-0.0038146973,-27.359009,-4.0786743,33.4198,0,0.0,0.0,0.0,0.0
1.419433594,-0.017428357,0.9941003,0.107055955,0.02397712,-0.106625885,0.9940101,0.9995606,0.019890856,-0.021977345,-0.01714345,0.9920507,0.12466557,0.020648662,-0.12430602,0.9920291,0.9996398,0.019580977,-0.018353485,10.063019,0.19262695,-0.18424988,9.8023405,0.19506265,-0.2155241,-0.002960205,0.019012451,-0.004257202,-27.359009,-4.0786743,33.4198,0,0.0,0.0,0.0,0.0
1.427734375,-0.017381735,0.9937666,0.11011676,0.023832992,-0.1096903,0.99368,0.9995648,0.019896299,-0.021777825,-0.01714794,0.99209476,0.12431368,0.020715227,-0.123952754,0.99207187,0.9996384,0.019587174,-0.018425936,10.066605,0.17826843,-0.18902588,9.802383,0.19511606,-0.21356754,0.005142212,0.017333984,-0.0061035156,-27.23999,-4.1397095,33.059692,0,0.0,0.0,0.0,0.0
1.436035156,-0.017409923,0.99376875,0.11009383,0.023655929,-0.10967029,0.9936865,0.9995685,0.019904375,-0.02159917,-0.017155448,0.9921649,0.123751804,0.020838618,-0.123388335,0.99213964,0.99963564,0.019599417,-0.018558564,10.066605,0.17826843,-0.18902588,9.80242,0.19519526,-0.21181552,-0.0025024414,0.012588501,-0.005340576,-27.23999,-4.1397095,33.059692,0,0.0,0.0,0.0,0.0
1.444335938,-0.016871864,0.99076855,0.13451001,0.02394045,-0.13409027,0.99067974,0.9995709,0.019934846,-0.021457093,-0.017163998,0.99223197,0.12321133,0.020950178,-0.12284552,0.99220467,0.9996332,0.019611496,-0.018678917,10.076172,0.19621277,-0.16630554,9.802443,0.19549406,-0.2104222,-0.006011963,-0.009094238,3.2043457E-4,-27.23999,-4.9194336,32.818604,0,0.0,0.0,0.0,0.0
1.452636719,-0.016891036,0.99077034,0.13449436,0.023921752,-0.1340746,0.9906824,0.99957114,0.019950995,-0.021436306,-0.01715879,0.992204,0.12343749,0.021010103,-0.1230706,0.99217546,0.999632,0.019617964,-0.018734565,10.057037,0.18902588,-0.18424988,9.802444,0.19565243,-0.21021836,-0.0079956055,-0.019165039,-0.0018157959,-27.23999,-4.9194336,32.818604,0,0.0,0.0,0.0,0.0
1.4609375,-0.016862677,0.9907677,0.13451752,0.024015082,-0.13409649,0.99067724,0.99956936,0.019935919,-0.021532143,-0.017149393,0.9921496,0.12387565,0.02112536,-0.12350666,0.9921189,0.9996298,0.019631151,-0.018841451,10.047455,0.18424988,-0.17826843,9.802427,0.19550459,-0.21115819,-0.0035705566,-0.023895264,0.0015411377,-27.23999,-4.9194336,32.818604,1,0.0,0.0,0.0,0.0
1.469238281,-0.016483257,0.9888265,0.14815655,0.02438887,-0.14773498,0.9887262,0.9995667,0.019910801,-0.02168121,-0.017139196,0.992097,0.124297306,0.021239715,-0.12392625,0.9920641,0.99962753,0.01964322,-0.01894786,10.047455,0.18424988,-0.17826843,9.802401,0.19525826,-0.21262005,-0.008300781,-0.03215027,-0.0019683838,-27.659607,-5.279541,32.159424,1,0.0,0.0,0.0,0.0
1.477539063,-0.016396197,0.9887113,0.14893265,0.024634488,-0.148508,0.98860425,0.9995621,0.019878235,-0.021921435,-0.017127465,0.9920372,0.12477516,0.021302896,-0.124403074,0.992003,0.99962634,0.01964857,-0.019002555,10.073776,0.17826843,-0.21296692,9.802356,0.1949389,-0.21497585,-0.013031006,-0.035812378,3.2043457E-4,-27.659607,-5.3390503,32.398987,1,0.0,0.0,0.0,0.0
1.485839844,-0.01631538,0.98870254,0.1490002,0.02488966,-0.14857225,0.9885882,0.999557,0.01983776,-0.022184458,-0.017101424,0.99191666,0.12573346,0.021435112,-0.12535924,0.9918798,0.999624,0.019657666,-0.019118022,10.058228,0.17826843,-0.21296692,9.802306,0.19454196,-0.21755522,-0.02204895,-0.03337097,0.005050659,-27.659607,-5.3390503,32.398987,1,0.0,0.0,0.0,0.0
1.494140625,-0.016290503,0.988983,0.14713068,0.025140682,-0.14669853,0.9888618,0.9995512,0.019808019,-0.02247391,-0.017073186,0.9917997,0.12665637,0.021572469,-0.12627995,0.99176,0.9996215,0.019664796,-0.019239567,10.055832,0.19262695,-0.19740295,9.802249,0.19425032,-0.22039378,-0.0107421875,-0.051849365,0.002609253,-27.89917,-5.279541,32.398987,1,0.0,0.0,0.0,0.0
1.502441406,-0.016196193,0.98897266,0.1472102,0.025505852,-0.14677294,0.9888413,0.9995434,0.019770185,-0.022847425,-0.017058907,0.9917475,0.12706648,0.021644063,-0.1266889,0.9917063,0.9996202,0.01966766,-0.019304272,10.052246,0.17826843,-0.2141571,9.802174,0.1938793,-0.22405672,-0.012268066,-0.045898438,-5.950928E-4,-27.89917,-5.279541,32.398987,1,0.0,0.0,0.0,0.0
1.510742188,-0.01608052,0.98896,0.14730775,0.025900286,-0.14686537,0.98881733,0.99953514,0.01971601,-0.023252675,-0.017027594,0.9916454,0.12786524,0.021797523,-0.12748522,0.991601,0.9996174,0.019671721,-0.019444644,10.077377,0.17228699,-0.23449707,9.802092,0.193348,-0.22803085,-0.016693115,-0.04940796,0.0044403076,-27.89917,-5.279541,32.398987,1,0.0,0.0,0.0,0.0
1.519042969,-0.015993949,0.98910266,0.14635594,0.02627176,-0.14590842,0.9889492,0.99952686,0.019662233,-0.023651818,-0.016993038,0.9915463,0.12863626,0.021960456,-0.12825368,0.99149823,0.9996144,0.019673478,-0.019595388,10.04985,0.18066406,-0.2536316,9.802011,0.19282064,-0.23194511,-0.015167236,-0.037490845,0.0015411377,-27.659607,-5.3390503,33.059692,1,0.0,0.0,0.0,0.0
1.52734375,-0.01567878,0.9880457,0.15336157,0.026772551,-0.1529106,0.9878773,0.99951863,0.019594595,-0.024055054,-0.016974514,0.9915005,0.12899104,0.02204697,-0.1286071,0.99145055,0.99961287,0.019673252,-0.019676536,10.058228,0.16870117,-0.28833008,9.801929,0.19215734,-0.23589951,-0.013031006,-0.042526245,0.0048980713,-27.598572,-5.5786133,33.1192,1,0.0,0.0,0.0,0.0
1.535644531,-0.0155729065,0.988034,0.15344784,0.027105251,-0.1529929,0.9878555,0.9995113,0.019543026,-0.024398368,-0.016927425,0.99137497,0.12995793,0.022235123,-0.12957115,0.9913208,0.9996095,0.01967014,-0.01985004,10.058228,0.16870117,-0.28833008,9.801858,0.19165161,-0.23926626,-0.009979248,-0.016113281,-0.0039520264,-27.598572,-5.5786133,33.1192,1,0.0,0.0,0.0,0.0
1.543945313,-0.01603997,0.990612,0.13575965,0.027053112,-0.13529745,0.99043566,0.9995053,0.019559275,-0.024628969,-0.016878014,0.99125326,0.13088979,0.022428859,-0.13050014,0.99119455,0.999606,0.019665105,-0.020030096,10.065414,0.20100403,-0.2907257,9.801799,0.19181098,-0.24152769,-0.011962891,-0.0016021729,-0.0015106201,-27.178955,-4.978943,33.1192,1,0.0,0.0,0.0,0.0
1.552246094,-0.016055165,0.9906134,0.13574739,0.027159393,-0.13528273,0.9904347,0.9995022,0.019588407,-0.024732472,-0.016861692,0.9912406,0.13098726,0.022521434,-0.1305961,0.9911798,0.99960417,0.01966299,-0.02012209,10.07019,0.18304443,-0.2632141,9.801768,0.19209667,-0.24254271,-0.0076904297,0.0077056885,-0.004257202,-27.178955,-4.978943,33.1192,1,0.0,0.0,0.0,0.0
1.560546875,-0.01605841,0.9906137,0.13574475,0.027166069,-0.13527988,0.990435,0.999502,0.019592462,-0.0247387,-0.016830586,0.9912162,0.13117601,0.022705222,-0.13078186,0.99115115,0.9996005,0.019660035,-0.020304646,10.035492,0.1878357,-0.25602722,9.801766,0.19213642,-0.24260378,-0.0037231445,-0.0020599365,-2.89917E-4,-27.178955,-4.978943,33.1192,1,0.0,0.0,0.0,0.0
1.568847656,-0.015984831,0.9902498,0.13838242,0.027211968,-0.137918,0.9900697,0.9995019,0.019591756,-0.024742054,-0.016815545,0.9912044,0.1312675,0.02279448,-0.1308719,0.9911372,0.9995988,0.019658685,-0.020393305,10.051056,0.16989136,-0.2644043,9.801765,0.19212951,-0.24263667,-0.00982666,0.0034332275,-0.0019683838,-27.119446,-5.0994873,33.358765,1,0.0,0.0,0.0,0.0
1.577148438,-0.016515026,0.99266917,0.119729914,0.026901964,-0.11926175,0.99249834,0.99950165,0.019612106,-0.024735138,-0.016783835,0.99116755,0.1315494,0.022969589,-0.13115099,0.99109626,0.9995953,0.019656032,-0.020565495,10.047455,0.19621277,-0.26560974,9.801763,0.19232905,-0.24256884,-0.017913818,0.011367798,-5.950928E-4,-26.879883,-4.499817,33.599854,1,0.0,0.0,0.0,0.0
1.585449219,-0.01651396,0.9926691,0.11973075,0.026819333,-0.11926422,0.9925003,0.99950385,0.01960121,-0.024653196,-0.016771358,0.9912297,0.13108167,0.023125155,-0.1306805,0.9911548,0.9995919,0.019654296,-0.020730652,10.058228,0.17228699,-0.23330688,9.8017845,0.1922222,-0.24176528,-0.016998291,0.0077056885,-0.0021209717,-26.879883,-4.499817,33.599854,1,0.0,0.0,0.0,0.0
1.59375,-0.016506592,0.99266845,0.11973657,0.026712306,-0.119272314,0.99250215,0.99950683,0.019581268,-0.024547685,-0.016765365,0.9912598,0.1308548,0.023198904,-0.13045232,0.99118316,0.99959034,0.019653235,-0.02080906,10.058228,0.17228699,-0.23330688,9.801814,0.19202664,-0.24073057,-0.016998291,0.013504028,-2.89917E-4,-26.879883,-4.499817,33.599854,1,0.0,0.0,0.0,0.0
1.602050781,-0.016395858,0.99216723,0.12383548,0.026693068,-0.123373635,0.9920011,0.99950916,0.019570261,-0.024461174,-0.01675358,0.991318,0.13041483,0.023337808,-0.13000989,0.99123794,0.9995873,0.019650383,-0.020957056,10.060623,0.1878357,-0.22970581,9.801837,0.1919187,-0.23988219,-0.016693115,8.392334E-4,-0.0054779053,-26.69983,-4.6798706,33.95996,1,0.0,0.0,0.0,0.0
1.610351563,-0.016422752,0.99216944,0.12381463,0.026641238,-0.12335315,0.99200517,0.99951017,0.019590031,-0.024406824,-0.016738541,0.99135244,0.1301544,0.023470623,-0.1297472,0.9912693,0.99958444,0.019647207,-0.021095881,10.0785675,0.2033844,-0.24526978,9.8018465,0.19211258,-0.23934919,-0.007843018,0.0034332275,-0.0024261475,-26.69983,-4.6798706,33.95996,1,0.0,0.0,0.0,0.0
1.618652344,-0.016250381,0.99118257,0.13150345,0.026744965,-0.13104287,0.991016,0.9995102,0.019621443,-0.024379645,-0.016731814,0.9913691,0.13002776,0.02353402,-0.12961945,0.9912845,0.999583,0.019646063,-0.021162134,10.0785675,0.2033844,-0.24526978,9.801847,0.19242063,-0.23908265,-0.007843018,0.0032806396,-0.0015106201,-26.69983,-4.9194336,33.779907,1,0.0,0.0,0.0,0.0
1.626953125,-0.016051108,0.99023217,0.13850126,0.026776826,-0.13804372,0.99006414,0.9995126,0.019600252,-0.02429952,-0.016712934,0.9913618,0.13008623,0.023661168,-0.12967582,0.9912741,0.9995803,0.01964509,-0.021289514,10.036697,0.16989136,-0.24645996,9.80187,0.19221282,-0.23829688,-0.0038757324,0.008163452,-0.0018157959,-26.278687,-5.1589966,33.839417,1,0.0,0.0,0.0,0.0
1.635253906,-0.01608102,0.99023485,0.13847846,0.026663449,-0.13802242,0.9900701,0.9995151,0.019613652,-0.024183536,-0.016687699,0.9913184,0.13041964,0.023784805,-0.13000731,0.9912277,0.9995778,0.019643314,-0.021408794,10.045074,0.19740295,-0.20578003,9.801895,0.19234422,-0.23715948,-0.0014343262,0.004196167,0.0016937256,-26.278687,-5.1589966,33.839417,1,0.0,0.0,0.0,0.0
1.643554688,-0.016104208,0.99023694,0.13846076,0.026567169,-0.13800603,0.99007493,0.99951726,0.019622885,-0.024085315,-0.016676003,0.9912974,0.130581,0.023842491,-0.13016778,0.9912053,0.9995766,0.01964272,-0.021464322,10.045074,0.19740295,-0.20578003,9.801916,0.19243477,-0.23619626,-5.0354004E-4,0.0025177002,-0.0018157959,-26.278687,-5.1589966,33.839417,1,0.0,0.0,0.0,0.0
1.651855469,-0.015886689,0.9890662,0.14661446,0.026697066,-0.1461611,0.98890066,0.9995174,0.019624531,-0.024083145,-0.016654164,0.9912566,0.13089325,0.023950526,-0.13047834,0.9911618,0.9995744,0.019641934,-0.021568108,10.059433,0.19023132,-0.24047852,9.801917,0.19245091,-0.23617497,-0.009979248,-0.008026123,-0.0015106201,-26.579285,-5.3985596,33.53882,1,0.0,0.0,0.0,0.0
1.66015625,-0.015872935,0.9890648,0.14662516,0.026682097,-0.1461724,0.98889923,0.9995179,0.019608997,-0.024070138,-0.016625367,0.9911746,0.13151647,0.024059528,-0.1311,0.9910772,0.99957234,0.019641245,-0.021667609,10.069,0.17945862,-0.1986084,9.801923,0.19229858,-0.23604743,-0.006011963,-0.010314941,0.0042877197,-26.579285,-5.3985596,33.53882,1,0.0,0.0,0.0,0.0
1.668457031,-0.015830759,0.9890614,0.14665292,0.026707299,-0.14620069,0.9888944,0.9995179,0.01957165,-0.024100687,-0.016611066,0.99113464,0.131819,0.024112115,-0.13140176,0.9910359,0.99957126,0.019640598,-0.021715628,10.065414,0.19142151,-0.22132874,9.801923,0.19193234,-0.236347,-0.007080078,-0.017944336,0.0015411377,-26.759338,-5.3390503,33.1192,1,0.0,0.0,0.0,0.0
1.676757813,-0.015693152,0.98845583,0.15069428,0.026874587,-0.1502414,0.988284,0.9995156,0.01955914,-0.024206582,-0.016581582,0.99105674,0.13240705,0.02421514,-0.13198838,0.9909555,0.9995693,0.019637866,-0.021810003,10.053452,0.19740295,-0.22013855,9.8019,0.19180964,-0.2373855,-6.713867E-4,-0.02420044,0.0019989014,-27.2995,-5.519104,33.358765,1,0.0,0.0,0.0,0.0
1.685058594,-0.01565317,0.98845154,0.15072629,0.027089726,-0.15027018,0.98827374,0.99951047,0.019552754,-0.02442468,-0.016548175,0.9909602,0.13313219,0.024320856,-0.1327121,0.99085623,0.9995673,0.019634752,-0.021904854,10.065414,0.19142151,-0.27876282,9.801849,0.19174702,-0.23952429,-0.0015869141,-0.020843506,-5.950928E-4,-27.2995,-5.519104,33.358765,1,0.0,0.0,0.0,0.0
1.693359375,-0.0156199355,0.988448,0.15075292,0.027313748,-0.15029322,0.98826396,0.9995048,0.01955425,-0.024650652,-0.016531186,0.990913,0.13348462,0.024376469,-0.13306376,0.9908076,0.99956614,0.01963311,-0.021955257,10.064209,0.19142151,-0.2859497,9.801795,0.1917617,-0.24174035,-0.0026550293,-0.018249512,-0.0022735596,-27.2995,-5.519104,33.358765,1,0.0,0.0,0.0,0.0
1.701660156,-0.015605266,0.988529,0.15022294,0.02750149,-0.14976005,0.98833984,0.9994999,0.01955466,-0.024848973,-0.01649694,0.99082106,0.13416922,0.024493378,-0.13374674,0.9907128,0.9995639,0.019629987,-0.022062143,10.058228,0.18066406,-0.23928833,9.801746,0.19176571,-0.24368519,-0.0052490234,-0.01260376,-0.0013580322,-27.89917,-5.519104,33.4198,1,0.0,0.0,0.0,0.0
1.709960938,-0.0155756045,0.9885258,0.15024716,0.027591709,-0.14978322,0.9883338,0.9994979,0.019539472,-0.02494215,-0.016480016,0.9907778,0.13449074,0.024553783,-0.13406742,0.99066794,0.9995627,0.01962848,-0.02211791,10.058228,0.18066406,-0.23928833,9.801726,0.19161677,-0.24459894,-0.009063721,-0.0087890625,-7.4768066E-4,-27.89917,-5.519104,33.4198,1,0.0,0.0,0.0,0.0
1.718261719,-0.015605361,0.9887693,0.14863297,0.027629238,-0.14816788,0.9885762,0.9994964,0.019533703,-0.02500673,-0.016445976,0.99069333,0.13511543,0.024674432,-0.13469043,0.9905805,0.9995603,0.019624958,-0.02222968,10.059433,0.20458984,-0.26679993,9.801712,0.19156021,-0.24523227,-0.0079956055,-0.010772705,-0.0051727295,-28.199768,-5.4595947,33.358765,1,0.0,0.0,0.0,0.0
1.7265625,-0.016045297,0.99087244,0.13384457,0.027497955,-0.13337387,0.9906843,0.99949306,0.019576274,-0.025106942,-0.016414175,0.9906207,0.13565136,0.024791677,-0.13522471,0.9905047,0.99955785,0.019621344,-0.022339545,10.061813,0.19740295,-0.2596283,9.801679,0.19197766,-0.246215,-0.0015869141,-0.005279541,-0.0047302246,-28.199768,-4.978943,33.47931,1,0.0,0.0,0.0,0.0
1.734863281,-0.016070174,0.9908748,0.13382395,0.027564744,-0.13335131,0.9906854,0.9994908,0.019609312,-0.025170231,-0.01640671,0.99062574,0.13561518,0.024845729,-0.13518763,0.9905085,0.99955666,0.019620443,-0.022394834,10.061813,0.19740295,-0.2596283,9.801657,0.19230166,-0.24683565,-0.008758545,-0.001449585,-0.0012054443,-28.199768,-4.978943,33.47931,1,0.0,0.0,0.0,0.0
1.743164063,-0.016064588,0.99087423,0.1338286,0.02755908,-0.13335621,0.99068487,0.9994911,0.019603139,-0.025165271,-0.016393185,0.9906357,0.13554423,0.024953451,-0.1351149,0.99051565,0.9995542,0.019620003,-0.022504816,10.054642,0.18902588,-0.23808289,9.80166,0.19224112,-0.24678701,0.0030059814,-5.340576E-4,-1.373291E-4,-28.199768,-4.978943,33.47931,1,0.0,0.0,0.0,0.0
1.751464844,-0.016251631,0.991799,0.12677021,0.027476508,-0.12629609,0.991612,0.9994903,0.019598512,-0.025198655,-0.016379986,0.99064523,0.13547629,0.025056709,-0.13504522,0.99052256,0.99955183,0.019619334,-0.022610268,10.04985,0.1986084,-0.25842285,9.801652,0.19219576,-0.24711439,-0.004486084,-0.009552002,0.001083374,-28.079224,-4.73938,33.47931,1,0.0,0.0,0.0,0.0
1.759765625,-0.016237082,0.9917976,0.12678221,0.027543187,-0.12630713,0.9916087,0.9994888,0.01959282,-0.02526641,-0.016376982,0.9906691,0.13530225,0.025105126,-0.13487032,0.9905452,0.9995507,0.01961892,-0.022662101,10.04985,0.1986084,-0.25842285,9.801637,0.19213994,-0.24777885,-0.004180908,-0.00894165,0.0033721924,-28.079224,-4.73938,33.47931,1,0.0,0.0,0.0,0.0
1.768066406,-0.016214624,0.99188894,0.12606964,0.027607424,-0.125594,0.99169755,0.9994873,0.019560458,-0.025347035,-0.016370632,0.9907151,0.1349649,0.025201526,-0.13453126,0.99058884,0.9995483,0.019617887,-0.02276517,10.061813,0.17945862,-0.27397156,9.801622,0.19182257,-0.24856952,-0.0025024414,-0.006500244,9.3078613E-4,-28.678894,-4.73938,33.599854,1,0.0,0.0,0.0,0.0
1.776367188,-0.016460812,0.9931083,0.11603879,0.027509257,-0.115560755,0.9929194,0.999486,0.019536402,-0.025417447,-0.016363623,0.9907631,0.13461296,0.025296582,-0.13417765,0.9906344,0.99954605,0.019615615,-0.022867288,10.042679,0.20219421,-0.26560974,9.80161,0.19158666,-0.24926001,-0.0018920898,-0.0019073486,1.5258789E-5,-28.619385,-4.3792725,33.4198,1,0.0,0.0,0.0,0.0
1.784667969,-0.01646455,0.9931086,0.116035625,0.0275449,-0.1155568,0.9929189,0.99948496,0.019544154,-0.025452485,-0.016364697,0.9908135,0.13424198,0.025340773,-0.13380586,0.99068356,0.999545,0.019614032,-0.022918288,10.042679,0.20219421,-0.26560974,9.8015995,0.19166268,-0.24960361,-0.0028076172,0.007247925,1.5258789E-5,-28.619385,-4.3792725,33.4198,1,0.0,0.0,0.0,0.0
1.79296875,-0.01646602,0.99310875,0.11603438,0.027467024,-0.115557045,0.99292105,0.9994871,0.019536577,-0.025374973,-0.01636701,0.9909107,0.13352183,0.025427926,-0.13308401,0.99077857,0.99954265,0.019611266,-0.023018617,10.031906,0.18544006,-0.26200867,9.80162,0.19158837,-0.24884348,-0.005706787,0.026031494,-0.007019043,-28.619385,-4.3792725,33.4198,1,0.0,0.0,0.0,0.0
1.801269531,-0.016553098,0.99318105,0.11540191,0.027272359,-0.11492629,0.9929997,0.999491,0.019584497,-0.025183998,-0.016369483,0.9910036,0.13283008,0.025508448,-0.13239071,0.9908693,0.99954057,0.019608308,-0.023111798,10.045074,0.20578003,-0.2596283,9.801659,0.19205832,-0.24697067,-0.008758545,0.029083252,-0.0077819824,-28.73993,-4.4387817,34.07898,1,0.0,0.0,0.0,0.0
1.809570313,-0.01665532,0.9931892,0.11531676,0.027051162,-0.11484294,0.99301535,0.99949527,0.019658439,-0.024954172,-0.016372498,0.99105024,0.1324818,0.025543727,-0.13204174,0.990915,0.9995397,0.01960783,-0.023153264,10.045074,0.20578003,-0.2596283,9.801701,0.19278343,-0.24471684,-0.008758545,0.029541016,-0.008544922,-28.73993,-4.4387817,34.07898,1,0.0,0.0,0.0,0.0
1.817871094,-0.016553855,0.99232036,0.122581854,0.026886888,-0.122112535,0.99215204,0.9995014,0.019719783,-0.024658972,-0.016382605,0.9911406,0.13180257,0.025603507,-0.1313612,0.9910039,0.99953794,0.019609833,-0.023224637,10.054642,0.19502258,-0.22253418,9.801761,0.19338502,-0.24182191,0.0025482178,0.04222107,-0.005645752,-28.619385,-4.6798706,34.01947,1,0.0,0.0,0.0,0.0
1.826171875,-0.01662972,0.99232435,0.12253919,0.026611775,-0.12207346,0.99216425,0.99950755,0.0197604,-0.024377463,-0.016388902,0.99118894,0.13143761,0.02565438,-0.13099512,0.991051,0.9995365,0.019614188,-0.02328147,10.079758,0.19621277,-0.2524414,9.801821,0.19378333,-0.23906127,-0.0015869141,0.034591675,6.2561035E-4,-28.138733,-4.6798706,34.07898,1,0.0,0.0,0.0,0.0
1.834472656,-0.016671924,0.99232787,0.122504815,0.026330644,-0.12204362,0.9921754,0.9995142,0.019767104,-0.024093932,-0.016393537,0.9912124,0.13125964,0.02567355,-0.1308167,0.991074,0.9995359,0.01961711,-0.023303393,10.079758,0.19621277,-0.2524414,9.801887,0.19384907,-0.23628075,0.0034637451,0.034591675,6.2561035E-4,-28.138733,-4.6798706,34.07898,1,0.0,0.0,0.0,0.0
1.842773438,-0.016844288,0.9923423,0.12236449,0.026010089,-0.12190554,0.99220085,0.9995197,0.019895624,-0.023757499,-0.016404314,0.9912582,0.13091306,0.025699653,-0.13046941,0.9911192,0.99953514,0.01962305,-0.02333473,10.060623,0.28355408,-0.25723267,9.80194,0.19510943,-0.23298149,0.016433716,0.03855896,-0.0050354004,-28.138733,-4.6798706,34.07898,1,0.0,0.0,0.0,0.0
1.851074219,-0.01702367,0.9923536,0.122247644,0.025731273,-0.12179005,0.9922223,0.99952394,0.02003685,-0.023461208,-0.016421609,0.9913025,0.1305746,0.025712106,-0.13013035,0.99116343,0.9995345,0.019633846,-0.023351524,10.060623,0.15792847,-0.2141571,9.801982,0.19649439,-0.23007587,0.036590576,0.049697876,-0.0054779053,-28.079224,-4.6798706,34.07898,1,0.0,0.0,0.0,0.0
1.859375,-0.017035509,0.9923546,0.122238025,0.025336677,-0.121788055,0.9922326,0.9995338,0.020000296,-0.023068247,-0.016433623,0.9913241,0.13040823,0.02571264,-0.12996371,0.99118525,0.99953425,0.019641906,-0.023353783,10.060623,0.15792847,-0.2141571,9.802078,0.19613591,-0.22622223,0.032928467,0.050933838,-0.0015106201,-28.079224,-4.6798706,34.07898,1,0.0,0.0,0.0,0.0
1.867675781,-0.017124604,0.99206984,0.12451575,0.024970045,-0.12407083,0.9919591,0.99954146,0.020096073,-0.022647366,-0.016457558,0.99136627,0.13008484,0.025697885,-0.1296401,0.9912281,0.9995343,0.019656098,-0.023342459,10.065414,0.08255005,-0.24765015,9.802154,0.19707516,-0.2220948,0.04774475,0.036117554,-0.004562378,-28.079224,-4.73938,33.898926,1,0.0,0.0,0.0,0.0
1.875976563,-0.017019736,0.9920609,0.124601364,0.02466282,-0.12416495,0.991955,0.9995509,0.019955833,-0.022353766,-0.016470976,0.99138063,0.12997352,0.025683353,-0.12952876,0.99124295,0.9995344,0.019664897,-0.023328515,10.065414,0.08255005,-0.24765015,9.802246,0.19569987,-0.21921557,0.04774475,0.035812378,-0.0019683838,-28.079224,-4.73938,33.898926,1,0.0,0.0,0.0,0.0
1.884277344,-0.017243704,0.99301666,0.11670708,0.024151754,-0.1162767,0.9929232,0.9995596,0.019940356,-0.021978052,-0.016492907,0.9914081,0.12976089,0.025643028,-0.12931646,0.9912717,0.9995351,0.019676417,-0.023289902,10.063019,0.17706299,-0.13400269,9.802331,0.19554809,-0.21553108,0.023620605,0.022064209,-0.0036468506,-28.079224,-4.499817,34.13849,1,0.0,0.0,0.0,0.0
1.892578125,-0.017282104,0.99301964,0.11667589,0.023912586,-0.11624943,0.992932,0.9995646,0.019949978,-0.021736633,-0.01652333,0.99147505,0.12924458,0.025584267,-0.12880065,0.99134046,0.9995361,0.01968687,-0.023237946,10.052246,0.2033844,-0.17228699,9.802381,0.19564246,-0.21316355,0.035369873,0.012451172,-0.0024261475,-28.079224,-4.499817,34.13849,1,0.0,0.0,0.0,0.0
1.900878906,-0.017568463,0.99415356,0.10653652,0.023551999,-0.10611192,0.9940752,0.9995682,0.01997352,-0.02155008,-0.01653889,0.99150753,0.12899344,0.025550978,-0.12854984,0.99137384,0.9995367,0.019692132,-0.023207918,10.052246,0.2033844,-0.17228699,9.802416,0.19587334,-0.2113341,0.021316528,0.015808105,-0.010070801,-27.95868,-4.1397095,34.01947,1,0.0,0.0,0.0,0.0
1.909179688,-0.017519733,0.9941502,0.10657616,0.023444364,-0.10615475,0.9940733,0.9995716,0.019914506,-0.021447415,-0.016581213,0.991622,0.12810525,0.025472464,-0.12766233,0.99149054,0.999538,0.019703273,-0.02314226,10.057037,0.12802124,-0.2141571,9.802449,0.1952946,-0.2103273,0.0030059814,0.007247925,-0.0047302246,-27.95868,-4.1397095,34.01947,1,0.0,0.0,0.0,0.0
1.917480469,-0.017330844,0.99333656,0.11393941,0.023469629,-0.11352096,0.99325836,0.99957424,0.01988812,-0.021345826,-0.01661989,0.99173087,0.12725388,0.025392741,-0.12681174,0.9916017,0.9995394,0.019711638,-0.023075169,10.051056,0.17945862,-0.20219421,9.802475,0.19503583,-0.20933105,-0.0050964355,-0.0032806396,-0.0054779053,-28.138733,-4.3792725,33.898926,1,0.0,0.0,0.0,0.0
1.92578125,-0.017344538,0.9933375,0.113928154,0.02345642,-0.113509685,0.9932599,0.99957436,0.019899983,-0.021331372,-0.016634582,0.9917648,0.12698776,0.025354456,-0.12654608,0.99163663,0.9995401,0.019715166,-0.023040613,10.051056,0.17945862,-0.20219421,9.802477,0.1951522,-0.20918931,-0.0028076172,-0.009246826,-0.0039520264,-28.138733,-4.3792725,33.898926,1,0.0,0.0,0.0,0.0
1.934082031,-0.017317494,0.9932366,0.11480974,0.023530407,-0.11439029,0.99315715,0.99957305,0.01990051,-0.021390306,-0.016663605,0.99183035,0.1264709,0.025279453,-0.1260301,0.9917043,0.9995416,0.019722484,-0.022972813,10.047455,0.18185425,-0.18664551,9.802464,0.19515735,-0.20976725,-0.0069274902,-0.018554688,0.002609253,-28.019714,-4.3792725,33.659363,1,0.0,0.0,0.0,0.0
1.942382813,-0.01726369,0.99323237,0.114853956,0.02369077,-0.11443248,0.9931485,0.99957025,0.019866386,-0.021554912,-0.016690252,0.9918886,0.12600952,0.025210291,-0.12556954,0.9917644,0.99954283,0.019729536,-0.022910014,10.054642,0.17945862,-0.22851563,9.802436,0.1948227,-0.21138148,-0.011199951,-0.01550293,0.0044403076,-28.019714,-4.3792725,33.659363,1,0.0,0.0,0.0,0.0
1.950683594,-0.017305423,0.9937279,0.110478215,0.023749704,-0.11005504,0.9936417,0.9995681,0.019819213,-0.021696193,-0.01670203,0.9919167,0.12578651,0.02518005,-0.12534688,0.9917934,0.99954337,0.019732272,-0.022882963,10.054642,0.17945862,-0.22851563,9.802415,0.19436009,-0.21276698,-0.010437012,-0.009094238,-0.0012054443,-27.778625,-4.1992188,33.4198,1,0.0,0.0,0.0,0.0
1.958984375,-0.017269839,0.99372524,0.11050746,0.023809474,-0.11008388,0.9936371,0.99956733,0.019791076,-0.021758944,-0.016726678,0.99199295,0.1251809,0.0251237,-0.124741904,0.99187106,0.9995444,0.019735716,-0.022836015,10.076172,0.18066406,-0.23449707,9.802407,0.19408415,-0.21338235,-0.012420654,0.008468628,-0.0010528564,-27.778625,-4.1992188,33.4198,1,0.0,0.0,0.0,0.0
1.967285156,-0.017284457,0.99391556,0.108780175,0.023701403,-0.10835856,0.9938293,0.99956965,0.019756041,-0.021684274,-0.016748859,0.99206567,0.12460037,0.02507186,-0.12416196,0.9919452,0.9995454,0.01973791,-0.022793358,10.066605,0.17347717,-0.20936584,9.80243,0.19374059,-0.21265009,-0.0040283203,0.016723633,0.0019989014,-27.719116,-4.1397095,33.4198,1,0.0,0.0,0.0,0.0
1.975585938,-0.01725805,0.99391353,0.108801834,0.023568735,-0.10838342,0.9938297,0.9995733,0.019715888,-0.021554803,-0.01675995,0.99210507,0.124284275,0.025044573,-0.12384619,0.9919854,0.9995458,0.019738272,-0.022771193,10.066605,0.17347717,-0.20936584,9.802465,0.19334681,-0.21138042,-0.0076904297,0.015960693,-0.0034942627,-27.719116,-4.1397095,33.4198,1,0.0,0.0,0.0,0.0
1.983886719,-0.017544627,0.9950413,0.09790219,0.023209428,-0.09748558,0.9949662,0.9995767,0.019728566,-0.021383995,-0.016780464,0.9921813,0.12367181,0.024986349,-0.12323449,0.9920629,0.99954695,0.019737383,-0.022723056,10.09053,0.19621277,-0.19979858,9.802499,0.19347115,-0.20970535,-0.0063171387,0.023895264,-0.004119873,-27.539063,-3.779602,33.47931,1,0.0,0.0,0.0,0.0
1.9921875,-0.017561119,0.99504244,0.097888745,0.0230093,-0.09747573,0.994972,0.99958104,0.01972517,-0.021183446,-0.01681227,0.99230725,0.122652724,0.02491632,-0.12221617,0.99219066,0.9995482,0.019737033,-0.022669913,10.080963,0.17347717,-0.1758728,9.802542,0.19343784,-0.20773864,-0.009216309,0.007858276,-0.0028839111,-27.539063,-3.779602,33.47931,1,0.0,0.0,0.0,0.0
2.000488281,-0.017506007,0.9947579,0.10074852,0.022909474,-0.10033843,0.9946896,0.99958426,0.01972114,-0.021032855,-0.016828068,0.992368,0.122158155,0.024878463,-0.12172205,0.9922524,0.99954885,0.019736797,-0.022640243,10.080963,0.17347717,-0.1758728,9.802573,0.19339831,-0.20626184,-0.00982666,0.0063323975,-0.0047302246,-27.479553,-3.8986206,33.718872,1,0.0,0.0,0.0,0.0
2.008789063,-0.017542142,0.9947602,0.100719325,0.022810286,-0.10031044,0.9946947,0.9995859,0.019746512,-0.020931104,-0.01685639,0.9924714,0.12131128,0.024800748,-0.12087616,0.99235773,0.9995503,0.019736178,-0.022576496,10.053452,0.19023132,-0.1651001,9.802589,0.19364715,-0.20526402,-0.0050964355,-0.0049743652,-0.003036499,-27.479553,-3.8986206,33.718872,1,0.0,0.0,0.0,0.0
2.017089844,-0.017588105,0.9949151,0.09916898,0.022766,-0.098760106,0.99485075,0.9995861,0.019755224,-0.020913234,-0.016884973,0.9925701,0.12049684,0.024722258,-0.120062724,0.99245846,0.9995518,0.019736588,-0.022511316,10.059433,0.18304443,-0.15553284,9.802591,0.19373257,-0.20508878,-0.0069274902,-0.02406311,0.008102417,-27.719116,-3.8391113,33.599854,1,0.0,0.0,0.0,0.0
2.025390625,-0.017540956,0.99491215,0.099207535,0.022821676,-0.09879854,0.9948457,0.9995856,0.019714627,-0.020972542,-0.016899774,0.9926214,0.12007086,0.02468335,-0.11963723,0.99251074,0.9995525,0.01973696,-0.022479383,10.059433,0.18304443,-0.15553284,9.802587,0.19333446,-0.20567039,-0.0032653809,-0.0342865,0.0056610107,-27.719116,-3.8391113,33.599854,1,0.0,0.0,0.0,0.0
2.033691406,-0.017272059,0.9940496,0.10754973,0.023200411,-0.10713836,0.9939734,0.99958163,0.019663166,-0.02121186,-0.016926508,0.9927205,0.11924571,0.024609925,-0.118813016,0.99261165,0.9995538,0.019736076,-0.022419685,10.069,0.1878357,-0.18185425,9.802547,0.19282979,-0.2080173,-0.012420654,-0.052612305,0.0036773682,-27.539063,-4.1397095,33.839417,1,0.0,0.0,0.0,0.0
2.041992188,-0.017197499,0.9940444,0.10760977,0.0235516,-0.1071931,0.9939592,0.9995747,0.019627998,-0.021567885,-0.01694078,0.9927757,0.11878299,0.024554133,-0.118351124,0.99266815,0.99955493,0.019733189,-0.022371788,10.046265,0.18902588,-0.18902588,9.80248,0.19248492,-0.2115087,-0.013641357,-0.0552063,0.0013885498,-27.539063,-4.1397095,33.839417,1,0.0,0.0,0.0,0.0
2.050292969,-0.017333522,0.9949161,0.099205025,0.023791334,-0.09878142,0.99482477,0.9995667,0.019604037,-0.021958148,-0.016946116,0.9928023,0.118559726,0.024534104,-0.118128166,0.99269515,0.99955535,0.019731086,-0.022355702,10.046265,0.18902588,-0.18902588,9.802401,0.19224992,-0.21533588,-0.018981934,-0.04650879,-0.0033416748,-27.359009,-3.8986206,34.318542,1,0.0,0.0,0.0,0.0
2.05859375,-0.017316438,0.994915,0.09921853,0.02419011,-0.09878749,0.9948146,0.99955744,0.019626752,-0.022356454,-0.016961867,0.9928932,0.11779413,0.024504941,-0.11736289,0.9927867,0.9995558,0.019726055,-0.022340095,10.083359,0.20817566,-0.22851563,9.80231,0.1924727,-0.21924193,-0.052124023,-0.043762207,0.0076446533,-27.359009,-3.8986206,34.318542,1,0.0,0.0,0.0,0.0
2.066894531,-0.017290344,0.9950035,0.09833113,0.024537003,-0.097893946,0.99489427,0.9995493,0.019614816,-0.022721784,-0.016976034,0.9929798,0.11705943,0.024492398,-0.116628185,0.99287367,0.9995559,0.019722123,-0.022340573,10.051056,0.19740295,-0.23210144,9.802231,0.19235563,-0.22282459,-0.048461914,-0.039779663,0.0033721924,-27.119446,-3.8391113,34.07898,1,0.0,0.0,0.0,0.0
2.075195313,-0.017226443,0.99499965,0.09838155,0.024872124,-0.09793926,0.9948815,0.99954224,0.01958523,-0.02306061,-0.016982246,0.99302375,0.11668525,0.024493324,-0.11625389,0.9929174,0.99955577,0.019719979,-0.0223482,10.051056,0.19740295,-0.23210144,9.802161,0.19206549,-0.22614734,-0.03868103,-0.03199768,0.0030670166,-27.119446,-3.8391113,34.07898,1,0.0,0.0,0.0,0.0
2.083496094,-0.01707471,0.99475634,0.100837804,0.025270268,-0.10039094,0.9946271,0.99953485,0.019531166,-0.023423614,-0.016991522,0.9931084,0.11596119,0.024508486,-0.11552939,0.9930017,0.99955523,0.019714642,-0.022376562,10.052246,0.15792847,-0.31825256,9.802089,0.19153531,-0.2297072,-0.019897461,-0.010772705,-1.373291E-4,-27.2995,-3.9596558,34.439087,1,0.0,0.0,0.0,0.0
2.091796875,-0.017029693,0.9947536,0.10087317,0.025446165,-0.100423925,0.9946193,0.9995311,0.019504894,-0.023602474,-0.016994283,0.99317807,0.11536285,0.024538714,-0.11493047,0.9930704,0.99955446,0.019707376,-0.02241815,10.042679,0.1651001,-0.28115845,9.802052,0.19127767,-0.23146121,-0.014709473,5.340576E-4,-0.0022735596,-27.2995,-3.9596558,34.439087,1,0.0,0.0,0.0,0.0
2.100097656,-0.017221462,0.9956046,0.09205992,0.025369788,-0.091608815,0.9954719,0.9995298,0.019479021,-0.023680637,-0.01699469,0.99321157,0.11507336,0.024556847,-0.11464064,0.99310344,0.999554,0.019703325,-0.022441864,10.042679,0.1651001,-0.28115845,9.802039,0.19102395,-0.23222773,-0.0076904297,0.0075531006,-0.0013580322,-27.119446,-3.6590576,34.498596,1,0.0,0.0,0.0,0.0
2.108398438,-0.017245041,0.9956058,0.09204152,0.025351727,-0.09159021,0.995474,0.9995298,0.0195004,-0.02366085,-0.017002773,0.9933165,0.11416319,0.024589023,-0.11372976,0.99320734,0.999553,0.019694442,-0.022490961,10.072586,0.19262695,-0.2632141,9.802039,0.1912336,-0.23203367,-0.015472412,0.01977539,-0.0051727295,-27.119446,-3.6590576,34.498596,1,0.0,0.0,0.0,0.0
2.116699219,-0.017115774,0.9949476,0.0989262,0.025348667,-0.098477095,0.9948165,0.99953216,0.019534698,-0.023535082,-0.017011574,0.9934166,0.113288075,0.024619097,-0.11285395,0.9933066,0.9995522,0.019686759,-0.022537196,10.059433,0.1758728,-0.24047852,9.802062,0.19156995,-0.23080032,-0.01776123,0.03137207,-0.003036499,-26.879883,-3.8986206,34.55963,1,0.0,0.0,0.0,0.0
2.125,-0.017145962,0.99494934,0.09890292,0.02514849,-0.09845702,0.99482346,0.9995367,0.019544465,-0.023333335,-0.017013421,0.9934492,0.11300108,0.02463361,-0.112566665,0.9933387,0.9995518,0.019683717,-0.022557098,10.059433,0.1758728,-0.24047852,9.802107,0.19166574,-0.22882186,-0.007232666,0.03276062,-0.003036499,-26.879883,-3.8986206,34.55963,1,0.0,0.0,0.0,0.0
2.133300781,-0.017352143,0.99550885,0.09306441,0.02486509,-0.092619985,0.995391,0.9995402,0.019586226,-0.023146264,-0.017018339,0.99351233,0.11244325,0.024653861,-0.11200838,0.99340135,0.9995512,0.019678202,-0.02258772,10.055832,0.20578003,-0.28953552,9.802141,0.19207527,-0.22698732,-0.008605957,0.039627075,-0.0050354004,-26.69983,-3.718567,34.799194,1,0.0,0.0,0.0,0.0
2.141601563,-0.01738183,0.99551046,0.09304182,0.024507472,-0.09260372,0.9954014,0.9995485,0.019582115,-0.022787824,-0.01703127,0.99359864,0.11167661,0.02466234,-0.11124137,0.9934873,0.99955076,0.019674558,-0.022609886,10.037888,0.16870117,-0.19023132,9.802222,0.19203496,-0.22347222,-0.0049438477,0.03504944,-0.0034942627,-26.69983,-3.718567,34.799194,1,0.0,0.0,0.0,0.0
2.149902344,-0.017317554,0.9951353,0.096983746,0.0242162,-0.09655239,0.99503326,0.9995567,0.01958012,-0.022426343,-0.01703828,0.9936403,0.11130426,0.024659306,-0.11086897,0.993529,0.9995507,0.019672712,-0.022613462,10.037888,0.16870117,-0.19023132,9.802303,0.1920154,-0.2199273,-0.005706787,0.03504944,-0.0034942627,-26.399231,-3.8391113,34.67865,1,0.0,0.0,0.0,0.0
2.158203125,-0.017388122,0.99513924,0.09693045,0.023866193,-0.09650439,0.9950464,0.99956393,0.01961535,-0.022072155,-0.017049521,0.9937034,0.11073767,0.02464172,-0.110302515,0.99359256,0.99955094,0.019669043,-0.022605956,10.066605,0.19621277,-0.19502258,9.802374,0.19236088,-0.21645391,0.00819397,0.044662476,-0.0062561035,-26.399231,-3.8391113,34.67865,1,0.0,0.0,0.0,0.0
2.166503906,-0.01747599,0.99514425,0.09686411,0.023511147,-0.09644312,0.99506086,0.99957085,0.01966706,-0.021711541,-0.017056465,0.99373406,0.11046172,0.024626328,-0.11002675,0.9936235,0.99955124,0.01966797,-0.022595352,10.069,0.2033844,-0.19979858,9.802442,0.19286796,-0.21291749,7.171631E-4,0.035964966,-0.0051727295,-26.399231,-3.8391113,34.67865,1,0.0,0.0,0.0,0.0
2.174804688,-0.017611519,0.9953485,0.094716065,0.023150451,-0.09429942,0.99527466,0.99957687,0.019721018,-0.021382011,-0.017073613,0.9937934,0.10992357,0.02458215,-0.10948915,0.993684,0.999552,0.019667935,-0.022560202,10.069,0.2033844,-0.19979858,9.802501,0.19339712,-0.2096859,0.002243042,0.030761719,-0.0033416748,-26.45874,-3.779602,34.799194,1,0.0,0.0,0.0,0.0
2.183105469,-0.017643044,0.9952507,0.09573247,0.022854727,-0.09532092,0.9951841,0.99958307,0.019746017,-0.021064432,-0.017084764,0.9938267,0.109619714,0.024553593,-0.10918562,0.993718,0.9995525,0.019668996,-0.022536607,10.058228,0.18424988,-0.18185425,9.802562,0.19364227,-0.20657152,-8.087158E-4,0.03413391,-0.006713867,-26.339722,-3.779602,34.439087,1,0.0,0.0,0.0,0.0
2.19140625,-0.017706562,0.9952542,0.095684275,0.022568371,-0.09527706,0.995195,0.99958855,0.019780919,-0.020774238,-0.017107705,0.99388677,0.10907017,0.024486559,-0.10863695,0.99377984,0.99955374,0.019672047,-0.022478338,10.076172,0.19023132,-0.1878357,9.802615,0.19398455,-0.20372568,-0.004638672,0.028625488,-0.0062561035,-26.339722,-3.779602,34.439087,1,0.0,0.0,0.0,0.0
2.199707031,-0.017845532,0.9955478,0.092554085,0.022243505,-0.09215061,0.99549663,0.9995933,0.019823894,-0.020499995,-0.017132334,0.99394435,0.10854062,0.024410866,-0.10810838,0.9938394,0.99955523,0.01967636,-0.022410894,10.071396,0.18902588,-0.18304443,9.802662,0.194406,-0.20103627,-0.0052490234,0.029083252,-0.004119873,-26.339722,-3.718567,34.91974,1,0.0,0.0,0.0,0.0
2.208007813,-0.017892508,0.99555016,0.09251892,0.022001253,-0.09211929,0.99550486,0.9995978,0.01984761,-0.020255106,-0.01714724,0.993979,0.1082212,0.024367657,-0.107789524,0.993875,0.999556,0.01967931,-0.022372646,10.063019,0.18066406,-0.20936584,9.802706,0.19463857,-0.19863473,-0.0079956055,0.03642273,-0.0048675537,-26.339722,-3.718567,34.91974,1,0.0,0.0,0.0,0.0
2.216308594,-0.017946089,0.99555296,0.092478804,0.021706613,-0.09208396,0.9955147,0.99960333,0.019872995,-0.019957533,-0.017178074,0.99404585,0.1076,0.024274373,-0.10716954,0.99394435,0.99955773,0.019685974,-0.022288876,10.057037,0.18664551,-0.20698547,9.80276,0.1948875,-0.19571654,-5.0354004E-4,0.041915894,-0.006713867,-26.339722,-3.718567,34.91974,1,0.0,0.0,0.0,0.0
2.224609375,-0.018066457,0.99577427,0.09003988,0.021316534,-0.0896505,0.9957451,0.99960953,0.019908926,-0.01960679,-0.01720988,0.99410987,0.107001744,0.02417313,-0.10657262,0.99401104,0.99955964,0.019693378,-0.022196643,10.057037,0.18664551,-0.20698547,9.802821,0.19523987,-0.19227692,4.119873E-4,0.049087524,-0.008087158,-26.759338,-3.5995483,34.439087,1,0.0,0.0,0.0,0.0
2.232910156,-0.017890938,0.9947241,0.101014204,0.02113867,-0.100631475,0.9946992,0.99961644,0.019931408,-0.019226752,-0.017227918,0.994146,0.10666287,0.024116186,-0.106234506,0.9940486,0.9995607,0.019697689,-0.02214481,10.069,0.17347717,-0.2033844,9.802889,0.19546033,-0.18855004,1.0681152E-4,0.04664612,-0.0064086914,-27.059937,-3.9596558,34.199524,1,0.0,0.0,0.0,0.0
2.241210938,-0.017956588,0.9947281,0.10096271,0.020734634,-0.100586794,0.9947121,0.9996237,0.019955065,-0.01881913,-0.017254803,0.9941695,0.10643937,0.023998374,-0.10601275,0.9940752,0.9995631,0.019706944,-0.022029223,10.079758,0.17945862,-0.17108154,9.80296,0.19569235,-0.18455261,1.0681152E-4,0.043289185,-0.0054779053,-27.059937,-3.9596558,34.199524,1,0.0,0.0,0.0,0.0
2.249511719,-0.017851213,0.99393666,0.10849531,0.020485513,-0.10812623,0.9939261,0.99963075,0.019965371,-0.018431118,-0.017283274,0.9941922,0.10622254,0.023869239,-0.105797864,0.99410117,0.9995657,0.019716771,-0.021902079,10.053452,0.1758728,-0.16151428,9.803029,0.1957934,-0.18074752,0.0031585693,0.043441772,-0.003036499,-27.778625,-4.1992188,33.898926,1,0.0,0.0,0.0,0.0
2.2578125,-0.017913058,0.993941,0.108445205,0.02012361,-0.10808223,0.9939382,0.99963695,0.019986782,-0.0180656,-0.01729447,0.9941871,0.10626801,0.023801606,-0.10584442,0.99409777,0.9995671,0.019721745,-0.021832727,10.052246,0.19502258,-0.17228699,9.80309,0.19600338,-0.17716302,0.0010223389,0.043441772,-4.4250488E-4,-27.778625,-4.1992188,33.898926,1,0.0,0.0,0.0,0.0
2.266113281,-0.017947122,0.9939434,0.108417585,0.019783378,-0.10806081,0.9939474,0.9996432,0.01998336,-0.017724177,-0.017318668,0.9941774,0.1063543,0.023655774,-0.105933055,0.9940918,0.99957013,0.01973224,-0.021683417,10.045074,0.18544006,-0.18544006,9.803151,0.19596983,-0.1738148,-0.0050964355,0.04359436,-0.0062561035,-27.778625,-4.1992188,33.898926,1,0.0,0.0,0.0,0.0
2.274414063,-0.017865086,0.9930097,0.116672516,0.019563988,-0.11632161,0.99301875,0.9996489,0.02002295,-0.017349135,-0.017343247,0.9941682,0.10643606,0.023502342,-0.1060173,0.9940865,0.99957335,0.019742185,-0.0215266,10.037888,0.19381714,-0.16749573,9.803208,0.19635807,-0.17013691,-0.0025024414,0.05368042,-0.008087158,-28.079224,-4.4387817,33.47931,1,0.0,0.0,0.0,0.0
2.282714844,-0.018049033,0.993456,0.112780236,0.019125769,-0.112434916,0.993475,0.9996542,0.020088274,-0.01697127,-0.017352866,0.99414617,0.10664092,0.023423467,-0.1062235,0.99406636,0.999575,0.019747801,-0.021443067,10.054642,0.19621277,-0.19381714,9.803259,0.19699867,-0.16643131,0.007583618,0.05015564,-0.00793457,-28.199768,-4.319763,33.53882,1,0.0,0.0,0.0,0.0
2.291015625,-0.018161453,0.9934645,0.11268681,0.01872188,-0.11234773,0.9934925,0.9996597,0.020152979,-0.016559128,-0.017379392,0.9941196,0.106884256,0.023253227,-0.10646962,0.994044,0.99957854,0.019761285,-0.02126611,10.054642,0.19621277,-0.19381714,9.803313,0.1976332,-0.16238958,-0.0028076172,0.063446045,-0.010375977,-28.199768,-4.319763,33.53882,1,0.0,0.0,0.0,0.0
2.299316406,-0.01846575,0.9944623,0.10345902,0.01803576,-0.103128515,0.9945045,0.9996668,0.020230232,-0.016031537,-0.017409338,0.9940943,0.10711407,0.023073621,-0.106702335,0.9940232,0.99958223,0.019776795,-0.02107974,10.065414,0.20578003,-0.14596558,9.803383,0.19839081,-0.15721568,-0.0015869141,0.0690918,-0.00869751,-28.019714,-3.9596558,33.059692,1,0.0,0.0,0.0,0.0
2.307617188,-0.01854925,0.99446803,0.10338893,0.017427437,-0.103069425,0.9945215,0.99967605,0.020249432,-0.0154191675,-0.017430818,0.9941018,0.107041046,0.022972971,-0.106630854,0.9940332,0.99958414,0.019785864,-0.020978808,10.061813,0.1651001,-0.119644165,9.803473,0.1985791,-0.15121038,0.0031585693,0.07246399,-0.011138916,-28.019714,-3.9596558,33.059692,1,0.0,0.0,0.0,0.0
2.315917969,-0.018666092,0.994476,0.10329088,0.016857,-0.102981165,0.9945404,0.9996836,0.020305356,-0.014841627,-0.017475875,0.9941166,0.106896564,0.022753462,-0.10648979,0.9940534,0.9995884,0.01980422,-0.020758592,10.067795,0.18544006,-0.16870117,9.803548,0.19912753,-0.14554664,-5.0354004E-4,0.08100891,-0.012664795,-28.019714,-3.9596558,33.059692,1,0.0,0.0,0.0,0.0
2.32421875,-0.018619021,0.9933358,0.11374247,0.016426122,-0.113442935,0.9934087,0.9996917,0.020364646,-0.014204457,-0.017500091,0.9941239,0.10682455,0.022635624,-0.10641961,0.9940636,0.9995906,0.019814244,-0.020640261,10.0785675,0.19979858,-0.13160706,9.803627,0.19970895,-0.13929814,0.0031585693,0.08924866,-0.009460449,-28.138733,-4.319763,33.1192,1,0.0,0.0,0.0,0.0
2.332519531,-0.018834317,0.99369895,0.110488415,0.015617995,-0.11020213,0.9937866,0.99970067,0.020442897,-0.013444003,-0.01754273,0.9940936,0.107098766,0.022389378,-0.10669782,0.99403936,0.9995954,0.01983604,-0.020385368,10.047455,0.1986084,-0.110076904,9.803715,0.20047635,-0.13184063,0.0059051514,0.09475708,-0.015411377,-28.318787,-4.1992188,32.939148,1,0.0,0.0,0.0,0.0
2.340820313,-0.019003248,0.99371165,0.11034481,0.014838617,-0.11007228,0.9938128,0.9997093,0.020523036,-0.012653577,-0.017592968,0.9940782,0.10723331,0.022121143,-0.106836654,0.9940305,0.9996005,0.01986007,-0.020110572,10.060623,0.18664551,-0.061019897,9.8038,0.20126224,-0.124089204,-0.0021972656,0.087265015,-0.009765625,-28.318787,-4.1992188,32.939148,1,0.0,0.0,0.0,0.0
2.349121094,-0.019141432,0.9937221,0.110227324,0.014082263,-0.109968625,0.99383533,0.9997176,0.020575682,-0.011888898,-0.017620724,0.994071,0.10729564,0.021975346,-0.10690133,0.9940267,0.9996033,0.01987333,-0.019961376,10.060623,0.18664551,-0.061019897,9.803881,0.20177852,-0.11659026,-0.0021972656,0.06817627,-0.0073242188,-28.318787,-4.1992188,32.939148,1,0.0,0.0,0.0,0.0
2.357421875,-0.019224547,0.99354124,0.11183084,0.0135259675,-0.11158283,0.9936631,0.99972373,0.020615343,-0.011293478,-0.017680015,0.99405736,0.10741212,0.021662792,-0.10702285,0.9940206,0.999609,0.019901143,-0.019641891,10.052246,0.17468262,-0.07896423,9.803941,0.20216745,-0.11075119,-0.013336182,0.040542603,-0.0076293945,-28.138733,-4.258728,32.998657,1,0.0,0.0,0.0,0.0
2.365722656,-0.019199591,0.99353933,0.11185187,0.013181802,-0.111611225,0.9936644,0.99972874,0.020552363,-0.0109537495,-0.017739771,0.99403733,0.1075874,0.02134033,-0.10720339,0.99400806,0.9996149,0.019929426,-0.019311324,10.02832,0.117248535,-0.12802124,9.80399,0.20154984,-0.10741959,-0.025253296,0.035507202,-0.005645752,-28.138733,-4.258728,32.998657,1,0.0,0.0,0.0,0.0
2.374023438,-0.018919373,0.99418265,0.10603242,0.013086637,-0.105796084,0.99430174,0.99973536,0.020199174,-0.011008912,-0.017768256,0.9940276,0.10767283,0.021177111,-0.10729153,0.9940021,0.9996179,0.019941883,-0.01914425,10.052246,-0.08734131,-0.3672943,9.804055,0.19808623,-0.107960545,-0.025253296,0.035202026,-0.0064086914,-28.379822,-4.0786743,33.17871,1,0.0,0.0,0.0,0.0
2.382324219,-0.018071575,0.9946662,0.10155051,0.013493025,-0.10131523,0.9947629,0.99974567,0.019347157,-0.011590131,-0.017814323,0.99403375,0.10760816,0.020856854,-0.10723237,0.9940152,0.9996238,0.019952074,-0.018822145,10.096512,-0.44267273,-0.7393799,9.804155,0.1897308,-0.11366035,-0.05961609,0.031677246,0.0032196045,-28.138733,-3.8986206,33.17871,1,0.0,0.0,0.0,0.0
2.390625,-0.016421797,0.99455243,0.1029363,0.013755035,-0.10271573,0.99461573,0.9997706,0.01774927,-0.011993324,-0.017826166,0.99405944,0.10736834,0.020565456,-0.106998146,0.9940465,0.99962956,0.019928118,-0.01853592,10.092926,-0.97029114,-0.6053772,9.8044,0.17406088,-0.11761434,-0.16497803,0.013809204,0.006576538,-28.138733,-3.8986206,33.17871,1,0.0,0.0,0.0,0.0
2.398925781,-0.014739705,0.9944316,0.10434869,0.014179084,-0.10414165,0.9944615,0.9997908,0.016137635,-0.012565111,-0.017798662,0.9940696,0.10727954,0.020429147,-0.10691256,0.9940585,0.9996329,0.019884542,-0.018405093,10.092926,-0.97029114,-0.6053772,9.804599,0.15825614,-0.12322165,-0.20315552,-0.03215027,0.008407593,-28.138733,-3.8986206,33.17871,1,0.0,0.0,0.0,0.0
2.407226563,-0.012595501,0.994351,0.10539188,0.014455863,-0.10520815,0.9943452,0.9998162,0.014047806,-0.013049052,-0.017678218,0.9940843,0.10716288,0.020181319,-0.10680302,0.99407536,0.99964005,0.019736169,-0.018173845,10.043869,-1.331604,-0.2416687,9.804848,0.13776192,-0.12796749,-0.26545715,-0.10316467,0.0033721924,-28.138733,-3.8986206,33.4198,1,0.0,0.0,0.0,0.0
2.415527344,-0.010413403,0.99418193,0.107209444,0.015211204,-0.10704537,0.9941379,0.9998301,0.011983142,-0.014007997,-0.017477328,0.9940955,0.10709163,0.019954333,-0.10673986,0.99408674,0.99964815,0.019510921,-0.017970985,10.082153,-1.5302124,0.14596558,9.804984,0.11751448,-0.13737153,-0.27722168,-0.16348267,0.02230835,-28.138733,-3.8986206,33.4198,1,0.0,0.0,0.0,0.0
2.423828125,-0.0077667595,0.9935502,0.113126464,0.015279839,-0.11299875,0.9934776,0.9998531,0.009444656,-0.014303654,-0.017336037,0.99409777,0.10709349,0.019859562,-0.1067461,0.9940879,0.99965245,0.019360377,-0.01789179,10.058228,-1.6474609,0.49412537,9.805209,0.09262043,-0.14027093,-0.25950623,-0.16226196,0.021697998,-28.259277,-4.019165,33.358765,1,0.0,0.0,0.0,0.0
2.432128906,-0.0048462916,0.9906809,0.13611689,0.015446103,-0.1360281,0.99058443,0.9998689,0.0069031366,-0.014642929,-0.016956037,0.9940787,0.10733117,0.019680604,-0.10699399,0.9940648,0.9996625,0.018967744,-0.017749876,10.098907,-1.6594238,0.66041565,9.805366,0.06769665,-0.1435981,-0.23248291,-0.11689758,0.017425537,-28.49884,-4.73938,33.47931,1,0.0,0.0,0.0,0.0
2.440429688,-0.0023656485,0.99040306,0.13818917,0.014973913,-0.13813896,0.9902997,0.9998851,0.0044119335,-0.014503421,-0.016471768,0.9939631,0.108471535,0.019526042,-0.10814579,0.9939433,0.99967366,0.018490024,-0.017626813,10.021133,-1.5996094,0.7884369,9.805524,0.043266293,-0.14222999,-0.15948486,-0.09170532,0.011001587,-28.49884,-4.73938,33.47931,1,0.0,0.0,0.0,0.0
2.448730469,-4.0848143E-5,0.99013305,0.1401299,0.014216656,-0.14011516,0.9900331,0.99989897,0.00203262,-0.014070659,-0.016186975,0.9939027,0.109066054,0.019443171,-0.108746834,0.99387926,0.9996799,0.01820849,-0.01756434,10.077377,-1.6283112,0.6999054,9.805659,0.019933192,-0.13798603,-0.15948486,-0.06590271,0.0071868896,-28.49884,-4.73938,33.47931,1,0.0,0.0,0.0,0.0
2.45703125,0.0022238398,0.99079263,0.13537051,0.013999699,-0.13538842,0.99069375,0.9998995,-3.0799786E-4,-0.014171878,-0.015541399,0.9937773,0.110296205,0.019255307,-0.10999161,0.993746,0.9996938,0.017567988,-0.017426062,10.072586,-1.6462555,0.13040161,9.805665,-0.0030204272,-0.13897865,-0.062210083,-0.009246826,0.0018463135,-28.559875,-4.559326,33.839417,1,0.0,0.0,0.0,0.0
2.465332031,0.0044958633,0.99052596,0.13725214,0.013474439,-0.13730107,0.99043775,0.99989915,-0.002603477,-0.013964068,-0.0148329185,0.99367744,0.111288436,0.019064188,-0.1109994,0.9936376,0.9997082,0.01686017,-0.017297208,10.072586,-1.6462555,0.13040161,9.805661,-0.025531389,-0.13694073,-0.061141968,7.6293945E-5,0.00642395,-28.559875,-4.559326,33.839417,1,0.0,0.0,0.0,0.0
2.473632813,0.0048208563,0.9912986,0.13154396,0.013485498,-0.13159797,0.9912114,0.9998974,-0.0030045523,-0.014002571,-0.014443532,0.9936249,0.11180728,0.018962305,-0.11152664,0.9935806,0.99971586,0.016470935,-0.017230581,10.030716,-1.7742767,-0.32901,9.805644,-0.029464593,-0.13731831,-0.061141968,0.009536743,0.00642395,-28.559875,-4.319763,33.599854,1,0.0,0.0,0.0,0.0
2.481933594,0.005204645,0.9913494,0.13114604,0.013428513,-0.13120528,0.9912642,0.9998962,-0.0033980818,-0.013995226,-0.013676593,0.9935477,0.11258728,0.018760161,-0.11232302,0.99349463,0.9997304,0.015699778,-0.01710292,10.115662,-1.9298096,-0.34336853,9.805634,-0.033323802,-0.1372463,-0.108169556,0.013504028,0.003829956,-28.379822,-4.319763,33.779907,1,0.0,0.0,0.0,0.0
2.490234375,0.0056061666,0.99130327,0.13147748,0.01327589,-0.13154173,0.9912216,0.9998961,-0.0038114737,-0.013897879,-0.013297052,0.99351084,0.11295776,0.018660499,-0.11270151,0.9934536,0.99973744,0.015317854,-0.01704081,10.115662,-1.9298096,-0.34336853,9.805632,-0.03737779,-0.13629164,-0.12771606,0.039779663,0.005050659,-28.379822,-4.319763,33.779907,1,0.0,0.0,0.0,0.0
2.498535156,0.005995729,0.9912583,0.13179903,0.012984631,-0.13186745,0.99118227,0.99989766,-0.004231499,-0.013661765,-0.012544747,0.99343705,0.11368968,0.018460687,-0.11344914,0.9933723,0.99975085,0.014560393,-0.01691634,10.085754,-2.0159454,-0.39482117,9.805647,-0.041496832,-0.13397615,-0.15856934,0.023132324,0.0033721924,-28.379822,-4.319763,33.779907,1,0.0,0.0,0.0,0.0
2.506835938,0.0065081352,0.9897604,0.14259005,0.012754561,-0.14266363,0.98968905,0.9998975,-0.0046223565,-0.013552435,-0.011806794,0.993364,0.11440521,0.018256936,-0.114179954,0.9932923,0.9997636,0.013816288,-0.016787685,10.116852,-1.9477539,-0.0657959,9.805644,-0.04532983,-0.13290398,-0.21720886,-0.048950195,-0.004425049,-28.439331,-4.6188354,33.358765,1,0.0,0.0,0.0,0.0
2.515136719,0.0069180783,0.9897083,0.14293231,0.012954805,-0.14301243,0.9896361,0.9998921,-0.0049947198,-0.01381085,-0.0114375055,0.9933033,0.114968665,0.018156992,-0.11475093,0.9932284,0.9997697,0.01344754,-0.016722934,10.116852,-1.9477539,-0.0657959,9.805593,-0.04898147,-0.13543817,-0.21827698,-0.039474487,0.0015411377,-28.439331,-4.6188354,33.358765,1,0.0,0.0,0.0,0.0
2.5234375,0.007474675,0.9889029,0.14837477,0.013405294,-0.14846466,0.9888268,0.9998822,-0.005402152,-0.014366261,-0.010705161,0.9931826,0.11607592,0.017970672,-0.115872726,0.9931015,0.9997812,0.012717273,-0.016607724,10.059433,-1.984848,-0.07777405,9.805495,-0.052977014,-0.14088489,-0.18635559,-0.118118286,0.009475708,-28.49884,-4.798889,33.4198,1,0.0,0.0,0.0,0.0
2.531738281,0.0080308,0.9892304,0.14614613,0.014298008,-0.1462495,0.9891443,0.9998655,-0.005854022,-0.015318525,-0.0099797305,0.9930397,0.11735599,0.017812349,-0.117166676,0.99295247,0.9997915,0.011999785,-0.016519079,10.010376,-2.0231323,-0.01675415,9.805331,-0.057408348,-0.15022342,-0.14726257,-0.169281,0.013305664,-28.439331,-4.6798706,33.239746,1,0.0,0.0,0.0,0.0
2.540039063,0.008707029,0.9891409,0.14671212,0.015533432,-0.14683376,0.9890392,0.9998414,-0.006332649,-0.01664324,-0.009617581,0.99297506,0.11793238,0.01775237,-0.1177497,0.99288464,0.99979615,0.011642728,-0.016495194,10.010376,-2.0231323,-0.01675415,9.805096,-0.062102076,-0.16321443,-0.128479,-0.20593262,0.013137817,-28.439331,-4.6798706,33.239746,1,0.0,0.0,0.0,0.0
2.548339844,0.009475837,0.9890383,0.14735544,0.017045135,-0.14750041,0.9889152,0.99980986,-0.006859106,-0.018255979,-0.008889609,0.9928456,0.11907423,0.017684702,-0.118904226,0.9927482,0.9998041,0.010930937,-0.016501166,10.07019,-2.1068878,0.1483612,9.804786,-0.067264855,-0.17903,-0.09197998,-0.24975586,0.021392822,-28.439331,-4.6798706,33.239746,1,0.0,0.0,0.0,0.0
2.556640625,0.010381193,0.9887799,0.14901903,0.018891634,-0.1491944,0.9886275,0.99976766,-0.007447919,-0.02022848,-0.008161767,0.9927165,0.12019728,0.017679393,-0.120039254,0.99261177,0.9998104,0.010226481,-0.016570894,10.115662,-2.1643066,0.23808289,9.804372,-0.07303914,-0.19837365,-0.07106018,-0.2492981,0.03024292,-28.318787,-4.73938,33.4198,1,0.0,0.0,0.0,0.0
2.564941406,0.011385435,0.9886431,0.14985059,0.021013197,-0.15006378,0.988453,0.9997144,-0.008105126,-0.022483094,-0.007791678,0.9926492,0.120776094,0.01771421,-0.12062379,0.99254024,0.9998127,0.009873006,-0.016644133,10.115662,-2.1643066,0.23808289,9.803849,-0.07948414,-0.22048384,-0.03227234,-0.35910034,0.027648926,-28.318787,-4.73938,33.4198,1,0.0,0.0,0.0,0.0
2.573242188,0.012149254,0.9906964,0.13554731,0.02355529,-0.13580327,0.9904558,0.99964875,-0.008840444,-0.02498605,-0.0070361164,0.9925133,0.1219337,0.017866176,-0.12179248,0.9923948,0.99981564,0.009161094,-0.01687547,10.060623,-2.5423737,0.57307434,9.8032055,-0.086695135,-0.24502945,-0.009979248,-0.3297882,0.024749756,-28.259277,-4.258728,33.659363,1,0.0,0.0,0.0,0.0
2.581542969,0.013409459,0.9897413,0.14223997,0.025984079,-0.14254963,0.98944646,0.9995724,-0.009571967,-0.027629033,-0.0062793875,0.99245125,0.12247896,0.018101705,-0.12234849,0.99232215,0.9998164,0.008448252,-0.017196786,10.096512,-2.5926208,0.6616211,9.802457,-0.09386893,-0.27094826,0.026672363,-0.41941833,0.02230835,-28.079224,-4.3792725,33.1192,1,0.0,0.0,0.0,0.0
2.58984375,0.0145813795,0.9895845,0.14321281,0.028837645,-0.14358467,0.98921776,0.99947774,-0.01029424,-0.030630948,-0.0058887405,0.9924042,0.12287848,0.018267151,-0.122753344,0.99226904,0.99981576,0.008087856,-0.017405536,10.096512,-2.5926208,0.6616211,9.801529,-0.100952014,-0.300387,0.0718689,-0.4895172,0.025054932,-28.079224,-4.3792725,33.1192,1,0.0,0.0,0.0,0.0
2.598144531,0.015563787,0.9894513,0.1440281,0.031711847,-0.14446156,0.9890022,0.9993759,-0.010825222,-0.03362569,-0.0050864825,0.9923073,0.12369455,0.01870204,-0.12358011,0.99215835,0.9998122,0.0073599364,-0.017929584,9.985245,-1.6917267,0.6903229,9.8005295,-0.106159166,-0.32975537,0.20610046,-0.2340393,0.02230835,-28.079224,-4.3792725,33.1192,1,0.0,0.0,0.0,0.0
2.606445313,0.01691051,0.9873427,0.15769695,0.03362348,-0.15819183,0.9868356,0.9992914,-0.011385574,-0.035873003,-0.00427905,0.9922088,0.12451253,0.019233435,-0.124408975,0.99204457,0.99980587,0.006639812,-0.01855123,10.223328,-1.5649109,0.36610413,9.799702,-0.11165434,-0.351794,0.26733398,-0.3400116,0.011001587,-27.89917,-4.8599243,33.4198,1,0.0,0.0,0.0,0.0
2.614746094,0.01780359,0.98721075,0.15842329,0.035954706,-0.15897804,0.98662716,0.9991948,-0.011869444,-0.038325254,-0.0038649093,0.992126,0.12518449,0.019535135,-0.12508662,0.99195355,0.9998017,0.006279306,-0.018897867,10.223328,-1.5649109,0.36610413,9.798754,-0.11639948,-0.37584236,0.29162598,-0.5009613,-0.03892517,-27.89917,-4.8599243,33.4198,1,0.0,0.0,0.0,0.0
2.623046875,0.017691895,0.9878589,0.15434295,0.039373804,-0.15493573,0.9871396,0.9990679,-0.0113873,-0.041636873,-0.0030282156,0.99195963,0.12651862,0.020213032,-0.12643263,0.99176925,0.99979115,0.005560616,-0.019667648,10.271194,-0.9415741,-0.37687683,9.797509,-0.11167127,-0.40831825,0.24061584,-0.30992126,-0.27487183,-27.95868,-4.73938,33.53882,1,0.0,0.0,0.0,0.0
2.631347656,0.01662338,0.98801285,0.15347397,0.042615723,-0.15405582,0.9871427,0.9989532,-0.009869243,-0.044665813,-0.0026245546,0.99188846,0.1270843,0.020607725,-0.1270041,0.9916881,0.9997842,0.0052216575,-0.020107234,10.271194,-0.9415741,-0.37687683,9.796385,-0.09678421,-0.43802202,0.21359253,-0.32885742,-0.23852539,-27.95868,-4.73938,33.53882,1,0.0,0.0,0.0,0.0
2.639648438,0.015845323,0.98869157,0.14912434,0.04513239,-0.14969827,0.9877011,0.9988553,-0.008920103,-0.046994023,-0.0018849894,0.9917533,0.12814763,0.0214989,-0.12807804,0.9915311,0.9997671,0.004624059,-0.021080181,10.5260315,-1.174881,-0.43070984,9.795424,-0.087476335,-0.46085396,0.23313904,-0.06437683,-0.017852783,-27.598572,-4.6798706,33.95996,1,0.0,0.0,0.0,0.0
2.647949219,0.016056286,0.9886628,0.14929181,0.04653863,-0.1498882,0.98760706,0.99878746,-0.008909465,-0.04841766,-0.0012021973,0.9916445,0.12899521,0.022449316,-0.12893604,0.9913988,0.9997473,0.0040877108,-0.022106733,10.2341,-1.1605225,-0.982254,9.79476,-0.08737201,-0.4748151,0.26763916,0.018096924,-0.035568237,-27.598572,-4.6798706,33.95996,1,0.0,0.0,0.0,0.0
2.65625,0.015579976,0.9902049,0.13875014,0.047034502,-0.13933915,0.98912704,0.9987717,-0.008884533,-0.04874469,-8.668569E-4,0.99159086,0.12940964,0.02293819,-0.12935592,0.9913329,0.9997365,0.0038277667,-0.022633167,10.2341,-1.1605225,-0.982254,9.794605,-0.08712751,-0.47802213,0.24031067,0.013809204,-0.072525024,-27.2995,-4.3792725,34.318542,1,0.0,0.0,0.0,0.0
2.664550781,0.015654026,0.9901956,0.13880786,0.047137972,-0.13940135,0.98911333,0.9987657,-0.008940485,-0.048858006,-2.2437423E-4,0.9915409,0.1297943,0.023898937,-0.1297519,0.99125844,0.9997143,0.0033243585,-0.023667661,9.895523,-1.2012024,-1.0899353,9.794546,-0.08767621,-0.47913337,0.1295929,-0.13461304,0.012527466,-27.2995,-4.3792725,34.318542,1,0.0,0.0,0.0,0.0
2.672851563,0.015532097,0.9918466,0.12648769,0.047354735,-0.12709069,0.9907601,0.99875736,-0.009398792,-0.048942614,3.9621047E-4,0.9914923,0.13016506,0.024825307,-0.1301347,0.9911855,0.9996917,0.0028386689,-0.024665657,8.781662,-1.2502441,1.2346954,9.794464,-0.09217066,-0.4799631,0.12471008,0.0849762,0.17700195,-27.119446,-3.9596558,34.379578,1,0.0,0.0,0.0,0.0
2.681152344,0.01689468,0.99168897,0.12754436,0.046388477,-0.12820263,0.9906625,0.9987806,-0.010820338,-0.048168886,7.0050126E-4,0.9915009,0.13009802,0.025275119,-0.13007404,0.99118215,0.99968034,0.002593918,-0.02515142,8.781662,-1.2502441,1.2346954,9.794692,-0.106111266,-0.47237542,0.13264465,0.31892395,0.28619385,-27.119446,-3.9596558,34.379578,1,0.0,0.0,0.0,0.0
2.689453125,0.018238857,0.9919928,0.12497042,0.04512272,-0.12568054,0.99104404,0.99881494,-0.012436507,-0.047053684,0.0013437648,0.99151176,0.13000976,0.0261104,-0.13000032,0.9911701,0.99965817,0.002062707,-0.026063459,11.284546,-1.7395782,-2.388031,9.795029,-0.121960476,-0.461439,0.04423523,0.1375122,0.027954102,-26.759338,-3.8391113,34.379578,1,0.0,0.0,0.0,0.0
