Time,Rot1,Rot2,Rot3,Rot4,Rot5,Rot6,Rot7,Rot8,Rot9,FRot1,FRot2,FRot3,FRot4,FRot5,FRot6,FRot7,FRot8,FRot9,AccX,AccY,AccZ,GravX,GravY,GravZ,GyroX,GyroY,GyroZ,MagX,MagY,MagZ,Imid
0.0,-0.9036463,0.0038281314,-0.42826268,-0.42796683,-0.04629018,0.9026083,-0.01636905,0.9989206,0.043468256,1.0,0.0,0.0,0.0,1.0,0.0,0.0,0.0,1.0,-0.1651001,9.84288,0.43190002,-0.16052556,9.796065,0.426278,0.016494751,-0.006149292,0.001663208,-32.57904,-24.958801,68.51959,0,0.0,0.0,0.0,0.0
0.008300782,-0.9036353,0.0037483424,-0.4282865,-0.4279915,-0.046027075,0.9026101,-0.01632948,0.9989332,0.04319594,0.9926746,0.120623365,0.0068676006,-0.11997713,0.99086356,-0.061601955,-0.014235492,0.060326744,0.99807715,-0.14356995,9.834503,0.34576416,-0.1601375,9.796188,0.42360747,0.02746582,-0.006149292,0.0053100586,-32.57904,-24.958801,68.51959,0,0.0,0.0,0.0,0.0
0.016601563,-0.90392286,0.0036332004,-0.42768013,-0.42738575,-0.045729138,0.90291214,-0.016276982,0.99894726,0.04288839,0.9839759,0.17823556,0.004843546,-0.17704627,0.97990656,-0.09185756,-0.021118505,0.0895281,0.9957604,-0.14356995,9.834503,0.34576416,-0.15962267,9.796327,0.42059144,0.020141602,-0.015945435,0.0041046143,-32.51953,-24.958801,68.51959,0,0.0,0.0,0.0,0.0
0.024902344,-0.9039149,0.0035756563,-0.4276973,-0.42740542,-0.045419917,0.90291834,-0.016197452,0.99896157,0.042584,0.9412143,0.33719006,-0.020455036,-0.33535475,0.9253719,-0.17670317,-0.04065404,0.17317526,0.9840516,-0.14356995,9.796219,0.40318298,-0.15884276,9.796467,0.41760638,0.021377563,-0.0110321045,0.0028686523,-32.51953,-24.958801,68.51959,0,0.0,0.0,0.0,0.0
0.033203125,-0.9039082,0.0035616755,-0.42771164,-0.42742273,-0.04520045,0.9029212,-0.016116848,0.9989716,0.042379398,0.90149534,0.4297853,-0.050899714,-0.42957702,0.87429357,-0.22599638,-0.052628633,0.22560002,0.9727975,-0.15194702,9.845276,0.4665985,-0.1580523,9.796565,0.41559994,0.015258789,-0.006149292,0.0065460205,-32.51953,-24.719238,68.51959,0,0.0,0.0,0.0,0.0
0.041503907,-0.9039035,0.003526943,-0.42772198,-0.42743456,-0.04501409,0.9029249,-0.01606895,0.9989801,0.042195927,0.90149534,0.4297853,-0.050899714,-0.42957702,0.87429357,-0.22599638,-0.052628633,0.22560002,0.9727975,-0.15194702,9.845276,0.4665985,-0.15758258,9.796649,0.41380075,0.015258789,-0.006149292,0.0065460205,-32.51953,-24.719238,68.51959,0,0.0,0.0,0.0,0.0
0.049804688,-0.9039032,0.003524766,-0.4277226,-0.42743644,-0.044932023,0.9029282,-0.01603583,0.99898386,0.04212081,0.87899774,0.47174406,-0.06943031,-0.47325057,0.84531075,-0.24795887,-0.058282938,0.25081325,0.9662794,-0.16151428,9.793823,0.40678406,-0.15725778,9.796685,0.41306406,0.021377563,-6.1035156E-5,0.0041046143,-32.51953,-24.719238,68.51959,0,0.0,0.0,0.0,0.0
0.058105469,-0.9036101,0.0035122524,-0.42834157,-0.42805684,-0.04476518,0.9026424,-0.01600448,0.9989913,0.041953713,0.8297924,0.54674906,-0.11184836,-0.5538036,0.78199697,-0.28597608,-0.06889208,0.2992428,0.95168674,-0.16390991,9.84407,0.38285828,-0.15695034,9.796759,0.41142538,0.025024414,-0.00982666,0.0053100586,-32.51953,-24.719238,68.39905,0,0.0,0.0,0.0,0.0
0.06640625,-0.90360415,0.003468789,-0.42835447,-0.4280706,-0.044597954,0.9026442,-0.01597265,0.998999,0.04178378,0.80346507,0.5797888,-0.13523631,-0.5907527,0.74823624,-0.30191672,-0.07385924,0.32247075,0.94369346,-0.15194702,9.835693,0.38285828,-0.15663819,9.796834,0.40975893,0.025024414,-0.0049438477,0.001663208,-32.51953,-24.719238,68.39905,0,0.0,0.0,0.0,0.0
0.074707032,-0.90359694,0.0034156896,-0.4283702,-0.4280872,-0.044407517,0.9026459,-0.015939698,0.9990077,0.041588705,0.7762096,0.6098954,-0.1597696,-0.62555563,0.71341974,-0.3157728,-0.07860559,0.34505063,0.9352867,-0.15194702,9.835693,0.38285828,-0.15631504,9.796919,0.40784588,0.032348633,-6.1035156E-5,0.0041046143,-32.51953,-24.719238,68.39905,0,0.0,0.0,0.0,0.0
0.083007813,-0.9035889,0.0033572642,-0.42838746,-0.4281052,-0.04420626,0.902647,-0.015906986,0.99901676,0.04138155,0.7481786,0.6371174,-0.18523014,-0.65826845,0.67779005,-0.3275413,-0.08313511,0.36699054,0.9265022,-0.15194702,9.835693,0.38285828,-0.15599427,9.7970085,0.4058144,0.029907227,-6.1035156E-5,0.0041046143,-32.51953,-24.719238,68.39905,0,0.0,0.0,0.0,0.0
0.091308594,-0.9035796,0.003289567,-0.42840755,-0.42812625,-0.0439677,0.9026486,-0.015866773,0.9990275,0.04113667,0.7481786,0.6371174,-0.18523014,-0.65826845,0.67779005,-0.3275413,-0.08313511,0.36699054,0.9265022,-0.15194702,9.835693,0.38285828,-0.15559989,9.797113,0.40341294,0.029907227,-6.1035156E-5,0.0041046143,-32.51953,-24.719238,68.39905,0,0.0,0.0,0.0,0.0
0.099609375,-0.90418065,0.00315876,-0.42713872,-0.42685857,-0.043638367,0.9032649,-0.015786441,0.9990424,0.040805306,0.6903283,0.6831871,-0.23812208,-0.71767694,0.6049642,-0.34490296,-0.091577925,0.40899104,0.9079316,-0.12562561,9.853638,0.3397827,-0.1548121,9.797259,0.40016335,0.009140015,-0.0110321045,0.0053100586,-32.398987,-24.899292,68.39905,0,0.0,0.0,0.0,0.0
0.107910157,-0.90417033,0.0030839553,-0.4271611,-0.42688307,-0.04331033,0.9032691,-0.015714845,0.9990569,0.040476397,0.6607452,0.7021993,-0.2652018,-0.7445135,0.568169,-0.35054752,-0.09547475,0.4290689,0.8982118,-0.14117432,9.818954,0.29193115,-0.15410998,9.797401,0.39693788,0.011581421,-0.008590698,0.007751465,-32.398987,-24.899292,68.39905,0,0.0,0.0,0.0,0.0
0.116210938,-0.904932,0.0029713071,-0.42554578,-0.4252683,-0.043087587,0.9040411,-0.015649557,0.9990669,0.04025494,0.6008343,0.7326249,-0.31977952,-0.79275656,0.4947401,-0.35604674,-0.10264094,0.46743238,0.87805,-0.14356995,9.835693,0.31704712,-0.15346973,9.7975,0.3947661,0.004257202,-0.0025024414,0.001663208,-32.218933,-25.019836,68.33954,0,0.0,0.0,0.0,0.0
0.124511719,-0.90492845,0.0029448054,-0.4255538,-0.42527807,-0.04290629,0.9040452,-0.015596694,0.99907476,0.040079474,0.5706683,0.7442631,-0.34700155,-0.814323,0.4583995,-0.35601678,-0.10590483,0.48573884,0.86766464,-0.13998413,9.827316,0.31585693,-0.15295133,9.797577,0.3930454,-6.2561035E-4,-0.0110321045,0.0041046143,-32.218933,-25.019836,68.33954,0,0.0,0.0,0.0,0.0
0.1328125,-0.9049213,0.0028934535,-0.42556924,-0.42529476,-0.042692676,0.90404737,-0.015552869,0.999084,0.03986408,0.51036507,0.76092416,-0.4006518,-0.8526577,0.38718027,-0.35080802,-0.111813836,0.520659,0.84641117,-0.12083435,9.818954,0.25602722,-0.15252155,9.7976675,0.39093307,0.005493164,-0.013473511,-0.0056762695,-32.218933,-25.019836,68.33954,0,0.0,0.0,0.0,0.0
0.141113282,-0.9055091,0.0027679356,-0.42431778,-0.42404035,-0.04264052,0.9046389,-0.015589148,0.9990866,0.039785095,0.48035616,0.76618904,-0.42686328,-0.8695704,0.3525128,-0.34580633,-0.11447827,0.5372979,0.8355871,-0.16989136,9.840485,0.36131287,-0.15287732,9.797693,0.3901585,0.005493164,0.0024108887,0.0028686523,-32.099915,-24.958801,68.33954,0,0.0,0.0,0.0,0.0
0.149414063,-0.90550566,0.0027431566,-0.42432523,-0.42404738,-0.04260309,0.9046373,-0.015596005,0.9990883,0.039740574,0.39146867,0.7711871,-0.5020186,-0.9121497,0.2532441,-0.32225794,-0.12138795,0.5840701,0.8025753,-0.16989136,9.840485,0.36131287,-0.15294456,9.797709,0.3897219,-0.010391235,-0.00982666,-0.0020141602,-32.099915,-24.958801,68.33954,0,0.0,0.0,0.0,0.0
0.157714844,-0.90551275,0.0027943696,-0.42430985,-0.42403257,-0.04269728,0.90463984,-0.015588978,0.9990841,0.039847836,0.36239737,0.76963204,-0.5256756,-0.92382735,0.22198796,-0.3118722,-0.123333186,0.59865516,0.791455,-0.1603241,9.800995,0.4283142,-0.15287566,9.797668,0.3907738,-0.005508423,-0.007385254,4.272461E-4,-32.099915,-24.958801,68.33954,0,0.0,0.0,0.0,0.0
0.166015625,-0.9059816,0.0028075448,-0.4233077,-0.4230307,-0.042774465,0.9051051,-0.0155656375,0.9990808,0.03994056,0.3053189,0.76237214,-0.57058656,-0.9437866,0.16255486,-0.28782415,-0.1266775,0.6263901,0.76914775,-0.14955139,9.853638,0.41993713,-0.15264677,9.797636,0.3916831,0.0018157959,-0.0110321045,0.0041046143,-31.97937,-24.899292,68.2785,0,0.0,0.0,0.0,0.0
0.174316407,-0.9059862,0.0028406575,-0.4232978,-0.4230225,-0.0427531,0.90511006,-0.015526184,0.9990816,0.03993538,0.27734444,0.75689167,-0.59177285,-0.9521943,0.13442607,-0.2743279,-0.12808679,0.639566,0.7579902,-0.15194702,9.792633,0.37687683,-0.15225986,9.797644,0.39163232,0.0030517578,-0.0025024414,0.007751465,-31.97937,-24.899292,68.2785,0,0.0,0.0,0.0,0.0
0.182617188,-0.9057148,0.002848687,-0.42387807,-0.423603,-0.042723235,0.90483993,-0.015531835,0.99908286,0.039901774,0.2497881,0.75031507,-0.6120729,-0.95962465,0.10739349,-0.25997534,-0.12933075,0.652299,0.74684644,-0.18066406,9.829712,0.3792572,-0.15231527,9.797656,0.39130273,0.0018157959,-6.1035156E-5,4.272461E-4,-31.91986,-24.598694,68.03894,0,0.0,0.0,0.0,0.0
0.190917969,-0.9057166,0.0028623354,-0.42387402,-0.4236,-0.042690657,0.9048428,-0.015505499,0.99908423,0.039878126,0.19599909,0.7342751,-0.64994186,-0.9717609,0.056628276,-0.22907205,-0.1313968,0.676486,0.7246389,-0.13998413,9.800995,0.37806702,-0.152057,9.797669,0.39107084,0.004257202,-0.0012664795,0.008987427,-31.91986,-24.598694,68.03894,0,0.0,0.0,0.0,0.0
0.19921875,-0.9057121,0.0028292811,-0.42388386,-0.42360973,-0.042611144,0.90484196,-0.015502124,0.9990877,0.03979194,0.1697858,0.7249979,-0.667496,-0.976571,0.03290314,-0.21266523,-0.13221912,0.68796474,0.7135984,-0.16989136,9.839279,0.34336853,-0.15202391,9.797704,0.39022565,0.0066986084,-0.006149292,0.0053100586,-31.91986,-24.598694,68.03894,0,0.0,0.0,0.0,0.0
0.207519532,-0.9052686,0.0028467174,-0.42483023,-0.4245577,-0.042495623,0.9044031,-0.015478846,0.9990926,0.039678544,0.14403506,0.7149986,-0.68412787,-0.98060477,0.010265036,-0.19572653,-0.1329216,0.69905055,0.7026096,-0.17468262,9.818954,0.31944275,-0.15179563,9.797751,0.3891136,0.005493164,-0.014709473,-7.9345703E-4,-31.97937,-24.659729,67.97943,0,0.0,0.0,0.0,0.0
0.215820313,-0.9052624,0.0028020134,-0.4248436,-0.42457098,-0.04238743,0.90440196,-0.015473883,0.99909735,0.039561402,0.118776456,0.7043576,-0.6998375,-0.9839046,-0.011277372,-0.17833857,-0.13350646,0.70975566,0.6916812,-0.17468262,9.818954,0.31944275,-0.15174696,9.797798,0.38796484,-0.007949829,-0.0049438477,4.272461E-4,-31.97937,-24.659729,67.97943,0,0.0,0.0,0.0,0.0
0.224121094,-0.90525204,0.0027258424,-0.42486635,-0.42459255,-0.042263865,0.90439755,-0.015491246,0.9991027,0.03941682,0.118776456,0.7043576,-0.6998375,-0.9839046,-0.011277372,-0.17833857,-0.13350646,0.70975566,0.6916812,-0.17468262,9.818954,0.31944275,-0.15191723,9.797851,0.38654697,-0.007949829,-0.0049438477,4.272461E-4,-31.97937,-24.659729,67.97943,0,0.0,0.0,0.0,0.0
0.232421875,-0.9052431,0.0026609353,-0.42488572,-0.42461064,-0.042185277,0.9043928,-0.01551739,0.9991063,0.039317794,0.118776456,0.7043576,-0.6998375,-0.9839046,-0.011277372,-0.17833857,-0.13350646,0.70975566,0.6916812,-0.17468262,9.818954,0.31944275,-0.15217362,9.797886,0.38557586,-0.007949829,-0.0049438477,4.272461E-4,-31.97937,-24.659729,67.97943,0,0.0,0.0,0.0,0.0
0.240722657,-0.9061556,0.0025952118,-0.4229364,-0.42266068,-0.042176582,0.905306,-0.015488552,0.99910676,0.039315443,0.093977764,0.6931469,-0.7146437,-0.9865117,-0.03179982,-0.16057248,-0.13402587,0.72009456,0.680809,-0.15074158,9.82254,0.34576416,-0.15189081,9.797891,0.3855528,-0.009185791,0.0011749268,0.0053100586,-31.799316,-24.719238,67.97943,0,0.0,0.0,0.0,0.0
0.249023438,-0.90615875,0.0026182618,-0.42292947,-0.4226543,-0.042196214,0.905308,-0.015475691,0.9991059,0.039343093,0.04576052,0.6693091,-0.74157363,-0.9898283,-0.0697247,-0.124009855,-0.13470693,0.73970526,0.6593104,-0.15553284,9.827316,0.36968994,-0.15176469,9.797882,0.38582394,-0.007949829,-0.0037078857,-0.0020141602,-31.799316,-24.719238,67.97943,0,0.0,0.0,0.0,0.0
0.257324219,-0.9061614,0.0026375516,-0.42292374,-0.42264932,-0.042199437,0.9053103,-0.01545934,0.9991057,0.03935426,-4.982501E-4,0.644021,-0.7650076,-0.9908514,-0.103560865,-0.08653727,-0.13495667,0.75796574,0.63818073,-0.14715576,9.792633,0.34217834,-0.15160434,9.79788,0.38593346,-0.011627197,-0.006149292,0.0065460205,-31.799316,-24.719238,67.97943,0,0.0,0.0,0.0,0.0
0.265625,-0.90660745,0.002638217,-0.4219668,-0.42169285,-0.042228483,0.9057548,-0.015429439,0.99910444,0.039397173,-0.044807658,0.61774504,-0.7851008,-0.98985654,-0.13351361,-0.048559636,-0.13481914,0.7749614,0.61746144,-0.14715576,9.792633,0.34217834,-0.15131111,9.797868,0.3863543,-0.012832642,-0.0037078857,-0.0020141602,-31.739807,-24.778748,68.03894,0,0.0,0.0,0.0,0.0
0.273925782,-0.9066093,0.002651424,-0.42196286,-0.4216887,-0.04227577,0.9057546,-0.015437263,0.9991025,0.03944568,-0.06625615,0.60436285,-0.7939494,-0.9886811,-0.14710839,-0.029473692,-0.13460943,0.78301,0.607269,-0.15672302,9.816559,0.3481598,-0.15138784,9.797849,0.38682997,-0.01651001,-0.012268066,-0.0020141602,-31.739807,-24.778748,68.03894,0,0.0,0.0,0.0,0.0
0.282226563,-0.90584975,0.0027350797,-0.42359036,-0.42331716,-0.042329516,0.9049922,-0.015455151,0.99909997,0.039501984,-0.08722696,0.59087884,-0.8020309,-0.9870918,-0.15981847,-0.01038906,-0.13431804,0.7907719,0.5971921,-0.15672302,9.816559,0.3481598,-0.15156326,9.797824,0.38738215,-0.011627197,-0.0110321045,-7.9345703E-4,-31.91986,-24.899292,68.099976,0,0.0,0.0,0.0,0.0
0.290527344,-0.90585184,0.0027499362,-0.42358598,-0.42331353,-0.042316332,0.90499455,-0.015435925,0.99910045,0.039496407,-0.107689604,0.5773396,-0.80937135,-0.98511934,-0.17165542,0.008628473,-0.13395143,0.79825646,0.5872339,-0.15672302,9.853638,0.29910278,-0.15137471,9.797829,0.38732743,-0.015274048,-0.017150879,0.0041046143,-31.91986,-24.899292,68.099976,0,0.0,0.0,0.0,0.0
0.298828125,-0.9058594,0.002805609,-0.42356914,-0.42329824,-0.04236079,0.9049995,-0.015403649,0.9990984,0.03956053,-0.14721903,0.55022246,-0.8219378,-0.9801207,-0.19289425,0.046424046,-0.13300352,0.8124328,0.56768215,-0.1531372,9.811768,0.31944275,-0.1510582,9.797809,0.3879563,-0.03727722,0.003616333,4.272461E-4,-31.91986,-24.899292,68.099976,0,0.0,0.0,0.0,0.0
0.307128907,-0.90463835,0.0029855208,-0.4261696,-0.42590055,-0.04254342,0.9037692,-0.01543249,0.99909014,0.039757945,-0.18492363,0.52327317,-0.8318584,-0.9738773,-0.21107925,0.08371714,-0.13178112,0.8256093,0.5486374,-0.15672302,9.811768,0.37327576,-0.15134104,9.797728,0.38989225,-0.027496338,-0.0012664795,-0.010574341,-32.218933,-24.659729,68.218994,0,0.0,0.0,0.0,0.0
0.315429688,-0.9046464,0.003044035,-0.42615223,-0.42588195,-0.042773712,0.90376717,-0.015477012,0.9990801,0.03999148,-0.20305243,0.50994587,-0.83589756,-0.9703548,-0.21907565,0.10206534,-0.13107702,0.83184195,0.5393123,-0.16151428,9.799805,0.38763428,-0.15177764,9.797629,0.39218244,-0.027496338,-0.007385254,0.008987427,-32.218933,-24.659729,68.218994,0,0.0,0.0,0.0,0.0
0.323730469,-0.90271246,0.0033870726,-0.4302311,-0.42996675,-0.043022823,0.90181917,-0.01545523,0.9990684,0.040293567,-0.23801658,0.4836773,-0.84226143,-0.9625885,-0.23309842,0.13816093,-0.12950452,0.8436358,0.5210635,-0.16151428,9.799805,0.38763428,-0.15156403,9.797514,0.3951449,-0.03239441,0.003616333,0.011428833,-32.51953,-24.598694,68.03894,0,0.0,0.0,0.0,0.0
0.33203125,-0.90273887,0.003579889,-0.430174,-0.42991352,-0.043277964,0.9018321,-0.015388599,0.9990566,0.040607747,-0.27112657,0.4581067,-0.8465392,-0.95403457,-0.24458143,0.17319901,-0.12770414,0.85458654,0.5033622,-0.16989136,9.826126,0.43669128,-0.1509106,9.797399,0.39822596,-0.031158447,0.0024108887,-0.0032348633,-32.51953,-24.598694,68.03894,0,0.0,0.0,0.0,0.0
0.340332032,-0.90289426,0.0037102748,-0.42984676,-0.42958766,-0.043556415,0.9019741,-0.015376011,0.99904406,0.040920723,-0.28707173,0.4456162,-0.84794813,-0.94949144,-0.24946572,0.19034915,-0.12671134,0.8597634,0.49472332,-0.16989136,9.826126,0.43669128,-0.15078716,9.797276,0.4012952,-0.033599854,-6.1035156E-5,0.001663208,-32.57904,-24.719238,68.218994,0,0.0,0.0,0.0,0.0
0.348632813,-0.9029109,0.0038312718,-0.42981085,-0.42955303,-0.043799296,0.90197885,-0.015369685,0.999033,0.04119259,-0.3178001,0.42127073,-0.8494315,-0.93993676,-0.25769308,0.22385967,-0.12458713,0.86955464,0.47786275,-0.14596558,9.839279,0.4247284,-0.15072513,9.797167,0.40396133,-0.02017212,-0.007385254,4.272461E-4,-32.57904,-24.719238,68.218994,0,0.0,0.0,0.0,0.0
0.356933594,-0.90293455,0.0039652395,-0.42975968,-0.42950332,-0.044069696,0.90198934,-0.015362776,0.99902064,0.041495137,-0.34701946,0.39782014,-0.84930366,-0.929846,-0.26405814,0.25624168,-0.12232744,0.8786424,0.46154478,-0.14955139,9.835693,0.48335266,-0.15065737,9.797046,0.4069283,-0.005508423,-0.0049438477,-0.0056762695,-32.57904,-24.958801,68.218994,0,0.0,0.0,0.0,0.0
0.365234375,-0.9029499,0.0040759235,-0.4297265,-0.429471,-0.04431685,0.9019927,-0.015367674,0.99900925,0.041766386,-0.34701946,0.39782014,-0.84930366,-0.929846,-0.26405814,0.25624168,-0.12232744,0.8786424,0.46154478,-0.14955139,9.835693,0.48335266,-0.1507054,9.796934,0.40958834,-0.005508423,-0.0049438477,-0.0056762695,-32.57904,-24.958801,68.218994,0,0.0,0.0,0.0,0.0
0.373535157,-0.902963,0.0041708983,-0.42969805,-0.42944267,-0.044567276,0.90199375,-0.015388347,0.9989977,0.042033765,-0.3610806,0.3864677,-0.8486834,-0.92463416,-0.2665876,0.27199775,-0.121130124,0.88293475,0.45360085,-0.14476013,9.805786,0.45224,-0.15090814,9.796821,0.41221043,-0.005508423,-0.0037078857,0.0053100586,-32.57904,-24.958801,68.218994,0,0.0,0.0,0.0,0.0
0.381835938,-0.9029736,0.004247256,-0.4296751,-0.42941955,-0.044789195,0.9019938,-0.015413805,0.99898744,0.04226731,-0.37478822,0.37536165,-0.8477248,-0.9193239,-0.26872504,0.28745493,-0.119905315,0.88706845,0.44579396,-0.14476013,9.805786,0.45224,-0.1511578,9.7967205,0.41450074,0.0018157959,-0.013473511,0.001663208,-32.57904,-24.958801,68.218994,0,0.0,0.0,0.0,0.0
0.390136719,-0.9041883,0.004165138,-0.4271137,-0.4268562,-0.044872206,0.9032055,-0.01540356,0.99898404,0.04235084,-0.37478822,0.37536165,-0.8477248,-0.9193239,-0.26872504,0.28745493,-0.119905315,0.88706845,0.44579396,-0.14476013,9.851257,0.43310547,-0.15105733,9.796687,0.4153199,0.0018157959,-0.013473511,0.001663208,-32.339478,-24.899292,68.218994,0,0.0,0.0,0.0,0.0
0.3984375,-0.9041877,0.004160134,-0.4271152,-0.4268576,-0.044861652,0.9032054,-0.0154036395,0.9989845,0.042339135,-0.4012751,0.35386577,-0.8448416,-0.9084041,-0.2719578,0.31755462,-0.117389575,0.89488435,0.430583,-0.15792847,9.817749,0.40797424,-0.15105811,9.796692,0.4152051,0.004257202,-0.008590698,4.272461E-4,-32.339478,-24.899292,68.218994,0,0.0,0.0,0.0,0.0
0.406738282,-0.90418226,0.0041524074,-0.42712647,-0.42686883,-0.04484383,0.9032009,-0.015403531,0.9989854,0.042319536,-0.41401777,0.34347942,-0.8429775,-0.9028318,-0.27308536,0.33214313,-0.11612049,0.89858013,0.42316633,-0.15792847,9.817749,0.40797424,-0.15105703,9.7967005,0.4150129,-0.0042877197,-0.0110321045,0.0053100586,-32.339478,-24.719238,68.218994,0,0.0,0.0,0.0,0.0
0.415039063,-0.9041882,0.0041954666,-0.42711368,-0.42685723,-0.044886548,0.9032043,-0.0153822955,0.99898326,0.042376753,-0.43853748,0.32343516,-0.8384955,-0.89150846,-0.2744588,0.36039573,-0.11356781,0.9055728,0.40870562,-0.15553284,9.850052,0.45344543,-0.15084879,9.7966795,0.41557398,-6.2561035E-4,-0.013473511,-0.0044555664,-32.339478,-24.719238,68.218994,0,0.0,0.0,0.0,0.0
0.423339844,-0.90296835,0.0043268194,-0.42968532,-0.42943126,-0.044912104,0.9019821,-0.015395358,0.9989816,0.042412277,-0.46181637,0.30437484,-0.83311564,-0.88000417,-0.27476406,0.3874241,-0.110988066,0.91206396,0.39474165,-0.1375885,9.818954,0.4175415,-0.1509769,9.796663,0.41592237,0.009140015,0.010940552,-0.0056762695,-32.57904,-24.299622,68.218994,0,0.0,0.0,0.0,0.0
0.431640625,-0.9029631,0.004288186,-0.42969662,-0.42944157,-0.04486838,0.9019793,-0.015411938,0.99898374,0.04235602,-0.47295886,0.29522333,-0.83015245,-0.8742291,-0.27454552,0.40043515,-0.109696865,0.91513276,0.38794157,-0.1375885,9.818954,0.4175415,-0.15113948,9.796684,0.41537067,0.00793457,0.010940552,4.272461E-4,-32.57904,-24.299622,68.218994,0,0.0,0.0,0.0,0.0
0.439941407,-0.9028175,0.0042612413,-0.4300028,-0.4297464,-0.044862382,0.90183455,-0.015448015,0.99898416,0.042333797,-0.4943893,0.2776256,-0.82371306,-0.8626139,-0.27348644,0.4255612,-0.10712766,0.9209393,0.3746925,-0.16749573,9.809372,0.4665985,-0.15149328,9.796688,0.41515273,0.014038086,0.0024108887,0.001663208,-32.51953,-23.999023,68.03894,0,0.0,0.0,0.0,0.0
0.448242188,-0.9028129,0.0042265225,-0.43001285,-0.42975554,-0.044821948,0.90183216,-0.015462399,0.99898607,0.0422822,-0.50468516,0.269176,-0.82026654,-0.8567894,-0.272673,0.4376771,-0.105852365,0.92368484,0.36824122,-0.16749573,9.809372,0.4665985,-0.15163434,9.796706,0.41464674,0.017700195,0.0011749268,0.001663208,-32.51953,-23.999023,68.03894,0,0.0,0.0,0.0,0.0
0.456542969,-0.902811,0.0042122514,-0.43001693,-0.42975974,-0.044777103,0.9018324,-0.01545617,0.99898815,0.042235516,-0.52448195,0.25295964,-0.81297606,-0.8451294,-0.27054393,0.46104485,-0.10332,0.9288797,0.355679,-0.15553284,9.829712,0.47616577,-0.15157326,9.796727,0.41418892,0.015258789,-0.00982666,0.0041046143,-32.51953,-23.999023,68.03894,0,0.0,0.0,0.0,0.0
0.46484375,-0.9034137,0.004050838,-0.42875075,-0.42849103,-0.044588625,0.9024452,-0.015461747,0.9989973,0.042017724,-0.54326105,0.23763865,-0.80522996,-0.8334899,-0.26781738,0.48328915,-0.1008064,0.93370324,0.34356418,-0.16630554,9.82254,0.38404846,-0.15162793,9.796816,0.4120531,0.02746582,-0.0110321045,-0.0032348633,-32.398987,-24.179077,68.03894,0,0.0,0.0,0.0,0.0
0.473144532,-0.9033981,0.003934434,-0.42878467,-0.42852336,-0.044373907,0.90244037,-0.015476258,0.9990073,0.041773304,-0.561119,0.22314844,-0.7970886,-0.8218731,-0.26460323,0.50448954,-0.09833617,0.9381844,0.3318736,-0.16630554,9.84407,0.3912201,-0.15177023,9.796914,0.40965614,0.016494751,0.0084991455,0.001663208,-32.398987,-24.179077,68.03894,0,0.0,0.0,0.0,0.0
0.481445313,-0.90412134,0.0037613716,-0.42725915,-0.4269948,-0.044206407,0.9031728,-0.015490424,0.99901533,0.041574046,-0.5696988,0.216206,-0.792905,-0.8160946,-0.26283437,0.5146918,-0.097123206,0.94030476,0.326181,-0.16630554,9.84407,0.3912201,-0.15190917,9.796994,0.40770212,0.014038086,-0.006149292,0.0053100586,-32.339478,-24.35913,68.218994,0,0.0,0.0,0.0,0.0
0.489746094,-0.904109,0.0036689942,-0.42728624,-0.42702127,-0.04399622,0.9031706,-0.01548525,0.99902487,0.041344114,-0.5780815,0.2094488,-0.78864,-0.8103208,-0.2609774,0.52466273,-0.09592723,0.9423492,0.32058692,-0.15194702,9.836899,0.3481598,-0.15185843,9.797088,0.40544724,0.018936157,-0.0110321045,-0.0068969727,-32.339478,-24.35913,68.218994,0,0.0,0.0,0.0,0.0
0.498046875,-0.90409476,0.0035634812,-0.42731717,-0.42705083,-0.043803774,0.903166,-0.0154996915,0.9990338,0.041124552,-0.5862437,0.20288277,-0.7843194,-0.8045753,-0.25903136,0.5343794,-0.09474693,0.94432056,0.31508997,-0.15194702,9.836899,0.3481598,-0.15200005,9.797175,0.40329412,0.011581421,-0.0037078857,4.272461E-4,-32.339478,-24.35913,68.218994,0,0.0,0.0,0.0,0.0
0.506347657,-0.9034952,0.0035220624,-0.42858362,-0.42831716,-0.04361595,0.9025751,-0.015514156,0.9990421,0.040915363,-0.6019294,0.19031611,-0.7755389,-0.79318213,-0.25490153,0.55307066,-0.0924278,0.94805324,0.30438808,-0.14715576,9.830917,0.34217834,-0.1521419,9.797256,0.40124264,0.020141602,-0.0037078857,0.0065460205,-32.398987,-24.35913,68.099976,0,0.0,0.0,0.0,0.0
0.514648438,-0.9034822,0.0034254335,-0.42861196,-0.4283446,-0.043422606,0.9025716,-0.01551975,0.999051,0.040698815,-0.6094424,0.18431462,-0.7711084,-0.78755724,-0.25272703,0.5620345,-0.09128875,0.94981956,0.29918087,-0.14476013,9.810577,0.24885559,-0.15219676,9.797343,0.39911905,-0.0030670166,0.0011749268,-0.0056762695,-32.398987,-24.35913,68.099976,0,0.0,0.0,0.0,0.0
0.522949219,-0.90347165,0.0033476779,-0.42863482,-0.4283676,-0.043208107,0.90257096,-0.015498981,0.9990605,0.040471334,-0.6094424,0.18431462,-0.7711084,-0.78755724,-0.25272703,0.5620345,-0.09128875,0.94981956,0.29918087,-0.14476013,9.810577,0.24885559,-0.15199308,9.797437,0.39688823,-0.0030670166,0.0011749268,-0.0056762695,-32.398987,-24.35913,68.099976,0,0.0,0.0,0.0,0.0
0.53125,-0.90345556,0.0032289734,-0.42866957,-0.42840236,-0.042897515,0.90256923,-0.015474491,0.9990743,0.0401393,-0.6167572,0.17847747,-0.7666527,-0.7819715,-0.25049412,0.5707656,-0.0901732,0.9515243,0.29405835,-0.14476013,9.810577,0.24885559,-0.1517529,9.797571,0.39363205,-0.0030670166,-0.0037078857,0.007751465,-32.398987,-24.35913,68.099976,0,0.0,0.0,0.0,0.0
0.539550782,-0.9038703,0.003097336,-0.4277952,-0.4275265,-0.04270547,0.9029934,-0.015472324,0.99908286,0.039924406,-0.623879,0.17280774,-0.7621761,-0.7764281,-0.2482064,0.57926935,-0.08907477,0.9531689,0.28902358,-0.16390991,9.841675,0.26560974,-0.15173167,9.797656,0.39152467,-0.005508423,0.0024108887,0.0053100586,-32.398987,-24.299622,68.2785,0,0.0,0.0,0.0,0.0
0.547851563,-0.90386516,0.0030586354,-0.42780656,-0.42753828,-0.04257963,0.9029939,-0.015453914,0.9990884,0.039793923,-0.6308286,0.16730018,-0.75767136,-0.77091694,-0.24587305,0.58756584,-0.0879911,0.954755,0.2840783,-0.16390991,9.841675,0.26560974,-0.15155113,9.79771,0.39024508,-0.011627197,-0.0012664795,0.0028686523,-32.398987,-24.299622,68.2785,0,0.0,0.0,0.0,0.0
0.556152344,-0.903862,0.0030348897,-0.42781353,-0.4275456,-0.04249437,0.9029945,-0.015439175,0.9990921,0.039706595,-0.6441826,0.15679233,-0.7486287,-0.76003873,-0.24107255,0.60351074,-0.08584798,0.9577579,0.274463,-0.15672302,9.820145,0.2871399,-0.15140659,9.797747,0.38938868,-0.006729126,-0.0049438477,-0.0032348633,-32.398987,-24.299622,68.2785,0,0.0,0.0,0.0,0.0
0.564453125,-0.90323573,0.0030696867,-0.42913362,-0.42886537,-0.042523976,0.90236694,-0.015478487,0.99909073,0.039725665,-0.6629235,0.14224772,-0.7350496,-0.74410677,-0.23361656,0.62588215,-0.082689464,0.9618674,0.2607174,-0.16270447,9.810577,0.31825256,-0.15179211,9.797733,0.3895757,-0.025054932,-0.0012664795,4.272461E-4,-32.57904,-24.179077,68.39905,0,0.0,0.0,0.0,0.0
0.572753907,-0.9032368,0.0030773226,-0.42913148,-0.4288623,-0.04260252,0.90236473,-0.015505213,0.99908733,0.039799914,-0.6629235,0.14224772,-0.7350496,-0.74410677,-0.23361656,0.62588215,-0.082689464,0.9618674,0.2607174,-0.16270447,9.810577,0.31825256,-0.1520542,9.7977,0.39030382,-0.025054932,-0.0012664795,4.272461E-4,-32.57904,-24.179077,68.39905,0,0.0,0.0,0.0,0.0
0.581054688,-0.9026434,0.0032542848,-0.43037704,-0.43011096,-0.042778518,0.9017619,-0.0154763,0.9990792,0.040013447,-0.6745682,0.13332662,-0.7260728,-0.7337959,-0.22853053,0.6397791,-0.08063021,0.96436393,0.25199395,-0.15792847,9.84288,0.40438843,-0.15177067,9.797621,0.39239788,-0.021392822,-6.1035156E-5,0.0053100586,-32.699585,-24.179077,68.39905,0,0.0,0.0,0.0,0.0
0.589355469,-0.90266573,0.0034203406,-0.43032902,-0.43006665,-0.04297547,0.90177375,-0.015409216,0.9990702,0.04026345,-0.68014205,0.1291017,-0.72162294,-0.7287458,-0.22595923,0.64643025,-0.079602115,0.965544,0.24776667,-0.14596558,9.839279,0.43669128,-0.1511128,9.797532,0.3948496,-0.022613525,0.0024108887,0.0041046143,-32.699585,-24.179077,68.39905,0,0.0,0.0,0.0,0.0
0.59765625,-0.9026837,0.0035545947,-0.43029013,-0.4300302,-0.04317378,0.9017817,-0.015371782,0.9990613,0.040500846,-0.6855703,0.1250322,-0.71718913,-0.7237544,-0.2233739,0.6529039,-0.07856733,0.9666804,0.24363114,-0.14596558,9.839279,0.43669128,-0.15074569,9.797444,0.39717764,-0.021392822,0.003616333,-7.9345703E-4,-32.699585,-24.179077,68.39905,0,0.0,0.0,0.0,0.0
0.605957032,-0.90346813,0.0035744614,-0.42864025,-0.42837927,-0.043401193,0.90255606,-0.015377348,0.99905133,0.040742826,-0.6960065,0.11731541,-0.70838696,-0.713948,-0.21818648,0.6653367,-0.07650621,0.9688301,0.23561631,-0.16630554,9.836899,0.44625854,-0.15080027,9.797347,0.39955065,-0.021392822,0.0011749268,0.0065460205,-32.51953,-24.41864,68.33954,0,0.0,0.0,0.0,0.0
0.614257813,-0.9034808,0.003668113,-0.42861283,-0.4283536,-0.043534156,0.90256184,-0.015348599,0.9990452,0.040903524,-0.7059563,0.110101245,-0.69964516,-0.7043286,-0.21301323,0.67716056,-0.07447746,0.97082597,0.22792548,-0.15434265,9.820145,0.40678406,-0.15051834,9.797287,0.40112656,-0.0140686035,-0.015945435,0.007751465,-32.51953,-24.41864,68.33954,0,0.0,0.0,0.0,0.0
0.622558594,-0.9025885,0.003861334,-0.43048704,-0.43023255,-0.04361765,0.9016637,-0.015295208,0.99904084,0.041030064,-0.71073794,0.106680505,-0.69532067,-0.6996093,-0.21043369,0.6828356,-0.07347365,0.97177,0.2241979,-0.15434265,9.820145,0.40678406,-0.14999476,9.797244,0.40236747,-0.010391235,-0.014709473,0.0065460205,-32.699585,-24.598694,68.33954,0,0.0,0.0,0.0,0.0
0.630859375,-0.90260035,0.003948065,-0.4304615,-0.4302092,-0.043709785,0.90167046,-0.015255524,0.9990365,0.041150957,-0.72426605,0.097134285,-0.6826446,-0.6859057,-0.20273891,0.69887793,-0.07051363,0.9744033,0.21346186,-0.15434265,9.829712,0.4127655,-0.14960559,9.797201,0.40355304,-0.006729126,-0.0037078857,-7.9345703E-4,-32.699585,-24.598694,68.33954,0,0.0,0.0,0.0,0.0
0.639160157,-0.9017077,0.0040908386,-0.43232673,-0.43207592,-0.043869134,0.9007695,-0.015280898,0.99902886,0.041324694,-0.7285442,0.094168216,-0.67849517,-0.6814592,-0.2002011,0.7039409,-0.06954662,0.9752189,0.21002714,-0.17468262,9.830917,0.45703125,-0.14985442,9.797127,0.4052568,-0.006729126,-0.0049438477,-0.0032348633,-32.818604,-24.41864,68.218994,0,0.0,0.0,0.0,0.0
0.647460938,-0.90171015,0.00410836,-0.4323216,-0.43206927,-0.044020217,0.9007654,-0.015330223,0.9990222,0.041468572,-0.732684,0.09131308,-0.67441535,-0.6771037,-0.19767827,0.7088399,-0.0685909,0.9760047,0.20666414,-0.17468262,9.830917,0.45703125,-0.15033814,9.797061,0.40666777,-0.006729126,-0.0049438477,-0.0032348633,-32.818604,-24.41864,68.218994,0,0.0,0.0,0.0,0.0
0.655761719,-0.902605,0.0040122815,-0.43045115,-0.43019524,-0.044117924,0.90165716,-0.015372908,0.99901825,0.04154712,-0.7444758,0.08330618,-0.66243184,-0.6643983,-0.19023626,0.7227621,-0.065808,0.97819746,0.19697477,-0.15911865,9.795013,0.42352295,-0.15075673,9.797023,0.40743807,0.014038086,-6.1035156E-5,-7.9345703E-4,-32.699585,-24.41864,68.33954,0,0.0,0.0,0.0,0.0
0.6640625,-0.90260315,0.003998799,-0.4304551,-0.4301974,-0.044198733,0.90165216,-0.015420044,0.99901474,0.041614186,-0.74823415,0.08080373,-0.6584956,-0.66025186,-0.18780473,0.7271843,-0.06490938,0.978877,0.1938727,-0.15911865,9.795013,0.42352295,-0.15121897,9.796988,0.40809575,0.014038086,-0.014709473,0.0028686523,-32.699585,-24.41864,68.33954,0,0.0,0.0,0.0,0.0
0.672363282,-0.90260124,0.0039843246,-0.43045938,-0.4302002,-0.044256207,0.9016481,-0.015458036,0.99901223,0.041659757,-0.74823415,0.08080373,-0.6584956,-0.66025186,-0.18780473,0.7271843,-0.06490938,0.978877,0.1938727,-0.15672302,9.830917,0.42114258,-0.15159155,9.796964,0.40854266,0.014038086,-0.014709473,0.0028686523,-32.699585,-24.41864,68.33954,0,0.0,0.0,0.0,0.0
0.680664063,-0.90259916,0.003969075,-0.43046376,-0.4302035,-0.044283647,0.9016451,-0.015483809,0.9990111,0.041677892,-0.751896,0.07838193,-0.65460575,-0.65616524,-0.18540007,0.7314876,-0.06402854,0.97953206,0.19083306,-0.15074158,9.82373,0.44625854,-0.1518443,9.796952,0.4087205,0.020141602,-0.0037078857,-0.0020141602,-32.699585,-24.41864,68.33954,0,0.0,0.0,0.0,0.0
0.688964844,-0.9030635,0.003924363,-0.42948914,-0.4292284,-0.044261217,0.90211076,-0.015469503,0.9990123,0.041655138,-0.755464,0.07603937,-0.6507627,-0.6521384,-0.18302058,0.7356758,-0.06316264,0.980164,0.18785366,-0.15074158,9.82373,0.44625854,-0.15170401,9.796965,0.4084974,0.015258789,-0.0110321045,0.0028686523,-32.57904,-24.479675,68.2785,0,0.0,0.0,0.0,0.0
0.697265625,-0.903061,0.0039058733,-0.4294946,-0.42923445,-0.044172492,0.9021123,-0.015448309,0.9990163,0.04156699,-0.755464,0.07603937,-0.6507627,-0.6521384,-0.18302058,0.7356758,-0.06316264,0.980164,0.18785366,-0.15074158,9.82373,0.44625854,-0.15149617,9.797004,0.40763295,0.015258789,-0.0110321045,0.0028686523,-32.57904,-24.479675,68.2785,0,0.0,0.0,0.0,0.0
0.705566407,-0.90334123,0.0038382323,-0.42890546,-0.4286442,-0.044102002,0.9023963,-0.015451983,0.9990196,0.041484393,-0.7623566,0.07157484,-0.64318705,-0.6442313,-0.17833532,0.743749,-0.06146925,0.9813631,0.18206586,-0.16270447,9.839279,0.46540833,-0.15153219,9.797036,0.40682295,0.029907227,0.0011749268,0.001663208,-32.57904,-24.299622,68.39905,0,0.0,0.0,0.0,0.0
0.713867188,-0.90333813,0.003815365,-0.4289121,-0.42865303,-0.043899413,0.902402,-0.015385997,0.9990287,0.041291486,-0.7689186,0.06739159,-0.63578504,-0.636541,-0.17375435,0.7514153,-0.05983135,0.9824804,0.17650045,-0.119644165,9.830917,0.41993713,-0.15088509,9.797125,0.40493116,0.032348633,-0.006149292,0.001663208,-32.57904,-24.299622,68.39905,0,0.0,0.0,0.0,0.0
0.722167969,-0.9036326,0.0037418064,-0.42829224,-0.4280345,-0.043656953,0.9027074,-0.015320177,0.9990396,0.041051462,-0.7720749,0.065401904,-0.6321573,-0.6327841,-0.17150038,0.75509727,-0.05903043,0.98301077,0.17379643,-0.119644165,9.830917,0.41993713,-0.15023962,9.797232,0.40257734,0.037246704,0.009735107,0.0028686523,-32.51953,-24.299622,68.39905,0,0.0,0.0,0.0,0.0
0.73046875,-0.9036158,0.0036165356,-0.42832875,-0.42806962,-0.04340941,0.90270257,-0.015328844,0.99905074,0.040773556,-0.77816635,0.061607596,-0.6250293,-0.62542367,-0.16706838,0.7621898,-0.057465956,0.9840186,0.16853784,-0.17108154,9.829712,0.39959717,-0.15032461,9.797341,0.399852,0.031143188,0.0011749268,-0.0068969727,-32.51953,-24.299622,68.39905,0,0.0,0.0,0.0,0.0
0.738769532,-0.90466464,0.0033801033,-0.4261107,-0.42584822,-0.04314977,0.9037651,-0.015331762,0.9990629,0.040475488,-0.7839526,0.058042936,-0.61810136,-0.61829317,-0.16274448,0.7689133,-0.055962596,0.98495954,0.16347152,-0.14596558,9.833298,0.38285828,-0.15035322,9.797461,0.39692894,0.032348633,-0.0012664795,-7.9345703E-4,-32.27997,-24.35913,68.33954,0,0.0,0.0,0.0,0.0
0.747070313,-0.9046463,0.0032425902,-0.42615104,-0.4258869,-0.04289427,0.9037592,-0.015348917,0.9990744,0.040185113,-0.78676707,0.05633139,-0.6146742,-0.6147737,-0.16062519,0.7721741,-0.055234518,0.9854067,0.16100566,-0.14596558,9.833298,0.38285828,-0.15052146,9.797573,0.39408135,0.028701782,-0.00982666,4.272461E-4,-32.27997,-24.35913,68.33954,0,0.0,0.0,0.0,0.0
0.755371094,-0.9046217,0.0030603504,-0.42620438,-0.425938,-0.042558707,0.9037508,-0.015372915,0.99908924,0.03980305,-0.79218376,0.053057805,-0.6079718,-0.6079043,-0.15646735,0.7784409,-0.05382538,0.98625696,0.15620497,-0.1603241,9.857239,0.3134613,-0.1507568,9.797719,0.3903346,0.037246704,-0.0037078857,0.0028686523,-32.27997,-24.35913,68.33954,0,0.0,0.0,0.0,0.0
0.763671875,-0.90490335,0.0028473367,-0.42560765,-0.42533943,-0.042171,0.90405095,-0.015374161,0.99910635,0.039371762,-0.79733056,0.049973413,-0.6014704,-0.6012572,-0.152418,0.7843842,-0.052476566,0.9870519,0.15157442,-0.15434265,9.840485,0.27038574,-0.15076901,9.797886,0.38610506,0.025024414,-0.006149292,-0.0032348633,-32.218933,-24.299622,68.33954,0,0.0,0.0,0.0,0.0
0.771972657,-0.9048805,0.0026776071,-0.42565724,-0.42538783,-0.04181032,0.9040448,-0.015376189,0.99912196,0.038972367,-0.7998156,0.048492692,-0.59828377,-0.5980043,-0.15043241,0.787249,-0.05182544,0.9874303,0.14931703,-0.15434265,9.840485,0.27038574,-0.1507889,9.798039,0.38218835,0.031143188,-0.006149292,-0.0032348633,-32.218933,-24.299622,68.33954,0,0.0,0.0,0.0,0.0
0.780273438,-0.90576327,0.0024244885,-0.423777,-0.42350426,-0.041501712,0.90494287,-0.01539345,0.99913543,0.03861751,-0.8045999,0.04565456,-0.5920598,-0.5916605,-0.14653866,0.7927574,-0.05056666,0.98815084,0.14491698,-0.16630554,9.851257,0.27876282,-0.15095818,9.798172,0.37870842,0.025024414,-0.015945435,0.0028686523,-32.03888,-24.299622,68.33954,0,0.0,0.0,0.0,0.0
0.788574219,-0.9057399,0.0022504516,-0.42382795,-0.42355344,-0.041178904,0.90493464,-0.015416258,0.99914926,0.03825056,-0.8091974,0.04296911,-0.5859635,-0.58545995,-0.14275536,0.79803354,-0.049358636,0.98882484,0.14067395,-0.16630554,9.851257,0.27876282,-0.15118185,9.798307,0.37510988,0.017700195,-0.0012664795,-0.0032348633,-32.03888,-24.299622,68.33954,0,0.0,0.0,0.0,0.0
0.796875,-0.90572,0.0021026772,-0.4238712,-0.423595,-0.040920615,0.90492684,-0.0154423015,0.9991602,0.037953306,-0.8091974,0.04296911,-0.5859635,-0.58545995,-0.14275536,0.79803354,-0.049358636,0.98882484,0.14067395,-0.16630554,9.851257,0.27876282,-0.15143725,9.798414,0.3721948,0.017700195,-0.0012664795,-0.0032348633,-32.03888,-24.299622,68.33954,0,0.0,0.0,0.0,0.0
0.805175782,-0.9057058,0.0019973693,-0.42390195,-0.42362547,-0.04067992,0.90492344,-0.015436833,0.9991702,0.03769018,-0.8114095,0.04167095,-0.58299077,-0.5824388,-0.14089994,0.8005701,-0.04878285,0.9891465,0.13859832,-0.14237976,9.792633,0.2679901,-0.15138362,9.798512,0.36961442,0.010375977,-0.0037078857,0.001663208,-32.03888,-24.299622,68.33954,0,0.0,0.0,0.0,0.0
0.813476563,-0.90543014,0.0019454396,-0.42449078,-0.42421526,-0.040461063,0.904657,-0.015415393,0.99917924,0.037459955,-0.8135664,0.04040921,-0.58006626,-0.5794693,-0.13906935,0.80304116,-0.048219178,0.98945785,0.13655804,-0.15553284,9.828522,0.3672943,-0.15117337,9.798601,0.36735666,6.1035156E-4,-0.014709473,0.0041046143,-31.97937,-24.299622,68.099976,0,0.0,0.0,0.0,0.0
0.821777344,-0.90542364,0.0018973836,-0.42450488,-0.42423046,-0.040272016,0.90465826,-0.015379185,0.99918693,0.037268165,-0.8156624,0.03918639,-0.57719946,-0.5765611,-0.1372627,0.8054416,-0.04766561,0.98975927,0.13455339,-0.15553284,9.828522,0.3672943,-0.15081829,9.7986765,0.36547586,6.1035156E-4,-0.006149292,0.007751465,-31.97937,-24.299622,68.099976,0,0.0,0.0,0.0,0.0
0.830078125,-0.9054196,0.0018674883,-0.4245136,-0.42424062,-0.040105883,0.90466094,-0.0153360525,0.9991937,0.03710492,-0.8156624,0.03918639,-0.57719946,-0.5765611,-0.1372627,0.8054416,-0.04766561,0.98975927,0.13455339,-0.15553284,9.828522,0.3672943,-0.1503953,9.798743,0.36387497,6.1035156E-4,-0.006149292,0.007751465,-31.97937,-24.299622,68.099976,0,0.0,0.0,0.0,0.0
0.838378907,-0.905425,0.0019078437,-0.4245018,-0.4242306,-0.040087122,0.9046664,-0.015291096,0.9991944,0.03710525,-0.8156624,0.03918639,-0.57719946,-0.5765611,-0.1372627,0.8054416,-0.04766561,0.98975927,0.13455339,-0.15074158,9.810577,0.37208557,-0.14995442,9.79875,0.36387822,6.1035156E-4,-0.006149292,0.007751465,-31.97937,-24.299622,68.099976,0,0.0,0.0,0.0,0.0
0.846679688,-0.90470046,0.0020214096,-0.42604342,-0.42577553,-0.04006243,0.9039415,-0.015241098,0.99919516,0.037105165,-0.8197007,0.03685765,-0.5716051,-0.5708953,-0.13371798,0.8100606,-0.04657695,0.9903338,0.13065058,-0.15074158,9.810577,0.37208557,-0.14946412,9.798758,0.3638774,6.1035156E-4,-0.008590698,0.0041046143,-32.03888,-24.119568,67.91992,0,0.0,0.0,0.0,0.0
0.854980469,-0.90470535,0.002057328,-0.42603293,-0.4257663,-0.040067717,0.9039456,-0.015210453,0.99919486,0.037125416,-0.82162654,0.035759825,-0.5689034,-0.5681639,-0.1319844,0.81226224,-0.046040017,0.99060655,0.12875932,-0.1603241,9.817749,0.37806702,-0.14916359,9.798754,0.36407593,-0.005508423,-0.0049438477,0.0065460205,-32.03888,-24.119568,67.91992,0,0.0,0.0,0.0,0.0
0.86328125,-0.90471095,0.0020990102,-0.42602077,-0.42575556,-0.04007727,0.9039503,-0.015176347,0.9991944,0.03715201,-0.8253388,0.03367913,-0.5636325,-0.5628431,-0.12859832,0.8164986,-0.044983227,0.9911247,0.12509325,-0.14715576,9.817749,0.37806702,-0.14882913,9.79875,0.36433676,0.005493164,-0.007385254,-7.9345703E-4,-32.03888,-24.119568,67.91992,0,0.0,0.0,0.0,0.0
0.871582032,-0.9043929,0.0020854967,-0.42669564,-0.42643034,-0.040012963,0.903635,-0.01518883,0.999197,0.037076756,-0.8288731,0.03174188,-0.55853534,-0.55770755,-0.12531957,0.82052255,-0.04395048,0.9916085,0.121576704,-0.16151428,9.824936,0.32781982,-0.14895155,9.798776,0.3635988,0.004257202,0.007293701,0.007751465,-32.099915,-23.878479,67.91992,0,0.0,0.0,0.0,0.0
0.879882813,-0.90438926,0.0020585968,-0.42670336,-0.42643738,-0.03999166,0.9036326,-0.015204361,0.9991979,0.03704589,-0.8305681,0.030821018,-0.5560636,-0.55521977,-0.12371941,0.8224503,-0.043447107,0.99183846,0.119869836,-0.17706299,9.8524475,0.36012268,-0.14910385,9.798784,0.36329606,-0.005508423,0.004852295,0.0053100586,-32.099915,-23.878479,67.91992,0,0.0,0.0,0.0,0.0
0.888183594,-0.9036687,0.0020992479,-0.4282271,-0.42796138,-0.039988913,0.9029119,-0.015228901,0.9991979,0.037035126,-0.83222204,0.029929461,-0.55363405,-0.5527762,-0.12214574,0.8243293,-0.042952307,0.9920608,0.118196666,-0.1375885,9.826126,0.34695435,-0.1493445,9.798784,0.36319053,-6.2561035E-4,-0.0025024414,-0.0056762695,-32.099915,-24.41864,67.61932,0,0.0,0.0,0.0,0.0
0.896484375,-0.9036593,0.0020308804,-0.4282473,-0.42797962,-0.039950375,0.90290505,-0.015274949,0.9991996,0.0369707,-0.83537525,0.028239893,-0.5489542,-0.5480741,-0.11907557,0.8279104,-0.041986927,0.9924835,0.11495034,-0.15434265,9.839279,0.33857727,-0.14979608,9.798801,0.36255875,-6.2561035E-4,0.0011749268,-0.0068969727,-32.099915,-24.41864,67.61932,0,0.0,0.0,0.0,0.0
0.904785157,-0.9036575,0.0020180142,-0.42825112,-0.4279831,-0.03993808,0.9029038,-0.015281456,0.99920005,0.036954027,-0.8368953,0.027433211,-0.5466751,-0.54578614,-0.11757936,0.829634,-0.04151819,0.9926845,0.113374285,-0.13639832,9.804596,0.3672943,-0.14985989,9.798805,0.3623952,-6.2561035E-4,-0.006149292,0.011428833,-32.099915,-24.41864,67.61932,0,0.0,0.0,0.0,0.0
0.913085938,-0.9033686,0.002063824,-0.4288601,-0.4285925,-0.039990198,0.90261245,-0.015287365,0.9991979,0.037010424,-0.83982754,0.025898408,-0.54223526,-0.54133284,-0.114662975,0.8329533,-0.040602144,0.9930668,0.110316776,-0.16151428,9.840485,0.4019928,-0.14991784,9.798784,0.3629483,0.0030517578,0.0060577393,-0.0044555664,-32.099915,-24.479675,67.49878,0,0.0,0.0,0.0,0.0
0.921386719,-0.9030574,0.0021162024,-0.42951468,-0.42924798,-0.040023122,0.90229946,-0.01528107,0.9991965,0.03705155,-0.8426076,0.024469621,-0.5379718,-0.5370618,-0.11184734,0.8360949,-0.03971179,0.99342406,0.10738512,-0.16151428,9.840485,0.4019928,-0.1498561,9.798771,0.3633516,0.0030517578,-0.0025024414,-7.9345703E-4,-32.218933,-24.598694,67.61932,0,0.0,0.0,0.0,0.0
0.9296875,-0.9030575,0.0021166797,-0.42951447,-0.42924744,-0.040043846,0.90229875,-0.015289535,0.99919564,0.03707047,-0.84394085,0.023793597,-0.53590834,-0.5349965,-0.11047638,0.8376,-0.0392757,0.9935939,0.105965026,-0.114852905,9.838089,0.37208557,-0.14993912,9.798762,0.36353716,0.009140015,-0.0025024414,-0.0044555664,-32.218933,-24.598694,67.61932,0,0.0,0.0,0.0,0.0
0.937988282,-0.9030514,0.0020727357,-0.42952758,-0.42925885,-0.040049996,0.90229315,-0.015332362,0.9991956,0.03705694,-0.84651405,0.022507872,-0.5318904,-0.53097796,-0.10780683,0.8405,-0.038423546,0.99391705,0.10321118,-0.16151428,9.851257,0.38763428,-0.15035911,9.798761,0.36340445,0.010375977,-0.012268066,-0.0020141602,-32.218933,-24.598694,67.61932,0,0.0,0.0,0.0,0.0
0.946289063,-0.90272725,0.0020056728,-0.43020874,-0.4299383,-0.0399622,0.9019734,-0.015383023,0.99919915,0.036937278,-0.84896755,0.021300968,-0.52801543,-0.52710545,-0.10523213,0.8432592,-0.03760195,0.99421954,0.10056652,-0.16870117,9.809372,0.3254242,-0.15085593,9.798797,0.36223096,0.00793457,-6.1035156E-5,0.0065460205,-32.27997,-24.719238,67.61932,0,0.0,0.0,0.0,0.0
0.954589844,-0.90272164,0.0019660748,-0.4302206,-0.42995074,-0.039831787,0.9019733,-0.015363108,0.9992045,0.036802333,-0.8501436,0.02072349,-0.52614295,-0.5252348,-0.10397789,0.8445809,-0.037204564,0.99436367,0.099280834,-0.1483612,9.853638,0.32302856,-0.15066063,9.798849,0.3609076,0.009140015,-0.0049438477,0.0028686523,-32.27997,-24.719238,67.61932,0,0.0,0.0,0.0,0.0
0.962890625,-0.9037802,0.0018285497,-0.42799303,-0.42772233,-0.039673116,0.90303916,-0.015328565,0.999211,0.036637887,-0.8535095,0.019096097,-0.5207272,-0.5198287,-0.100342445,0.84835696,-0.036050733,0.9947697,0.09556992,-0.14955139,9.82254,0.29431152,-0.15032187,9.798913,0.35929495,-0.007949829,-0.0049438477,-0.0056762695,-32.099915,-24.719238,67.67883,0,0.0,0.0,0.0,0.0
0.971191407,-0.9037747,0.0017891579,-0.42800483,-0.4277351,-0.039518297,0.90303993,-0.015298339,0.9992173,0.036480922,-0.85460556,0.018581677,-0.51894516,-0.5180506,-0.09917211,0.84958124,-0.03567824,0.99489677,0.09437928,-0.15194702,9.836899,0.30747986,-0.15002546,9.798974,0.35775566,-0.0030670166,-0.0037078857,0.0028686523,-32.099915,-24.719238,67.67883,0,0.0,0.0,0.0,0.0
0.979492188,-0.9037703,0.0017574395,-0.42801428,-0.4277456,-0.039372656,0.9030413,-0.015265018,0.99922305,0.036335573,-0.85460556,0.018581677,-0.51894516,-0.5180506,-0.09917211,0.84958124,-0.03567824,0.99489677,0.09437928,-0.15194702,9.836899,0.30747986,-0.14969869,9.799031,0.35633025,-0.0030670166,-0.0037078857,0.0028686523,-32.099915,-24.719238,67.67883,0,0.0,0.0,0.0,0.0
0.987792969,-0.90376794,0.0017404266,-0.42801934,-0.42775148,-0.03927851,0.90304255,-0.015240284,0.99922675,0.036243126,-0.85567594,0.01808018,-0.51719606,-0.51630586,-0.098017685,0.8507767,-0.035312165,0.99502045,0.09320627,-0.15194702,9.836899,0.30747986,-0.14945613,9.7990675,0.35542366,-0.0030670166,-0.006149292,0.008987427,-32.099915,-24.719238,67.67883,0,0.0,0.0,0.0,0.0
0.99609375,-0.90402615,0.0016952256,-0.42747366,-0.42720535,-0.039229825,0.90330315,-0.015238415,0.9992288,0.036189,-0.85567594,0.01808018,-0.51719606,-0.51630586,-0.098017685,0.8507767,-0.035312165,0.99502045,0.09320627,-0.15194702,9.836899,0.30747986,-0.1494378,9.799087,0.35489285,-0.0030670166,-0.006149292,0.008987427,-32.218933,-24.719238,68.03894,0,0.0,0.0,0.0,0.0
1.004394532,-0.9040247,0.0016847146,-0.42747682,-0.42720836,-0.03921502,0.90330243,-0.015241704,0.99922943,0.03617107,-0.8567277,0.017591817,-0.51546884,-0.5145833,-0.0968816,0.8519495,-0.034952104,0.99514043,0.09205361,-0.17108154,9.854843,0.32901,-0.14947006,9.799093,0.35471705,6.1035156E-4,-6.1035156E-5,0.0041046143,-32.218933,-24.719238,68.03894,0,0.0,0.0,0.0,0.0
1.012695313,-0.9053898,0.001615816,-0.42457813,-0.42430934,-0.039220493,0.9046673,-0.015190388,0.9992292,0.036195446,-0.85875887,0.016661566,-0.5121089,-0.511234,-0.0946708,0.8542115,-0.034249265,0.9953692,0.08981735,-0.13279724,9.8022,0.36610413,-0.14896682,9.799091,0.35495606,-0.0030670166,0.003616333,-0.0020141602,-31.97937,-24.778748,68.099976,0,0.0,0.0,0.0,0.0
1.020996094,-0.9053864,0.0015908252,-0.4245856,-0.42431477,-0.039298203,0.9046616,-0.015246293,0.9992263,0.036255073,-0.85977226,0.016215852,-0.5104201,-0.509551,-0.093596436,0.8553347,-0.033903524,0.99547815,0.088734426,-0.18424988,9.835693,0.3900299,-0.14951506,9.799063,0.3555408,-0.0030670166,0.0060577393,-7.9345703E-4,-31.97937,-24.778748,68.099976,0,0.0,0.0,0.0,0.0
1.029296875,-0.9063944,0.0015341407,-0.42242965,-0.4221579,-0.03933449,0.9056685,-0.015226632,0.9992249,0.036300212,-0.8617294,0.015365497,-0.5071355,-0.50627875,-0.091510065,0.85750085,-0.033232078,0.9956856,0.08663613,-0.13279724,9.821335,0.38285828,-0.14932226,9.799049,0.3559835,0.0018157959,-0.0110321045,0.0041046143,-31.91986,-24.899292,68.39905,0,0.0,0.0,0.0,0.0
1.037597657,-0.9063945,0.0015344573,-0.42242953,-0.4221578,-0.039335262,0.9056685,-0.015226666,0.99922484,0.036301047,-0.86364514,0.014564519,-0.5038898,-0.50304633,-0.089502156,0.85961246,-0.03257938,0.9958801,0.08462473,-0.16151428,9.848862,0.36131287,-0.14932258,9.799048,0.35599166,-0.006729126,-0.0025024414,0.0065460205,-31.91986,-24.899292,68.39905,0,0.0,0.0,0.0,0.0
1.045898438,-0.9066772,0.0015299709,-0.4218224,-0.42155066,-0.039354958,0.90595037,-0.015214725,0.99922407,0.036327202,-0.86547375,0.013814739,-0.5007637,-0.4999345,-0.087568186,0.8616249,-0.031947847,0.99606276,0.08269443,-0.16151428,9.848862,0.36131287,-0.14920549,9.799041,0.35624817,-0.0018463135,-0.0049438477,0.0041046143,-31.91986,-24.778748,68.51959,0,0.0,0.0,0.0,0.0
1.054199219,-0.9066793,0.0015453184,-0.42181784,-0.42154625,-0.03938319,0.9059513,-0.01521255,0.999223,0.036359347,-0.8663635,0.013457698,-0.49923256,-0.4984107,-0.086628295,0.862602,-0.03163903,0.9961498,0.08175906,-0.16749573,9.797409,0.35772705,-0.14918415,9.79903,0.35656342,-0.0018463135,0.0024108887,0.0065460205,-31.91986,-24.778748,68.51959,0,0.0,0.0,0.0,0.0
1.0625,-0.9066816,0.0015621025,-0.42181286,-0.4215421,-0.039370723,0.9059538,-0.015191883,0.9992235,0.0363552,-0.86808276,0.012779122,-0.49625495,-0.4954483,-0.084802285,0.864488,-0.031036155,0.99631584,0.0799468,-0.15074158,9.853638,0.35055542,-0.14898148,9.799035,0.35652274,0.0018157959,-0.007385254,-0.0020141602,-31.91986,-24.778748,68.51959,0,0.0,0.0,0.0,0.0
1.070800782,-0.90667725,0.001534151,-0.42182228,-0.42155102,-0.039335705,0.9059512,-0.015202811,0.9992249,0.03631151,-0.86891323,0.012456764,-0.49480778,-0.49400896,-0.08391459,0.865398,-0.030741533,0.9963951,0.07906825,-0.1603241,9.800995,0.33021545,-0.14908864,9.799048,0.35609427,6.1035156E-4,-0.0049438477,4.272461E-4,-31.91986,-24.719238,68.51959,0,0.0,0.0,0.0,0.0
1.079101563,-0.9066777,0.0015375018,-0.4218213,-0.42155,-0.039344657,0.90595114,-0.01520351,0.9992244,0.036321055,-0.87051773,0.011840057,-0.4919945,-0.4912114,-0.082187556,0.86715424,-0.030168673,0.99654657,0.0773617,-0.1531372,9.827316,0.35772705,-0.1490955,9.799045,0.35618788,-6.2561035E-4,0.0060577393,0.0028686523,-31.91986,-24.719238,68.51959,0,0.0,0.0,0.0,0.0
1.087402344,-0.9074172,0.0014780714,-0.42022842,-0.41995606,-0.039357625,0.9066906,-0.015199038,0.99922407,0.036334507,-0.8712929,0.011546485,-0.49062753,-0.48985237,-0.08134854,0.86800176,-0.029889466,0.9966188,0.07653448,-0.1531372,9.827316,0.35772705,-0.14905165,9.799041,0.35631981,6.1035156E-4,0.0024108887,-7.9345703E-4,-31.799316,-24.598694,68.5791,0,0.0,0.0,0.0,0.0
1.095703125,-0.9074153,0.0014636065,-0.42023268,-0.41996074,-0.039293826,0.9066912,-0.01518551,0.99922657,0.03627047,-0.87282485,0.010982238,-0.48790997,-0.48715052,-0.07971931,0.8696719,-0.029344907,0.99675685,0.074931,-0.14476013,9.841675,0.3146515,-0.14891899,9.799066,0.35569182,6.1035156E-4,0.003616333,0.0041046143,-31.799316,-24.598694,68.5791,0,0.0,0.0,0.0,0.0
1.104003907,-0.9074075,0.0014066072,-0.42024955,-0.41997722,-0.03918555,0.90668833,-0.015192354,0.999231,0.036148,-0.8742884,0.010451708,-0.48529428,-0.48455054,-0.078148544,0.8712654,-0.028818829,0.9968869,0.07338875,-0.15792847,9.824936,0.27876282,-0.1489861,9.7991085,0.3544908,-6.2561035E-4,-0.014709473,-0.0056762695,-31.799316,-24.598694,68.5791,0,0.0,0.0,0.0,0.0
1.112304688,-0.90665674,0.0014007849,-0.42186695,-0.42159456,-0.039092343,0.90594155,-0.015222737,0.9992347,0.036033895,-0.8749953,0.010196586,-0.4840239,-0.4832879,-0.07738411,0.87203467,-0.02856398,0.9969492,0.07263862,-0.15792847,9.824936,0.27876282,-0.14928405,9.799145,0.3533718,-0.0018463135,-0.00982666,-0.0032348633,-31.91986,-24.41864,68.51959,0,0.0,0.0,0.0,0.0
1.120605469,-0.90664536,0.0013166383,-0.42189163,-0.4216172,-0.039024893,0.9059338,-0.015271488,0.99923736,0.035936855,-0.8749953,0.010196586,-0.4840239,-0.4832879,-0.07738411,0.87203467,-0.02856398,0.9969492,0.07263862,-0.13519287,9.808182,0.35414124,-0.14976214,9.799171,0.35242015,-0.0018463135,-0.00982666,-0.0032348633,-31.91986,-24.41864,68.51959,0,0.0,0.0,0.0,0.0
1.12890625,-0.9066349,0.0012401423,-0.42191404,-0.42163783,-0.03895864,0.9059268,-0.01531372,0.99924,0.03584416,-0.875669,0.009945742,-0.48280942,-0.48208082,-0.07663134,0.872769,-0.028317995,0.9970099,0.07189834,-0.13519287,9.808182,0.35414124,-0.1501763,9.799197,0.35151112,-0.006729126,-0.007385254,4.272461E-4,-31.91986,-24.41864,68.51959,0,0.0,0.0,0.0,0.0
1.137207032,-0.90663654,0.0012511073,-0.42191085,-0.42163467,-0.03898472,0.9059275,-0.015314661,0.999239,0.035872474,-0.875669,0.009945742,-0.48280942,-0.48208082,-0.07663134,0.872769,-0.028317995,0.9970099,0.07189834,-0.13519287,9.808182,0.35414124,-0.15018553,9.799188,0.35178882,-0.006729126,-0.007385254,4.272461E-4,-31.91986,-24.41864,68.51959,0,0.0,0.0,0.0,0.0
1.145507813,-0.9059203,0.0013442487,-0.4234459,-0.42317045,-0.039076515,0.905207,-0.015329968,0.99923533,0.03596906,-0.87632716,0.009700201,-0.48161858,-0.48089725,-0.0758924,0.87348616,-0.0280782,0.9970688,0.07117138,-0.14955139,9.824936,0.37088013,-0.15033564,9.799151,0.352736,-0.012832642,-0.006149292,-0.0068969727,-31.97937,-24.299622,68.33954,0,0.0,0.0,0.0,0.0
1.153808594,-0.90592664,0.001390534,-0.4234324,-0.42315632,-0.039227787,0.9052071,-0.015351593,0.9992293,0.03612591,-0.877568,0.00923927,-0.47936314,-0.47865653,-0.07445948,0.87483925,-0.027610252,0.99718124,0.069765694,-0.15792847,9.7986145,0.39242554,-0.1505477,9.799092,0.35427415,-0.006729126,-0.013473511,0.001663208,-31.97937,-24.299622,68.33954,0,0.0,0.0,0.0,0.0
1.162109375,-0.90593344,0.0014411624,-0.42341757,-0.42314148,-0.039347343,0.9052088,-0.015355805,0.99922454,0.036255892,-0.8781679,0.009021432,-0.4782673,-0.4775681,-0.07376623,0.8754926,-0.02738178,0.99723476,0.06908749,-0.15792847,9.7986145,0.39242554,-0.150589,9.799046,0.35554886,-0.006729126,-0.008590698,0.001663208,-31.97937,-24.299622,68.33954,0,0.0,0.0,0.0,0.0
1.170410157,-0.90609854,0.0014929419,-0.42306393,-0.4227881,-0.039468072,0.90536857,-0.015345857,0.99921966,0.036393166,-0.8798903,0.008413211,-0.47510237,-0.47442514,-0.071771674,0.87736523,-0.026717432,0.9973856,0.06714264,-0.1603241,9.846466,0.4139557,-0.15049145,9.798998,0.35689503,-0.0018463135,0.004852295,0.0053100586,-31.91986,-24.35913,68.2785,0,0.0,0.0,0.0,0.0
1.178710938,-0.9061073,0.0015569517,-0.42304522,-0.4227709,-0.039525207,0.9053743,-0.015311323,0.99921733,0.03647231,-0.880443,0.008224752,-0.47408074,-0.47341082,-0.07113429,0.87796474,-0.026502352,0.9974328,0.066523366,-0.15194702,9.810577,0.38404846,-0.15015279,9.798975,0.35767117,-0.010391235,-0.008590698,0.0028686523,-31.91986,-24.35913,68.2785,0,0.0,0.0,0.0,0.0
1.187011719,-0.9053971,0.0016886292,-0.42456242,-0.42429072,-0.03958773,0.9046602,-0.015279829,0.99921465,0.036559086,-0.8809837,0.008044399,-0.47307825,-0.4724157,-0.070510484,0.87855095,-0.02628956,0.9974786,0.065918885,-0.15194702,9.810577,0.38404846,-0.14984393,9.798948,0.35852218,-0.006729126,-0.014709473,0.001663208,-31.97937,-24.479675,68.099976,0,0.0,0.0,0.0,0.0
1.1953125,-0.9053976,0.0016921535,-0.4245614,-0.42428976,-0.039594162,0.90466046,-0.015279328,0.9992144,0.03656642,-0.88149685,0.007874189,-0.47212434,-0.47146928,-0.06989946,0.879108,-0.026078975,0.99752295,0.06532859,-0.16270447,9.832108,0.3481598,-0.14983903,9.798946,0.3585941,0.005493164,-0.00982666,0.0053100586,-31.97937,-24.479675,68.099976,0,0.0,0.0,0.0,0.0
1.203608256,-0.9053983,0.0016975587,-0.4245598,-0.42428812,-0.039609183,0.9046606,-0.015280753,0.9992138,0.03658234,-0.88248944,0.007549187,-0.47027165,-0.4696312,-0.06871313,0.8801847,-0.025669158,0.9976079,0.06418394,-0.17228699,9.839279,0.38165283,-0.149853,9.798941,0.35875022,-0.007949829,-0.019592285,0.0028686523,-31.97937,-24.479675,68.099976,0,0.0,0.0,0.0,0.0
1.211909037,-0.90467566,0.0017972527,-0.426097,-0.42582706,-0.039651215,0.9039353,-0.015270663,0.99921197,0.036636807,-0.8829696,0.0073941033,-0.46937186,-0.46873865,-0.06813752,0.880705,-0.02546981,0.99764854,0.06362926,-0.17228699,9.839279,0.38165283,-0.14975405,9.798922,0.35928434,-0.0018463135,-0.0110321045,0.0053100586,-32.03888,-24.659729,67.91992,0,0.0,0.0,0.0,0.0
1.220209818,-0.9046801,0.0018289194,-0.4260876,-0.4258182,-0.039690275,0.9039378,-0.015258303,0.99921036,0.036685787,-0.8838674,0.007104271,-0.46768355,-0.4670646,-0.0670203,0.88167965,-0.025080597,0.9977263,0.06255521,-0.1651001,9.836899,0.3912201,-0.14963284,9.798906,0.35976467,0.005493164,-0.015945435,-0.0020141602,-32.03888,-24.659729,67.91992,0,0.0,0.0,0.0,0.0
1.228510599,-0.90498257,0.0018264493,-0.42544472,-0.42517564,-0.039704047,0.9042397,-0.01524033,0.9992099,0.036708035,-0.8847268,0.006833358,-0.4660598,-0.4654548,-0.06594795,0.8826113,-0.024704492,0.9977997,0.061526537,-0.15074158,9.829712,0.4008026,-0.14945659,9.798902,0.35998285,0.0030517578,-0.0049438477,0.0041046143,-31.97937,-24.41864,67.91992,0,0.0,0.0,0.0,0.0
1.236811381,-0.904986,0.0018515239,-0.42543733,-0.42516893,-0.039715722,0.9042422,-0.015222323,0.9992093,0.03672938,-0.8851493,0.006703658,-0.4652589,-0.4646606,-0.06542727,0.8830684,-0.024520831,0.9978348,0.061027832,-0.15074158,9.829712,0.4008026,-0.14928,9.798896,0.36019218,0.00793457,-0.012268066,0.0028686523,-31.97937,-24.41864,67.91992,0,0.0,0.0,0.0,0.0
1.245112162,-0.9060422,0.0017917776,-0.4231834,-0.42291424,-0.03974323,0.90529764,-0.015196587,0.9992083,0.036766816,-0.8859672,0.0064571397,-0.46370298,-0.46311802,-0.06441767,0.8839525,-0.024162859,0.99790215,0.060062356,-0.1531372,9.838089,0.42352295,-0.14902762,9.798886,0.3605593,0.010375977,-0.0025024414,0.0041046143,-31.799316,-24.41864,67.97943,0,0.0,0.0,0.0,0.0
1.253412943,-0.9060504,0.0018510916,-0.42316595,-0.42289838,-0.03978205,0.9053035,-0.015158608,0.99920666,0.03682736,-0.8867957,0.0062207924,-0.46211976,-0.4615476,-0.063448146,0.88484365,-0.023816215,0.99796575,0.059136737,-0.1531372,9.840485,0.45822144,-0.14865516,9.79887,0.36115304,0.011581421,-0.01838684,0.008987427,-31.799316,-24.41864,67.97943,0,0.0,0.0,0.0,0.0
1.261713724,-0.905315,0.0020069403,-0.42473602,-0.4244732,-0.039765142,0.9045668,-0.015074277,0.999207,0.03685187,-0.8879733,0.00589653,-0.45985714,-0.4593035,-0.062066063,0.88610834,-0.023316558,0.9980546,0.057821304,-0.17347717,9.828522,0.3864441,-0.14782816,9.798874,0.36139342,0.03968811,0.004852295,-0.0020141602,-31.91986,-24.659729,67.91992,0,0.0,0.0,0.0,0.0
1.270014506,-0.90531445,0.0020032772,-0.42473713,-0.4244752,-0.03969694,0.90456885,-0.015048661,0.99920976,0.036788557,-0.8879733,0.00589653,-0.45985714,-0.4593035,-0.062066063,0.88610834,-0.023316558,0.9980546,0.057821304,-0.17347717,9.828522,0.3864441,-0.14757696,9.798901,0.3607725,0.03968811,0.004852295,-0.0020141602,-31.91986,-24.659729,67.91992,0,0.0,0.0,0.0,0.0
1.278315287,-0.90531045,0.0019740586,-0.42474586,-0.42448375,-0.039634533,0.9045676,-0.015048933,0.99921227,0.036719516,-0.88833314,0.0057992223,-0.4591629,-0.45861548,-0.061621606,0.8864957,-0.02315337,0.99808276,0.05740013,-0.17347717,9.828522,0.3864441,-0.14757963,9.798925,0.36009544,0.03968811,0.003616333,-0.008132935,-31.91986,-24.659729,67.91992,0,0.0,0.0,0.0,0.0
1.286616068,-0.90529996,0.0018977943,-0.4247686,-0.42450526,-0.039530404,0.9045621,-0.0150746,0.99921656,0.036592495,-0.88833314,0.0057992223,-0.4591629,-0.45861548,-0.061621606,0.8864957,-0.02315337,0.99808276,0.05740013,-0.17347717,9.828522,0.3864441,-0.14783134,9.798967,0.3588498,0.03968811,0.003616333,-0.008132935,-31.91986,-24.659729,67.91992,0,0.0,0.0,0.0,0.0
1.294916849,-0.90499395,0.0017809789,-0.42542067,-0.42515546,-0.03933837,0.90426505,-0.015124878,0.99922436,0.036358178,-0.88868487,0.00570128,-0.45848292,-0.4579414,-0.061182406,0.8868745,-0.022994768,0.9981103,0.056982733,-0.17347717,9.828522,0.3864441,-0.14832439,9.799044,0.35655195,0.045776367,-0.0037078857,-0.0056762695,-31.91986,-24.719238,67.79938,0,0.0,0.0,0.0,0.0
1.303217631,-0.9049671,0.0015876269,-0.42547852,-0.42520985,-0.039102565,0.9042497,-0.0152016925,0.99923396,0.03606161,-0.88868487,0.00570128,-0.45848292,-0.4579414,-0.061182406,0.8868745,-0.022994768,0.9981103,0.056982733,-0.17347717,9.828522,0.3864441,-0.14907767,9.799137,0.3536436,0.045776367,-0.0037078857,-0.0056762695,-31.91986,-24.719238,67.79938,0,0.0,0.0,0.0,0.0
1.311518412,-0.90464085,0.0014268986,-0.42617252,-0.4259022,-0.038796186,0.9039371,-0.015244041,0.9992461,0.03570433,-0.88935196,0.0054943757,-0.45719022,-0.45665947,-0.060315084,0.8875947,-0.022698687,0.9981643,0.056150395,-0.16989136,9.82254,0.34934998,-0.14949298,9.799257,0.3501399,0.04333496,-0.0037078857,0.0041046143,-31.97937,-24.958801,67.79938,0,0.0,0.0,0.0,0.0
1.319819193,-0.90461475,0.0012421403,-0.42622826,-0.42595792,-0.038364716,0.9039292,-0.015229318,0.99926305,0.03523439,-0.8899769,0.0052888887,-0.4559749,-0.45545414,-0.05946882,0.8882708,-0.022418324,0.99821615,0.055334724,-0.16270447,9.820145,0.2679901,-0.1493486,9.799423,0.34553134,0.044570923,-0.012268066,0.0041046143,-31.97937,-24.958801,67.79938,0,0.0,0.0,0.0,0.0
1.328119974,-0.9042996,0.0010912755,-0.42689702,-0.42662752,-0.037926517,0.9036318,-0.015204606,0.99927986,0.0347625,-0.89027894,0.0051846066,-0.45538622,-0.45487022,-0.059050243,0.8885979,-0.022283636,0.99824154,0.05492951,-0.16270447,9.820145,0.2679901,-0.14910625,9.799588,0.3409037,0.045776367,-0.006149292,0.007751465,-31.97937,-24.778748,67.67883,0,0.0,0.0,0.0,0.0
1.336420756,-0.9042746,9.129509E-4,-0.42695048,-0.42668226,-0.037436973,0.90362644,-0.015158765,0.9992986,0.034242842,-0.89085054,0.0049752006,-0.4542693,-0.45376235,-0.05822126,0.8892188,-0.022024086,0.9982913,0.054123998,-0.15074158,9.840485,0.22492981,-0.14865671,9.799771,0.33580756,0.028701782,-6.1035156E-5,0.0041046143,-31.97937,-24.778748,67.67883,0,0.0,0.0,0.0,0.0
1.344721537,-0.90470374,7.346708E-4,-0.42604074,-0.42577264,-0.037071407,0.9040705,-0.015129734,0.99931234,0.033851437,-0.89139694,0.004766184,-0.45319846,-0.4527001,-0.05740572,0.889813,-0.021775171,0.99833953,0.053328935,-0.15672302,9.841675,0.26081848,-0.14837201,9.799907,0.3319692,0.02746582,-0.01838684,0.0041046143,-31.91986,-24.598694,67.73987,0,0.0,0.0,0.0,0.0
1.353022318,-0.9046881,6.2280725E-4,-0.42607406,-0.42580667,-0.03677155,0.9040666,-0.015104341,0.9993234,0.03353198,-0.8916706,0.004660434,-0.4526609,-0.45216662,-0.057003167,0.89011014,-0.021654803,0.99836314,0.05293534,-0.15672302,9.841675,0.26081848,-0.148123,9.800015,0.32883638,0.022583008,-0.01838684,0.0041046143,-31.91986,-24.598694,67.73987,0,0.0,0.0,0.0,0.0
1.361323099,-0.9046769,5.4272474E-4,-0.42609784,-0.42583248,-0.036460523,0.9040671,-0.015045092,0.99933493,0.033216104,-0.8922002,0.0044506933,-0.45161837,-0.45113203,-0.05620895,0.8906854,-0.021420827,0.9984091,0.052157484,-0.14237976,9.818954,0.24406433,-0.14754196,9.800128,0.32573873,0.022583008,-0.0012664795,0.008987427,-31.91986,-24.598694,67.73987,0,0.0,0.0,0.0,0.0
1.369623881,-0.9052793,4.2046115E-4,-0.4248166,-0.42455187,-0.03620507,0.9046793,-0.015000133,0.9993442,0.03295421,-0.8927072,0.0042477115,-0.45061725,-0.4501386,-0.05543421,0.8912364,-0.021193895,0.9984533,0.051398575,-0.15434265,9.839279,0.26200867,-0.14710106,9.80022,0.3231704,0.014038086,-0.006149292,0.0028686523,-31.799316,-24.35913,67.73987,0,0.0,0.0,0.0,0.0
1.377924662,-0.90527034,3.5542538E-4,-0.42483577,-0.42457208,-0.035992544,0.9046784,-0.014969376,0.999352,0.032733887,-0.8929655,0.004146657,-0.450106,-0.4496311,-0.05505298,0.89151615,-0.021082865,0.99847484,0.051024877,-0.15434265,9.839279,0.26200867,-0.14679945,9.800296,0.3210098,0.011581421,-6.1035156E-5,0.0065460205,-31.799316,-24.35913,67.73987,0,0.0,0.0,0.0,0.0
1.386225443,-0.9045077,3.9232642E-4,-0.42645696,-0.42619544,-0.035859108,0.90392005,-0.014937738,0.9993568,0.032602053,-0.8937075,0.0038546615,-0.4486335,-0.44816947,-0.05394129,0.8923196,-0.02076028,0.99853665,0.049935278,-0.13639832,9.814163,0.32063293,-0.14648917,9.800343,0.31971693,0.012817383,-0.007385254,0.001663208,-31.91986,-24.598694,67.67883,0,0.0,0.0,0.0,0.0
1.394526224,-0.9045026,3.553431E-4,-0.42646798,-0.42620704,-0.035739888,0.9039194,-0.014920717,0.9993611,0.03247827,-0.8939285,0.0037639944,-0.44819367,-0.44773325,-0.05358291,0.89256024,-0.020655928,0.9985563,0.049584556,-0.15792847,9.821335,0.29670715,-0.14632225,9.8003845,0.31850302,0.012817383,-0.0037078857,0.0041046143,-31.91986,-24.598694,67.67883,0,0.0,0.0,0.0,0.0
1.402827006,-0.904495,3.011159E-4,-0.42648408,-0.42622328,-0.035612725,0.9039167,-0.014916079,0.9993656,0.032339875,-0.89414483,0.003674731,-0.4477628,-0.44730592,-0.053228762,0.8927957,-0.020553075,0.99857557,0.04923795,-0.15792847,9.821335,0.29670715,-0.14627677,9.800429,0.31714585,0.016494751,-0.0037078857,4.272461E-4,-31.91986,-24.598694,67.67883,0,0.0,0.0,0.0,0.0
1.411127787,-0.9044837,2.1882752E-4,-0.4265083,-0.42624804,-0.035397593,0.9039135,-0.014899564,0.99937326,0.032109816,-0.8945635,0.0035005887,-0.44692716,-0.4464772,-0.052536853,0.89325136,-0.020353239,0.9986128,0.04856048,-0.14476013,9.821335,0.24287415,-0.14611481,9.800504,0.31488973,0.014038086,-6.1035156E-5,0.0028686523,-31.91986,-24.719238,67.67883,0,0.0,0.0,0.0,0.0
1.419428568,-0.9044709,1.2891919E-4,-0.42653516,-0.4262752,-0.03518195,0.903909,-0.014889808,0.9993809,0.03187601,-0.8945635,0.0035005887,-0.44692716,-0.4464772,-0.052536853,0.89325136,-0.020353239,0.9986128,0.04856048,-0.17347717,9.854843,0.19023132,-0.14601915,9.800579,0.3125969,0.014038086,-6.1035156E-5,0.0028686523,-31.91986,-24.719238,67.67883,0,0.0,0.0,0.0,0.0
1.427729349,-0.90445954,4.780163E-5,-0.4265594,-0.42629996,-0.034972146,0.9039056,-0.014874489,0.9993883,0.03165127,-0.89476585,0.0034117808,-0.44652256,-0.4460759,-0.05219327,0.89347196,-0.020257143,0.9986312,0.04822267,-0.17347717,9.854843,0.19023132,-0.1458689,9.800651,0.31039292,-0.005508423,-0.0037078857,-0.0032348633,-31.91986,-24.719238,67.67883,0,0.0,0.0,0.0,0.0
1.436030131,-0.9044397,-9.325241E-5,-0.42660153,-0.42634138,-0.034721017,0.90389574,-0.014896329,0.99939704,0.03136331,-0.89476585,0.0034117808,-0.44652256,-0.4460759,-0.05219327,0.89347196,-0.020257143,0.9986312,0.04822267,-0.17347717,9.854843,0.19023132,-0.14608309,9.800737,0.307569,-0.005508423,-0.0037078857,-0.0032348633,-31.91986,-24.719238,67.67883,0,0.0,0.0,0.0,0.0
1.444330912,-0.90489215,-2.6574565E-4,-0.42564073,-0.42537817,-0.034559213,0.9043555,-0.0149501385,0.9994026,0.031159323,-0.8949633,0.0033183733,-0.44612744,-0.44568384,-0.051846914,0.8936878,-0.020164741,0.99864954,0.04788003,-0.15194702,9.810577,0.20817566,-0.14661078,9.800792,0.30556858,-0.007949829,-0.0049438477,-0.0068969727,-31.799316,-24.778748,67.61932,0,0.0,0.0,0.0,0.0
1.452631693,-0.9048812,-3.4323247E-4,-0.42566398,-0.42539978,-0.034506302,0.90434736,-0.014998491,0.9994044,0.031078095,-0.8951661,0.0032223943,-0.44572103,-0.4452803,-0.051504426,0.8939086,-0.020076081,0.99866754,0.04753989,-0.15194702,9.810577,0.20817566,-0.14708497,9.80081,0.30477202,-0.012832642,-0.006149292,0.0028686523,-31.799316,-24.778748,67.61932,0,0.0,0.0,0.0,0.0
1.460932474,-0.9048696,-4.251506E-4,-0.42568853,-0.42542148,-0.034526255,0.90433645,-0.015081911,0.99940366,0.031060893,-0.8955586,0.0030343893,-0.44493327,-0.4444981,-0.0508388,0.89433604,-0.01990611,0.9987023,0.046877902,-0.19262695,9.838089,0.22253418,-0.14790303,9.800802,0.3046033,-0.015274048,-6.1035156E-5,0.001663208,-31.799316,-24.778748,67.61932,0,0.0,0.0,0.0,0.0
1.469233256,-0.9042608,-3.3278594E-4,-0.4269804,-0.42671376,-0.034642037,0.90372306,-0.015092217,0.9993998,0.031183433,-0.8959346,0.002852736,-0.4441769,-0.443747,-0.050199308,0.894745,-0.019744903,0.99873513,0.046241187,-0.15911865,9.809372,0.29910278,-0.14800408,9.800763,0.305805,-0.017715454,-0.0049438477,0.0065460205,-31.91986,-24.778748,67.61932,0,0.0,0.0,0.0,0.0
1.477534037,-0.9042707,-2.631024E-4,-0.42695954,-0.42669323,-0.034762107,0.9037282,-0.015079785,0.9993956,0.03132209,-0.8961039,0.0027688004,-0.4438357,-0.44340843,-0.049891233,0.89493006,-0.019665629,0.9987508,0.045935437,-0.15911865,9.809372,0.29910278,-0.14788218,9.800723,0.3071648,-0.025054932,0.004852295,0.001663208,-31.91986,-24.778748,67.61932,0,0.0,0.0,0.0,0.0
1.485834818,-0.9042695,-1.7715414E-4,-0.42696217,-0.4266963,-0.03491205,0.9037209,-0.0150662195,0.99939036,0.03149431,-0.8964328,0.0026124865,-0.4431719,-0.44275,-0.049297687,0.8952889,-0.01950842,0.9987807,0.045348745,-0.1758728,9.850052,0.30508423,-0.14774914,9.800672,0.30885366,-0.029953003,-0.012268066,0.001663208,-31.97937,-24.778748,67.73987,0,0.0,0.0,0.0,0.0
1.494135599,-0.9042789,-1.1114884E-4,-0.4269424,-0.4266754,-0.03512776,0.90372247,-0.015097975,0.99938285,0.031717863,-0.8965922,0.0025403108,-0.44284987,-0.4424307,-0.049011864,0.89546245,-0.019430144,0.998795,0.045067564,-0.1758728,9.850052,0.30508423,-0.14806056,9.800598,0.31104597,-0.026275635,-0.0012664795,4.272461E-4,-31.97937,-24.778748,67.73987,0,0.0,0.0,0.0,0.0
1.502436381,-0.90428674,-5.4633078E-5,-0.42692548,-0.42665714,-0.03533545,0.90372294,-0.015134978,0.9993756,0.031930074,-0.8967484,0.0024723117,-0.44253385,-0.4421174,-0.04873589,0.89563215,-0.019353,0.9988086,0.044796888,-0.1758728,9.850052,0.30508423,-0.14842343,9.800527,0.31312707,-0.026275635,0.0060577393,4.272461E-4,-31.97937,-24.778748,67.73987,0,0.0,0.0,0.0,0.0
1.510737162,-0.9047344,2.245103E-5,-0.4259763,-0.4257073,-0.035580672,0.90416116,-0.015136224,0.9993668,0.032200612,-0.89705163,0.002345624,-0.4419195,-0.44150832,-0.048208933,0.89596105,-0.019202882,0.9988345,0.044281512,-0.15553284,9.800995,0.35533142,-0.14843565,9.800441,0.31578013,-0.022613525,-6.1035156E-5,-0.008132935,-31.97937,-24.778748,67.91992,0,0.0,0.0,0.0,0.0
1.519037943,-0.9047437,8.9276364E-5,-0.42595634,-0.4256858,-0.035823986,0.9041615,-0.015178734,0.99935806,0.032449532,-0.8975108,0.002175449,-0.4409871,-0.44058365,-0.04747099,0.8964556,-0.018983899,0.99887025,0.043564193,-0.16270447,9.817749,0.3517456,-0.14885254,9.800355,0.3182212,-0.017715454,-0.0037078857,-0.008132935,-31.97937,-24.778748,67.91992,0,0.0,0.0,0.0,0.0
1.527338724,-0.90472966,1.1518772E-4,-0.4259862,-0.42571273,-0.03607145,0.90413916,-0.015261794,0.99934924,0.032683946,-0.8976578,0.002123821,-0.440688,-0.44028708,-0.04723911,0.89661354,-0.01891346,0.99888134,0.043339647,-0.13160706,9.8033905,0.36968994,-0.14966708,9.800268,0.32052004,-0.029953003,-0.006149292,-0.008132935,-32.03888,-24.958801,68.03894,0,0.0,0.0,0.0,0.0
1.535639506,-0.90474045,1.9170814E-4,-0.42596316,-0.4256883,-0.03632801,0.9041403,-0.015301066,0.9993399,0.03294903,-0.8978015,0.0020745113,-0.44039553,-0.43999705,-0.047016982,0.8967676,-0.018845715,0.99889195,0.043124694,-0.13160706,9.8033905,0.36968994,-0.1500522,9.800177,0.3231196,-0.029953003,0.003616333,-7.9345703E-4,-32.03888,-24.958801,68.03894,0,0.0,0.0,0.0,0.0
1.543940287,-0.9048936,2.3346845E-4,-0.42563793,-0.42536196,-0.036505163,0.90428686,-0.015326859,0.99933344,0.033132594,-0.8980804,0.0019841641,-0.43982694,-0.4394331,-0.046595626,0.897066,-0.018714085,0.99891186,0.042718522,-0.14117432,9.821335,0.3026886,-0.15030515,9.800114,0.32491976,-0.02017212,-0.0110321045,-0.0020141602,-32.03888,-25.019836,68.099976,0,0.0,0.0,0.0,0.0
1.552241068,-0.90490335,3.0313918E-4,-0.42561698,-0.42534107,-0.036653306,0.9042906,-0.015326144,0.999328,0.033296637,-0.8982187,0.0019419978,-0.43954465,-0.43915305,-0.046394672,0.8972135,-0.01865014,0.9989213,0.042525392,-0.14117432,9.821335,0.3026886,-0.15029813,9.80006,0.3265285,-0.02017212,-0.0037078857,4.272461E-4,-32.03888,-25.019836,68.099976,0,0.0,0.0,0.0,0.0
1.560541849,-0.9048789,3.1309787E-4,-0.42566887,-0.42539108,-0.036794335,0.90426135,-0.0153790815,0.99932283,0.03342761,-0.8986175,0.0018275067,-0.4387291,-0.4383442,-0.045823943,0.8976383,-0.018463857,0.99894786,0.041979272,-0.16749573,9.82373,0.33259583,-0.15081728,9.80001,0.32781288,-0.026275635,0.0060577393,-0.009338379,-32.099915,-25.019836,68.218994,0,0.0,0.0,0.0,0.0
1.568842631,-0.9048822,3.3600527E-4,-0.42566198,-0.42538244,-0.036958586,0.9042587,-0.015428029,0.99931675,0.033586096,-0.8986175,0.0018275067,-0.4387291,-0.4383442,-0.045823943,0.8976383,-0.018463857,0.99894786,0.041979272,-0.16749573,9.82373,0.33259583,-0.15129729,9.79995,0.3293671,-0.026275635,0.0060577393,-0.009338379,-32.099915,-25.019836,68.218994,0,0.0,0.0,0.0,0.0
1.577143412,-0.9048862,3.6454323E-4,-0.42565346,-0.42537192,-0.037150174,0.90425587,-0.0154834585,0.99930966,0.033771746,-0.8987446,0.001792328,-0.4384689,-0.4380861,-0.045647282,0.8977733,-0.01840581,0.998956,0.04181044,-0.15792847,9.821335,0.35055542,-0.15184087,9.79988,0.3311877,-0.026275635,0.003616333,-0.011779785,-32.099915,-25.019836,68.218994,0,0.0,0.0,0.0,0.0
1.585444193,-0.90488863,3.8178815E-4,-0.42564824,-0.42536408,-0.037354384,0.90425104,-0.015554596,0.99930197,0.033963956,-0.8987446,0.001792328,-0.4384689,-0.4380861,-0.045647282,0.8977733,-0.01840581,0.998956,0.04181044,-0.15792847,9.821335,0.35055542,-0.15253848,9.799805,0.33307263,-0.026275635,0.003616333,-0.011779785,-32.099915,-25.019836,68.218994,0,0.0,0.0,0.0,0.0
1.593744974,-0.9048903,3.940977E-4,-0.4256445,-0.4253571,-0.03758818,0.9042446,-0.015642844,0.9992932,0.034180816,-0.89886904,0.0017593936,-0.4382137,-0.43783286,-0.04548172,0.8979052,-0.018350946,0.9989636,0.041652434,-0.18664551,9.818954,0.36849976,-0.15340391,9.799719,0.33519933,-0.028717041,-0.00982666,4.272461E-4,-32.099915,-25.019836,68.218994,0,0.0,0.0,0.0,0.0
1.602045756,-0.90368223,5.224707E-4,-0.42820337,-0.427914,-0.03787882,0.9030253,-0.015748033,0.9992822,0.034453988,-0.89899117,0.0017277483,-0.4379633,-0.4375843,-0.04532503,0.89803433,-0.018299123,0.9989708,0.041502837,-0.18664551,9.818954,0.36849976,-0.15443546,9.799611,0.33787823,-0.031158447,-0.008590698,-0.0056762695,-32.339478,-24.899292,68.218994,0,0.0,0.0,0.0,0.0
1.610346537,-0.903699,6.4103806E-4,-0.42816803,-0.4278776,-0.038208593,0.9030288,-0.01578082,0.9992696,0.03480335,-0.899086,0.0017000894,-0.43776882,-0.43739155,-0.045176398,0.8981357,-0.018249907,0.9989776,0.04136107,-0.14237976,9.806976,0.42114258,-0.154757,9.799488,0.3413043,-0.023834229,-0.00982666,-0.013015747,-32.339478,-24.899292,68.218994,0,0.0,0.0,0.0,0.0
1.618647318,-0.90294206,8.0013863E-4,-0.42976147,-0.4294702,-0.038535733,0.9022584,-0.015839245,0.9992569,0.035139173,-0.8992705,0.0016526092,-0.43738985,-0.43701607,-0.044900615,0.8983323,-0.018154481,0.9989901,0.04110001,-0.1531372,9.820145,0.43669128,-0.15532994,9.799363,0.34459758,-0.02017212,0.0011749268,-0.0044555664,-32.51953,-24.719238,68.2785,0,0.0,0.0,0.0,0.0
1.626948099,-0.904444,7.775473E-4,-0.42659166,-0.4262973,-0.038833547,0.9037491,-0.01586336,0.99924535,0.035454236,-0.899417,0.00161496,-0.43708867,-0.43671823,-0.044648636,0.89848965,-0.018064389,0.99900144,0.040863026,-0.1531372,9.820145,0.43669128,-0.15556644,9.799251,0.34768733,-0.022613525,-0.0025024414,0.0065460205,-32.339478,-24.899292,68.51959,0,0.0,0.0,0.0,0.0
1.635248881,-0.90445626,8.6565176E-4,-0.42656544,-0.42627078,-0.03905186,0.90375215,-0.01587584,0.99923676,0.0356897,-0.89951867,0.0015963804,-0.43687952,-0.4365106,-0.04453264,0.89859635,-0.018020896,0.9990066,0.040754776,-0.17228699,9.814163,0.39601135,-0.1556888,9.799166,0.34999642,-0.010391235,-6.1035156E-5,-7.9345703E-4,-32.339478,-24.899292,68.51959,0,0.0,0.0,0.0,0.0
1.643549662,-0.90446556,9.3236077E-4,-0.4265456,-0.42625216,-0.0391284,0.90375775,-0.015847418,0.9992338,0.035787713,-0.8997162,0.0015646374,-0.4364726,-0.43610668,-0.04431677,0.898803,-0.017936753,0.9990163,0.040554862,-0.14356995,9.800995,0.3361969,-0.15541008,9.799136,0.35095757,-0.012832642,-0.0037078857,-7.9345703E-4,-32.339478,-24.899292,68.51959,0,0.0,0.0,0.0,0.0
1.651850443,-0.9044836,9.7323227E-4,-0.4265074,-0.42621413,-0.039211243,0.9037721,-0.015844304,0.99923044,0.035880726,-0.8998123,0.0015508367,-0.4362746,-0.43591022,-0.04421346,0.8989035,-0.017895157,0.9990209,0.040459838,-0.15434265,9.809372,0.34695435,-0.15537955,9.799104,0.35186973,-0.012832642,-0.0025024414,0.001663208,-32.27997,-24.659729,68.39905,0,0.0,0.0,0.0,0.0
1.660151224,-0.9044925,0.0010377393,-0.42648837,-0.42619687,-0.039243255,0.90377885,-0.015798904,0.99922913,0.035937507,-0.8999992,0.0015260577,-0.43588892,-0.4355274,-0.044016868,0.89909863,-0.017814388,0.99902964,0.040279783,-0.12802124,9.8033905,0.324234,-0.15493432,9.79909,0.35242656,-0.0140686035,-0.007385254,4.272461E-4,-32.27997,-24.659729,68.39905,0,0.0,0.0,0.0,0.0
1.668452006,-0.90449274,0.001039729,-0.42648777,-0.42619607,-0.039260764,0.9037784,-0.01580455,0.9992284,0.035954203,-0.90017897,0.00150519,-0.43551743,-0.43515885,-0.04382716,0.8992863,-0.017733896,0.999038,0.040107287,-0.16989136,9.850052,0.29431152,-0.15498969,9.799084,0.3525903,-0.0140686035,-0.0037078857,0.0053100586,-32.27997,-24.659729,68.39905,0,0.0,0.0,0.0,0.0
1.676752787,-0.90436554,0.0011559847,-0.42675713,-0.42646885,-0.03929784,0.90364814,-0.015726032,0.99922687,0.036032606,-0.90035164,0.0014854128,-0.43516064,-0.43480474,-0.04364718,0.8994664,-0.017657455,0.9990459,0.039943673,-0.12083435,9.811768,0.31704712,-0.15421969,9.799068,0.35335916,-0.0140686035,-0.008590698,0.0041046143,-32.27997,-24.659729,68.33954,0,0.0,0.0,0.0,0.0
1.685053568,-0.9043728,0.0012078946,-0.42674178,-0.42645377,-0.03939919,0.90365094,-0.015721764,0.9992228,0.036146663,-0.90043265,0.0014784246,-0.43499294,-0.43463853,-0.043560073,0.8995509,-0.017618407,0.9990497,0.039865494,-0.1758728,9.832108,0.34576416,-0.15417784,9.799028,0.35447767,-0.011627197,-0.0049438477,0.0028686523,-32.27997,-24.659729,68.33954,0,0.0,0.0,0.0,0.0
1.693354349,-0.903023,0.0013872065,-0.42959,-0.42930427,-0.039521977,0.9022948,-0.015726577,0.99921775,0.036284786,-0.9005902,0.0014671787,-0.43466678,-0.43431515,-0.043395054,0.8997151,-0.017542345,0.99905694,0.039718375,-0.17228699,9.814163,0.3756714,-0.15422504,9.798979,0.35583222,-0.011627197,-6.1035156E-5,0.0041046143,-32.51953,-24.598694,68.2785,0,0.0,0.0,0.0,0.0
1.701655131,-0.90302986,0.0014367263,-0.42957544,-0.42928937,-0.039659005,0.9022959,-0.01574018,0.9992122,0.036430035,-0.90068686,0.0014642159,-0.43446624,-0.43411735,-0.043241788,0.8998179,-0.01746957,0.99906355,0.039582953,-0.17228699,9.814163,0.3756714,-0.15435845,9.798924,0.35725662,-0.02017212,-0.008590698,4.272461E-4,-32.51953,-24.598694,68.2785,0,0.0,0.0,0.0,0.0
1.709955912,-0.9030396,0.0015070138,-0.4295547,-0.42926854,-0.039829083,0.90229833,-0.015748994,0.9992054,0.03661415,-0.90068686,0.0014642159,-0.43446624,-0.43411735,-0.043241788,0.8998179,-0.01746957,0.99906355,0.039582953,-0.17228699,9.814163,0.3756714,-0.15444487,9.798858,0.35906217,-0.02017212,-0.008590698,4.272461E-4,-32.51953,-24.598694,68.2785,0,0.0,0.0,0.0,0.0
1.718256693,-0.9030477,0.0015734308,-0.4295374,-0.42925084,-0.040009424,0.9022987,-0.01576584,0.9991981,0.036805816,-0.90078056,0.0014664162,-0.43427208,-0.43392584,-0.043106224,0.8999168,-0.017400175,0.9990694,0.03946556,-0.16870117,9.869202,0.38883972,-0.15461008,9.798786,0.36094177,-0.02017212,0.0011749268,-0.0044555664,-32.51953,-24.479675,68.2785,0,0.0,0.0,0.0,0.0
1.726557474,-0.9030553,0.0016288311,-0.42952114,-0.4292338,-0.040190533,0.9022987,-0.015792992,0.9991907,0.03699342,-0.90082616,0.0014689019,-0.43417758,-0.43383256,-0.043044884,0.89996475,-0.017367164,0.9990721,0.039413214,-0.14476013,9.839279,0.3864441,-0.15487635,9.798714,0.36278155,-0.0140686035,-0.0012664795,0.001663208,-32.51953,-24.479675,68.2785,0,0.0,0.0,0.0,0.0
1.734858256,-0.90306157,0.0016742272,-0.42950788,-0.42921922,-0.04038032,0.9022972,-0.015833016,0.99918294,0.037184525,-0.90082616,0.0014689019,-0.43417758,-0.43383256,-0.043044884,0.89996475,-0.017367164,0.9990721,0.039413214,-0.14476013,9.839279,0.3864441,-0.15526885,9.798637,0.36465564,-0.0140686035,-0.0012664795,0.001663208,-32.51953,-24.479675,68.2785,0,0.0,0.0,0.0,0.0
1.743159037,-0.9030689,0.0017281091,-0.42949206,-0.42920265,-0.040555764,0.90229714,-0.015859112,0.9991758,0.037366364,-0.90087116,0.0014733756,-0.43408418,-0.43374038,-0.042991344,0.9000117,-0.017335806,0.99907434,0.039368723,-0.16390991,9.832108,0.39361572,-0.15552476,9.798567,0.36643884,-0.0140686035,0.0060577393,-0.0032348633,-32.51953,-24.479675,68.2785,0,0.0,0.0,0.0,0.0
1.751459818,-0.90189064,0.0018904167,-0.4319603,-0.43167272,-0.040688496,0.90111214,-0.015872339,0.99917006,0.03751261,-0.90091527,0.0014788841,-0.43399253,-0.4336499,-0.04294301,0.90005755,-0.017305864,0.9990764,0.03932933,-0.16390991,9.832108,0.39361572,-0.15565448,9.7985115,0.36787307,-0.010391235,0.009735107,0.001663208,-32.63855,-24.479675,68.03894,0,0.0,0.0,0.0,0.0
1.759760599,-0.901902,0.0019729321,-0.4319361,-0.4316486,-0.040878538,0.90111506,-0.01587908,0.9991622,0.03772005,-0.900954,0.0014962242,-0.43391213,-0.4335718,-0.042854223,0.9000995,-0.017248217,0.99908024,0.0392584,-0.16749573,9.8033905,0.43190002,-0.15572056,9.798433,0.36990732,-0.011627197,0.0024108887,-7.9345703E-4,-32.63855,-24.479675,68.03894,0,0.0,0.0,0.0,0.0
1.768061381,-0.9019128,0.0020510866,-0.4319132,-0.43162665,-0.04100725,0.90111977,-0.015863298,0.9991568,0.03787027,-0.9009915,0.0015160859,-0.43383408,-0.43349594,-0.042775583,0.9001397,-0.017192816,0.9990836,0.039197654,-0.14596558,9.800995,0.4055786,-0.15556581,9.798381,0.37138048,-0.0018463135,-0.006149292,-0.0032348633,-32.63855,-24.479675,68.03894,0,0.0,0.0,0.0,0.0
1.776362162,-0.90252864,0.0020443518,-0.43062505,-0.43033764,-0.041118417,0.901731,-0.015863163,0.9991522,0.03799031,-0.90101,0.0015272709,-0.4337958,-0.43345878,-0.042739674,0.9001594,-0.017165503,0.99908507,0.039170876,-0.14476013,9.830917,0.43070984,-0.1555645,9.798336,0.37255767,-0.0018463135,-0.007385254,-7.9345703E-4,-32.51953,-24.719238,68.03894,0,0.0,0.0,0.0,0.0
1.784662943,-0.9025294,0.0020505018,-0.43062323,-0.4303356,-0.041145846,0.90173066,-0.015869359,0.99915105,0.038017746,-0.9010703,0.0015486076,-0.43367043,-0.4333354,-0.042675618,0.90022177,-0.017113063,0.99908775,0.039124798,-0.15434265,9.820145,0.3912201,-0.15562525,9.798326,0.37282676,0.005493164,-0.006149292,-7.9345703E-4,-32.51953,-24.719238,68.03894,0,0.0,0.0,0.0,0.0
1.792963724,-0.90267813,0.0020265037,-0.43031165,-0.43002334,-0.041147564,0.90187955,-0.015878612,0.999151,0.03801445,-0.90109956,0.001559071,-0.43360943,-0.4332754,-0.042645805,0.9002521,-0.017088065,0.99908906,0.03910362,-0.15434265,9.820145,0.3912201,-0.15571599,9.798325,0.3727944,0.005493164,0.0011749268,-0.0032348633,-32.51953,-24.899292,68.099976,0,0.0,0.0,0.0,0.0
1.801264506,-0.9026715,0.0019795254,-0.43032566,-0.43003613,-0.04111104,0.90187514,-0.01590585,0.9991526,0.037961036,-0.90116245,0.001578274,-0.43347868,-0.4331465,-0.04258622,0.9003169,-0.017039271,0.99909157,0.039060727,-0.15672302,9.811768,0.37806702,-0.15598312,9.798341,0.3722706,0.009140015,0.009735107,-0.0044555664,-32.51953,-24.899292,68.099976,0,0.0,0.0,0.0,0.0
1.809565287,-0.90266234,0.0019141247,-0.43034518,-0.430054,-0.04105711,0.901869,-0.01594244,0.9991549,0.037883885,-0.90122247,0.0015947534,-0.43335375,-0.43302336,-0.04252732,0.9003788,-0.016993493,0.999094,0.039017145,-0.16870117,9.830917,0.38046265,-0.15634194,9.798364,0.37151402,0.015258789,-0.0110321045,0.0028686523,-32.51953,-24.899292,68.099976,0,0.0,0.0,0.0,0.0
1.817866068,-0.9022029,0.0018951462,-0.43130767,-0.4310168,-0.040944196,0.9014146,-0.015951235,0.9991597,0.037756816,-0.90127987,0.0016079018,-0.43323442,-0.4329056,-0.042469382,0.90043825,-0.01695138,0.99909645,0.038972866,-0.16870117,9.830917,0.35653687,-0.15642817,9.798409,0.37026787,0.010375977,-0.0025024414,-0.0020141602,-32.57904,-24.899292,68.03894,0,0.0,0.0,0.0,0.0
1.826166849,-0.90220034,0.0018771938,-0.43131307,-0.4310234,-0.040824488,0.9014167,-0.015916001,0.9991645,0.037640985,-0.90129846,0.0016139087,-0.43319577,-0.4328678,-0.042439356,0.9004579,-0.016931292,0.99909776,0.038949132,-0.13519287,9.785446,0.35653687,-0.15608266,9.798457,0.36913198,0.010375977,-0.006149292,-7.9345703E-4,-32.57904,-24.899292,68.03894,0,0.0,0.0,0.0,0.0
1.834467631,-0.90293634,0.0017803671,-0.42977068,-0.42948025,-0.04072711,0.9021574,-0.015897144,0.9991687,0.037538618,-0.90133417,0.0016247996,-0.43312123,-0.43279484,-0.042374816,0.900496,-0.016890308,0.99910045,0.038897075,-0.14955139,9.845276,0.36131287,-0.15589772,9.798498,0.3681281,0.009140015,-0.006149292,4.272461E-4,-32.51953,-25.019836,68.218994,0,0.0,0.0,0.0,0.0
1.842768412,-0.9029284,0.0017240738,-0.42978752,-0.42949668,-0.040620103,0.90215445,-0.015902635,0.99917316,0.03741753,-0.9013979,0.0016313324,-0.4329888,-0.43266386,-0.04231044,0.900562,-0.01685083,0.9991032,0.03884436,-0.1651001,9.824936,0.3397827,-0.15595157,9.798542,0.36694065,0.0030517578,-0.006149292,-0.0032348633,-32.51953,-25.019836,68.218994,0,0.0,0.0,0.0,0.0
1.851069193,-0.9029289,0.0017109327,-0.42978653,-0.42949542,-0.040604718,0.90215564,-0.015907833,0.99917376,0.03739801,-0.9014285,0.0016333107,-0.43292487,-0.4326006,-0.042276394,0.90059394,-0.01683155,0.9991046,0.03881572,-0.14955139,9.833298,0.3864441,-0.15600257,9.798548,0.3667492,0.0030517578,-0.0012664795,-7.9345703E-4,-32.51953,-25.2594,68.218994,0,0.0,0.0,0.0,0.0
1.859369974,-0.90292066,0.0016530623,-0.4298041,-0.4295116,-0.040556066,0.9021502,-0.015939852,0.9991759,0.037328918,-0.9014881,0.001636592,-0.43280065,-0.43247777,-0.042209756,0.90065604,-0.016794404,0.9991074,0.038759388,-0.17108154,9.791428,0.35772705,-0.15631655,9.798569,0.36607164,0.014038086,-0.0025024414,4.272461E-4,-32.51953,-25.2594,68.218994,0,0.0,0.0,0.0,0.0
1.867670756,-0.9028005,0.0015957912,-0.43005672,-0.42976344,-0.04045931,0.90203464,-0.015960338,0.9991799,0.037212495,-0.90157264,0.001637774,-0.43262467,-0.43230364,-0.042113163,0.9007442,-0.016743978,0.99911153,0.038676094,-0.14237976,9.84407,0.29670715,-0.15651745,9.798608,0.3649299,0.00793457,-0.006149292,0.0041046143,-32.398987,-25.318909,67.91992,0,0.0,0.0,0.0,0.0
1.875971537,-0.90279007,0.0015233314,-0.43007874,-0.4297862,-0.040240686,0.9020335,-0.01593257,0.99918884,0.0369836,-0.90157264,0.001637774,-0.43262467,-0.43230364,-0.042113163,0.9007442,-0.016743978,0.99911153,0.038676094,-0.14237976,9.84407,0.29670715,-0.15624514,9.798696,0.36268526,0.00793457,-0.006149292,0.0041046143,-32.398987,-25.318909,67.91992,0,0.0,0.0,0.0,0.0
1.884272318,-0.9027791,0.0014466231,-0.4301021,-0.42981046,-0.04000699,0.90203243,-0.01590219,0.9991984,0.03673925,-0.90159714,0.0016354156,-0.43257368,-0.43225324,-0.042075,0.9007701,-0.016727403,0.99911314,0.03864161,-0.14237976,9.84407,0.29670715,-0.15594721,9.798789,0.36028895,0.0018157959,-0.020828247,-0.0020141602,-32.398987,-25.318909,67.91992,0,0.0,0.0,0.0,0.0
1.892573099,-0.9027695,0.0013798623,-0.43012244,-0.42983186,-0.03978403,0.902032,-0.015867323,0.9992073,0.036508918,-0.90159714,0.0016354156,-0.43257368,-0.43225324,-0.042075,0.9007701,-0.016727403,0.99911314,0.03864161,-0.16390991,9.82254,0.2679901,-0.15560529,9.798877,0.3580302,0.0018157959,-0.020828247,-0.0020141602,-32.398987,-25.318909,67.91992,0,0.0,0.0,0.0,0.0
1.900873881,-0.9027582,0.0012915323,-0.43014652,-0.42985559,-0.039602444,0.9020287,-0.015869854,0.99921465,0.0363066,-0.9016205,0.0016300997,-0.4325248,-0.43220496,-0.0420286,0.90079546,-0.016710026,0.99911505,0.03859839,-0.16390991,9.82254,0.2679901,-0.15563011,9.798949,0.35604617,0.0018157959,-0.015945435,4.272461E-4,-32.398987,-25.498962,67.91992,0,0.0,0.0,0.0,0.0
1.909174662,-0.90274996,0.0012348146,-0.4301639,-0.42987293,-0.03947478,0.902026,-0.01586679,0.9992198,0.03616667,-0.90164334,0.0016230649,-0.4324773,-0.43215805,-0.041980837,0.9008202,-0.01669367,0.9991171,0.038553163,-0.15434265,9.808182,0.27397156,-0.15560006,9.798999,0.3546739,0.0066986084,-0.015945435,4.272461E-4,-32.398987,-25.498962,67.91992,0,0.0,0.0,0.0,0.0
1.917475443,-0.90511507,9.6310896E-4,-0.42516562,-0.424871,-0.039340507,0.90439874,-0.015855197,0.99922544,0.03601688,-0.9016655,0.0016149587,-0.4324312,-0.4321125,-0.04193121,0.90084434,-0.016677536,0.9991192,0.038505767,-0.15434265,9.808182,0.27397156,-0.15548638,9.799054,0.35320497,0.0066986084,-0.0049438477,0.0028686523,-32.099915,-25.379944,68.2785,0,0.0,0.0,0.0,0.0
1.925776224,-0.90511066,9.326625E-4,-0.4251749,-0.42488062,-0.03924526,0.90439814,-0.015842602,0.99922913,0.035917576,-0.90180314,0.0015877229,-0.43214417,-0.43182644,-0.04182772,0.9009863,-0.016645089,0.9991236,0.03840599,-0.16270447,9.818954,0.2979126,-0.15536286,9.79909,0.35223112,-0.005508423,-0.0025024414,0.0065460205,-32.099915,-25.379944,68.2785,0,0.0,0.0,0.0,0.0
1.934077006,-0.90436655,9.831124E-4,-0.42675558,-0.4264617,-0.039256614,0.9036533,-0.015864583,0.9992286,0.035921626,-0.901935,0.001560375,-0.431869,-0.43155217,-0.041725054,0.9011225,-0.016613668,0.9991279,0.03830667,-0.19621277,9.86322,0.3254242,-0.15557842,9.799086,0.3522708,-0.007949829,-0.007385254,4.272461E-4,-32.218933,-25.318909,68.218994,0,0.0,0.0,0.0,0.0
1.942377787,-0.90436375,9.647568E-4,-0.42676106,-0.42646572,-0.039309002,0.9036491,-0.015903754,0.9992267,0.035961084,-0.90198386,0.0015482261,-0.43176696,-0.43145055,-0.041675568,0.9011735,-0.016598914,0.99913,0.03825867,-0.19621277,9.86322,0.3254242,-0.15596256,9.799067,0.35265777,-0.012832642,-0.012268066,-0.0032348633,-32.218933,-25.318909,68.218994,0,0.0,0.0,0.0,0.0
1.950678568,-0.90511423,9.692054E-4,-0.42516723,-0.42487276,-0.039345514,0.90439755,-0.015851878,0.9992252,0.03602398,-0.90207845,0.0015239986,-0.43156922,-0.4312536,-0.041582186,0.90127194,-0.016572054,0.99913394,0.038167626,-0.1268158,9.8022,0.3409729,-0.15545382,9.799051,0.35327452,-0.009185791,0.0060577393,-0.008132935,-32.099915,-25.079346,68.2785,0,0.0,0.0,0.0,0.0
1.958979349,-0.90511584,9.800188E-4,-0.42516404,-0.42486846,-0.0394373,0.9043957,-0.015880996,0.99922156,0.0361117,-0.9021996,0.0015010092,-0.43131617,-0.4310014,-0.04149387,0.9013968,-0.016543971,0.99913764,0.03808269,-0.1651001,9.836899,0.35772705,-0.15573938,9.799017,0.35413486,-0.011627197,0.003616333,-0.0056762695,-32.099915,-25.079346,68.2785,0,0.0,0.0,0.0,0.0
1.967280131,-0.9051128,9.589845E-4,-0.42517033,-0.424872,-0.039562233,0.9043885,-0.015953394,0.9992167,0.03621573,-0.9022583,0.0014901275,-0.43119335,-0.4308789,-0.041452665,0.90145713,-0.016530829,0.99913937,0.038043078,-0.1651001,9.836899,0.35772705,-0.15644935,9.798968,0.355155,-0.01651001,0.004852295,-0.009338379,-32.099915,-25.079346,68.2785,0,0.0,0.0,0.0,0.0
1.975580912,-0.90468574,9.780898E-4,-0.42607832,-0.42577755,-0.039713763,0.90395594,-0.016037023,0.99921066,0.036344923,-0.90237224,0.001468203,-0.430955,-0.43064117,-0.041376937,0.90157425,-0.016507903,0.9991425,0.037969667,-0.17228699,9.851257,0.37208557,-0.15726948,9.798909,0.35642195,-0.012832642,-0.0025024414,-0.0044555664,-32.099915,-24.958801,68.099976,0,0.0,0.0,0.0,0.0
1.983881693,-0.9046893,0.0010034879,-0.42607066,-0.42576787,-0.039895806,0.9039524,-0.01609133,0.9992033,0.036520563,-0.90246433,0.0014481244,-0.4307622,-0.4304489,-0.041311618,0.9016691,-0.016489755,0.99914527,0.037905604,-0.16390991,9.805786,0.39959717,-0.15780205,9.798838,0.3581444,-0.011627197,-0.0012664795,4.272461E-4,-32.099915,-24.958801,68.099976,0,0.0,0.0,0.0,0.0
1.992182474,-0.90394986,0.0011351114,-0.427637,-0.4273352,-0.040056452,0.9032055,-0.016104383,0.9991968,0.0366941,-0.9025091,0.0014389493,-0.4306685,-0.43035543,-0.041283213,0.90171504,-0.016481858,0.99914646,0.037877735,-0.16390991,9.805786,0.39959717,-0.15793006,9.798774,0.3598462,-0.015274048,-0.0012664795,0.0053100586,-32.218933,-24.958801,68.03894,0,0.0,0.0,0.0,0.0
2.000483256,-0.90395635,0.0011819238,-0.4276229,-0.42732036,-0.040207002,0.9032057,-0.016125917,0.9991907,0.03685044,-0.90253794,0.0014327031,-0.43060797,-0.4302951,-0.041258287,0.90174484,-0.016474213,0.9991475,0.03785365,-0.17347717,9.840485,0.3912201,-0.15814123,9.798714,0.36137938,-0.0140686035,-0.0012664795,4.272461E-4,-32.218933,-24.958801,68.03894,0,0.0,0.0,0.0,0.0
2.008784037,-0.9039528,0.001155963,-0.42763075,-0.42732668,-0.04024358,0.90320116,-0.016165325,0.99918926,0.03687227,-0.90259415,0.001422567,-0.43049017,-0.43017772,-0.041216567,0.9018028,-0.016460452,0.9991492,0.037813786,-0.1758728,9.8033905,0.29670715,-0.15852769,9.798699,0.36159346,-0.01651001,-0.0025024414,0.0028686523,-32.218933,-24.958801,68.03894,0,0.0,0.0,0.0,0.0
2.017084818,-0.90397936,0.001145152,-0.42757455,-0.42726958,-0.040275734,0.90322673,-0.016186545,0.99918795,0.03689772,-0.9026213,0.0014171416,-0.43043312,-0.43012083,-0.041197564,0.90183085,-0.016454773,0.99915004,0.037795343,-0.1758728,9.8033905,0.29670715,-0.15873578,9.798687,0.36184302,-0.011627197,-6.1035156E-5,-7.9345703E-4,-32.099915,-24.778748,67.79938,0,0.0,0.0,0.0,0.0
2.025385599,-0.9039804,0.0011519628,-0.42757246,-0.42726725,-0.040309355,0.90322644,-0.016194688,0.99918664,0.03693106,-0.9026213,0.0014171416,-0.43043312,-0.43012083,-0.041197564,0.90183085,-0.016454773,0.99915004,0.037795343,-0.1483612,9.833298,0.33140564,-0.15881564,9.798674,0.36216998,-0.011627197,-6.1035156E-5,-7.9345703E-4,-32.099915,-24.778748,67.79938,0,0.0,0.0,0.0,0.0
2.033686381,-0.90397966,0.0011474267,-0.42757383,-0.42726797,-0.04033597,0.90322477,-0.016210223,0.9991855,0.03695316,-0.9026486,0.0014117158,-0.43037587,-0.43006372,-0.041179277,0.90185887,-0.0164494,0.99915075,0.037777547,-0.1483612,9.833298,0.33140564,-0.15896797,9.798662,0.36238667,-0.028717041,0.0011749268,0.0028686523,-32.099915,-24.778748,67.79938,0,0.0,0.0,0.0,0.0
2.041987162,-0.9039865,0.0011960637,-0.4275593,-0.42725414,-0.040404655,0.90322834,-0.016195066,0.9991827,0.03703629,-0.9026486,0.0014117158,-0.43037587,-0.43006372,-0.041179277,0.90185887,-0.0164494,0.99915075,0.037777547,-0.15672302,9.839279,0.29670715,-0.15881935,9.798635,0.3632019,-0.028717041,0.0011749268,0.0028686523,-32.099915,-24.778748,67.79938,0,0.0,0.0,0.0,0.0
2.050287943,-0.9050263,0.0011908645,-0.4253539,-0.4250477,-0.04057315,0.9042612,-0.016181095,0.99917585,0.03722594,-0.9026755,0.0014073545,-0.4303196,-0.43000764,-0.041164413,0.90188634,-0.01644458,0.9991514,0.03776328,-0.15553284,9.806976,0.34336853,-0.15868233,9.798568,0.36506176,-0.04093933,-0.0012664795,0.0028686523,-32.03888,-24.719238,68.099976,0,0.0,0.0,0.0,0.0
2.058588724,-0.9050443,0.0013208017,-0.4253152,-0.42501006,-0.040808342,0.90426826,-0.016162049,0.9991661,0.03749471,-0.9027228,0.0014029576,-0.43022054,-0.42990863,-0.041152168,0.9019341,-0.016439132,0.9991519,0.037752144,-0.15553284,9.806976,0.34336853,-0.15849556,9.798472,0.3676975,-0.034835815,-0.0012664795,-0.0020141602,-32.03888,-24.719238,68.099976,0,0.0,0.0,0.0,0.0
2.066889506,-0.90506005,0.0014348654,-0.42528126,-0.42497608,-0.04107818,0.904272,-0.016172271,0.9991549,0.037788007,-0.9028601,0.0013980819,-0.42993224,-0.42962074,-0.041131835,0.90207225,-0.01642273,0.9991528,0.037736937,-0.15434265,9.806976,0.41993713,-0.15859582,9.798363,0.37057376,-0.038497925,-0.0110321045,0.0041046143,-32.03888,-24.719238,68.099976,0,0.0,0.0,0.0,0.0
2.075190287,-0.90477484,0.0016259317,-0.4258872,-0.4255835,-0.04140383,0.90397155,-0.016163563,0.9991412,0.038153112,-0.9029044,0.0013987862,-0.42983916,-0.4295278,-0.041130025,0.9021165,-0.016417427,0.99915284,0.037737295,-0.15434265,9.806976,0.41993713,-0.15851042,9.798228,0.37415424,-0.04093933,0.003616333,0.0053100586,-32.099915,-24.778748,68.099976,0,0.0,0.0,0.0,0.0
2.083491068,-0.90479976,0.0018058233,-0.4258335,-0.42553166,-0.04171524,0.9039815,-0.016131314,0.99912786,0.03851237,-0.90294194,0.0014032891,-0.42976025,-0.42944905,-0.041135114,0.9021538,-0.016412254,0.9991526,0.03774526,-0.15434265,9.806976,0.41993713,-0.15819415,9.798098,0.37767735,-0.025054932,-0.0025024414,4.272461E-4,-32.099915,-24.778748,68.099976,0,0.0,0.0,0.0,0.0
2.091791849,-0.90346277,0.0020721536,-0.42866147,-0.42836267,-0.042005125,0.90263,-0.016135592,0.9991152,0.038837705,-0.9030159,0.0014190146,-0.42960477,-0.42929393,-0.041158054,0.90222657,-0.016401423,0.99915165,0.03777555,-0.15911865,9.838089,0.4390869,-0.1582361,9.797974,0.38086778,-0.029953003,-0.0049438477,-0.0056762695,-32.339478,-25.019836,68.03894,0,0.0,0.0,0.0,0.0
2.100092631,-0.90347713,0.0021738862,-0.42863086,-0.42833042,-0.042352654,0.9026291,-0.01619144,0.9991003,0.039195795,-0.90302485,0.0014318221,-0.42958596,-0.42927533,-0.04117489,0.9022347,-0.016396316,0.99915093,0.037796594,-0.16989136,9.84407,0.47138977,-0.1587838,9.797828,0.38437945,-0.03239441,-0.0049438477,-0.008132935,-32.339478,-25.019836,68.03894,0,0.0,0.0,0.0,0.0
2.108393412,-0.9034917,0.0022778376,-0.4285995,-0.42829728,-0.04271667,0.9026276,-0.016252307,0.9990846,0.03956975,-0.9030339,0.0014462766,-0.42956686,-0.42925638,-0.04119858,0.90224254,-0.016392652,0.9991499,0.037824538,-0.16989136,9.84407,0.47138977,-0.15938069,9.797673,0.3880467,-0.027496338,-0.0049438477,-0.0020141602,-32.339478,-25.019836,68.03894,0,0.0,0.0,0.0,0.0
2.116694193,-0.90426505,0.0023350276,-0.42696512,-0.4266621,-0.043004826,0.903388,-0.016252127,0.99907213,0.03988403,-0.9030521,0.0014781788,-0.4295286,-0.42921835,-0.04126002,0.90225786,-0.016388658,0.99914736,0.037894405,-0.15792847,9.830917,0.47257996,-0.15937892,9.797551,0.39112875,-0.009185791,-0.015945435,0.007751465,-32.218933,-24.899292,68.099976,0,0.0,0.0,0.0,0.0
2.124994974,-0.9042788,0.0024333266,-0.42693567,-0.426635,-0.04310248,0.90339625,-0.016203728,0.99906766,0.040014796,-0.9031234,0.0015267791,-0.42937827,-0.42906836,-0.041363012,0.9023244,-0.016382731,0.999143,0.038011,-0.1531372,9.7986145,0.4055786,-0.15890428,9.797507,0.3924111,-0.018951416,-0.0049438477,0.015090942,-32.218933,-24.899292,68.099976,0,0.0,0.0,0.0,0.0
2.133295756,-0.90325195,0.0026413987,-0.42910254,-0.42880705,-0.043166973,0.90236425,-0.016139552,0.9990644,0.0401233,-0.90314656,0.0015442537,-0.42932957,-0.42901975,-0.04139836,0.9023459,-0.01638009,0.9991415,0.038051303,-0.16270447,9.827316,0.41993713,-0.15827495,9.797475,0.39347517,-0.015274048,-0.015945435,0.0028686523,-32.339478,-25.019836,67.91992,0,0.0,0.0,0.0,0.0
2.141596537,-0.90326697,0.0027487546,-0.42907014,-0.42877713,-0.043283883,0.9023728,-0.016091421,0.999059,0.040275507,-0.90314865,0.0015653688,-0.4293251,-0.4290155,-0.041434277,0.9023464,-0.01637627,0.99914,0.03809288,-0.16270447,9.827316,0.41993713,-0.15780294,9.797422,0.39496782,-0.012832642,-0.014709473,-0.0056762695,-32.339478,-25.019836,67.91992,0,0.0,0.0,0.0,0.0
2.149897318,-0.90265036,0.0028854464,-0.43036494,-0.43007326,-0.04346275,0.9017471,-0.016102899,0.99905086,0.04047262,-0.9031534,0.001610398,-0.42931488,-0.42900583,-0.041508365,0.9023475,-0.01636702,0.99913687,0.03817929,-0.16390991,9.828522,0.45942688,-0.1579155,9.797342,0.39690083,-0.009185791,-0.0110321045,-0.0068969727,-32.51953,-25.019836,68.03894,0,0.0,0.0,0.0,0.0
2.158198099,-0.9026533,0.0029065167,-0.4303586,-0.43006498,-0.04363524,0.90174276,-0.016157871,0.9990433,0.04063749,-0.9031434,0.0016348213,-0.42933598,-0.42902714,-0.041547697,0.9023356,-0.016362764,0.9991352,0.038224913,-0.16390991,9.828522,0.45942688,-0.1584546,9.797268,0.39851764,-0.006729126,-0.0110321045,-0.0068969727,-32.51953,-25.019836,68.03894,0,0.0,0.0,0.0,0.0
2.166498881,-0.9035746,0.0028628947,-0.4284213,-0.42812452,-0.043841243,0.9026557,-0.016198315,0.9990344,0.04083951,-0.9031053,0.0017294406,-0.42941567,-0.42910776,-0.041711476,0.90228975,-0.016351106,0.9991282,0.03841197,-0.15434265,9.804596,0.4558258,-0.1588512,9.797181,0.40049878,0.010375977,0.003616333,0.001663208,-32.339478,-25.079346,68.03894,0,0.0,0.0,0.0,0.0
2.174799662,-0.90358347,0.0029262793,-0.42840216,-0.42810476,-0.044040088,0.90265536,-0.016225446,0.99902546,0.04104665,-0.9031053,0.0017294406,-0.42941567,-0.42910776,-0.041711476,0.90228975,-0.016351106,0.9991282,0.03841197,-0.15434265,9.804596,0.4558258,-0.15911728,9.797093,0.40253013,0.010375977,0.003616333,0.001663208,-32.339478,-25.079346,68.03894,0,0.0,0.0,0.0,0.0
2.183100443,-0.90359557,0.0030131044,-0.4283759,-0.4280791,-0.044228114,0.9026584,-0.016226456,0.99901694,0.041254178,-0.9031148,0.0017522123,-0.4293956,-0.42908776,-0.041757967,0.90229696,-0.016349671,0.9991262,0.03846409,-0.15434265,9.804596,0.4558258,-0.15912718,9.797009,0.4045653,0.017700195,-0.0110321045,-0.0020141602,-32.339478,-25.079346,68.03894,0,0.0,0.0,0.0,0.0
2.191401224,-0.90360963,0.003113009,-0.42834574,-0.42805058,-0.044380233,0.9026644,-0.016200079,0.9990098,0.041434925,-0.9031148,0.0017522123,-0.4293956,-0.42908776,-0.041757967,0.90229696,-0.016349671,0.9991262,0.03846409,-0.15434265,9.804596,0.4558258,-0.1588685,9.79694,0.40633783,0.017700195,-0.0110321045,-0.0020141602,-32.339478,-25.079346,68.03894,0,0.0,0.0,0.0,0.0
2.199702006,-0.9031267,0.003197748,-0.42936224,-0.42906925,-0.04439926,0.9021798,-0.016178424,0.9990088,0.041470215,-0.90312463,0.0017779958,-0.42937475,-0.42906708,-0.041811477,0.90230435,-0.016348502,0.99912393,0.038523857,-0.15434265,9.804596,0.4558258,-0.15865614,9.796929,0.4066839,0.015258789,-0.0110321045,0.0028686523,-32.57904,-25.19989,68.33954,0,0.0,0.0,0.0,0.0
2.208002787,-0.9031244,0.0031812242,-0.42936724,-0.42907435,-0.04434949,0.9021797,-0.016172182,0.999011,0.041418087,-0.90312463,0.0017779958,-0.42937475,-0.42906708,-0.041811477,0.90230435,-0.016348502,0.99912393,0.038523857,-0.15434265,9.804596,0.4558258,-0.15859494,9.796951,0.4061727,0.015258789,-0.0110321045,0.0028686523,-32.57904,-25.19989,68.33954,0,0.0,0.0,0.0,0.0
2.216303568,-0.90296626,0.003137938,-0.4296999,-0.42940623,-0.044265628,0.90202594,-0.016190436,0.99901485,0.041317824,-0.9031247,0.0018307355,-0.4293747,-0.4290674,-0.0419134,0.90229964,-0.01634468,0.9991196,0.038638532,-0.1758728,9.858429,0.44148254,-0.15877394,9.796989,0.40518945,0.026260376,-0.006149292,-0.0020141602,-32.57904,-25.019836,68.2785,0,0.0,0.0,0.0,0.0
2.224604349,-0.9029512,0.0030299453,-0.42973226,-0.42943698,-0.044089563,0.90201986,-0.016213639,0.99902296,0.0411119,-0.90311843,0.0018800132,-0.42938757,-0.42908064,-0.042006835,0.90228885,-0.016340896,0.9991155,0.03874382,-0.1651001,9.841675,0.36012268,-0.15900148,9.797069,0.40317002,0.026260376,0.0011749268,4.272461E-4,-32.57904,-25.019836,68.2785,0,0.0,0.0,0.0,0.0
2.232905131,-0.90263116,0.0029312852,-0.43040502,-0.430109,-0.043842442,0.9017118,-0.016226832,0.99903417,0.040834323,-0.90311503,0.0019020534,-0.42939454,-0.42908773,-0.04204948,0.90228355,-0.016339624,0.99911374,0.038791664,-0.1651001,9.841675,0.36012268,-0.15913087,9.797179,0.40044796,0.026260376,-0.0049438477,4.272461E-4,-32.63855,-24.958801,68.2785,0,0.0,0.0,0.0,0.0
2.241205912,-0.902607,0.0027587009,-0.43045658,-0.43015808,-0.043561,0.9017019,-0.016263595,0.999047,0.04050515,-0.9030957,0.0019413086,-0.42943493,-0.42912847,-0.042120416,0.9022608,-0.016336411,0.99911064,0.03887184,-0.17468262,9.7986145,0.3146515,-0.15949139,9.797304,0.3972198,0.017700195,-0.006149292,0.001663208,-32.63855,-24.958801,68.2785,0,0.0,0.0,0.0,0.0
2.249506693,-0.90215844,0.0027138244,-0.43139607,-0.4310985,-0.043335587,0.9012635,-0.016248934,0.9990569,0.0402655,-0.90307635,0.001972739,-0.42947543,-0.4291692,-0.042178098,0.9022387,-0.016334575,0.99910814,0.038936682,-0.14237976,9.815353,0.3517456,-0.15934761,9.797401,0.3948697,0.014038086,-6.1035156E-5,0.0053100586,-32.63855,-24.719238,68.099976,0,0.0,0.0,0.0,0.0
2.257807474,-0.9021529,0.0026725843,-0.43140838,-0.4311122,-0.043147884,0.9012662,-0.016205644,0.99906516,0.040078167,-0.90305805,0.0019872217,-0.42951396,-0.42920786,-0.04220186,0.9022193,-0.016333379,0.9991071,0.03896366,-0.14237976,9.815353,0.3517456,-0.15892309,9.7974825,0.39303255,0.0018157959,-0.00982666,-0.0020141602,-32.63855,-24.719238,68.099976,0,0.0,0.0,0.0,0.0
2.266108256,-0.9021438,0.0026072576,-0.4314277,-0.4311313,-0.042997364,0.90126413,-0.016200425,0.9990718,0.039913874,-0.90302217,0.0020138335,-0.4295892,-0.42928347,-0.042239707,0.9021815,-0.016328879,0.99910545,0.0390079,-0.15911865,9.836899,0.3254242,-0.1588719,9.797547,0.3914214,-6.2561035E-4,-0.007385254,0.001663208,-32.63855,-24.719238,68.099976,0,0.0,0.0,0.0,0.0
2.274409037,-0.9016797,0.0026249844,-0.43239677,-0.43210182,-0.042893868,0.90080416,-0.016182572,0.9990761,0.039810784,-0.9029875,0.0020369685,-0.42966217,-0.42935678,-0.04227008,0.9021452,-0.016324213,0.99910414,0.039043937,-0.14596558,9.830917,0.33380127,-0.15869682,9.79759,0.39041042,0.0030517578,0.0011749268,0.001663208,-32.699585,-24.659729,68.03894,0,0.0,0.0,0.0,0.0
2.282709818,-0.9016783,0.0026153787,-0.43239957,-0.43210587,-0.042791057,0.9008071,-0.016146885,0.9990806,0.03971389,-0.9029614,0.002048573,-0.42971694,-0.42941177,-0.042282756,0.9021185,-0.016321559,0.9991036,0.039059374,-0.14596558,9.830917,0.33380127,-0.15834686,9.797634,0.3894602,6.1035156E-4,-0.01838684,0.0041046143,-32.699585,-24.659729,68.03894,0,0.0,0.0,0.0,0.0
2.291010599,-0.9027322,0.0025598158,-0.4301952,-0.4299025,-0.042727396,0.9018637,-0.016072521,0.99908346,0.03967187,-0.90291065,0.002070765,-0.42982313,-0.42951834,-0.042303015,0.9020667,-0.016314846,0.99910265,0.039085276,-0.1268158,9.824936,0.37327576,-0.15761758,9.797662,0.3890482,0.0030517578,-0.0037078857,0.0041046143,-32.57904,-24.479675,68.218994,0,0.0,0.0,0.0,0.0
2.299311381,-0.9027331,0.0025655953,-0.4301936,-0.4299019,-0.04267812,0.9018664,-0.016046027,0.99908555,0.0396299,-0.90290713,0.0020804934,-0.4298307,-0.42952618,-0.042312317,0.9020626,-0.016310398,0.9991023,0.03909772,-0.1651001,9.783051,0.37088013,-0.15735777,9.797683,0.38863656,0.0018157959,0.0011749268,0.001663208,-32.57904,-24.479675,68.218994,0,0.0,0.0,0.0,0.0
2.307612162,-0.90273225,0.0025598782,-0.43019524,-0.4299039,-0.042641647,0.90186715,-0.016035564,0.99908715,0.039594494,-0.9029037,0.0020900823,-0.42983788,-0.4295336,-0.04231912,0.9020587,-0.016304983,0.99910194,0.039107848,-0.1651001,9.783051,0.37088013,-0.15725517,9.797698,0.38828936,-0.005508423,-0.00982666,-0.0044555664,-32.57904,-24.479675,68.218994,0,0.0,0.0,0.0,0.0
2.315912943,-0.9033568,0.002471015,-0.4288828,-0.42858902,-0.042651348,0.9024922,-0.016062357,0.9990869,0.03958843,-0.9029003,0.0020994279,-0.429845,-0.42954102,-0.04232605,0.9020549,-0.016299842,0.99910164,0.039117992,-0.17347717,9.841675,0.38046265,-0.15751791,9.797696,0.38822988,0.0018157959,-0.015945435,-7.9345703E-4,-32.398987,-24.659729,68.099976,0,0.0,0.0,0.0,0.0
2.324213724,-0.9033518,0.002435455,-0.42889333,-0.4285981,-0.042654004,0.90248775,-0.016096052,0.9990869,0.03957541,-0.9029094,0.0021068107,-0.42982575,-0.42952192,-0.04233272,0.90206367,-0.016295215,0.99910134,0.039127532,-0.15434265,9.805786,0.36968994,-0.15784836,9.797696,0.3881022,0.004257202,0.0024108887,-0.0032348633,-32.398987,-24.659729,68.099976,0,0.0,0.0,0.0,0.0
2.332514506,-0.90334594,0.0023925717,-0.42890605,-0.4286094,-0.042636782,0.90248334,-0.016127918,0.9990878,0.03954124,-0.9029183,0.002113336,-0.42980707,-0.4295034,-0.04233919,0.90207213,-0.016291302,0.99910104,0.039136514,-0.15434265,9.805786,0.36968994,-0.15816085,9.797705,0.38776714,-6.2561035E-4,-0.0025024414,-0.0056762695,-32.398987,-24.659729,68.099976,0,0.0,0.0,0.0,0.0
2.340815287,-0.9033387,0.0023394797,-0.4289218,-0.42862335,-0.04261677,0.9024777,-0.016167933,0.99908876,0.03950013,-0.9029183,0.002113336,-0.42980707,-0.4295034,-0.04233919,0.90207213,-0.016291302,0.99910104,0.039136514,-0.15434265,9.805786,0.36968994,-0.15855327,9.797714,0.38736394,-6.2561035E-4,-0.0025024414,-0.0056762695,-32.398987,-24.659729,68.099976,0,0.0,0.0,0.0,0.0
2.349116068,-0.9033337,0.0023045088,-0.42893213,-0.42863256,-0.0426005,0.902474,-0.016192965,0.99908954,0.03947026,-0.9029183,0.002113336,-0.42980707,-0.4295034,-0.04233919,0.90207213,-0.016291302,0.99910104,0.039136514,-0.15434265,9.805786,0.36968994,-0.15879875,9.797722,0.387071,-6.2561035E-4,-0.0025024414,-0.0056762695,-32.398987,-24.659729,68.099976,0,0.0,0.0,0.0,0.0
2.357416849,-0.9021158,0.0024363485,-0.4314871,-0.43118966,-0.04263922,0.9012532,-0.016202506,0.9990875,0.039516043,-0.90293473,0.0021208916,-0.4297725,-0.42946893,-0.042350024,0.90208805,-0.016287643,0.99910057,0.039150164,-0.1531372,9.836899,0.39840698,-0.1588923,9.797702,0.38752002,-0.0018463135,0.0011749268,0.0028686523,-32.63855,-24.41864,68.099976,0,0.0,0.0,0.0,0.0
2.365717631,-0.90211767,0.0024497719,-0.43148318,-0.4311872,-0.042582646,0.9012571,-0.01616582,0.99908996,0.03947087,-0.90291846,0.0021271773,-0.42980674,-0.42950335,-0.042356268,0.9020715,-0.016286142,0.9991003,0.039157882,-0.1531372,9.828522,0.33140564,-0.15853254,9.797726,0.387077,-0.005508423,-0.006149292,0.010192871,-32.63855,-24.41864,68.099976,0,0.0,0.0,0.0,0.0
2.374018412,-0.9021214,0.0024777362,-0.43147492,-0.4311815,-0.04249525,0.9012639,-0.016102543,0.99909365,0.039404236,-0.9028868,0.002139823,-0.42987305,-0.42957,-0.042364098,0.90203935,-0.016280979,0.99909997,0.03916919,-0.1531372,9.835693,0.31704712,-0.15791202,9.797762,0.38642356,6.1035156E-4,-0.006149292,0.0041046143,-32.63855,-24.41864,68.099976,0,0.0,0.0,0.0,0.0
2.382319193,-0.90257794,0.002428411,-0.4305198,-0.4302268,-0.04240039,0.9017246,-0.016064448,0.9990977,0.039314423,-0.9028565,0.0021531286,-0.42993653,-0.42963383,-0.042368673,0.90200865,-0.016273698,0.99909973,0.039177887,-0.14955139,9.826126,0.31825256,-0.15753843,9.797802,0.38554278,-0.0018463135,0.0060577393,-0.0020141602,-32.51953,-24.41864,68.03894,0,0.0,0.0,0.0,0.0
2.390619974,-0.90256953,0.002367518,-0.43053764,-0.43024358,-0.04231841,0.9017204,-0.016084831,0.9991014,0.03921392,-0.902851,0.0021586255,-0.42994824,-0.42964575,-0.042369224,0.902003,-0.016269486,0.9990997,0.039180536,-0.16151428,9.833298,0.3134613,-0.1577383,9.797837,0.38455716,-0.005508423,0.0011749268,-0.0044555664,-32.51953,-24.41864,68.03894,0,0.0,0.0,0.0,0.0
2.398920756,-0.90256584,0.0023403338,-0.43054566,-0.43025115,-0.04227924,0.9017186,-0.016092818,0.99910307,0.039166722,-0.9028453,0.002162824,-0.42996004,-0.42965773,-0.042368535,0.9019973,-0.016265916,0.99909973,0.039181508,-0.16151428,9.833298,0.30389404,-0.15781663,9.797854,0.38409436,-0.011627197,-0.0049438477,0.0041046143,-32.51953,-24.41864,68.03894,0,0.0,0.0,0.0,0.0
2.407221537,-0.9025612,0.0023064981,-0.43055555,-0.43025902,-0.042322144,0.90171283,-0.016142232,0.99910134,0.03919071,-0.90283424,0.0021698494,-0.42998314,-0.4296811,-0.042364713,0.9019863,-0.016258938,0.99909985,0.03918066,-0.17945862,9.836899,0.30389404,-0.15830123,9.797837,0.3843296,-0.027496338,0.0060577393,-0.0056762695,-32.51953,-24.41864,68.03894,0,0.0,0.0,0.0,0.0
2.415522318,-0.90256256,0.00231683,-0.43055254,-0.43025425,-0.04245773,0.9017088,-0.016191177,0.99909556,0.039317586,-0.90282875,0.0021726026,-0.4299947,-0.42969278,-0.042364094,0.90198076,-0.016256692,0.99909985,0.039181076,-0.14955139,9.832108,0.3361969,-0.15878122,9.797781,0.3855738,-0.027496338,0.0060577393,-0.010574341,-32.51953,-24.41864,68.03894,0,0.0,0.0,0.0,0.0
2.423823099,-0.9036147,0.0022572032,-0.4283403,-0.42803782,-0.04269759,0.9027517,-0.016251402,0.9990855,0.039548337,-0.9028184,0.002178289,-0.43001664,-0.42971486,-0.042367745,0.9019702,-0.016254082,0.99909973,0.039186418,-0.16151428,9.84288,0.39601135,-0.15937182,9.797682,0.3878367,-0.023834229,0.004852295,0.0028686523,-32.398987,-24.479675,68.218994,0,0.0,0.0,0.0,0.0
2.432123881,-0.90407175,0.0022997814,-0.42737457,-0.4270717,-0.04288348,0.90320027,-0.016250147,0.9990774,0.039751913,-0.90284985,0.0021813968,-0.4299504,-0.42964858,-0.042380698,0.90200114,-0.016253976,0.99909914,0.03920064,-0.14715576,9.7986145,0.39242554,-0.1593595,9.797603,0.38983312,-0.023834229,0.0084991455,-0.009338379,-32.339478,-24.659729,68.2785,0,0.0,0.0,0.0,0.0
2.440424662,-0.90408313,0.002383187,-0.42734987,-0.42704687,-0.043097343,0.9032018,-0.016265145,0.999068,0.039981317,-0.9028743,0.002183777,-0.42989904,-0.42959723,-0.04239131,0.9020251,-0.016254162,0.9990987,0.03921217,-0.1531372,9.841675,0.42712402,-0.1595066,9.797511,0.3920828,-0.018951416,0.0084991455,-0.0068969727,-32.339478,-24.659729,68.2785,0,0.0,0.0,0.0,0.0
2.448725443,-0.90409154,0.0024441076,-0.42733184,-0.42702812,-0.043289524,0.9032014,-0.01629147,0.9990595,0.040181395,-0.90292233,0.0021915296,-0.42979813,-0.42949626,-0.04241858,0.9020719,-0.016254507,0.9990975,0.039241936,-0.14596558,9.808182,0.4175415,-0.15976474,9.797427,0.39404488,-0.021392822,-0.0012664795,4.272461E-4,-32.339478,-24.659729,68.2785,0,0.0,0.0,0.0,0.0
2.457026224,-0.9040921,0.0025421584,-0.42733023,-0.42702767,-0.0434645,0.9031934,-0.016277632,0.99905175,0.04038148,-0.9029458,0.0021964903,-0.4297488,-0.42944688,-0.042435855,0.9020946,-0.016255315,0.99909675,0.039260555,-0.14596558,9.850052,0.42233276,-0.15962905,9.797351,0.39600706,-0.021392822,0.0011749268,0.001663208,-32.398987,-24.659729,68.39905,0,0.0,0.0,0.0,0.0
2.465327006,-0.90410835,0.0026610882,-0.427295,-0.42699438,-0.0436422,0.9032005,-0.016244598,0.99904364,0.040593546,-0.90299135,0.0022099516,-0.42965305,-0.42935103,-0.042477377,0.9021382,-0.016256852,0.99909496,0.03930555,-0.14117432,9.850052,0.42233276,-0.1593051,9.797272,0.3980867,-0.021392822,0.003616333,-7.9345703E-4,-32.398987,-24.659729,68.39905,0,0.0,0.0,0.0,0.0
2.473627787,-0.90380275,0.0027956378,-0.4279404,-0.42764112,-0.043856762,0.9028842,-0.016243938,0.9990339,0.040833384,-0.90305716,0.0022359504,-0.42951447,-0.4292125,-0.042546973,0.9022009,-0.016257266,0.999092,0.039382048,-0.1603241,9.810577,0.44506836,-0.15929863,9.797176,0.4004387,-0.009185791,-0.013473511,0.007751465,-32.51953,-24.659729,68.51959,0,0.0,0.0,0.0,0.0
2.481928568,-0.90381664,0.0028984533,-0.42791003,-0.42761177,-0.04405527,0.9028883,-0.01623471,0.99902487,0.0410573,-0.90305716,0.0022359504,-0.42951447,-0.4292125,-0.042546973,0.9022009,-0.016257266,0.999092,0.039382048,-0.1603241,9.810577,0.44506836,-0.15920813,9.797088,0.4026346,-0.009185791,-0.013473511,0.007751465,-32.51953,-24.659729,68.51959,0,0.0,0.0,0.0,0.0
2.490229349,-0.90383184,0.0030098686,-0.4278771,-0.4275806,-0.04423291,0.9028943,-0.01620866,0.9990167,0.04126608,-0.90305716,0.0022359504,-0.42951447,-0.4292125,-0.042546973,0.9022009,-0.016257266,0.999092,0.039382048,-0.16270447,9.835693,0.46180725,-0.15895265,9.797008,0.404682,-0.009185791,-0.013473511,0.007751465,-32.51953,-24.659729,68.51959,0,0.0,0.0,0.0,0.0
2.498530131,-0.90384686,0.0031193807,-0.42784482,-0.42755073,-0.04436441,0.90290207,-0.016164588,0.9990105,0.041432325,-0.90305716,0.0022359504,-0.42951447,-0.4292125,-0.042546973,0.9022009,-0.016257266,0.999092,0.039382048,-0.16270447,9.835693,0.46180725,-0.15852046,9.796947,0.40631232,-0.009185791,-0.013473511,0.007751465,-32.51953,-24.659729,68.51959,0,0.0,0.0,0.0,0.0
2.506830912,-0.9040001,0.003215594,-0.4275201,-0.42722926,-0.044429157,0.90305096,-0.016090512,0.9990073,0.04153776,-0.903073,0.0022529548,-0.42948112,-0.42917928,-0.042583052,0.90221494,-0.016255967,0.9990904,0.039422527,-0.1483612,9.833298,0.4247284,-0.15779403,9.796915,0.4073463,-0.010391235,-0.012268066,0.0065460205,-32.51953,-24.479675,68.5791,0,0.0,0.0,0.0,0.0
2.515131693,-0.9040063,0.0033394538,-0.42750603,-0.42721868,-0.044534434,0.9030508,-0.016023044,0.9990022,0.041686088,-0.9031098,0.0022897029,-0.42940354,-0.42910203,-0.042656712,0.9022482,-0.016251063,0.99908715,0.039506212,-0.1483612,9.835693,0.45822144,-0.15713239,9.796865,0.4088009,-0.009185791,-0.007385254,0.0065460205,-32.57904,-24.598694,68.699646,0,0.0,0.0,0.0,0.0
2.523432474,-0.904021,0.0034479273,-0.42747417,-0.42719027,-0.044604592,0.9030608,-0.01595362,0.9989987,0.041796405,-0.9031454,0.00232976,-0.42932862,-0.42902756,-0.042731956,0.9022801,-0.016243955,0.9990839,0.039592694,-0.13519287,9.84288,0.43190002,-0.15645158,9.796831,0.40988272,-0.012832642,-0.0025024414,0.001663208,-32.57904,-24.598694,68.699646,0,0.0,0.0,0.0,0.0
2.531733256,-0.9040343,0.0035468054,-0.42744505,-0.42716384,-0.044696786,0.90306866,-0.015902411,0.99899423,0.0419225,-0.90317994,0.0023723855,-0.42925555,-0.42895502,-0.042806305,0.902311,-0.016234215,0.9990806,0.039679445,-0.13519287,9.84288,0.43190002,-0.15594938,9.796787,0.41111928,6.1035156E-4,-0.0037078857,0.0041046143,-32.57904,-24.598694,68.699646,0,0.0,0.0,0.0,0.0
2.540034037,-0.904023,0.0036015694,-0.4274688,-0.42718852,-0.0447844,0.90305287,-0.015891526,0.9989902,0.042024672,-0.9031971,0.0023949433,-0.42921934,-0.42891914,-0.042843934,0.9023264,-0.016228424,0.9990789,0.039723758,-0.16270447,9.828522,0.43669128,-0.15584263,9.796747,0.41212127,-0.006729126,-0.0037078857,0.0041046143,-32.63855,-24.479675,68.818665,0,0.0,0.0,0.0,0.0
2.548334818,-0.9040297,0.0036523528,-0.42745394,-0.4271741,-0.044891495,0.9030543,-0.015890775,0.99898523,0.042143438,-0.90322995,0.0024408463,-0.42914996,-0.42885038,-0.042920798,0.9023554,-0.016216947,0.9990755,0.039814107,-0.16870117,9.840485,0.46899414,-0.15583527,9.796699,0.41328594,-0.0030670166,-0.012268066,0.001663208,-32.63855,-24.479675,68.818665,0,0.0,0.0,0.0,0.0
2.556635599,-0.90446514,0.0036700224,-0.42653182,-0.42625257,-0.04496182,0.9034861,-0.015861833,0.9989819,0.04223075,-0.903246,0.0024641426,-0.42911598,-0.42881668,-0.042961095,0.9023694,-0.016211726,0.9990737,0.039861105,-0.13877869,9.818954,0.45703125,-0.15555145,9.796666,0.41414222,0.0030517578,-0.00982666,-0.0020141602,-32.63855,-24.598694,68.99872,0,0.0,0.0,0.0,0.0
2.564936381,-0.90446806,0.0036923469,-0.42652532,-0.42624658,-0.044988558,0.90348756,-0.01585277,0.99898064,0.042264566,-0.9032945,0.0025100408,-0.42901355,-0.4287149,-0.043041475,0.9024139,-0.016200282,0.9990701,0.03995522,-0.15792847,9.839279,0.44506836,-0.15546256,9.796654,0.41447383,0.0018157959,-0.0037078857,0.001663208,-32.63855,-24.598694,68.99872,0,0.0,0.0,0.0,0.0
2.573237162,-0.90447026,0.003708831,-0.42652044,-0.4262422,-0.045002095,0.90348893,-0.015843429,0.99898,0.042283922,-0.90334105,0.0025550865,-0.4289153,-0.42861733,-0.043119237,0.9024566,-0.016188648,0.99906665,0.040046535,-0.14715576,9.789032,0.43429565,-0.15537097,9.796647,0.41466364,0.0030517578,-0.0037078857,0.007751465,-32.63855,-24.598694,68.99872,0,0.0,0.0,0.0,0.0
2.581537943,-0.9049271,0.0037046054,-0.42555052,-0.42527315,-0.045003314,0.9039455,-0.015802423,0.99898,0.042300187,-0.9033637,0.0025773153,-0.42886752,-0.42856985,-0.043157525,0.9024773,-0.016182892,0.999065,0.040091503,-0.14715576,9.789032,0.43429565,-0.15496883,9.796647,0.41482314,-0.0030670166,-0.012268066,0.0053100586,-32.51953,-24.479675,68.93921,0,0.0,0.0,0.0,0.0
2.589838724,-0.9049315,0.003737643,-0.42554083,-0.42526478,-0.045010027,0.90394914,-0.015774967,0.99897957,0.04232048,-0.9034259,0.002620311,-0.42873618,-0.4284392,-0.043230705,0.90253586,-0.016169643,0.9990617,0.04017838,-0.1603241,9.816559,0.4019928,-0.1546996,9.796643,0.41502213,0.005493164,-0.007385254,-0.0032348633,-32.51953,-24.479675,68.93921,0,0.0,0.0,0.0,0.0
2.598139506,-0.9049214,0.0036899832,-0.42556268,-0.42528516,-0.044972364,0.9039414,-0.01580303,0.9989814,0.04226575,-0.9034562,0.002641816,-0.42867228,-0.42837563,-0.043265905,0.90256435,-0.016162485,0.9990601,0.04022054,-0.1603241,9.816559,0.4019928,-0.15497479,9.796661,0.41448542,0.00793457,-0.012268066,-0.0020141602,-32.51953,-24.299622,68.93921,0,0.0,0.0,0.0,0.0
2.606440287,-0.9049167,0.0036540735,-0.42557314,-0.42529494,-0.044921,0.9039394,-0.015814109,0.99898386,0.042203818,-0.9034856,0.0026620736,-0.4286102,-0.42831385,-0.043300338,0.902592,-0.0161562,0.99905854,0.040261436,-0.17826843,9.840485,0.41036987,-0.15508343,9.796685,0.41387808,0.004257202,-0.006149292,0.0041046143,-32.51953,-24.299622,68.93921,0,0.0,0.0,0.0,0.0
2.614741068,-0.9049166,0.003653569,-0.42557323,-0.42529586,-0.044866778,0.9039416,-0.015791489,0.9989863,0.04215454,-0.9035424,0.0027001617,-0.42849013,-0.4281944,-0.04336564,0.9026455,-0.01614446,0.9990556,0.04033889,-0.15074158,9.797409,0.40438843,-0.1548616,9.796709,0.41339484,0.0030517578,0.0011749268,-7.9345703E-4,-32.51953,-24.299622,68.93921,0,0.0,0.0,0.0,0.0
2.623041849,-0.90462166,0.003679576,-0.4261995,-0.4259234,-0.044811975,0.90364873,-0.015773797,0.9989887,0.042105105,-0.9035701,0.002718645,-0.42843178,-0.42813638,-0.04339575,0.90267164,-0.016138075,0.99905425,0.04037505,-0.15074158,9.797409,0.40438843,-0.15468812,9.796733,0.41291004,0.014038086,-0.0025024414,0.007751465,-32.57904,-24.41864,68.93921,0,0.0,0.0,0.0,0.0
2.631342631,-0.90462047,0.0036699136,-0.42620233,-0.4259268,-0.044748683,0.9036504,-0.015755674,0.99899155,0.042043686,-0.9035911,0.0027373203,-0.42838717,-0.42809203,-0.04342441,0.90269125,-0.016131505,0.99905294,0.04040974,-0.16870117,9.824936,0.34576416,-0.15451038,9.796761,0.4123077,0.009140015,0.0024108887,-0.0020141602,-32.57904,-24.41864,68.93921,0,0.0,0.0,0.0,0.0
2.639643412,-0.90462023,0.0036685416,-0.4262027,-0.42592865,-0.04465122,0.9036543,-0.015715377,0.9989959,0.041954935,-0.9036117,0.0027555134,-0.42834365,-0.4280489,-0.043451663,0.9027104,-0.016124815,0.99905175,0.040442925,-0.16870117,9.824936,0.34576416,-0.15411521,9.796803,0.41143736,0.004257202,0.0024108887,-0.0020141602,-32.57904,-24.41864,68.93921,0,0.0,0.0,0.0,0.0
2.647944193,-0.90461224,0.0036085409,-0.4262202,-0.42594644,-0.044473078,0.9036547,-0.015694449,0.99900407,0.041767936,-0.9036117,0.0027555134,-0.42834365,-0.4280489,-0.043451663,0.9027104,-0.016124815,0.99905175,0.040442925,-0.15792847,9.832108,0.35772705,-0.15390997,9.796884,0.40960354,0.004257202,0.0024108887,-0.0020141602,-32.57904,-24.41864,68.93921,0,0.0,0.0,0.0,0.0
2.656244974,-0.90521973,0.00348597,-0.42492947,-0.42465386,-0.044351626,0.90426874,-0.01569406,0.9990099,0.041628297,-0.90363175,0.0027721843,-0.42830122,-0.4280069,-0.043471843,0.90272933,-0.016116513,0.9990508,0.04046905,-0.15792847,9.832108,0.35772705,-0.15390615,9.796941,0.40823415,0.004257202,-6.1035156E-5,-0.0044555664,-32.398987,-24.41864,68.818665,0,0.0,0.0,0.0,0.0
2.664545756,-0.90521693,0.003465281,-0.4249355,-0.42465955,-0.044317774,0.90426767,-0.015698656,0.99901146,0.04158877,-0.9037256,0.0028134387,-0.42810294,-0.4278096,-0.04352433,0.9028203,-0.016092863,0.9990484,0.040537667,-0.1531372,9.84288,0.38763428,-0.15395123,9.796956,0.4078465,-0.006729126,-0.007385254,0.0053100586,-32.398987,-24.41864,68.818665,0,0.0,0.0,0.0,0.0
2.672846537,-0.905221,0.0034956678,-0.42492658,-0.424652,-0.04431053,0.90427154,-0.015667694,0.99901164,0.04159527,-0.90375555,0.002826255,-0.42803967,-0.42774668,-0.04354021,0.9028494,-0.016085254,0.9990477,0.040558625,-0.16989136,9.845276,0.3900299,-0.15364759,9.796958,0.40791026,-0.007949829,-0.0012664795,0.001663208,-32.398987,-24.41864,68.818665,0,0.0,0.0,0.0,0.0
