Time,Rot1,Rot2,Rot3,Rot4,Rot5,Rot6,Rot7,Rot8,Rot9,FRot1,FRot2,FRot3,FRot4,FRot5,FRot6,FRot7,FRot8,FRot9,AccX,AccY,AccZ,GravX,GravY,GravZ,GyroX,GyroY,GyroZ,MagX,MagY,MagZ,Imid
0.0,0.0,0.0,0.0,0.0,0.0,0.0,0.0,0.0,0.0,0.0,0.0,0.0,0.0,0.0,0.0,0.0,0.0,0.0,9.694122,-0.10772705,1.3239899,9.680054,-0.035751343,1.5696869,0.0,0.0,0.0,0.0,0.0,0.0,0,0.0,0.0,0.0,0.0
0.004425049,0.0,0.0,0.0,0.0,0.0,0.0,0.0,0.0,0.0,1.0,0.0,0.0,0.0,1.0,0.0,0.0,0.0,1.0,9.612717,-0.07421875,1.419754,9.680191,-0.03590393,1.5690918,0.0,0.0,0.0,0.0,0.0,0.0,0,0.0,0.0,0.0,0.0
0.00881958,0.0,0.0,0.0,0.0,0.0,0.0,0.0,0.0,0.0,1.0,0.0,0.0,0.0,1.0,0.0,0.0,0.0,1.0,9.694122,-0.15560913,1.419754,9.680191,-0.036361694,1.5686493,0.0053253174,0.008529663,0.0021209717,0.0,0.0,0.0,0,0.0,0.0,0.0,0.0
0.013244629,0.14394748,-0.41517368,-0.8982817,0.069748394,0.90973455,-0.40929002,0.98712426,-0.0037374392,0.15991168,1.0,0.0,0.0,0.0,1.0,0.0,0.0,0.0,1.0,9.718063,-0.13166809,1.4820099,9.680344,-0.03665161,1.5681915,0.012786865,0.007461548,0.008514404,-28.001404,17.904663,-12.762451,0,0.0,0.0,0.0,0.0
0.01763916,0.14388081,-0.4152578,-0.8982535,0.06975119,0.90969604,-0.409375,0.98713374,-0.0037530349,0.15985252,0.99956566,-0.008562624,-0.028199721,0.008561327,0.99996334,-1.6675059E-4,0.028200116,-7.474888E-5,0.9996023,9.761154,-0.09336853,1.4101715,9.680344,-0.0368042,1.5675964,-0.0021362305,0.018096924,0.0010681152,-28.001404,17.904663,-12.762451,0,0.0,0.0,0.0,0.0
0.022064209,0.14391285,-0.41521734,-0.898267,0.06982378,0.9097142,-0.40932214,0.98712397,-0.0038136805,0.15991162,0.99829745,-0.016955242,-0.05581029,0.016937088,0.99985623,-7.983083E-4,0.055815805,-1.483147E-4,0.9984411,9.765945,-0.17477417,1.5011597,9.680344,-0.037399292,1.5681915,-0.0053100586,0.018096924,0.003189087,-28.001404,17.904663,-12.762451,0,0.0,0.0,0.0,0.0
0.02645874,0.13485621,-0.5174732,-0.8450061,0.08597083,0.8556909,-0.5102962,0.9871286,-0.0038292583,0.15988281,0.9962467,-0.025177963,-0.08281605,0.025109783,0.99968296,-0.0018648704,0.082836755,-2.2162215E-4,0.99656314,9.622284,-0.07899475,1.4724274,9.680344,-0.03755188,1.5679016,0.018112183,0.02130127,0.0021209717,-26.029968,17.72461,-15.008545,0,0.0,0.0,0.0,0.0
0.030883789,0.13479483,-0.51753795,-0.84497625,0.08598383,0.8556516,-0.51035994,0.9871359,-0.003860406,0.1598373,0.99338394,-0.035547502,-0.109200366,0.035366774,0.99936795,-0.0035920546,0.10925903,-2.93775E-4,0.99401325,9.713272,-0.12689209,1.4676361,9.680344,-0.037857056,1.5674438,0.0010681152,0.014923096,-0.0063934326,-26.029968,17.72461,-15.008545,0,0.0,0.0,0.0,0.0
0.03527832,0.13475692,-0.517578,-0.8449577,0.085985765,0.85562724,-0.5104003,0.98714083,-0.0038743685,0.15980603,0.98979706,-0.04570746,-0.13495457,0.045337815,0.99895483,-0.0058127446,0.13507919,-3.6510776E-4,0.9908348,9.789886,-0.05505371,1.5155182,9.680496,-0.037994385,1.5671539,-0.010635376,0.014923096,-0.0021362305,-26.029968,17.72461,-15.008545,0,0.0,0.0,0.0,0.0
0.039703369,0.13659325,-0.49837416,-0.8561341,0.08295085,0.8669534,-0.49143776,0.9871481,-0.003889957,0.15976053,0.985535,-0.055660576,-0.16007042,0.05501051,0.9984496,-0.008493115,0.16029498,-4.352931E-4,0.987069,9.641449,-0.09815979,1.4293365,9.680496,-0.038146973,1.5666962,0.008514404,0.005340576,-0.0063934326,-25.491333,17.904663,-14.489746,0,0.0,0.0,0.0,0.0
0.0440979,0.13655308,-0.49841654,-0.85611576,0.082989946,0.86692876,-0.49147454,0.98715043,-0.0039366456,0.15974534,0.9806741,-0.06496431,-0.18454804,0.06393715,0.9978875,-0.011517677,0.18490641,-5.043865E-4,0.982756,9.583984,-0.16040039,1.4915771,9.680496,-0.038604736,1.5665436,-0.0053100586,-0.0010528564,-0.0063934326,-25.491333,17.904663,-14.489746,0,0.0,0.0,0.0,0.0
0.048522949,0.13652836,-0.4984426,-0.85610455,0.08303268,0.8669136,-0.49149412,0.9871503,-0.0039817686,0.15974532,0.97520936,-0.07379352,-0.20861746,0.07235934,0.9972731,-0.014508832,0.20911922,-9.462723E-4,0.97788966,9.722839,-0.13645935,1.577774,9.680496,-0.03904724,1.5665436,-0.006378174,-0.003189087,-0.0032043457,-25.491333,17.904663,-14.489746,0,0.0,0.0,0.0,0.0
0.052947998,0.13703857,-0.49279118,-0.8592889,0.082127124,0.8701385,-0.48591575,0.98715526,-0.003981726,0.15971404,0.9692386,-0.08272491,-0.23180416,0.080690935,0.9965719,-0.01825919,0.23252,-0.0010069824,0.97259104,9.70369,-0.06463623,1.5107269,9.680649,-0.03904724,1.5662537,-0.0021362305,0.0032043457,0.0021209717,-25.132751,16.470337,-13.453674,0,0.0,0.0,0.0,0.0
0.057342529,0.13697097,-0.49286735,-0.85925585,0.08212266,0.8700952,-0.4859939,0.98716503,-0.0039973254,0.15965338,0.962789,-0.09134163,-0.25435057,0.08858538,0.99581903,-0.02229488,0.2553236,-0.0010664773,0.96685505,9.737213,-0.08378601,1.395813,9.680649,-0.03919983,1.5656433,0.003189087,0.0138549805,-0.0021362305,-25.132751,16.470337,-13.453674,0,0.0,0.0,0.0,0.0
0.061767578,0.13707396,-0.49275127,-0.8593061,0.082189955,0.87016094,-0.4858651,0.9871452,-0.004026871,0.15977561,0.95588964,-0.09978113,-0.27625838,0.09617203,0.99500877,-0.026617333,0.2775354,-0.0011250944,0.9607147,9.603134,-0.11730957,1.4293365,9.680496,-0.039489746,1.5668488,0.0063934326,0.017044067,-0.004272461,-25.132751,16.470337,-13.453674,0,0.0,0.0,0.0,0.0
0.066162109,0.13461885,-0.51894116,-0.8441432,0.08637603,0.85480046,-0.511718,0.9871256,-0.004026855,0.15989633,0.9485797,-0.10804224,-0.2975287,0.10344624,0.9941456,-0.031199375,0.2991577,-0.00118313,0.95420295,9.713272,-0.10772705,1.2186432,9.680344,-0.039489746,1.568039,0.003189087,0.039413452,-0.0032043457,-26.38855,17.007446,-14.663696,0,0.0,0.0,0.0,0.0
0.070587158,0.1348457,-0.51869065,-0.84426093,0.08656466,0.854952,-0.51143277,0.9870781,-0.0041186474,0.1601869,0.9408276,-0.11673403,-0.31814554,0.110982485,0.99316245,-0.036211293,0.3201973,-0.0012400046,0.9473501,9.698898,-0.13166809,1.5873413,9.679901,-0.040390015,1.5708923,0.004257202,0.059646606,-0.004272461,-26.38855,17.007446,-14.663696,0,0.0,0.0,0.0,0.0
0.07498169,0.13518594,-0.5183149,-0.8444375,0.086654186,0.8551802,-0.51103634,0.9870237,-0.00408911,0.16052246,0.9327293,-0.12523751,-0.33812952,0.11818532,0.9921259,-0.041452937,0.34065852,-0.0012975776,0.9401862,9.698898,-0.026321411,1.6112976,9.679306,-0.040100098,1.574173,0.0063934326,0.06604004,0.01171875,-26.38855,17.007446,-14.663696,0,0.0,0.0,0.0,0.0
0.079406738,0.14145382,-0.45415896,-0.87961954,0.07660431,0.89091146,-0.4476702,0.9869765,-0.004057988,0.16081335,0.9243192,-0.1335533,-0.3574879,0.12505424,0.9910407,-0.046901513,0.3605489,-0.0013534083,0.9327394,9.651016,-0.14604187,1.3862305,9.678848,-0.039794922,1.5770264,0.0021362305,0.076690674,-0.0053253174,-25.671387,17.72461,-13.279724,0,0.0,0.0,0.0,0.0
0.08380127,0.14177664,-0.45379367,-0.87975603,0.07664448,0.8910977,-0.44729233,0.98692703,-0.0040128473,0.16111761,0.90707874,-0.14678536,-0.3945404,0.13519265,0.9891673,-0.057192884,0.39866155,-0.0014605098,0.9170969,9.775513,-0.04069519,1.4245453,9.678406,-0.039352417,1.5800171,0.0138549805,0.08522034,-0.007461548,-25.671387,17.72461,-13.279724,0,0.0,0.0,0.0,0.0
0.088378906,0.14209451,-0.45343384,-0.87989026,0.076733015,0.89128095,-0.4469121,0.9868745,-0.0040128804,0.16143946,0.90707874,-0.14678536,-0.3945404,0.13519265,0.9891673,-0.057192884,0.39866155,-0.0014605098,0.9170969,9.660599,-0.05505371,1.4628448,9.677811,-0.039352417,1.5831604,0.0138549805,0.08522034,-0.007461548,-25.671387,17.72461,-13.279724,0,0.0,0.0,0.0,0.0
0.092956543,0.14253195,-0.45293835,-0.8800747,0.07678536,0.8915331,-0.44639978,0.9868073,-0.003950621,0.16185099,0.90707874,-0.14678536,-0.3945404,0.13519265,0.9891673,-0.057192884,0.39866155,-0.0014605098,0.9170969,9.660599,-0.05505371,1.4628448,9.6772,-0.038742065,1.587204,0.0138549805,0.08522034,-0.007461548,-25.671387,17.72461,-13.279724,0,0.0,0.0,0.0,0.0
0.09753418,0.14280993,-0.45262337,-0.8801916,0.07687935,0.89169294,-0.4460641,0.9867598,-0.0039661713,0.16214001,0.90707874,-0.14678536,-0.3945404,0.13519265,0.9891673,-0.057192884,0.39866155,-0.0014605098,0.9170969,9.660599,-0.05505371,1.4628448,9.676758,-0.038894653,1.5900421,0.0138549805,0.08522034,-0.007461548,-25.671387,17.72461,-13.279724,0,0.0,0.0,0.0,0.0
0.102142334,0.13676994,-0.5195052,-0.84345025,0.0877713,0.8544579,-0.5120526,0.98670673,-0.0039973217,0.1624618,0.8797132,-0.1655116,-0.4457697,0.14837573,0.9862065,-0.07335748,0.4517625,-0.0016078629,0.89213675,9.713272,-0.03590393,1.5729828,9.676163,-0.03919983,1.5931854,-0.0053100586,0.07987976,-0.0010681152,-26.208496,17.1875,-14.836121,0,0.0,0.0,0.0,0.0
0.106719971,0.14925997,-0.37779427,-0.9137795,0.06511358,0.92588127,-0.37216175,0.98665184,-0.0039506094,0.16279653,0.8700422,-0.17300189,-0.46162423,0.15361093,0.9849201,-0.07959945,0.46843383,-0.0016556522,0.88349706,9.636658,-0.02154541,1.6065063,9.675705,-0.038742065,1.5964813,-0.008514404,0.076690674,0.004257202,-25.849915,18.980408,-12.069702,0,0.0,0.0,0.0,0.0
0.111297608,0.14959018,-0.37741095,-0.9138839,0.06516027,0.9260376,-0.37176427,0.98659873,-0.003936636,0.16311832,0.86074233,-0.17720667,-0.47720048,0.15582016,0.98417217,-0.08441074,0.4846056,-0.0017015514,0.8747311,9.708481,-0.007171631,1.577774,9.67511,-0.038604736,1.5996246,0.007461548,0.076690674,-0.007461548,-25.849915,18.980408,-12.069702,0,0.0,0.0,0.0,0.0
0.115875244,0.14988136,-0.37707278,-0.9139758,0.06529548,0.92617494,-0.371398,0.9865455,-0.004012846,0.16343752,0.8538352,-0.18087493,-0.48810825,0.15802528,0.9835041,-0.08802083,0.49597722,-0.0019781485,0.8683332,9.636658,-0.11730957,1.5203094,9.674667,-0.039352417,1.602768,-0.006378174,0.07562256,-0.004272461,-25.849915,18.980408,-12.069702,0,0.0,0.0,0.0,0.0
0.120452881,0.13848042,-0.5134491,-0.8468726,0.087472804,0.85811067,-0.50595903,0.9864946,-0.004012892,0.16374436,0.84438413,-0.18490106,-0.50281924,0.15991755,0.9827551,-0.09283781,0.511314,-0.0020188426,0.8593917,9.794678,-0.13645935,1.3574982,9.674057,-0.039352417,1.6057587,-0.0021362305,0.080947876,0.010650635,-25.132751,18.263245,-15.182495,0,0.0,0.0,0.0,0.0
0.125030518,0.13891815,-0.51300883,-0.8470677,0.087636195,0.858374,-0.505484,0.9864186,-0.004012893,0.16420186,0.83436877,-0.19183916,-0.51674604,0.16419798,0.9814242,-0.09922463,0.52618223,-0.0020587237,0.8503693,9.727631,-0.07421875,1.5251007,9.673309,-0.039352417,1.6102448,0.003189087,0.09692383,-0.008529663,-25.132751,18.263245,-15.182495,0,0.0,0.0,0.0,0.0
0.129608154,0.13933344,-0.51259094,-0.8472524,0.08777278,0.85862356,-0.50503606,0.98634785,-0.0039972924,0.16462652,0.8242983,-0.19861917,-0.53017235,0.16820711,0.9800745,-0.10564252,0.540591,-0.002097807,0.8412829,9.6558075,-0.02154541,1.4676361,9.672714,-0.03919983,1.6144257,0.0095825195,0.111846924,-0.0021362305,-25.132751,18.263245,-15.182495,0,0.0,0.0,0.0,0.0
0.134185791,0.14156082,-0.49406013,-0.85782576,0.08502981,0.86941826,-0.48670492,0.98627096,-0.004042413,0.16508542,0.81418896,-0.20524487,-0.5431122,0.1719537,0.9787083,-0.11208007,0.5545523,-0.0021357967,0.8321461,9.775513,-0.11251831,1.7501526,9.671967,-0.039642334,1.618927,0.014907837,0.11077881,0.0,-26.567078,17.546082,-14.489746,0,0.0,0.0,0.0,0.0
0.138763428,0.14195764,-0.49361625,-0.8580157,0.08529727,0.86966985,-0.48620853,0.98619086,-0.004165384,0.16556041,0.80413,-0.2113097,-0.5556286,0.17510998,0.97741675,-0.11829205,0.5680769,-0.002173929,0.82297254,9.674957,-0.17477417,1.6256561,9.671066,-0.04084778,1.6235657,0.0,0.09799194,0.0021209717,-26.567078,17.546082,-14.489746,0,0.0,0.0,0.0,0.0
0.143341065,0.14233951,-0.49318874,-0.85819834,0.085488655,0.86991215,-0.48574138,0.9861193,-0.004226021,0.16598491,0.7940636,-0.21723539,-0.5676898,0.17803742,0.9761167,-0.124494135,0.58117604,-0.002213758,0.8137749,9.66539,-0.12689209,1.7645264,9.670471,-0.04144287,1.6277466,-0.010635376,0.10864258,0.014892578,-26.567078,17.546082,-14.489746,0,0.0,0.0,0.0,0.0
0.147918701,0.14434995,-0.47468886,-0.86823595,0.082604505,0.88014346,-0.4674655,0.9860728,-0.004241575,0.1662601,0.7840025,-0.22302525,-0.5793099,0.18074383,0.97481006,-0.13067903,0.59386176,-0.0022540034,0.8045639,9.569611,-0.03111267,1.5681915,9.670029,-0.04159546,1.6304474,-0.0053100586,0.08627319,0.0021209717,-26.029968,17.007446,-13.626099,0,0.0,0.0,0.0,0.0
0.152496338,0.14464423,-0.4743483,-0.86837304,0.08274034,0.88032687,-0.4670961,0.98601836,-0.004286732,0.16658193,0.7740325,-0.22828004,-0.59056073,0.18291683,0.9735928,-0.13659601,0.6061478,-0.0022937548,0.7953487,9.66539,0.007171631,1.6591797,9.669418,-0.042037964,1.6335907,-0.0042419434,0.07029724,0.004257202,-26.029968,17.007446,-13.626099,0,0.0,0.0,0.0,0.0
0.157073975,0.14485441,-0.47410494,-0.8684709,0.082767926,0.88045806,-0.46684372,0.9859851,-0.0042571523,0.16677892,0.76408964,-0.23341577,-0.60140175,0.18490088,0.9723742,-0.14247818,0.61804426,-0.0023336145,0.78613985,9.50737,-0.06463623,1.692688,9.669128,-0.041748047,1.6355286,0.0095825195,0.07029724,0.013824463,-26.029968,17.007446,-13.626099,0,0.0,0.0,0.0,0.0
0.161651611,0.14325702,-0.49200454,-0.85872525,0.08583335,0.87058204,-0.4844787,0.98595643,-0.0043022865,0.16694738,0.7541822,-0.2384371,-0.6118471,0.18670388,0.97115505,-0.14832242,0.6295639,-0.0023720851,0.776945,9.713272,-0.06463623,1.6783295,9.668823,-0.04219055,1.6371765,0.004257202,0.038345337,-0.0063934326,-26.208496,18.263245,-14.836121,0,0.0,0.0,0.0,0.0
0.166229248,0.14322537,-0.49203843,-0.858711,0.085858226,0.8705626,-0.48450896,0.9859588,-0.0043334165,0.16693223,0.74424094,-0.2437484,-0.6218458,0.1886424,0.96983546,-0.15437984,0.640718,-0.0024106891,0.7677725,9.68454,0.02154541,1.3431396,9.668823,-0.042495728,1.6370239,0.008514404,0.03727722,0.0063934326,-26.208496,18.263245,-14.836121,0,0.0,0.0,0.0,0.0
0.170806885,0.14333668,-0.49191913,-0.85876083,0.08591057,0.8706301,-0.4843787,0.98593813,-0.0043473975,0.16705428,0.73434883,-0.24894714,-0.6314721,0.1904048,0.968514,-0.16039541,0.65151954,-0.0024491434,0.7586279,9.622284,-0.06942749,1.4820099,9.668671,-0.042633057,1.6382294,-0.003189087,0.022369385,0.01171875,-26.208496,18.263245,-14.836121,0,0.0,0.0,0.0,0.0
0.175384522,0.14462084,-0.4807903,-0.8648268,0.08412004,0.8768251,-0.4733936,0.985905,-0.004286699,0.16725127,0.72451675,-0.2540323,-0.64073634,0.19199596,0.96719253,-0.16636148,0.66197664,-0.0024871086,0.74952036,9.66539,-0.06942749,1.7214203,9.668381,-0.042037964,1.6401672,0.003189087,0.043670654,0.0021209717,-26.567078,16.828918,-13.798523,0,0.0,0.0,0.0,0.0
0.179992676,0.14474405,-0.48064503,-0.86488694,0.08415594,0.87690467,-0.47323966,0.9858838,-0.0042867423,0.16737589,0.7148018,-0.25876293,-0.6496924,0.19324225,0.9659376,-0.17211054,0.6720981,-0.0025231005,0.74045783,9.564835,-0.05027771,1.6831207,9.668076,-0.042037964,1.6413727,0.003189087,0.03727722,-0.015975952,-26.567078,16.828918,-13.798523,0,0.0,0.0,0.0,0.0
0.184570313,0.1448525,-0.48051724,-0.86493987,0.08427311,0.8769744,-0.4730897,0.98585784,-0.0043629394,0.16752662,0.70633143,-0.26347545,-0.65702087,0.19458023,0.9646632,-0.17766091,0.68061316,-0.0023557812,0.73263913,9.722839,-0.13166809,1.6495972,9.667923,-0.042785645,1.642868,0.003189087,0.026626587,-0.0010681152,-26.567078,16.828918,-13.798523,0,0.0,0.0,0.0,0.0
0.189147949,0.14499794,-0.47942358,-0.8655221,0.08411459,0.8775727,-0.47200716,0.98585004,-0.004362967,0.16757278,0.696762,-0.2679992,-0.66535634,0.19553874,0.96341616,-0.18328643,0.6901357,-0.0023959242,0.723676,9.689331,-0.07899475,1.7597351,9.667786,-0.042785645,1.6433105,-0.0010681152,0.03514099,0.0053253174,-25.849915,16.470337,-13.453674,0,0.0,0.0,0.0,0.0
0.193725586,0.14498138,-0.4794431,-0.86551416,0.08414475,0.877562,-0.47202188,0.9858499,-0.004394086,0.16757277,0.6872803,-0.27240276,-0.6733813,0.19634593,0.9621802,-0.18883185,0.69935256,-0.0024352653,0.7147727,9.607925,-0.10293579,1.6208649,9.667786,-0.04309082,1.6433105,0.018112183,0.007461548,0.007446289,-25.849915,16.470337,-13.453674,0,0.0,0.0,0.0,0.0
0.198303223,0.14496061,-0.47946757,-0.86550415,0.08408626,0.877549,-0.47205675,0.985858,-0.0043473807,0.16752663,0.6778857,-0.27671316,-0.6811027,0.19702648,0.9609494,-0.19431126,0.7082737,-0.0024744417,0.70593363,9.641449,0.05984497,1.553833,9.667923,-0.042633057,1.642868,0.0095825195,0.009597778,0.0021209717,-25.849915,16.470337,-13.453674,0,0.0,0.0,0.0,0.0
0.202880859,0.15134609,-0.40659675,-0.9009847,0.07203276,0.9135974,-0.40018865,0.9858527,-0.004333415,0.16755769,0.66858214,-0.28093246,-0.688531,0.19758512,0.95972425,-0.19972351,0.7169087,-0.0025119006,0.69716257,9.66539,0.002380371,1.687912,9.667786,-0.042495728,1.643158,0.014907837,-0.0021209717,0.003189087,-28.001404,18.621826,-13.1073,0,0.0,0.0,0.0,0.0
0.207366943,0.15134828,-0.40659407,-0.90098554,0.07206507,0.9135985,-0.40018046,0.98585004,-0.004362967,0.16757278,0.65969616,-0.28350282,-0.696008,0.1969554,0.95896804,-0.2039336,0.7252652,-0.0025483307,0.68846494,9.607925,-0.09336853,1.6831207,9.667786,-0.042785645,1.6433105,0.003189087,0.0063934326,-0.0063934326,-28.001404,18.621826,-13.1073,0,0.0,0.0,0.0,0.0
0.211761475,0.15129465,-0.4066601,-0.9009648,0.07207126,0.91356903,-0.4002466,0.9858578,-0.004378499,0.1675266,0.65090275,-0.2860197,-0.70321995,0.19626641,0.95822024,-0.20807077,0.73335195,-0.0025846236,0.67984426,9.674957,-0.10293579,1.5346832,9.667923,-0.042938232,1.642868,-0.009567261,-0.007446289,0.012771606,-28.001404,18.621826,-13.1073,0,0.0,0.0,0.0,0.0
0.216156006,0.1512593,-0.40670362,-0.9009511,0.07211299,0.9135494,-0.40028378,0.98586017,-0.0044236328,0.16751145,0.6422038,-0.28848574,-0.7101761,0.19552241,0.95748055,-0.21213645,0.7411782,-0.002620501,0.67130315,9.636658,-0.14604187,1.6112976,9.667923,-0.043380737,1.6427155,-0.0053100586,0.004272461,0.0053253174,-28.001404,18.621826,-13.1073,0,0.0,0.0,0.0,0.0
0.220550537,0.15127839,-0.40668005,-0.9009585,0.07215038,0.9135598,-0.40025344,0.9858545,-0.00445479,0.16754398,0.63360256,-0.2909015,-0.71688503,0.19472712,0.9567494,-0.2161298,0.74875176,-0.002656564,0.66284525,9.617508,-0.09815979,1.6735382,9.667786,-0.043685913,1.6430206,0.004257202,-0.012771606,0.004257202,-28.001404,18.621826,-13.1073,0,0.0,0.0,0.0,0.0
0.224945068,0.15113722,-0.4068538,-0.9009037,0.07212247,0.91348237,-0.400435,0.9858782,-0.0044547636,0.1674045,0.63360256,-0.2909015,-0.71688503,0.19472712,0.9567494,-0.2161298,0.74875176,-0.002656564,0.66284525,9.617508,-0.09815979,1.6735382,9.668076,-0.043685913,1.6416626,0.004257202,-0.012771606,0.004257202,-28.001404,18.621826,-13.1073,0,0.0,0.0,0.0,0.0
0.2293396,0.14521421,-0.4736775,-0.8686441,0.083039925,0.8806874,-0.4663627,0.98590934,-0.00440964,0.16722246,0.6166993,-0.29558992,-0.72959477,0.1929967,0.95531106,-0.22390427,0.7631738,-0.0027277726,0.64618754,9.674957,0.01675415,1.5011597,9.668381,-0.04324341,1.6398773,-0.0021362305,-0.031951904,-0.0053253174,-26.208496,17.904663,-14.144897,0,0.0,0.0,0.0,0.0
0.233734131,0.1450432,-0.47386825,-0.8685686,0.08293691,0.88058496,-0.46657434,0.98594314,-0.0043629794,0.167024,0.60811436,-0.2992827,-0.7352733,0.19297016,0.9541605,-0.22877996,0.7700386,-0.00276141,0.6379913,9.674957,-0.02154541,1.4915771,9.668671,-0.042785645,1.6379242,0.004257202,-0.029815674,-0.007461548,-26.208496,17.904663,-14.144897,0,0.0,0.0,0.0,0.0
0.238128662,0.14501296,-0.47390193,-0.86855525,0.08289479,0.88056695,-0.46661577,0.9859511,-0.0043333825,0.1669776,0.5996393,-0.3029014,-0.7407317,0.19286227,0.95301783,-0.23358336,0.7766833,-0.0027934415,0.6298852,9.607925,0.04548645,1.5203094,9.668823,-0.042495728,1.6374817,0.0095825195,-0.03302002,-0.007461548,-26.208496,17.904663,-14.144897,0,0.0,0.0,0.0,0.0
0.242523193,0.14475887,-0.4748099,-0.86810166,0.08303904,0.8800774,-0.46751302,0.9859764,-0.0044096685,0.16682675,0.59127843,-0.3064442,-0.74597704,0.19267628,0.9518844,-0.23831047,0.7831128,-0.0028242406,0.62187326,9.583984,-0.14604187,1.5825653,9.668976,-0.04324341,1.6359863,0.0063934326,-0.019165039,0.0,-27.105713,16.648865,-13.626099,0,0.0,0.0,0.0,0.0
0.246917725,0.14461102,-0.47499007,-0.8680277,0.08304868,0.87997985,-0.46769467,0.9859972,-0.004454746,0.16670209,0.58302706,-0.30993167,-0.7510139,0.1924291,0.9507545,-0.24297495,0.7893355,-0.002855949,0.6139555,9.66539,-0.15560913,1.6017151,9.669281,-0.043685913,1.6347809,0.01171875,-0.03302002,0.0095825195,-27.105713,16.648865,-13.626099,0,0.0,0.0,0.0,0.0
0.251312256,0.14433634,-0.47532475,-0.8678901,0.08307552,0.8797986,-0.4680307,0.9860352,-0.004546587,0.16647479,0.57369244,-0.31299344,-0.7569096,0.1916529,0.94975024,-0.24747445,0.79633296,-0.0030897062,0.60485065,9.689331,-0.08378601,1.5394592,9.669571,-0.04458618,1.6325378,-0.006378174,-0.024490356,-0.0010681152,-27.105713,16.648865,-13.626099,0,0.0,0.0,0.0,0.0
0.255706787,0.14207356,-0.49678954,-0.85616314,0.0865109,0.8678591,-0.48922035,0.9860685,-0.0045621567,0.16627754,0.56568336,-0.31635344,-0.76152664,0.1912826,0.94863623,-0.25199246,0.8021304,-0.0031188438,0.59714067,9.674957,-0.09815979,1.3910217,9.669876,-0.04473877,1.6306,-0.0021362305,-0.04260254,0.015960693,-26.38855,17.72461,-14.663696,0,0.0,0.0,0.0,0.0
0.260101318,0.14184807,-0.49703723,-0.8560567,0.0864366,0.8677172,-0.489485,0.98610747,-0.0045621283,0.16604623,0.56568336,-0.31635344,-0.76152664,0.1912826,0.94863623,-0.25199246,0.8021304,-0.0031188438,0.59714067,9.674957,-0.09815979,1.3910217,9.670319,-0.04473877,1.6283417,-0.0021362305,-0.04260254,0.015960693,-26.38855,17.72461,-14.663696,0,0.0,0.0,0.0,0.0
0.26449585,0.14167997,-0.49722186,-0.85597736,0.0864855,0.867611,-0.48966467,0.9861273,-0.004653951,0.16592558,0.54982066,-0.32379296,-0.769971,0.19089568,0.94612265,-0.2615546,0.8131765,-0.003175998,0.5820085,9.698898,-0.11251831,1.5873413,9.670471,-0.045639038,1.6271515,-0.0010681152,-0.03302002,-0.0063934326,-26.38855,17.72461,-14.663696,0,0.0,0.0,0.0,0.0
0.268890381,0.14528343,-0.45663142,-0.8777132,0.07984641,0.8896432,-0.44962144,0.98616284,-0.004759712,0.16571079,0.5420683,-0.32739836,-0.773933,0.19060159,0.944881,-0.26621604,0.8184333,-0.0032055571,0.5745927,9.651016,-0.17955017,1.4101715,9.670914,-0.046676636,1.625061,-0.012771606,-0.022369385,0.010650635,-26.92566,18.621826,-14.144897,0,0.0,0.0,0.0,0.0
0.273284912,0.14507881,-0.4568619,-0.87762713,0.07980706,0.8895249,-0.44986275,0.9861963,-0.004775283,0.16551201,0.53460896,-0.33005515,-0.7779825,0.18975024,0.9439561,-0.27007723,0.82352173,-0.0032366405,0.56727546,9.689331,-0.06942749,1.4245453,9.671219,-0.046829224,1.6231079,-0.013839722,-0.029815674,0.010650635,-26.92566,18.621826,-14.144897,0,0.0,0.0,0.0,0.0
0.277679443,0.14494509,-0.45701244,-0.8775708,0.079735495,0.88944757,-0.45002788,0.9862216,-0.0047442103,0.16536118,0.52726233,-0.33266115,-0.78187656,0.18886413,0.9430407,-0.27386943,0.82844716,-0.0032674132,0.56005764,9.66539,-0.002380371,1.5011597,9.671371,-0.046524048,1.6216125,-0.0042419434,-0.025558472,0.0010681152,-26.92566,18.621826,-14.144897,0,0.0,0.0,0.0,0.0
0.282073975,0.14246704,-0.48346812,-0.86369085,0.084049225,0.87534904,-0.47613,0.9862245,-0.0047597094,0.1653435,0.5200293,-0.3352158,-0.7856206,0.18794441,0.9421356,-0.27759215,0.83321446,-0.0032969492,0.55294013,9.70369,-0.07899475,1.5729828,9.671524,-0.046676636,1.62146,0.0010681152,-0.024490356,-0.004272461,-26.208496,17.546082,-14.144897,0,0.0,0.0,0.0,0.0
0.286468506,0.14230414,-0.4836507,-0.86361545,0.08399883,0.87524825,-0.47632432,0.98625237,-0.0047597685,0.16517751,0.51280004,-0.33828124,-0.7890513,0.18730083,0.94103914,-0.2817156,0.83782727,-0.0033262046,0.54592526,9.66539,-0.07421875,1.4532776,9.671677,-0.046676636,1.619812,0.0010681152,-0.011703491,-0.0021362305,-26.208496,17.546082,-14.144897,0,0.0,0.0,0.0,0.0
0.290863037,0.14226536,-0.48369414,-0.86359745,0.0840043,0.87522405,-0.47636762,0.9862575,-0.0047752857,0.16514646,0.50568616,-0.34128582,-0.79234177,0.18661486,0.9399536,-0.28576592,0.84229237,-0.0033548758,0.5390105,9.646225,-0.08857727,1.5442505,9.671814,-0.046829224,1.6195221,0.003189087,-0.023422241,-0.0021362305,-26.208496,17.546082,-14.144897,0,0.0,0.0,0.0,0.0
0.295257568,0.14582159,-0.44481856,-0.88366985,0.07770045,0.8956079,-0.4380059,0.98625493,-0.0047908328,0.16516158,0.49868992,-0.34422785,-0.79549706,0.18588881,0.93888,-0.2897406,0.8466131,-0.003383284,0.53219813,9.612717,-0.06942749,1.6352386,9.671814,-0.04698181,1.6196747,-0.008514404,-0.017044067,-0.0032043457,-25.312805,18.08319,-13.279724,0,0.0,0.0,0.0,0.0
0.2996521,0.14582755,-0.44481197,-0.8836723,0.07771916,0.8956111,-0.43799606,0.98625255,-0.0048063807,0.16517518,0.49197388,-0.3462842,-0.79877967,0.18469343,0.9381234,-0.2929381,0.8507938,-0.0034114353,0.5254887,9.583984,-0.10293579,1.6448059,9.671814,-0.0471344,1.619812,0.0010681152,-0.010650635,-0.012786865,-25.312805,18.08319,-13.279724,0,0.0,0.0,0.0,0.0
0.304046631,0.145769,-0.44487697,-0.88364923,0.07770357,0.89557886,-0.4380648,0.98626244,-0.004806429,0.16511616,0.4853699,-0.34829772,-0.80193806,0.18348347,0.93737763,-0.29606915,0.8548391,-0.0034393342,0.5188818,9.569611,-0.03111267,1.4724274,9.671814,-0.0471344,1.6192169,0.0,-0.015975952,-0.0021362305,-25.312805,18.08319,-13.279724,0,0.0,0.0,0.0,0.0
0.308441162,0.14974415,-0.39555842,-0.9061513,0.06970334,0.91842794,-0.3893988,0.9862647,-0.004851564,0.16510099,0.4788756,-0.35027075,-0.80497736,0.18226081,0.93664205,-0.29913646,0.8587544,-0.003466676,0.51237565,9.651016,-0.16040039,1.553833,9.671814,-0.047576904,1.6190643,0.007461548,-0.0095825195,0.0021209717,-27.28424,19.69757,-13.1073,0,0.0,0.0,0.0,0.0
0.312835693,0.1496841,-0.3956281,-0.9061309,0.06972453,0.9183979,-0.3894662,0.98627234,-0.0048826444,0.16505453,0.47268745,-0.35118508,-0.80822986,0.18051364,0.9362995,-0.30126068,0.8625436,-0.0034943735,0.5059707,9.651016,-0.12210083,1.5059509,9.671967,-0.04788208,1.6186218,0.0063934326,-0.012771606,0.0021209717,-27.28424,19.69757,-13.1073,0,0.0,0.0,0.0,0.0
0.317230225,0.14967552,-0.39563802,-0.9061279,0.069706075,0.9183937,-0.38947937,0.98627496,-0.0048670974,0.1650394,0.46622816,-0.35221857,-0.81152534,0.17856552,0.9359118,-0.30361742,0.86645585,-0.0033554647,0.4992425,9.732422,-0.03111267,1.5729828,9.671967,-0.047729492,1.6184692,0.003189087,-0.007446289,-0.0010681152,-27.28424,19.69757,-13.1073,0,0.0,0.0,0.0,0.0
0.321624756,0.14182849,-0.4864629,-0.8621129,0.08448098,0.8736877,-0.47909597,0.9862797,-0.0048826807,0.16501065,0.46024856,-0.35309488,-0.8145522,0.17684935,0.9355814,-0.30563337,0.86999744,-0.0033856975,0.49304458,9.627075,-0.08857727,1.529892,9.671967,-0.04788208,1.6181793,0.0053253174,-0.018096924,0.0,-27.464294,17.366028,-14.317322,0,0.0,0.0,0.0,0.0
0.326019287,0.14173795,-0.48656893,-0.8620679,0.08445357,0.87362856,-0.47920844,0.98629504,-0.00488268,0.16491881,0.45401293,-0.35584697,-0.8168508,0.1760682,0.93453795,-0.30925512,0.87342554,-0.0034156372,0.4869457,9.6558075,-0.05505371,1.371872,9.672119,-0.04788208,1.617279,0.019180298,-0.007446289,0.0021209717,-27.464294,17.366028,-14.317322,0,0.0,0.0,0.0,0.0
0.330413818,0.14167471,-0.48664308,-0.8620364,0.084467754,0.87358713,-0.47928157,0.986303,-0.004912205,0.16487084,0.44788682,-0.35854328,-0.8190507,0.17526086,0.9335067,-0.31280792,0.8767445,-0.0034449783,0.48094398,9.742004,-0.09336853,1.5059509,9.672272,-0.048171997,1.6168213,0.003189087,0.0010681152,-0.004272461,-27.464294,17.366028,-14.317322,0,0.0,0.0,0.0,0.0
0.33480835,0.13953151,-0.5079111,-0.85003364,0.087879784,0.86139554,-0.5002747,0.9863103,-0.004896682,0.16482696,0.44186977,-0.3611844,-0.82115585,0.17442983,0.93248796,-0.31629175,0.8799576,-0.0034743226,0.47503957,9.464264,-0.01675415,1.4580536,9.672272,-0.04801941,1.6163788,-0.0010681152,-0.0053253174,-0.007461548,-25.312805,17.007446,-14.317322,0,0.0,0.0,0.0,0.0
0.339202881,0.13946314,-0.5079852,-0.8500007,0.08787376,0.86135185,-0.50035113,0.98632056,-0.0049122153,0.16476537,0.43587586,-0.3642265,-0.82301354,0.1737894,0.9313038,-0.32011008,0.8830682,-0.0035027699,0.46923155,9.555252,-0.07899475,1.4532776,9.672424,-0.048171997,1.6157837,0.003189087,0.009597778,0.004257202,-25.312805,17.007446,-14.317322,0,0.0,0.0,0.0,0.0
0.343597412,0.13941625,-0.5080359,-0.849978,0.08789308,0.8613217,-0.50039953,0.98632544,-0.004943359,0.16473508,0.4299907,-0.36720562,-0.82478356,0.17311902,0.93013304,-0.32385528,0.88607997,-0.0035309587,0.4635189,9.708481,-0.12689209,1.553833,9.672424,-0.048477173,1.6154785,-0.015960693,-0.004257202,0.0010681152,-25.312805,17.007446,-14.317322,0,0.0,0.0,0.0,0.0
0.347991943,0.14546612,-0.44294453,-0.8846693,0.07730787,0.89653546,-0.43617406,0.9863383,-0.0049433536,0.16465864,0.4242134,-0.37012264,-0.82646966,0.17242114,0.9289761,-0.32752767,0.888996,-0.003559207,0.45790112,9.66539,-0.05505371,1.4101715,9.672562,-0.048477173,1.6147308,0.0010681152,0.01171875,-0.004272461,-26.208496,18.263245,-13.453674,0,0.0,0.0,0.0,0.0
0.352386475,0.14544356,-0.44297022,-0.8846601,0.07728491,0.89652276,-0.436204,0.9863433,-0.004927819,0.16462837,0.41879603,-0.3716037,-0.82856536,0.17107676,0.92838454,-0.32990137,0.89181983,-0.00358689,0.4523765,9.612717,-0.03590393,1.5155182,9.672562,-0.048324585,1.6144257,-0.0021362305,0.005340576,-0.010650635,-26.208496,18.263245,-13.453674,0,0.0,0.0,0.0,0.0
0.356781006,0.14545862,-0.44295308,-0.88466626,0.0772546,0.8965315,-0.43619165,0.98634356,-0.0048967004,0.1646284,0.41347605,-0.37305474,-0.83058274,0.16973644,0.92780226,-0.33222347,0.89455414,-0.0036137085,0.446945,9.722839,0.05984497,1.6208649,9.672562,-0.04801941,1.6144257,0.007461548,-0.003189087,0.018096924,-26.208496,18.263245,-13.453674,0,0.0,0.0,0.0,0.0
0.361175537,0.14980295,-0.3897434,-0.9086579,0.068628386,0.92091054,-0.3836846,0.98633116,-0.004882635,0.16470258,0.4082529,-0.37447557,-0.83252484,0.16840056,0.92722964,-0.33449432,0.89720166,-0.0036393683,0.44160607,9.651016,-0.04069519,1.8124084,9.672562,-0.04788208,1.6151733,0.010650635,0.0021362305,-0.0010681152,-26.747131,19.876099,-12.9348755,0,0.0,0.0,0.0,0.0
0.365570068,0.14982043,-0.38972342,-0.9086635,0.06863196,0.92091894,-0.3836637,0.9863283,-0.0048826905,0.16472,0.40332174,-0.37478194,-0.8347874,0.16659875,0.9271057,-0.33573768,0.8997646,-0.0036642337,0.4363601,9.641449,-0.026321411,1.6543884,9.672424,-0.04788208,1.6153259,-0.0010681152,-0.008514404,0.008514404,-26.747131,19.876099,-12.9348755,0,0.0,0.0,0.0,0.0
0.3699646,0.14978708,-0.38976142,-0.90865284,0.06859188,0.9209031,-0.38370904,0.98633605,-0.0048515396,0.16467384,0.39847744,-0.37508175,-0.8369763,0.16482441,0.92698437,-0.33694634,0.9022464,-0.0036886027,0.431205,9.622284,0.04548645,1.4867859,9.672562,-0.047576904,1.6148834,0.0010681152,0.0010681152,-0.010650635,-26.747131,19.876099,-12.9348755,0,0.0,0.0,0.0,0.0
0.374359131,0.14024572,-0.4992357,-0.85504085,0.08641694,0.8664522,-0.49172416,0.9863383,-0.004927794,0.16465864,0.39371777,-0.3753763,-0.83909416,0.16307688,0.92686504,-0.3381229,0.90465033,-0.0037118613,0.42613843,9.718063,-0.24659729,1.5634003,9.672562,-0.048324585,1.6147308,0.008514404,-0.006378174,0.004257202,-26.747131,17.007446,-14.317322,0,0.0,0.0,0.0,0.0
0.378753662,0.1402544,-0.4992258,-0.85504526,0.08640203,0.86645806,-0.4917166,0.9863384,-0.0049122344,0.16465865,0.38864556,-0.37793148,-0.84031093,0.16230914,0.9258261,-0.34132373,0.9069787,-0.0037361803,0.4211599,9.8138275,-0.04069519,1.6400146,9.672562,-0.048171997,1.6147308,0.0,-0.003189087,-0.008529663,-26.747131,17.007446,-14.317322,0,0.0,0.0,0.0,0.0
0.383148193,0.14022225,-0.4992627,-0.855029,0.08642708,0.8664366,-0.49174997,0.98634076,-0.0049433657,0.1646435,0.3836705,-0.38043252,-0.84146774,0.16152577,0.924801,-0.34445968,0.9092339,-0.0037597013,0.41626856,9.689331,-0.10772705,1.5921326,9.672562,-0.048477173,1.6145782,-0.007446289,-0.014907837,0.0095825195,-26.747131,17.007446,-14.317322,0,0.0,0.0,0.0,0.0
0.387542725,0.1440381,-0.4583954,-0.8769987,0.079778895,0.8887347,-0.45142674,0.9863511,-0.0049433396,0.16458192,0.37913474,-0.38277394,-0.8424613,0.16056746,0.92383534,-0.34748584,0.911304,-0.0035279095,0.41171908,9.622284,-0.04069519,1.4676361,9.672714,-0.048477173,1.6139832,0.0,0.004272461,-0.004272461,-28.001404,18.263245,-14.144897,0,0.0,0.0,0.0,0.0
0.391937256,0.1440381,-0.4583954,-0.8769987,0.079778895,0.8887347,-0.45142674,0.9863511,-0.0049433396,0.16458192,0.37449035,-0.38431427,-0.8438361,0.15941402,0.9231955,-0.34971023,0.9134244,-0.0035562182,0.40699288,9.6558075,-0.07421875,1.5969238,9.672714,-0.048477173,1.6139832,-0.009567261,-0.0053253174,0.0021209717,-28.001404,18.263245,-14.144897,0,0.0,0.0,0.0,0.0
0.396331787,0.1440309,-0.4584039,-0.87699544,0.07975971,0.88873035,-0.4514386,0.98635364,-0.0049277926,0.1645668,0.3699338,-0.38582274,-0.84515667,0.15826501,0.92256594,-0.35188666,0.91547865,-0.0035839607,0.40235057,9.698898,0.007171631,1.5634003,9.672714,-0.048324585,1.6138306,-0.003189087,-0.004257202,0.007446289,-28.001404,18.263245,-14.144897,0,0.0,0.0,0.0,0.0
0.400726318,0.14810717,-0.40959194,-0.9001659,0.07184331,0.9122554,-0.40327227,0.98635834,-0.004943376,0.16453803,0.36546367,-0.38730025,-0.84642476,0.15712081,0.92194664,-0.35401633,0.917469,-0.0036108373,0.3977909,9.674957,-0.09815979,1.5346832,9.672714,-0.048477173,1.6135406,-0.008514404,-0.012771606,0.0095825195,-26.38855,17.366028,-12.243652,0,0.0,0.0,0.0,0.0
0.40512085,0.148081,-0.40962437,-0.9001555,0.07182111,0.912241,-0.403309,0.9863639,-0.004927766,0.16450523,0.36124676,-0.38774833,-0.8480283,0.15559086,0.9217581,-0.35518092,0.9193978,-0.0036374882,0.39331225,9.636658,-0.002380371,1.5251007,9.672867,-0.048324585,1.6132355,-0.011703491,-0.004257202,0.013824463,-26.38855,17.366028,-12.243652,0,0.0,0.0,0.0,0.0
0.409515381,0.148081,-0.40962437,-0.9001555,0.07182111,0.912241,-0.403309,0.9863639,-0.004927766,0.16450523,0.35710678,-0.388188,-0.8495793,0.15408379,0.9215729,-0.35631663,0.92126703,-0.0036632938,0.3889134,9.679749,-0.03590393,1.6256561,9.672867,-0.048324585,1.6132355,-0.008514404,-0.008514404,-0.004272461,-26.38855,17.366028,-12.243652,0,0.0,0.0,0.0,0.0
0.413909912,0.14341627,-0.4645946,-0.8738327,0.08073428,0.8855097,-0.4575526,0.9863639,-0.004927766,0.16450523,0.35304308,-0.38861886,-0.8510793,0.15259972,0.92139125,-0.3574235,0.92307854,-0.0036885832,0.3845939,9.560043,-0.07421875,1.6112976,9.672867,-0.048324585,1.6132355,0.0010681152,0.0010681152,0.0,-25.132751,17.546082,-13.453674,0,0.0,0.0,0.0,0.0
0.418304443,0.14338548,-0.4646287,-0.87381965,0.080759995,0.8854917,-0.45758304,0.9863663,-0.0049588974,0.16449007,0.3488695,-0.39016706,-0.85209143,0.15156522,0.92073655,-0.35954434,0.9248341,-0.0037133668,0.38035268,9.598343,-0.09336853,1.5681915,9.672867,-0.04862976,1.6130829,-0.0053100586,-0.012771606,0.014892578,-25.132751,17.546082,-13.453674,0,0.0,0.0,0.0,0.0
0.422698975,0.1433634,-0.4646531,-0.87381023,0.08076917,0.88547885,-0.45760638,0.9863688,-0.004972914,0.16447493,0.34477603,-0.39168397,-0.8530611,0.15053588,0.9200922,-0.36162034,0.9265358,-0.0037382776,0.37618822,9.727631,-0.12210083,1.5681915,9.672867,-0.04876709,1.6129303,0.0,-0.020233154,-0.0021362305,-25.132751,17.546082,-13.453674,0,0.0,0.0,0.0,0.0
0.427093506,0.14331125,-0.46471083,-0.8737881,0.08080597,0.88544816,-0.45765898,0.98637325,-0.0050196163,0.16444612,0.34076136,-0.39317,-0.85399,0.14951186,0.9194581,-0.36365235,0.9281853,-0.0037629702,0.37209937,9.718063,0.06942749,1.5394592,9.672867,-0.049224854,1.6126404,0.0063934326,-0.006378174,0.01171875,-25.132751,17.546082,-13.453674,0,0.0,0.0,0.0,0.0
0.431488037,0.14330277,-0.46472028,-0.87378454,0.08075146,0.88544357,-0.45767766,0.98637897,-0.004972887,0.16441336,0.34076136,-0.39317,-0.85399,0.14951186,0.9194581,-0.36365235,0.9281853,-0.0037629702,0.37209937,9.718063,0.06942749,1.5394592,9.673019,-0.04876709,1.6123352,0.0063934326,-0.006378174,0.01171875,-25.132751,17.546082,-13.453674,0,0.0,0.0,0.0,0.0
0.435882568,0.14323568,-0.4647945,-0.87375605,0.0807839,0.8854043,-0.4577478,0.986386,-0.005019602,0.1643694,0.3329619,-0.39605334,-0.8557325,0.14748093,0.91821957,-0.36758968,0.93133545,-0.0038108828,0.36414245,9.670166,-0.15560913,1.5107269,9.673019,-0.049224854,1.6118927,0.0095825195,-0.012771606,0.008514404,-25.132751,17.546082,-13.453674,0,0.0,0.0,0.0,0.0
0.4402771,0.14381413,-0.45791987,-0.8772838,0.07968385,0.888979,-0.4509618,0.9863913,-0.005050669,0.16433658,0.32917443,-0.39745206,-0.8565489,0.14647599,0.91761494,-0.36949646,0.9328392,-0.0038350574,0.36027256,9.569611,-0.14604187,1.5059509,9.673172,-0.04953003,1.6115875,0.008514404,-0.012771606,-0.0032043457,-25.849915,18.980408,-14.144897,0,0.0,0.0,0.0,0.0
0.444671631,0.14380701,-0.45792747,-0.877281,0.07966452,0.8889752,-0.4509728,0.9863939,-0.005035123,0.16432145,0.32548258,-0.39867976,-0.8573888,0.14542767,0.9170821,-0.37122935,0.9342975,-0.0038593698,0.3564733,9.660599,-0.011962891,1.5586243,9.673172,-0.04937744,1.6114349,0.0095825195,-0.019165039,0.003189087,-25.849915,18.980408,-14.144897,0,0.0,0.0,0.0,0.0
0.449066162,0.14370215,-0.45803955,-0.8772397,0.07966671,0.8889174,-0.45108658,0.9864091,-0.0050646923,0.16422984,0.3218625,-0.3998824,-0.85819495,0.14438842,0.91655827,-0.37292492,0.9357118,-0.0038828847,0.3527441,9.564835,-0.10293579,1.3814392,9.673309,-0.04966736,1.6105347,0.004257202,-0.011703491,0.008514404,-25.849915,18.980408,-14.144897,0,0.0,0.0,0.0,0.0
0.453460693,0.1418875,-0.4771304,-0.8673031,0.08277122,0.8788177,-0.46992388,0.9864161,-0.005111408,0.16418588,0.31814283,-0.40161866,-0.85877097,0.1437428,0.9157977,-0.37503678,0.93708223,-0.0041268645,0.34908426,9.770737,-0.17477417,1.4915771,9.673309,-0.050125122,1.6100922,0.007461548,0.0,0.0063934326,-28.361511,17.904663,-14.489746,0,0.0,0.0,0.0,0.0
0.457855225,0.14186426,-0.47715792,-0.8672917,0.082781956,0.8788027,-0.46995014,0.98641866,-0.0051269806,0.16417074,0.31460142,-0.40315858,-0.85935384,0.14285049,0.9151207,-0.3770249,0.9384134,-0.004146555,0.34548968,9.68454,-0.11730957,1.5873413,9.673309,-0.05027771,1.6099396,-0.003189087,0.0063934326,0.0021209717,-28.361511,17.904663,-14.489746,0,0.0,0.0,0.0,0.0
0.462249756,0.14181831,-0.47721246,-0.86726916,0.082768604,0.87877303,-0.47000787,0.98642635,-0.00512694,0.16412431,0.3111296,-0.40466714,-0.8599087,0.1419632,0.9144545,-0.3789714,0.93970466,-0.0041661635,0.3419617,9.698898,-0.01675415,1.4867859,9.673462,-0.05027771,1.6094971,0.0138549805,-0.004257202,0.017028809,-28.361511,17.904663,-14.489746,0,0.0,0.0,0.0,0.0
0.466644287,0.14338626,-0.46019965,-0.87616014,0.08008956,0.8878003,-0.45320672,0.98642087,-0.005187676,0.16415556,0.30772558,-0.40614563,-0.8604363,0.141081,0.9137988,-0.38087782,0.94095755,-0.004185379,0.33849868,9.612717,-0.05984497,1.4963684,9.673309,-0.050872803,1.609787,-0.006378174,0.012786865,0.010650635,-28.001404,17.546082,-13.798523,0,0.0,0.0,0.0,0.0
0.471038818,0.14346261,-0.46010646,-0.8761966,0.08014248,0.88784844,-0.45310304,0.98640543,-0.0052172323,0.16424713,0.3044433,-0.40724167,-0.86108565,0.1400884,0.91331077,-0.38241172,0.9421728,-0.004205425,0.3351012,9.636658,0.026321411,1.5011597,9.673172,-0.05116272,1.6106873,-0.008514404,0.018096924,0.013824463,-28.001404,17.546082,-13.798523,0,0.0,0.0,0.0,0.0
0.47543335,0.14357363,-0.45997092,-0.8762496,0.08029083,0.88791806,-0.45294037,0.9863772,-0.005324527,0.16441305,0.3012271,-0.40831336,-0.861709,0.13910702,0.912832,-0.38391,0.94335115,-0.004225661,0.331769,9.689331,-0.13166809,1.6831207,9.673019,-0.052215576,1.6123352,-0.007446289,0.029815674,0.010650635,-28.001404,17.546082,-13.798523,0,0.0,0.0,0.0,0.0
0.479827881,0.14028376,-0.4954872,-0.85721236,0.0861218,0.86859876,-0.48797488,0.98635876,-0.005369719,0.16452253,0.29807672,-0.40936026,-0.86230755,0.13813871,0.91236293,-0.38537198,0.9444935,-0.004247639,0.32850266,9.598343,-0.04069519,1.5203094,9.672714,-0.05265808,1.6133881,-0.010635376,0.03302002,0.014892578,-26.567078,17.546082,-14.489746,0,0.0,0.0,0.0,0.0
0.484222412,0.14028476,-0.49548608,-0.85721284,0.08620865,0.8685988,-0.48795918,0.98635095,-0.00544592,0.16456635,0.294879,-0.411123,-0.8625684,0.13742152,0.9115699,-0.38749927,0.9456012,-0.0042700805,0.32529992,9.775513,-0.12689209,1.4245453,9.672714,-0.05340576,1.6138306,-0.015960693,0.03302002,0.007446289,-26.567078,17.546082,-14.489746,0,0.0,0.0,0.0,0.0
0.488616943,0.14033885,-0.49542573,-0.8572388,0.0863305,0.8686326,-0.4878774,0.9863326,-0.0055377064,0.16467325,0.29174587,-0.41284895,-0.8628094,0.13670737,0.9107894,-0.38958156,0.94667596,-0.0042935973,0.32215852,9.722839,0.007171631,1.4580536,9.672562,-0.05430603,1.6148834,0.0010681152,0.028747559,0.0095825195,-26.567078,17.546082,-14.489746,0,0.0,0.0,0.0,0.0
0.493011475,0.14042982,-0.49532408,-0.8572826,0.08632655,0.8686907,-0.4877745,0.98631996,-0.005508151,0.16474973,0.29174587,-0.41284895,-0.8628094,0.13670737,0.9107894,-0.38958156,0.94667596,-0.0042935973,0.32215852,9.722839,0.007171631,1.4580536,9.672424,-0.054016113,1.6156311,0.0010681152,0.028747559,0.0095825195,-26.567078,17.546082,-14.489746,0,0.0,0.0,0.0,0.0
0.497406006,0.14251111,-0.47472566,-0.8685195,0.08305914,0.8801164,-0.4674357,0.986302,-0.005523697,0.16485669,0.28567436,-0.41618708,-0.8632372,0.13528794,0.9092686,-0.39360857,0.94872934,-0.0043416936,0.31605983,9.694122,-0.02154541,1.6208649,9.672272,-0.0541687,1.616684,-0.008514404,0.03302002,-0.004272461,-26.38855,17.007446,-13.626099,0,0.0,0.0,0.0,0.0
0.501800537,0.14255509,-0.47467417,-0.8685404,0.08313986,0.88014376,-0.46736977,0.98628885,-0.0055843936,0.16493332,0.28279537,-0.41737616,-0.86361104,0.13445,0.90872335,-0.39515206,0.9497105,-0.0043653334,0.31309897,9.756363,-0.07899475,1.4436951,9.672119,-0.054763794,1.6174316,-0.007446289,0.024490356,0.0021209717,-26.38855,17.007446,-13.626099,0,0.0,0.0,0.0,0.0
0.506195068,0.14394897,-0.45978886,-0.8762836,0.080768354,0.88801056,-0.45267406,0.98628354,-0.0056140153,0.1649646,0.27997482,-0.41853967,-0.8639668,0.13362181,0.90818787,-0.396661,0.95066255,-0.004389715,0.31019574,9.742004,-0.15560913,1.692688,9.671967,-0.05505371,1.6177216,-0.0010681152,0.034088135,0.01171875,-27.105713,18.800354,-14.317322,0,0.0,0.0,0.0,0.0
0.5105896,0.14395536,-0.4597817,-0.8762862,0.080821976,0.8880139,-0.4526578,0.9862782,-0.0056606643,0.16499484,0.27997482,-0.41853967,-0.8639668,0.13362181,0.90818787,-0.396661,0.95066255,-0.004389715,0.31019574,9.742004,-0.15560913,1.692688,9.671967,-0.055511475,1.6180267,-0.0010681152,0.034088135,0.01171875,-27.105713,18.800354,-14.317322,0,0.0,0.0,0.0,0.0
0.514984131,0.1439689,-0.4597666,-0.876292,0.0808586,0.8880216,-0.45263627,0.9862732,-0.0056901993,0.16502357,0.27459067,-0.42019024,-0.86489314,0.13181186,0.90742517,-0.39900526,0.95248395,-0.004440045,0.30455655,9.603134,-0.15083313,1.687912,9.671967,-0.05580139,1.6183167,-0.0021362305,0.010665894,0.013824463,-27.105713,18.800354,-14.317322,0,0.0,0.0,0.0,0.0
0.519378662,0.14244457,-0.47567236,-0.8680123,0.083428964,0.87960404,-0.4683336,0.9862805,-0.0057058013,0.16497965,0.2725231,-0.4209515,-0.86517686,0.13102308,0.90707284,-0.4000648,0.9531863,-0.004331243,0.30235267,9.694122,-0.09815979,1.5059509,9.671967,-0.05595398,1.6178741,0.0,0.008529663,-0.0021362305,-25.491333,17.546082,-13.798523,0,0.0,0.0,0.0,0.0
0.523773193,0.14239281,-0.47572953,-0.8679895,0.08336262,0.87957346,-0.46840292,0.98629355,-0.0056606634,0.16490299,0.2699045,-0.42206207,-0.86545664,0.13024543,0.9065565,-0.40148658,0.95403755,-0.004358734,0.29965535,9.713272,0.01675415,1.5729828,9.672119,-0.055511475,1.6171265,0.008514404,-0.010650635,0.0021209717,-25.491333,17.546082,-13.798523,0,0.0,0.0,0.0,0.0
0.528167725,0.14230926,-0.47582185,-0.86795247,0.08335462,0.8795234,-0.46849835,0.98630637,-0.005676207,0.16482629,0.26733732,-0.42315102,-0.8657217,0.12947533,0.9060486,-0.4028798,0.95486486,-0.004384773,0.29700822,9.574402,-0.08857727,1.4149628,9.672272,-0.055664063,1.6163788,-0.020233154,-0.011703491,-0.010650635,-25.491333,17.546082,-13.798523,0,0.0,0.0,0.0,0.0
0.532562256,0.14291802,-0.46796724,-0.872113,0.08199834,0.88372767,-0.46076202,0.98633194,-0.0056606247,0.16467315,0.26481992,-0.4242195,-0.8659724,0.12871405,0.90554863,-0.40424535,0.9556689,-0.004410601,0.29441032,9.66539,-0.08378601,1.5729828,9.672562,-0.055511475,1.6148834,0.0053253174,-0.008514404,-0.0021362305,-26.747131,19.158936,-14.663696,0,0.0,0.0,0.0,0.0
0.536956787,0.1428198,-0.46807313,-0.8720722,0.08198612,0.88367146,-0.46087196,0.98634726,-0.005676183,0.1645813,0.2623732,-0.42510474,-0.866283,0.12791324,0.9051333,-0.40542805,0.956451,-0.004435602,0.29185927,9.66539,-0.10293579,1.3574982,9.672714,-0.055664063,1.6139832,-0.007446289,-0.030883789,-0.007461548,-26.747131,19.158936,-14.663696,0,0.0,0.0,0.0,0.0
0.541351318,0.14263937,-0.46826774,-0.87199736,0.0819317,0.8835684,-0.46107924,0.9863778,-0.0056761797,0.1643976,0.25997338,-0.42597407,-0.8665794,0.1271232,0.90472436,-0.4065876,0.9572113,-0.0044604135,0.28935543,9.560043,-0.11251831,1.5011597,9.673019,-0.055664063,1.6121826,0.0010681152,-0.014907837,-0.009597778,-26.747131,19.158936,-14.663696,0,0.0,0.0,0.0,0.0
0.54574585,0.1406424,-0.48693624,-0.86204,0.0848196,0.8734191,-0.47952557,0.98642045,-0.005676255,0.16414149,0.25761768,-0.4268296,-0.8668619,0.12634343,0.9043209,-0.40772656,0.9579511,-0.004484729,0.2868962,9.598343,-0.23222351,1.3766632,9.673309,-0.055664063,1.6096497,0.02130127,-0.03302002,-0.004272461,-26.38855,17.72461,-14.317322,0,0.0,0.0,0.0,0.0
0.550140381,0.14051971,-0.48707274,-0.86198276,0.08484921,0.8733425,-0.47965962,0.98643535,-0.005736935,0.16404957,0.25525123,-0.4280518,-0.86695933,0.12568063,0.9037429,-0.4092103,0.95867157,-0.004508559,0.28447932,9.651016,-0.20350647,1.371872,9.673462,-0.056259155,1.6087494,0.007461548,-0.039413452,-0.012786865,-26.38855,17.72461,-14.317322,0,0.0,0.0,0.0,0.0
0.554534912,0.14046328,-0.48713544,-0.8619565,0.0848822,0.8733073,-0.47971806,0.9864407,-0.0057819984,0.16401675,0.25293022,-0.4292516,-0.86704636,0.12502544,0.9031736,-0.41066548,0.95937216,-0.004533127,0.2821073,9.718063,0.04069519,1.5921326,9.6736145,-0.05670166,1.6084442,0.0010681152,-0.019165039,-0.0021362305,-26.38855,17.72461,-14.317322,0,0.0,0.0,0.0,0.0
0.558929443,0.1404876,-0.48710844,-0.8619679,0.08483896,0.87332267,-0.47969767,0.98644084,-0.0057368763,0.16401677,0.25293022,-0.4292516,-0.86704636,0.12502544,0.9031736,-0.41066548,0.95937216,-0.004533127,0.2821073,9.718063,0.04069519,1.5921326,9.6736145,-0.056259155,1.6084442,0.0010681152,-0.019165039,-0.0021362305,-26.38855,17.72461,-14.317322,0,0.0,0.0,0.0,0.0
0.563323975,0.14280759,-0.46172208,-0.87545353,0.0807171,0.8870062,-0.45464817,0.98645365,-0.00573686,0.16394007,0.24842708,-0.43157896,-0.8671929,0.1237349,0.90206355,-0.41348645,0.9607152,-0.0045807953,0.27749836,9.550461,-0.05984497,1.419754,9.673767,-0.056259155,1.6076965,0.015975952,0.0,0.0095825195,-26.029968,18.441772,-13.972473,0,0.0,0.0,0.0,0.0
0.567718506,0.14279261,-0.46173847,-0.8754472,0.08074562,0.88699734,-0.4546601,0.9864534,-0.0057664225,0.16394004,0.24631324,-0.43218675,-0.86749315,0.12295713,0.9017723,-0.4143527,0.9613591,-0.0046039163,0.27525893,9.722839,-0.11251831,1.577774,9.673767,-0.056549072,1.6076965,0.004257202,0.005340576,-0.008529663,-26.029968,18.441772,-13.972473,0,0.0,0.0,0.0,0.0
0.572113037,0.14718738,-0.41082236,-0.8997561,0.07253175,0.91169745,-0.40440956,0.98644567,-0.005736904,0.16398801,0.24424127,-0.4327825,-0.8677819,0.1221922,0.90148646,-0.41520017,0.96198505,-0.004627167,0.27306286,9.737213,-0.05505371,1.4867859,9.6736145,-0.056259155,1.6081543,0.0,0.010665894,-0.008529663,-26.92566,17.546082,-12.416077,0,0.0,0.0,0.0,0.0
0.576507568,0.14715873,-0.41085804,-0.89974433,0.07255792,0.91168106,-0.4044415,0.986448,-0.005766481,0.16397284,0.24234906,-0.43234575,-0.8685298,0.121165045,0.90169597,-0.41504636,0.9625934,-0.004649361,0.27091035,9.66539,-0.13645935,1.2234344,9.6736145,-0.056549072,1.6080017,-0.0021362305,0.025558472,-0.0063934326,-26.92566,17.546082,-12.416077,0,0.0,0.0,0.0,0.0
0.5809021,0.14726505,-0.41072544,-0.8997875,0.072547555,0.9117409,-0.40430823,0.98643285,-0.00573692,0.1640647,0.24049199,-0.43191832,-0.8692584,0.12016026,0.90190065,-0.4148937,0.9631849,-0.004671704,0.2687993,9.737213,-0.06942749,1.371872,9.673462,-0.056259155,1.608902,0.0021362305,0.030883789,-0.0021362305,-26.92566,17.546082,-12.416077,0,0.0,0.0,0.0,0.0
0.585296631,0.13917714,-0.501861,-0.8536775,0.08734934,0.864929,-0.49423474,0.9864076,-0.0057819868,0.16421558,0.2413209,-0.4321087,-0.86893404,0.11989461,0.9018127,-0.41516164,0.96301067,-0.0039933356,0.26943374,9.737213,-0.07421875,1.5394592,9.673309,-0.05670166,1.6103973,0.012786865,0.04260254,-0.007461548,-26.029968,17.72461,-14.663696,0,0.0,0.0,0.0,0.0
0.589691162,0.13934523,-0.5016797,-0.8537566,0.08742457,0.86503404,-0.49403754,0.9863771,-0.0057975412,0.16439748,0.23924308,-0.43353158,-0.8687998,0.11940775,0.90112936,-0.4167825,0.96358943,-0.004029109,0.26735598,9.646225,-0.011962891,1.5011597,9.673019,-0.056854248,1.6121826,0.0063934326,0.04046631,0.010650635,-26.029968,17.72461,-14.663696,0,0.0,0.0,0.0,0.0
0.594085693,0.13958059,-0.5014256,-0.8538674,0.08745354,0.86518157,-0.49377385,0.98634124,-0.005752481,0.164614,0.23721142,-0.4349212,-0.86866236,0.11892491,0.90045935,-0.4183657,0.9641512,-0.004064478,0.26532218,9.727631,0.011962891,1.5825653,9.672562,-0.056411743,1.6142883,0.0021362305,0.055389404,0.007446289,-26.029968,17.72461,-14.663696,0,0.0,0.0,0.0,0.0
0.598480225,0.13554189,-0.5398999,-0.8307446,0.093752936,0.84170926,-0.5317293,0.98632586,-0.0058131567,0.16470402,0.23522621,-0.43627676,-0.8685224,0.11844511,0.89980316,-0.41991067,0.9646965,-0.004098238,0.26333216,9.698898,-0.14125061,1.5203094,9.672424,-0.057006836,1.6151733,-0.0053100586,0.050064087,-0.0063934326,-25.671387,16.648865,-15.008545,0,0.0,0.0,0.0,0.0
0.602874756,0.13574564,-0.5396828,-0.8308524,0.093778186,0.84184873,-0.5315039,0.98629546,-0.005766481,0.16488776,0.23317626,-0.43841466,-0.8679985,0.118180975,0.8987633,-0.4222058,0.9652265,-0.0041325367,0.26138255,9.588776,-0.06463623,1.5490417,9.672119,-0.056549072,1.6169739,-0.0010681152,0.031951904,0.003189087,-25.671387,16.648865,-15.008545,0,0.0,0.0,0.0,0.0
0.607269287,0.13591208,-0.5395054,-0.83094037,0.09377224,0.84196275,-0.5313242,0.98627305,-0.0057057585,0.16502354,0.2311731,-0.44050273,-0.86747694,0.11791245,0.89774156,-0.42444867,0.965741,-0.004165216,0.25947446,9.564835,-0.007171631,1.687912,9.671967,-0.05595398,1.6183167,0.0053253174,0.04685974,-0.01171875,-25.671387,16.648865,-15.008545,0,0.0,0.0,0.0,0.0
0.611663818,0.1384933,-0.5151047,-0.8458645,0.08986721,0.85710794,-0.5072376,0.98627764,-0.0057664677,0.16499473,0.22921503,-0.44254297,-0.866958,0.11763964,0.89673746,-0.42664132,0.9662408,-0.0041960273,0.2576063,9.751572,-0.19871521,1.5729828,9.671967,-0.056549072,1.6180267,0.0095825195,0.024490356,-0.007461548,-25.132751,16.470337,-14.144897,0,0.0,0.0,0.0,0.0
0.61605835,0.13847543,-0.51512426,-0.8458555,0.089896694,0.85709584,-0.5072526,0.9862774,-0.0057975864,0.1649947,0.22736388,-0.44402558,-0.8666873,0.11723401,0.89600414,-0.42829052,0.9667274,-0.004227436,0.25577387,9.622284,-0.14604187,1.5873413,9.671967,-0.056854248,1.6180267,0.01171875,0.018096924,0.0021209717,-25.132751,16.470337,-14.144897,0,0.0,0.0,0.0,0.0
0.620452881,0.1384031,-0.51520336,-0.8458191,0.08992294,0.857048,-0.50732875,0.98628515,-0.0058426633,0.16494672,0.22555056,-0.44547778,-0.86641586,0.11683114,0.89528286,-0.42990586,0.9672008,-0.0042588394,0.25397724,9.627075,-0.18913269,1.4915771,9.672119,-0.057296753,1.617569,0.0,0.018096924,0.0063934326,-25.132751,16.470337,-14.144897,0,0.0,0.0,0.0,0.0
0.624847412,0.14087394,-0.49077776,-0.8598207,0.086002566,0.871265,-0.4832193,0.98628503,-0.005873782,0.16494669,0.22377321,-0.4469014,-0.8661436,0.11643135,0.8945729,-0.4314893,0.9676618,-0.0042905165,0.2522148,9.694122,-0.11251831,1.6400146,9.672119,-0.05760193,1.617569,-0.0021362305,0.019165039,0.0063934326,-26.029968,17.007446,-13.972473,0,0.0,0.0,0.0,0.0
0.629241943,0.14085208,-0.49080256,-0.8598102,0.086013295,0.87125087,-0.48324275,0.9862872,-0.0058893547,0.16493306,0.22209777,-0.44779012,-0.8661158,0.11590903,0.89412826,-0.4325503,0.9681103,-0.0043221815,0.2504868,9.646225,-0.12210083,1.5634003,9.672119,-0.057754517,1.6174316,-0.0042419434,0.0010681152,0.0053253174,-26.029968,17.007446,-13.972473,0,0.0,0.0,0.0,0.0
0.633636475,0.140873,-0.49077883,-0.8598202,0.08607103,0.87126386,-0.4832089,0.98627913,-0.005934523,0.16497943,0.2204559,-0.44866115,-0.86608446,0.115393974,0.89369136,-0.43358967,0.96854705,-0.0043535247,0.24879232,9.722839,-0.15083313,1.7357941,9.671967,-0.05819702,1.6178741,-0.003189087,-0.0021209717,0.0010681152,-26.029968,17.007446,-13.972473,0,0.0,0.0,0.0,0.0
0.638031006,0.14091888,-0.49072695,-0.8598424,0.08605203,0.87129337,-0.48315924,0.98627424,-0.0059049297,0.16500972,0.2188479,-0.44951388,-0.8660501,0.114887,0.89326257,-0.4346066,0.9689719,-0.004385145,0.24713196,9.789886,0.002380371,1.7549438,9.671967,-0.057907104,1.6181793,0.0010681152,-0.003189087,-0.0032043457,-26.029968,17.007446,-13.972473,0,0.0,0.0,0.0,0.0
0.642425537,0.14087091,-0.49078125,-0.85981923,0.086105585,0.87126243,-0.4832056,0.98627645,-0.0059656263,0.16499454,0.21727346,-0.45034808,-0.8660132,0.11438645,0.8928422,-0.43560147,0.9693853,-0.0044155405,0.2455046,9.722839,-0.21786499,1.5873413,9.671967,-0.058502197,1.6180267,0.01171875,-0.007446289,0.007446289,-26.029968,17.007446,-13.972473,0,0.0,0.0,0.0,0.0
0.646820068,0.140802,-0.4908593,-0.859786,0.08610138,0.87121826,-0.4832858,0.98628664,-0.0059811533,0.16493295,0.21573001,-0.45116627,-0.8659731,0.11389402,0.8924288,-0.4365764,0.96978796,-0.004446543,0.24390882,9.737213,-0.08857727,1.4484863,9.672119,-0.058654785,1.6174316,-0.007446289,-0.017044067,0.0053253174,-26.029968,17.007446,-13.972473,0,0.0,0.0,0.0,0.0
0.6512146,0.14482597,-0.44655955,-0.8829553,0.078858495,0.8947341,-0.43958202,0.98630965,-0.0059656394,0.16479573,0.21421652,-0.45196936,-0.8659301,0.11340865,0.8920222,-0.43753266,0.9701803,-0.004477235,0.24234314,9.742004,-0.10772705,1.5586243,9.672272,-0.058502197,1.6160736,0.0010681152,-0.0021209717,0.015960693,-25.312805,17.366028,-12.9348755,0,0.0,0.0,0.0,0.0
0.655609131,0.1447494,-0.44664738,-0.8829233,0.07887272,0.8946899,-0.43966913,0.9863198,-0.0059967255,0.16473413,0.21163923,-0.45183238,-0.8666351,0.111635044,0.8920935,-0.43784338,0.9709513,-0.0040820157,0.2392423,9.818619,-0.14125061,1.4867859,9.672424,-0.058807373,1.6154785,0.0010681152,-0.024490356,-0.0063934326,-25.312805,17.366028,-12.9348755,0,0.0,0.0,0.0,0.0
0.660003662,0.14467607,-0.4467315,-0.88289285,0.078886166,0.89464784,-0.4397526,0.9863295,-0.0060263486,0.16467507,0.21031608,-0.45172888,-0.8670111,0.11097734,0.89214575,-0.4379041,0.9713142,-0.00412031,0.23776427,9.708481,-0.10293579,1.4628448,9.672424,-0.05909729,1.6148834,0.0053253174,-0.0021209717,0.0063934326,-25.312805,17.366028,-12.9348755,0,0.0,0.0,0.0,0.0
0.664398193,0.13339989,-0.55716914,-0.81961393,0.09668571,0.8303771,-0.5487494,0.98633486,-0.0060418556,0.1646425,0.20901723,-0.4516291,-0.86737704,0.11033323,0.8921961,-0.43796426,0.9716678,-0.0041584307,0.23631404,9.641449,-0.11730957,1.5011597,9.672562,-0.059249878,1.6145782,-0.0021362305,0.008529663,-0.0032043457,-25.671387,15.931702,-15.008545,0,0.0,0.0,0.0,0.0
0.668792725,0.13333398,-0.55724007,-0.8195765,0.09667704,0.83032936,-0.54882306,0.9863445,-0.0060574743,0.16458343,0.20746192,-0.4538116,-0.866611,0.11023301,0.8910878,-0.44024,0.97201246,-0.0041960995,0.2348918,9.713272,-0.07899475,1.4963684,9.672562,-0.059402466,1.6139832,0.0,0.02130127,0.003189087,-25.671387,15.931702,-15.008545,0,0.0,0.0,0.0,0.0
0.673187256,0.13328888,-0.5572886,-0.8195508,0.096711926,0.8302965,-0.5488666,0.98634726,-0.0061025186,0.16456573,0.20593756,-0.4559493,-0.8658521,0.11012791,0.88999563,-0.44246984,0.9723485,-0.004233327,0.23349631,9.607925,-0.17955017,1.529892,9.672714,-0.05984497,1.6138306,0.0010681152,0.0138549805,-0.0053253174,-25.671387,15.931702,-15.008545,0,0.0,0.0,0.0,0.0
0.677581787,0.14729248,-0.4152344,-0.89771116,0.07381699,0.9096942,-0.40866554,0.9863346,-0.006072974,0.16464247,0.20444411,-0.4580428,-0.86510074,0.11001911,0.8889199,-0.44465405,0.97267586,-0.0042707114,0.2321279,9.651016,-0.06463623,1.5059509,9.672562,-0.059555054,1.6145782,0.0095825195,0.010665894,-0.0063934326,-26.208496,17.546082,-12.416077,0,0.0,0.0,0.0,0.0
0.681976318,0.14740732,-0.41509512,-0.89775676,0.07382466,0.90975785,-0.4085224,0.98631686,-0.006057391,0.1647492,0.20334038,-0.45719647,-0.8658083,0.109244265,0.88935524,-0.44397396,0.9729945,-0.004306757,0.23078793,9.722839,-0.05505371,1.4436951,9.672424,-0.059402466,1.6156311,0.0,0.029815674,-0.0053253174,-26.208496,17.546082,-12.416077,0,0.0,0.0,0.0,0.0
0.68637085,0.14753982,-0.41493437,-0.8978093,0.07386988,0.90983117,-0.40835115,0.98629373,-0.006073,0.16488747,0.20225942,-0.45636398,-0.8665005,0.10848692,0.8897826,-0.44330296,0.9733045,-0.00434177,0.22947644,9.622284,-0.04548645,1.3910217,9.672119,-0.059555054,1.6169739,0.0063934326,0.039413452,-0.0053253174,-26.208496,17.546082,-12.416077,0,0.0,0.0,0.0,0.0
0.690765381,0.14310348,-0.4675704,-0.87229544,0.082472764,0.883935,-0.4602795,0.98626554,-0.0060730176,0.16505599,0.20120111,-0.45554453,-0.8671778,0.107747376,0.8902022,-0.44264036,0.97360593,-0.0043763947,0.2281934,9.694122,-0.09815979,1.5203094,9.671814,-0.059555054,1.6186218,-0.0053100586,0.05218506,0.003189087,-25.849915,17.1875,-13.453674,0,0.0,0.0,0.0,0.0
0.695159912,0.14326996,-0.46737897,-0.8723708,0.08255312,0.88403606,-0.460071,0.9862346,-0.0061025727,0.16523938,0.20003985,-0.4557859,-0.86731964,0.10726082,0.89007854,-0.44300717,0.97389895,-0.004410327,0.22693913,9.66539,-0.09815979,1.4963684,9.671524,-0.05984497,1.6204224,-0.010635376,0.04899597,-0.004272461,-25.849915,17.1875,-13.453674,0,0.0,0.0,0.0,0.0
0.699554443,0.14342088,-0.46720535,-0.8724389,0.082630746,0.8841277,-0.45988116,0.9862063,-0.00613371,0.1654079,0.19890513,-0.45601854,-0.8674583,0.106784515,0.88995916,-0.44336185,0.9741836,-0.004444172,0.22571315,9.708481,-0.05984497,1.6495972,9.671219,-0.060150146,1.6220703,0.0053253174,0.051132202,0.003189087,-25.849915,17.1875,-13.453674,0,0.0,0.0,0.0,0.0
0.703948975,0.14793831,-0.4168157,-0.8968717,0.074509926,0.90897006,-0.410148,0.9861858,-0.0061492394,0.16552843,0.19779615,-0.456243,-0.8675938,0.1063183,0.889844,-0.44370502,0.9744604,-0.004477963,0.2245147,9.689331,-0.15083313,1.4484863,9.671066,-0.060302734,1.6232605,-0.0042419434,0.039413452,0.0053253174,-26.92566,17.904663,-12.762451,0,0.0,0.0,0.0,0.0
0.708343506,0.14808773,-0.41663373,-0.89693165,0.07459074,0.90905327,-0.40994903,0.98615724,-0.006194369,0.16569665,0.19683006,-0.45546275,-0.8682233,0.10564093,0.8902434,-0.4430651,0.97472966,-0.0045113885,0.22334217,9.660599,-0.05027771,1.5586243,9.670776,-0.06074524,1.6249084,-0.0021362305,0.04260254,-0.0053253174,-26.92566,17.904663,-12.762451,0,0.0,0.0,0.0,0.0
0.712738037,0.14828044,-0.41639894,-0.8970089,0.074614845,0.9091611,-0.40970588,0.98612654,-0.006178812,0.16588034,0.19588503,-0.45469427,-0.86883956,0.10498024,0.890636,-0.44243267,0.9749914,-0.0045450483,0.22219616,9.718063,-0.06463623,1.6208649,9.670471,-0.06059265,1.626709,0.003189087,0.04473877,0.010650635,-26.92566,17.904663,-12.762451,0,0.0,0.0,0.0,0.0
0.717132568,0.14476448,-0.45755696,-0.87731683,0.08141501,0.8891584,-0.4502987,0.986111,-0.0062394952,0.16597058,0.19496152,-0.4539362,-0.8694435,0.10433464,0.8910224,-0.44180688,0.9752457,-0.004577724,0.22107635,9.660599,-0.10772705,1.4341125,9.670319,-0.061187744,1.627594,0.0053253174,0.04473877,-0.0053253174,-26.38855,18.441772,-13.972473,0,0.0,0.0,0.0,0.0
0.7215271,0.14486957,-0.45743972,-0.87736064,0.0816134,0.8892177,-0.45014578,0.98607916,-0.0063919667,0.16615379,0.19598906,-0.4537676,-0.8693004,0.10562027,0.8911042,-0.44133624,0.9749014,-0.0053186687,0.22257374,9.54567,-0.18434143,1.529892,9.670029,-0.062683105,1.6293945,-0.006378174,0.04046631,0.0095825195,-26.38855,18.441772,-13.972473,0,0.0,0.0,0.0,0.0
0.725921631,0.14501263,-0.45728013,-0.8774202,0.08177228,0.8892989,-0.4499563,0.98604494,-0.006499309,0.16635244,0.19497065,-0.4538411,-0.8694911,0.1051472,0.8910667,-0.44152498,0.97515666,-0.0053401343,0.22145195,9.617508,-0.07899475,1.7597351,9.6697235,-0.06373596,1.6313477,0.012786865,0.04899597,0.024475098,-26.38855,18.441772,-13.972473,0,0.0,0.0,0.0,0.0
0.730316162,0.14013982,-0.50726503,-0.8503194,0.090014964,0.8617651,-0.4992578,0.98603153,-0.0065755663,0.16642904,0.19397536,-0.45390993,-0.8696777,0.10468625,0.89103144,-0.44170552,0.97540474,-0.005363318,0.22035627,9.607925,-0.09336853,1.6160736,9.669571,-0.06448364,1.6320953,0.0010681152,0.03302002,0.023422241,-26.208496,16.470337,-14.144897,0,0.0,0.0,0.0,0.0
0.734710693,0.14010729,-0.5073022,-0.85030246,0.09003983,0.86174285,-0.49929154,0.9860339,-0.0066067018,0.16641389,0.1928814,-0.4549942,-0.86935437,0.10445655,0.89047813,-0.4428742,0.97564626,-0.005387563,0.2192838,9.641449,-0.13166809,1.6065063,9.669571,-0.06478882,1.6319427,0.014907837,0.019165039,0.015960693,-26.208496,16.470337,-14.144897,0,0.0,0.0,0.0,0.0
0.739105225,0.14015031,-0.507253,-0.85032487,0.09005399,0.8617719,-0.49923894,0.98602647,-0.006606652,0.16645776,0.19180922,-0.45605686,-0.86903477,0.10422942,0.8899342,-0.44401956,0.9758819,-0.0054119453,0.21823211,9.622284,-0.08378601,1.7405701,9.669571,-0.06478882,1.6323853,0.0063934326,0.004272461,0.010650635,-26.208496,16.470337,-14.144897,0,0.0,0.0,0.0,0.0
0.743499756,0.14263102,-0.48313195,-0.8638517,0.08616486,0.8755224,-0.47543237,0.9860182,-0.0066222604,0.16650566,0.19075999,-0.45709667,-0.8687193,0.10400461,0.88940036,-0.4451404,0.9761115,-0.0054358398,0.21720217,9.651016,-0.10293579,1.7597351,9.669418,-0.064941406,1.632843,0.004257202,0.007461548,0.0063934326,-26.567078,16.828918,-13.798523,0,0.0,0.0,0.0,0.0
0.747894287,0.14258261,-0.48318884,-0.86382794,0.08618379,0.87549084,-0.47548717,0.9860236,-0.006651756,0.16647284,0.18979059,-0.4576214,-0.8686554,0.10367727,0.8891304,-0.44575575,0.9763353,-0.0054595685,0.21619353,9.536102,-0.11730957,1.4963684,9.669571,-0.06523132,1.6325378,-0.0053100586,-0.017044067,0.012771606,-26.567078,16.828918,-13.798523,0,0.0,0.0,0.0,0.0
0.752288818,0.14243044,-0.48336762,-0.86375296,0.08620718,0.8753916,-0.47566545,0.9860435,-0.006712468,0.1663522,0.1888398,-0.4581366,-0.86859107,0.103355706,0.88886493,-0.4463595,0.97655374,-0.005483412,0.21520409,9.651016,-0.026321411,1.5825653,9.6697235,-0.065826416,1.6313477,0.0021362305,-0.012771606,0.015960693,-26.567078,16.828918,-13.798523,0,0.0,0.0,0.0,0.0
0.75668335,0.14271511,-0.47941455,-0.86590654,0.08556042,0.87756264,-0.4717663,0.9860588,-0.0067591453,0.16626035,0.18790518,-0.458645,-0.8685255,0.10304021,0.88860255,-0.44695446,0.97676736,-0.005507993,0.2142319,9.674957,-0.14604187,1.4341125,9.669876,-0.06628418,1.6304474,-0.0010681152,-0.02130127,0.018096924,-26.747131,16.648865,-13.626099,0,0.0,0.0,0.0,0.0
0.761077881,0.14245348,-0.479728,-0.86577594,0.08558862,0.87739044,-0.472081,0.98609406,-0.0068509877,0.16604659,0.18790518,-0.458645,-0.8685255,0.10304021,0.88860255,-0.44695446,0.97676736,-0.005507993,0.2142319,9.674957,-0.14604187,1.4341125,9.670166,-0.06718445,1.6283417,-0.0010681152,-0.02130127,0.018096924,-26.747131,16.648865,-13.626099,0,0.0,0.0,0.0,0.0
0.765472412,0.1423614,-0.47983834,-0.86573,0.085595384,0.8773299,-0.47219232,0.98610675,-0.006880531,0.16596986,0.18609607,-0.45948493,-0.86847097,0.10239347,0.88816816,-0.4479653,0.9771816,-0.005561176,0.21233287,9.68454,-0.13645935,1.4293365,9.670319,-0.067474365,1.627594,-0.0010681152,-0.031951904,0.01171875,-26.747131,16.648865,-13.626099,0,0.0,0.0,0.0,0.0
0.769866943,0.14534722,-0.44548178,-0.8834139,0.08005603,0.89526343,-0.43828562,0.98613644,-0.007019003,0.16578756,0.18521693,-0.45989442,-0.86844224,0.10207872,0.887956,-0.4484574,0.9773815,-0.005587564,0.21140991,9.689331,-0.25138855,1.4006042,9.670624,-0.0688324,1.6258087,-0.0010681152,-0.020233154,0.0095825195,-26.38855,17.72461,-13.279724,0,0.0,0.0,0.0,0.0
0.774261475,0.14524849,-0.44559726,-0.8833719,0.080046326,0.8952059,-0.43840504,0.9861519,-0.0070330054,0.16569574,0.18442994,-0.45960733,-0.86876154,0.10162725,0.88810444,-0.44826594,0.9775773,-0.0056161927,0.21050169,9.722839,-0.10293579,1.3862305,9.670776,-0.06896973,1.6249084,-0.006378174,-0.02130127,0.012771606,-26.38855,17.72461,-13.279724,0,0.0,0.0,0.0,0.0
0.778656006,0.14520304,-0.44565043,-0.8833525,0.08003482,0.8951794,-0.43846115,0.9861595,-0.00703306,0.16565035,0.18365626,-0.45932826,-0.86907303,0.10118512,0.8882487,-0.4480802,0.9777689,-0.005644529,0.20960961,9.674957,-0.07899475,1.4963684,9.670776,-0.06896973,1.6244507,0.0063934326,-0.019165039,-0.004272461,-26.38855,17.72461,-13.279724,0,0.0,0.0,0.0,0.0
0.783050537,0.13897309,-0.50981694,-0.8489837,0.090510085,0.86025363,-0.50176865,0.98615134,-0.007109245,0.16569565,0.18289666,-0.45905575,-0.86937714,0.10075202,0.88838935,-0.44789883,0.97795594,-0.0056723,0.20873424,9.70369,-0.14604187,1.5059509,9.670776,-0.06971741,1.6249084,-0.003189087,0.0032043457,-0.0010681152,-26.38855,16.648865,-14.317322,0,0.0,0.0,0.0,0.0
0.787445068,0.13888863,-0.509913,-0.84893966,0.09053525,0.86019605,-0.50186235,0.9861609,-0.007155993,0.16563657,0.18286777,-0.46034992,-0.8686986,0.10190891,0.8877143,-0.44897428,0.9778415,-0.006425211,0.20924808,9.603134,-0.19392395,1.4820099,9.670776,-0.07017517,1.6243134,0.0021362305,0.02130127,0.01171875,-26.38855,16.648865,-14.317322,0,0.0,0.0,0.0,0.0
0.7918396,0.13892567,-0.5098709,-0.848959,0.09052984,0.86022127,-0.50182027,0.9861561,-0.0071403985,0.16566534,0.18197447,-0.4613562,-0.8683523,0.101729296,0.8871916,-0.45004684,0.9780268,-0.006439827,0.20837967,9.718063,-0.01675415,1.4915771,9.670776,-0.07002258,1.6246033,0.012786865,0.007461548,-0.0021362305,-26.38855,16.648865,-14.317322,0,0.0,0.0,0.0,0.0
0.796234131,0.14313795,-0.468629,-0.8717215,0.08392368,0.8833661,-0.46110865,0.9861381,-0.0071559404,0.16577229,0.1811003,-0.46234092,-0.8680113,0.101551175,0.8866788,-0.4510966,0.9782076,-0.0064538387,0.20752905,9.469055,-0.13166809,1.4628448,9.670624,-0.07017517,1.6256561,-0.015960693,0.020233154,-0.0021362305,-24.954224,17.72461,-13.626099,0,0.0,0.0,0.0,0.0
0.800628662,0.14309976,-0.4686705,-0.87170553,0.08396267,0.8833437,-0.46114436,0.98614025,-0.0072010797,0.16575709,0.18034151,-0.46246687,-0.86810213,0.10120542,0.88661295,-0.45130357,0.9783836,-0.0064678807,0.20669729,9.732422,-0.16519165,1.6112976,9.670624,-0.070617676,1.6255035,0.003189087,0.034088135,-0.0032043457,-24.954224,17.72461,-13.626099,0,0.0,0.0,0.0,0.0
0.805023193,0.14308336,-0.46868822,-0.87169856,0.08402551,0.88333374,-0.46115193,0.98613733,-0.0072617414,0.16577215,0.1795971,-0.46259114,-0.8681903,0.10086714,0.886548,-0.45150685,0.97855544,-0.0064825444,0.20588169,9.689331,-0.20828247,1.371872,9.670624,-0.07121277,1.6256561,0.0,0.023422241,-0.0021362305,-24.954224,17.72461,-13.626099,0,0.0,0.0,0.0,0.0
0.809417725,0.14642027,-0.43154478,-0.8901294,0.07800282,0.9020622,-0.424499,0.9861423,-0.007277338,0.16574188,0.17886728,-0.46271333,-0.86827576,0.10053665,0.88648415,-0.4517059,0.9787231,-0.0064981286,0.20508267,9.66539,-0.10293579,1.5394592,9.670624,-0.07136536,1.625351,0.0,0.027694702,0.0021209717,-25.312805,19.517517,-13.626099,0,0.0,0.0,0.0,0.0
0.813812256,0.14660582,-0.43134907,-0.89019364,0.07796801,0.9021563,-0.4243051,0.9861174,-0.0072010267,0.1658928,0.1782347,-0.46209532,-0.86873484,0.10006424,0.8868063,-0.45117807,0.9788869,-0.006513713,0.20429887,9.713272,0.002380371,1.6591797,9.670471,-0.070617676,1.6268463,-0.0021362305,0.022369385,0.0021209717,-25.312805,19.517517,-13.626099,0,0.0,0.0,0.0,0.0
0.818206787,0.1465777,-0.43137866,-0.89018387,0.07799469,0.90214187,-0.42433086,0.98611957,-0.0072321617,0.16587916,0.1776179,-0.46148562,-0.8691852,0.099601425,0.8871237,-0.45065632,0.97904617,-0.006527459,0.20353365,9.6558075,-0.15560913,1.6017151,9.670471,-0.07092285,1.626709,0.004257202,0.031951904,-0.009597778,-25.312805,19.517517,-13.626099,0,0.0,0.0,0.0,0.0
0.822601318,0.14308056,-0.4689267,-0.8715708,0.08405899,0.8832074,-0.461388,0.98613495,-0.00724772,0.16578731,0.17701207,-0.46088848,-0.86962557,0.09914915,0.88743395,-0.4501449,0.9792018,-0.006541553,0.20278323,9.603134,-0.11730957,1.6304474,9.670624,-0.07107544,1.6258087,0.0063934326,0.015991211,-0.009597778,-25.132751,18.621826,-14.144897,0,0.0,0.0,0.0,0.0
0.82699585,0.14307337,-0.46893427,-0.87156796,0.08407242,0.88320315,-0.4613934,0.9861347,-0.0072617223,0.16578728,0.17701207,-0.46088848,-0.86962557,0.09914915,0.88743395,-0.4501449,0.9792018,-0.006541553,0.20278323,9.603134,-0.11730957,1.6304474,9.670624,-0.07121277,1.6258087,0.0063934326,0.015991211,-0.009597778,-25.132751,18.621826,-14.144897,0,0.0,0.0,0.0,0.0
0.831390381,0.14303452,-0.46897495,-0.87155247,0.08411264,0.88318133,-0.46142823,0.98613703,-0.0073084184,0.16577211,0.17566727,-0.46120787,-0.86972886,0.09856611,0.8872678,-0.45060027,0.9795028,-0.0065700714,0.20132338,9.612717,-0.16998291,1.5681915,9.670624,-0.07167053,1.6256561,-0.0053100586,-0.008514404,0.007446289,-25.132751,18.621826,-14.144897,0,0.0,0.0,0.0,0.0
0.835784912,0.14412701,-0.4571877,-0.87761426,0.08219604,0.8893402,-0.44979754,0.98613954,-0.007308437,0.16575697,0.17501418,-0.46136355,-0.869778,0.09828369,0.8871867,-0.4508215,0.97964805,-0.006584839,0.20061477,9.713272,-0.09336853,1.5873413,9.670624,-0.07167053,1.6255035,-0.0010681152,0.009597778,-0.012786865,-26.747131,17.72461,-13.626099,0,0.0,0.0,0.0,0.0
0.840179443,0.14407286,-0.45725092,-0.8775902,0.0821987,0.8893075,-0.44986156,0.9861472,-0.0073239384,0.16571052,0.17439987,-0.46128014,-0.86994565,0.097960085,0.88723004,-0.45080677,0.97979003,-0.006599311,0.19991983,9.560043,-0.08857727,1.4820099,9.670776,-0.07182312,1.625061,-0.0053100586,-0.0053253174,-0.004272461,-26.747131,17.72461,-13.626099,0,0.0,0.0,0.0,0.0
0.844573975,0.14400536,-0.45732975,-0.87756026,0.082196206,0.8892669,-0.44994235,0.98615724,-0.0073380168,0.16564997,0.1737967,-0.4611996,-0.8701089,0.09764317,0.8872717,-0.45079333,0.9799288,-0.006613803,0.1992379,9.66539,-0.11730957,1.4772186,9.670776,-0.07196045,1.6244507,-0.007446289,-0.0021209717,0.0010681152,-26.747131,17.72461,-13.626099,0,0.0,0.0,0.0,0.0
0.848968506,0.14408845,-0.45723274,-0.8775971,0.08227024,0.8893163,-0.44983098,0.98613894,-0.0073846756,0.16575688,0.17320402,-0.46112236,-0.8702681,0.09733264,0.8873118,-0.4507817,0.98006463,-0.006628288,0.19856822,9.617508,-0.13645935,1.6065063,9.670624,-0.07241821,1.6255035,0.0021362305,-0.003189087,0.008514404,-26.747131,17.72461,-13.626099,0,0.0,0.0,0.0,0.0
0.853363037,0.14411867,-0.4571975,-0.87761056,0.0822783,0.8893345,-0.44979367,0.9861339,-0.0073846374,0.16578713,0.17399417,-0.4605093,-0.87043506,0.09781797,0.88762856,-0.45005247,0.9798764,-0.0068376963,0.19948827,9.727631,-0.08378601,1.7501526,9.670624,-0.07241821,1.6258087,-0.009567261,0.024490356,0.0010681152,-26.747131,17.72461,-13.626099,0,0.0,0.0,0.0,0.0
0.857757568,0.14411853,-0.45719767,-0.87761045,0.08238012,0.8893336,-0.44977674,0.9861254,-0.0074764937,0.16583346,0.1733997,-0.4604431,-0.8705887,0.097506,0.8876628,-0.45005256,0.98001283,-0.0068486347,0.19881643,9.698898,-0.17477417,1.4915771,9.670471,-0.07331848,1.6262512,0.0021362305,0.0010681152,-0.0032043457,-26.747131,17.72461,-13.626099,0,0.0,0.0,0.0,0.0
0.8621521,0.13865256,-0.5119935,-0.8477252,0.09119348,0.85895693,-0.5038616,0.9861334,-0.007445317,0.16578706,0.1728169,-0.46037823,-0.87073886,0.097202286,0.8876963,-0.45005214,0.98014593,-0.0068611917,0.19815876,9.708481,-0.011962891,1.5442505,9.670624,-0.073013306,1.6258087,0.0095825195,0.020233154,0.01171875,-27.105713,18.08319,-15.354919,0,0.0,0.0,0.0,0.0
0.866546631,0.13861427,-0.512035,-0.8477065,0.09119794,0.8589322,-0.5039032,0.9861384,-0.0074609146,0.16575678,0.17212367,-0.46142694,-0.870321,0.09711959,0.88715166,-0.4511428,0.9802761,-0.0068728747,0.19751337,9.68454,-0.13166809,1.5442505,9.670624,-0.07316589,1.6255035,-0.009567261,-0.004257202,0.0021209717,-27.105713,18.08319,-15.354919,0,0.0,0.0,0.0,0.0
0.870941162,0.13857743,-0.5120748,-0.8476884,0.0912029,0.8589082,-0.503943,0.9861431,-0.00747651,0.16572802,0.17144373,-0.46245483,-0.8699096,0.09703715,0.8866161,-0.45221198,0.9804034,-0.006884635,0.19688007,9.579193,-0.08857727,1.5107269,9.670624,-0.07331848,1.6252136,-0.009567261,0.019165039,-0.0053253174,-27.105713,18.08319,-15.354919,0,0.0,0.0,0.0,0.0
0.875335693,0.14301226,-0.4680603,-0.8720476,0.084077016,0.883665,-0.4605075,0.9861433,-0.0074609513,0.16572803,0.17077716,-0.4634624,-0.8695044,0.09695516,0.88608974,-0.45326006,0.9805279,-0.0068964725,0.19625895,9.641449,-0.05027771,1.6352386,9.670624,-0.07316589,1.6252136,-0.007446289,0.010665894,0.0053253174,-25.312805,17.007446,-13.279724,0,0.0,0.0,0.0,0.0
0.879730225,0.14299476,-0.46808025,-0.8720398,0.084071904,0.8836545,-0.4605287,0.9861462,-0.007460856,0.16571036,0.1702221,-0.4635545,-0.86956406,0.09670124,0.8860415,-0.4534086,0.9806495,-0.006907762,0.19565015,9.670166,-0.05505371,1.5634003,9.670776,-0.07316589,1.625061,-0.0053100586,0.010665894,0.01171875,-25.312805,17.007446,-13.279724,0,0.0,0.0,0.0,0.0
0.884124756,0.14294972,-0.4681316,-0.87201965,0.08405907,0.88362736,-0.46058327,0.9861539,-0.0074609136,0.16566496,0.16967778,-0.4636451,-0.8696221,0.09645216,0.88599396,-0.45355445,0.98076826,-0.006918824,0.19505306,9.68454,-0.05984497,1.529892,9.670776,-0.07316589,1.6246033,0.003189087,0.01171875,0.0010681152,-25.312805,17.007446,-13.279724,0,0.0,0.0,0.0,0.0
0.888519287,0.14331296,-0.4639371,-0.874199,0.08331256,0.88583714,-0.45645553,0.9861645,-0.007415765,0.16560371,0.16914338,-0.46373495,-0.8696783,0.09620769,0.88594687,-0.4536984,0.9808846,-0.006929666,0.19446692,9.627075,-0.10772705,1.419754,9.670914,-0.07272339,1.6240082,-0.0010681152,0.014923096,-0.0032043457,-26.208496,17.904663,-13.798523,0,0.0,0.0,0.0,0.0
0.892913818,0.14322974,-0.464031,-0.87416273,0.083304465,0.88578784,-0.45655268,0.98617727,-0.0074297474,0.165527,0.16914338,-0.46373495,-0.8696783,0.09620769,0.88594687,-0.4536984,0.9808846,-0.006929666,0.19446692,9.627075,-0.10772705,1.419754,9.671066,-0.07286072,1.6232605,-0.0010681152,0.014923096,-0.0032043457,-26.208496,17.904663,-13.798523,0,0.0,0.0,0.0,0.0
0.89730835,0.14314818,-0.46412304,-0.87412727,0.0832987,0.88573945,-0.4566475,0.98618954,-0.0074454,0.16545282,0.16811967,-0.46374667,-0.8698705,0.095698446,0.88594055,-0.45381835,0.9811104,-0.006949469,0.19332388,9.66539,-0.14125061,1.4006042,9.671066,-0.073013306,1.6225128,-0.0042419434,0.0063934326,-0.0021362305,-26.208496,17.904663,-13.798523,0,0.0,0.0,0.0,0.0
0.901702881,0.13271774,-0.5619598,-0.8164479,0.09915611,0.82713014,-0.55319405,0.9861815,-0.007537142,0.16549659,0.16762143,-0.46375424,-0.86996263,0.095451355,0.88593656,-0.45387825,0.9812197,-0.006959387,0.19276793,9.603134,-0.29927063,1.7357941,9.671066,-0.073913574,1.6229553,0.008514404,0.017044067,0.0021209717,-26.38855,15.57312,-15.008545,0,0.0,0.0,0.0,0.0
0.906097412,0.1327047,-0.5619742,-0.81644005,0.09915081,0.82712036,-0.5532097,0.9861839,-0.00753716,0.16548298,0.16691528,-0.4657823,-0.86901444,0.09559233,0.88487184,-0.4559209,0.98132634,-0.0069709425,0.19222385,9.6558075,-0.07899475,1.577774,9.671066,-0.073913574,1.622818,-0.011703491,0.014923096,0.012771606,-26.38855,15.57312,-15.008545,0,0.0,0.0,0.0,0.0
0.910491943,0.13265586,-0.56202865,-0.8164106,0.099167995,0.8270832,-0.55326235,0.9861887,-0.0075683165,0.16545267,0.1662232,-0.4677678,-0.8680801,0.09572776,0.8838238,-0.45792103,0.98143065,-0.0069822664,0.19169037,9.708481,-0.13166809,1.5586243,9.671066,-0.07421875,1.6225128,-0.006378174,0.014923096,-0.0053253174,-26.38855,15.57312,-15.008545,0,0.0,0.0,0.0,0.0
0.914886475,0.14157718,-0.47995922,-0.8657916,0.08598248,0.877258,-0.47225556,0.98618597,-0.0075822994,0.16546778,0.16554415,-0.46971244,-0.86715937,0.095858365,0.88279176,-0.45988026,0.9815327,-0.0069939876,0.1911669,9.622284,-0.12689209,1.6639557,9.671066,-0.07435608,1.6226654,0.0010681152,0.014923096,0.0021209717,-25.671387,17.007446,-13.626099,0,0.0,0.0,0.0,0.0
0.919281006,0.14160398,-0.47992867,-0.8658041,0.086025454,0.87727433,-0.47221723,0.9861784,-0.007613361,0.16551162,0.16506346,-0.469918,-0.8671396,0.09566677,0.8826822,-0.4601303,0.9816323,-0.0070057535,0.19065413,9.641449,-0.14125061,1.7501526,9.671066,-0.074661255,1.6231079,0.003189087,0.0021362305,0.0053253174,-25.671387,17.007446,-13.626099,0,0.0,0.0,0.0,0.0
0.923675537,0.1416048,-0.47992778,-0.86580443,0.0860608,0.87727463,-0.47221038,0.98617524,-0.007644576,0.16552927,0.16479088,-0.47053483,-0.86685693,0.09510831,0.88235754,-0.46086836,0.9817323,-0.0064983927,0.19015625,9.670166,-0.15083313,1.6448059,9.670914,-0.07496643,1.6232605,0.008514404,0.0,-0.0063934326,-25.671387,17.007446,-13.626099,0,0.0,0.0,0.0,0.0
0.928070068,0.14095964,-0.4860438,-0.8624916,0.08702524,0.87390095,-0.47825056,0.986183,-0.007644516,0.16548283,0.16432619,-0.4707232,-0.86684287,0.09493262,0.8822568,-0.46109727,0.9818272,-0.0065213162,0.18966489,9.679749,-0.10293579,1.5203094,9.671066,-0.07496643,1.622818,0.003189087,-0.0010528564,0.0,-27.28424,17.1875,-14.144897,0,0.0,0.0,0.0,0.0
0.9324646,0.14098106,-0.48601863,-0.8625023,0.08708266,0.8739146,-0.4782153,0.98617494,-0.0076896977,0.16552922,0.16385676,-0.47103107,-0.86676455,0.0947827,0.88209236,-0.46144265,0.9819201,-0.00654378,0.18918239,9.622284,-0.17955017,1.7453613,9.670914,-0.075408936,1.6232605,0.0,-0.010650635,0.004257202,-27.28424,17.1875,-14.144897,0,0.0,0.0,0.0,0.0
0.936859131,0.14083968,-0.48618498,-0.8624317,0.087108634,0.8738216,-0.4783806,0.9861928,-0.007750277,0.16541964,0.16339721,-0.4713322,-0.86668754,0.09463655,0.8819313,-0.46178034,0.98201084,-0.0065666987,0.18871038,9.588776,-0.24180603,1.6208649,9.671219,-0.07600403,1.6222076,0.0010681152,-0.017044067,-0.015975952,-27.28424,17.1875,-14.144897,0,0.0,0.0,0.0,0.0
0.941253662,0.13836065,-0.5100583,-0.8489387,0.09097264,0.86010474,-0.50194025,0.98619497,-0.0077814134,0.16540599,0.16294411,-0.4716306,-0.8666106,0.09449366,0.8817716,-0.46211448,0.98209995,-0.0065903706,0.1882456,9.617508,-0.17955017,1.5825653,9.671219,-0.076309204,1.6220703,0.0021362305,-0.026626587,-0.0021362305,-26.747131,17.72461,-15.008545,0,0.0,0.0,0.0,0.0
0.945648193,0.13827717,-0.5101494,-0.8488975,0.09096144,0.8600505,-0.50203514,0.98620766,-0.00779695,0.16532926,0.1624476,-0.4724084,-0.8662801,0.0944432,0.881355,-0.46291897,0.98218703,-0.006614191,0.18778975,9.70369,-0.12210083,1.4245453,9.671371,-0.07646179,1.6213226,0.0053253174,0.005340576,0.007446289,-26.747131,17.72461,-15.008545,0,0.0,0.0,0.0,0.0
0.950042725,0.138222,-0.5102096,-0.8488703,0.090994045,0.86001426,-0.50209105,0.9862123,-0.0078421105,0.16529894,0.16195954,-0.4731722,-0.8659545,0.094392866,0.88094497,-0.46370897,0.98227245,-0.0066378466,0.18734151,9.698898,-0.18913269,1.5251007,9.671371,-0.0769043,1.6210175,0.0021362305,0.0032043457,-0.0138549805,-26.747131,17.72461,-15.008545,0,0.0,0.0,0.0,0.0
0.954437256,0.14624834,-0.42541653,-0.8931025,0.07731356,0.90496355,-0.41840604,0.98622215,-0.007857748,0.16523989,0.16148026,-0.47392157,-0.8656342,0.09434346,0.88054186,-0.46448398,0.98235613,-0.006661932,0.18690152,9.636658,-0.11730957,1.4772186,9.671371,-0.077056885,1.6204224,-0.0010681152,0.0063934326,-0.0021362305,-26.38855,18.08319,-12.9348755,0,0.0,0.0,0.0,0.0
0.958831787,0.14621608,-0.4254545,-0.8930898,0.07733989,0.9049454,-0.41844028,0.9862248,-0.007888765,0.16522217,0.16119042,-0.4729647,-0.8662113,0.09398473,0.881056,-0.46358085,0.9824381,-0.0066858483,0.18646924,9.560043,-0.12689209,1.5442505,9.671524,-0.07736206,1.6202698,0.0010681152,0.007461548,-0.008529663,-26.38855,18.08319,-12.9348755,0,0.0,0.0,0.0,0.0
0.963226318,0.14618558,-0.42549035,-0.8930777,0.07733288,0.90492857,-0.41847807,0.9862299,-0.007888806,0.1651919,0.160905,-0.47202718,-0.8667756,0.09363434,0.8815585,-0.46269572,0.9825183,-0.0067099067,0.18604513,9.689331,-0.07899475,1.5681915,9.671524,-0.07736206,1.6199646,0.0010681152,0.018096924,-0.0032043457,-26.38855,18.08319,-12.9348755,0,0.0,0.0,0.0,0.0
0.96762085,0.1421807,-0.4692453,-0.87154657,0.08434852,0.8830327,-0.46166924,0.9862403,-0.0078732055,0.16513038,0.16062409,-0.4711086,-0.86732733,0.09329146,0.88204956,-0.46182826,0.98259693,-0.006733485,0.18562882,9.641449,-0.03590393,1.4436951,9.671677,-0.07720947,1.6193695,0.0010681152,0.007461548,-0.01171875,-25.491333,17.904663,-13.798523,0,0.0,0.0,0.0,0.0
0.972015381,0.14231767,-0.46909532,-0.8716049,0.084321514,0.8831129,-0.4615207,0.9862229,-0.007812507,0.16523741,0.16025628,-0.47107136,-0.86741555,0.093112156,0.88206923,-0.4618268,0.98267394,-0.0067562796,0.1852196,9.646225,-0.02154541,1.5873413,9.671524,-0.07661438,1.6204224,0.007461548,0.01171875,0.003189087,-25.491333,17.904663,-13.798523,0,0.0,0.0,0.0,0.0
0.976409912,0.14231043,-0.46910328,-0.8716019,0.08433501,0.88310856,-0.4615265,0.98622274,-0.00782651,0.1652374,0.15989856,-0.47103187,-0.867503,0.09293585,0.88209015,-0.46182236,0.9827489,-0.0067774043,0.1848207,9.674957,-0.11730957,1.6208649,9.671524,-0.07675171,1.6204224,0.0,0.026626587,-0.009597778,-25.491333,17.904663,-13.798523,0,0.0,0.0,0.0,0.0
0.980804443,0.14022106,-0.49089962,-0.8598579,0.08794322,0.8711804,-0.48302242,0.9862069,-0.007888746,0.16532914,0.15954779,-0.47099334,-0.86758846,0.092763364,0.8821106,-0.46181804,0.9828222,-0.0067983866,0.18442972,9.660599,-0.07899475,1.553833,9.671371,-0.07736206,1.6213226,0.0053253174,0.0032043457,-0.0010681152,-26.567078,17.1875,-14.144897,0,0.0,0.0,0.0,0.0
0.985198975,0.1403942,-0.49070168,-0.85994256,0.087979764,0.871292,-0.4828143,0.986179,-0.007873212,0.16549617,0.15915905,-0.47139388,-0.8674423,0.092675425,0.88189644,-0.4622445,0.9828935,-0.0068201935,0.18404843,9.718063,-0.05984497,1.6112976,9.671066,-0.07720947,1.6229553,0.010650635,0.027694702,0.014892578,-26.567078,17.1875,-14.144897,0,0.0,0.0,0.0,0.0
0.989593506,0.1404018,-0.4906931,-0.8599463,0.08803332,0.8712966,-0.48279664,0.9861732,-0.007918414,0.16552894,0.16121632,-0.47188157,-0.866797,0.09372912,0.8816366,-0.46252745,0.98245823,-0.0066771503,0.18636326,9.689331,-0.08378601,1.4053955,9.670914,-0.07765198,1.6232605,0.0021362305,0.041534424,-0.0021362305,-26.567078,17.1875,-14.144897,0,0.0,0.0,0.0,0.0
0.993988037,0.14372504,-0.4569575,-0.8778,0.08268552,0.8894526,-0.44948515,0.98615724,-0.007979082,0.1656204,0.16079779,-0.47225997,-0.86666864,0.09362393,0.88143384,-0.46293515,0.98253685,-0.006701976,0.18594745,9.646225,-0.06942749,1.4341125,9.670776,-0.07824707,1.6241608,0.008514404,0.027694702,0.01171875,-26.208496,18.263245,-13.798523,0,0.0,0.0,0.0,0.0
0.998382568,0.14372432,-0.4569583,-0.87779975,0.082821645,0.8894512,-0.44946313,0.986146,-0.00810204,0.16568181,0.16046032,-0.47195524,-0.86689717,0.093399435,0.8815968,-0.46267006,0.9826134,-0.006727518,0.18554166,9.598343,-0.22744751,1.4149628,9.670624,-0.079452515,1.6247559,-0.009567261,0.038345337,0.01171875,-26.208496,18.263245,-13.798523,0,0.0,0.0,0.0,0.0
1.0027771,0.143907,-0.45675397,-0.87787616,0.08290512,0.8895558,-0.4492405,0.9861123,-0.008131582,0.16588055,0.16012941,-0.47165662,-0.86712086,0.09318238,0.8817564,-0.4624096,0.98268795,-0.0067550084,0.18514521,9.631866,-0.05027771,1.6639557,9.670319,-0.07974243,1.626709,-0.003189087,0.031951904,0.012771606,-26.208496,18.263245,-13.798523,0,0.0,0.0,0.0,0.0
1.007171631,0.14059535,-0.49185804,-0.8592489,0.08872421,0.8706367,-0.48385918,0.9860836,-0.008207833,0.16604719,0.15980856,-0.47135985,-0.8673414,0.0929715,0.8819149,-0.4621498,0.9827602,-0.0067825397,0.18476059,9.646225,-0.10772705,1.5394592,9.670029,-0.08049011,1.6283417,-0.0042419434,0.041534424,0.0095825195,-26.747131,17.366028,-14.317322,0,0.0,0.0,0.0,0.0
1.011566162,0.14066876,-0.4917745,-0.8592847,0.08878252,0.87068367,-0.4837641,0.98606795,-0.008238952,0.16613898,0.15942217,-0.47177237,-0.8671882,0.09289512,0.8816941,-0.46258628,0.98283017,-0.0068110456,0.18438694,9.636658,-0.09336853,1.6543884,9.669876,-0.08079529,1.629242,-0.008514404,0.04685974,0.012771606,-26.747131,17.366028,-14.317322,0,0.0,0.0,0.0,0.0
1.015960693,0.14079769,-0.49162778,-0.85934746,0.08880528,0.87076664,-0.48361054,0.9860475,-0.008223351,0.16626108,0.15942217,-0.47177237,-0.8671882,0.09289512,0.8816941,-0.46258628,0.98283017,-0.0068110456,0.18438694,9.636658,-0.09336853,1.6543884,9.6697235,-0.0806427,1.6304474,-0.008514404,0.04685974,0.012771606,-26.747131,17.366028,-14.317322,0,0.0,0.0,0.0,0.0
1.020355225,0.14156371,-0.4840461,-0.8635156,0.08757902,0.875004,-0.4761283,0.9860475,-0.008223351,0.16626108,0.15868075,-0.47256333,-0.8668935,0.092748754,0.88126993,-0.46342304,0.9829639,-0.0068669734,0.18367024,9.598343,-0.05505371,1.6256561,9.6697235,-0.0806427,1.6304474,-0.0042419434,0.026626587,-0.004272461,-26.38855,18.441772,-14.663696,0,0.0,0.0,0.0,0.0
1.024749756,0.14163898,-0.4839648,-0.8635487,0.087602906,0.8750488,-0.47604126,0.9860346,-0.008223373,0.16633776,0.15833731,-0.47279382,-0.8668306,0.09264979,0.8811461,-0.46367827,0.98302865,-0.0068941014,0.18332253,9.641449,-0.08857727,1.7597351,9.669571,-0.0806427,1.6311951,-0.012771606,0.0063934326,0.003189087,-26.38855,18.441772,-14.663696,0,0.0,0.0,0.0,0.0
1.029144287,0.14169699,-0.48390225,-0.8635744,0.08762119,0.8750835,-0.47597432,0.9860246,-0.008223291,0.16639675,0.15833731,-0.47279382,-0.8668306,0.09264979,0.8811461,-0.46367827,0.98302865,-0.0068941014,0.18332253,9.641449,-0.08857727,1.7597351,9.669571,-0.0806427,1.6317902,-0.012771606,0.0063934326,0.003189087,-26.38855,18.441772,-14.663696,0,0.0,0.0,0.0,0.0
1.033538818,0.1363707,-0.53248614,-0.83538103,0.09535555,0.84639895,-0.52394295,0.98605806,-0.00820775,0.16619954,0.15767634,-0.4732352,-0.8667103,0.09245872,0.8809087,-0.46416718,0.98315287,-0.0069467374,0.18265317,9.708481,-0.06942749,1.6304474,9.669876,-0.08049011,1.6298523,-0.013839722,-0.017044067,0.0021209717,-25.849915,16.111755,-14.489746,0,0.0,0.0,0.0,0.0
1.03793335,0.13620971,-0.5326654,-0.835293,0.09535053,0.84628564,-0.5241267,0.9860807,-0.008254489,0.16606227,0.1572482,-0.474443,-0.8661275,0.09254124,0.8802586,-0.4653825,0.98321366,-0.006971958,0.18232462,9.588776,-0.12689209,1.687912,9.670029,-0.080947876,1.6284943,0.0,-0.041534424,-0.0032043457,-25.849915,16.111755,-14.489746,0,0.0,0.0,0.0,0.0
1.042327881,0.13594133,-0.53296393,-0.8351463,0.09533998,0.84609693,-0.52443326,0.9861188,-0.008330672,0.16583234,0.15682545,-0.47562948,-0.8655532,0.09262132,0.87961787,-0.46657655,0.9832736,-0.0069976086,0.1819999,9.732422,-0.15083313,1.6065063,9.670471,-0.08169556,1.6262512,0.008514404,-0.03727722,0.0053253174,-25.849915,16.111755,-14.489746,0,0.0,0.0,0.0,0.0
1.046722412,0.13867292,-0.50640655,-0.85107124,0.090988815,0.8622545,-0.4982352,0.98614955,-0.008346229,0.16564868,0.15640569,-0.47679764,-0.86498624,0.092699036,0.878985,-0.4677523,0.9833332,-0.00702427,0.18167694,9.66539,-0.10772705,1.7070618,9.670776,-0.081848145,1.6244507,-0.0010681152,-0.04899597,0.01171875,-24.954224,16.648865,-13.972473,0,0.0,0.0,0.0,0.0
1.051116943,0.13839936,-0.5067049,-0.85093814,0.09100006,0.8620782,-0.49853787,0.9861868,-0.008438097,0.16542125,0.15604867,-0.4773954,-0.86472106,0.09267578,0.8786603,-0.4683666,0.9833921,-0.00705071,0.18135676,9.646225,-0.19392395,1.4293365,9.671066,-0.08274841,1.6222076,0.0138549805,-0.051132202,0.0010681152,-24.954224,16.648865,-13.972473,0,0.0,0.0,0.0,0.0
1.055511475,0.13822861,-0.50689113,-0.850855,0.090957396,0.8619687,-0.49873522,0.9862148,-0.008452075,0.16525424,0.1532661,-0.4780455,-0.8648596,0.09221311,0.8783,-0.46913308,0.98387307,-0.007849182,0.17869568,9.52652,-0.16040039,1.5107269,9.671371,-0.08288574,1.620575,-0.0010681152,-0.036209106,0.01171875,-24.954224,16.648865,-13.972473,0,0.0,0.0,0.0,0.0
1.059906006,0.13823654,-0.5068825,-0.85085887,0.0909441,0.86197394,-0.49872863,0.98621494,-0.008438071,0.16525425,0.15296334,-0.47862768,-0.86459106,0.09219695,0.8779828,-0.4697297,0.9839217,-0.00786124,0.17842719,9.622284,-0.02154541,1.6256561,9.671371,-0.08274841,1.620575,0.003189087,-0.028747559,-0.004272461,-24.954224,16.648865,-13.972473,0,0.0,0.0,0.0,0.0
1.064300537,0.13820505,-0.50691676,-0.85084355,0.090967104,0.8619534,-0.49875975,0.9862172,-0.008467655,0.16523907,0.15266678,-0.47919783,-0.8643276,0.092180446,0.87767166,-0.47031403,0.9839693,-0.007872777,0.17816396,9.742004,-0.17955017,1.6017151,9.671371,-0.08303833,1.6204224,0.0,-0.019165039,-0.0010681152,-24.954224,16.648865,-13.972473,0,0.0,0.0,0.0,0.0
1.068695068,0.13814913,-0.5069778,-0.8508163,0.09100133,0.86191714,-0.49881634,0.9862219,-0.0085143745,0.16520874,0.15237567,-0.47975707,-0.8640687,0.09216446,0.8773659,-0.47088718,0.9840159,-0.007884674,0.17790577,9.48822,-0.20828247,1.4867859,9.671371,-0.083496094,1.6201172,0.0063934326,-0.022369385,-0.0032043457,-24.954224,16.648865,-13.972473,0,0.0,0.0,0.0,0.0
1.0730896,0.14051321,-0.48373199,-0.86386305,0.087310955,0.87517434,-0.47586417,0.98622155,-0.008559495,0.16520868,0.15208925,-0.4803062,-0.86381406,0.09214913,0.8770653,-0.47144982,0.98406166,-0.007897268,0.17765202,9.6558075,-0.17955017,1.6304474,9.671371,-0.0839386,1.6201172,-0.0042419434,-0.007446289,-0.0021362305,-26.208496,18.263245,-14.489746,0,0.0,0.0,0.0,0.0
1.077484131,0.14052156,-0.48372298,-0.8638668,0.08729606,0.87517947,-0.47585744,0.9862216,-0.008543936,0.16520868,0.15185758,-0.48037484,-0.86381674,0.09205337,0.87702763,-0.4715387,0.9841064,-0.007910512,0.1774034,9.694122,-0.06463623,1.6352386,9.671371,-0.08378601,1.6201172,0.0053253174,-0.011703491,0.0021209717,-26.208496,18.263245,-14.489746,0,0.0,0.0,0.0,0.0
1.081878662,0.14051321,-0.48373199,-0.86386305,0.087310955,0.87517434,-0.47586417,0.98622155,-0.008559495,0.16520868,0.15163068,-0.48044184,-0.8638193,0.09195914,0.8769908,-0.47162554,0.9841502,-0.007923181,0.17715974,9.761154,-0.13166809,1.6160736,9.671371,-0.0839386,1.6201172,0.004257202,-0.012771606,0.007446289,-26.208496,18.263245,-14.489746,0,0.0,0.0,0.0,0.0
1.086273193,0.14870997,-0.39206833,-0.90783685,0.072541416,0.91989636,-0.38539368,0.9862165,-0.008543891,0.16523895,0.1514082,-0.48050773,-0.8638217,0.0918671,0.8769546,-0.4717108,0.9841931,-0.007935908,0.17692097,9.540894,-0.03590393,1.6735382,9.671371,-0.08378601,1.6204224,-0.003189087,0.007461548,0.0010681152,-24.954224,18.08319,-11.897278,0,0.0,0.0,0.0,0.0
1.090667725,0.148688,-0.39209372,-0.90782946,0.072553754,0.91988546,-0.3854176,0.98621905,-0.008559473,0.1652238,0.15137784,-0.47878167,-0.86478484,0.09146814,0.87789804,-0.4700305,0.98423487,-0.007948067,0.17668757,9.6558075,-0.10772705,1.6017151,9.671371,-0.0839386,1.6202698,0.004257202,0.020233154,0.0063934326,-24.954224,18.08319,-11.897278,0,0.0,0.0,0.0,0.0
1.095062256,0.14879695,-0.39196756,-0.9078662,0.07260869,0.919939,-0.38527957,0.9861985,-0.008590549,0.16534434,0.15134667,-0.47708878,-0.8657254,0.09107782,0.878819,-0.4683822,0.9842758,-0.007960295,0.17645852,9.679749,-0.04069519,1.5490417,9.671219,-0.084243774,1.62146,0.003189087,0.018096924,0.0021209717,-24.954224,18.08319,-11.897278,0,0.0,0.0,0.0,0.0
1.099456787,0.14257763,-0.4642477,-0.8741542,0.08435225,0.8856632,-0.4566018,0.9861827,-0.008635671,0.16543612,0.1513173,-0.4754257,-0.866645,0.09069704,0.8797198,-0.46676245,0.9843156,-0.0079729,0.17623651,9.612717,-0.08857727,1.4389038,9.671066,-0.08468628,1.6223602,-0.0042419434,0.034088135,0.008514404,-25.132751,18.263245,-13.798523,0,0.0,0.0,0.0,0.0
1.103851318,0.14268324,-0.46413472,-0.8741971,0.084383555,0.88572264,-0.45648113,0.98616475,-0.00863565,0.16554308,0.15114404,-0.47520286,-0.86679745,0.09056792,0.87984,-0.4665608,0.9843541,-0.007986156,0.1760207,9.603134,-0.15083313,1.5442505,9.670914,-0.08468628,1.6234131,0.0053253174,0.036209106,0.012771606,-25.132751,18.263245,-13.798523,0,0.0,0.0,0.0,0.0
1.10824585,0.14280342,-0.46400607,-0.87424576,0.08448675,0.88578933,-0.45633236,0.98613846,-0.008696361,0.1656961,0.1509763,-0.47498223,-0.86694753,0.090442106,0.879959,-0.46636072,0.98439133,-0.007999145,0.17581134,9.627075,-0.08857727,1.5681915,9.670624,-0.08528137,1.6249084,0.0063934326,0.031951904,-0.007461548,-25.132751,18.263245,-13.798523,0,0.0,0.0,0.0,0.0
1.112640381,0.14266102,-0.46669748,-0.87283516,0.0849986,0.884374,-0.45897457,0.9861151,-0.00871199,0.16583434,0.15081415,-0.47476342,-0.8670956,0.09032091,0.88007694,-0.46616164,0.98442733,-0.00801309,0.17560911,9.674957,-0.02154541,1.5155182,9.670319,-0.08543396,1.6262512,-0.0010681152,0.038345337,0.013824463,-25.849915,17.904663,-13.798523,0,0.0,0.0,0.0,0.0
1.117034912,0.14263552,-0.46672577,-0.87282413,0.08500842,0.88435894,-0.45900184,0.986118,-0.008727438,0.16581665,0.15065211,-0.47460246,-0.8672118,0.09021301,0.8801636,-0.46601886,0.984462,-0.008027068,0.17541382,9.603134,-0.11730957,1.5634003,9.670471,-0.08558655,1.6260986,-0.0042419434,0.043670654,0.008514404,-25.849915,17.904663,-13.798523,0,0.0,0.0,0.0,0.0
1.121429443,0.14279428,-0.46654934,-0.8728926,0.0851048,0.8844517,-0.45880544,0.9860867,-0.008772559,0.16600023,0.15049271,-0.47444534,-0.86732554,0.09010751,0.88024825,-0.46587947,0.9844961,-0.008041075,0.17522204,9.68454,-0.16040039,1.5729828,9.670166,-0.08602905,1.6278992,0.004257202,0.02130127,0.003189087,-25.849915,17.904663,-13.798523,0,0.0,0.0,0.0,0.0
1.125823975,0.1429932,-0.46595576,-0.8731771,0.08510074,0.88476443,-0.45820284,0.9860582,-0.008788128,0.16616845,0.15316151,-0.47435936,-0.8669053,0.09160097,0.8802939,-0.46550176,0.98394656,-0.008112417,0.17827892,9.66539,-0.14604187,1.7310028,9.669876,-0.08618164,1.6295471,0.0010681152,0.050064087,0.0010681152,-25.671387,17.007446,-13.279724,0,0.0,0.0,0.0,0.0
1.130218506,0.14306855,-0.46586856,-0.87321126,0.085156485,0.88481003,-0.45810443,0.9860425,-0.008819247,0.16626023,0.15295953,-0.47419173,-0.86703265,0.09146914,0.8803841,-0.4653571,0.98399025,-0.008125931,0.17803703,9.607925,-0.10772705,1.5634003,9.6697235,-0.08648682,1.6304474,-0.0021362305,0.027694702,-0.0032043457,-25.671387,17.007446,-13.279724,0,0.0,0.0,0.0,0.0
1.134613037,0.14303014,-0.46591303,-0.87319386,0.08519605,0.8847861,-0.45814317,0.98604465,-0.008864389,0.16624503,0.15276292,-0.4740257,-0.86715806,0.09134107,0.8804733,-0.46521333,0.9840327,-0.008139797,0.17780171,9.737213,-0.18913269,1.5825653,9.6697235,-0.08692932,1.6302948,0.0010681152,0.028747559,0.0053253174,-25.671387,17.007446,-13.279724,0,0.0,0.0,0.0,0.0
1.139007568,0.13961807,-0.49948257,-0.8549995,0.09062705,0.8662784,-0.49127254,0.9860495,-0.008895552,0.16621472,0.1525695,-0.47386387,-0.86728054,0.09121646,0.88056034,-0.46507317,0.98407423,-0.008154289,0.17757083,9.631866,-0.16998291,1.5490417,9.6697235,-0.0872345,1.6299896,-0.0042419434,0.004272461,-0.0010681152,-26.38855,17.72461,-14.663696,0,0.0,0.0,0.0,0.0
1.1434021,0.1395455,-0.49956208,-0.85496485,0.0905675,0.86623275,-0.49136376,0.98606515,-0.0088644335,0.16612294,0.15230913,-0.4743803,-0.867044,0.091211446,0.8802821,-0.46560055,0.984115,-0.008169114,0.17734392,9.660599,-0.05984497,1.6831207,9.669876,-0.08692932,1.6290894,-0.008514404,0.0,-0.0010681152,-26.38855,17.72461,-14.663696,0,0.0,0.0,0.0,0.0
1.147796631,0.13950007,-0.4996118,-0.85494316,0.09055232,0.8662041,-0.49141714,0.9860731,-0.0088643655,0.16607653,0.15205254,-0.47488788,-0.8668111,0.091205135,0.8800082,-0.4661192,0.9841553,-0.008183021,0.1771197,9.593552,-0.19871521,1.7501526,9.670029,-0.08692932,1.6286469,-0.013839722,-0.022369385,-0.007461548,-26.38855,17.72461,-14.663696,0,0.0,0.0,0.0,0.0
1.152191162,0.13666609,-0.5263238,-0.8392292,0.09482877,0.8502385,-0.51778567,0.9860679,-0.008819335,0.1661094,0.15180017,-0.47538617,-0.8665822,0.09119841,0.87973905,-0.4666284,0.9841949,-0.008196647,0.176899,9.674957,0.03111267,1.7070618,9.669876,-0.08648682,1.628952,0.0010681152,-0.023422241,-0.010650635,-26.029968,17.72461,-15.354919,0,0.0,0.0,0.0,0.0
1.156585693,0.1364949,-0.5265023,-0.8391452,0.09478214,0.8501279,-0.5179759,0.9860961,-0.008834883,0.16594112,0.15149717,-0.4764217,-0.86606634,0.09128546,0.8791786,-0.4676665,0.9842335,-0.008209102,0.17668346,9.641449,-0.15560913,1.5059509,9.670166,-0.086639404,1.6273041,0.0,-0.013839722,-0.0063934326,-26.029968,17.72461,-15.354919,0,0.0,0.0,0.0,0.0
1.160980225,0.13639328,-0.5266083,-0.8390952,0.09470749,0.8500626,-0.51809686,0.98611736,-0.008803675,0.16581655,0.15119675,-0.47743958,-0.8655582,0.091369495,0.87862617,-0.46868727,0.9842719,-0.008221618,0.17646883,9.70369,-0.05984497,1.6208649,9.670471,-0.08633423,1.6260986,0.0053253174,-0.026626587,-0.0032043457,-26.029968,17.72461,-15.354919,0,0.0,0.0,0.0,0.0
1.165374756,0.13591318,-0.5290788,-0.8376176,0.09502953,0.84852654,-0.5205497,0.9861526,-0.008848835,0.16560405,0.1509002,-0.4784386,-0.8650582,0.09144991,0.8780824,-0.46968946,0.9843099,-0.0082332585,0.17625597,9.555252,-0.19871521,1.419754,9.670776,-0.08677673,1.6240082,-0.0053100586,-0.027694702,-0.0053253174,-25.849915,15.753174,-14.144897,0,0.0,0.0,0.0,0.0
1.169769287,0.1359093,-0.5290832,-0.8376154,0.09506428,0.84852344,-0.52054846,0.98614985,-0.00887993,0.16561916,0.15060018,-0.47946808,-0.8645403,0.09153573,0.8775206,-0.47072163,0.98434794,-0.008245571,0.17604323,9.579193,-0.17477417,1.6448059,9.670776,-0.08708191,1.6241608,-0.0010681152,-0.030883789,-0.0021362305,-25.849915,15.753174,-14.144897,0,0.0,0.0,0.0,0.0
1.174163818,0.13583489,-0.5291681,-0.83757395,0.09503752,0.8484706,-0.52063966,0.98616266,-0.008879919,0.16554272,0.15030603,-0.48047644,-0.8640315,0.09161992,0.87696874,-0.47173256,0.984385,-0.008258257,0.17583491,9.698898,-0.09336853,1.4389038,9.670914,-0.08708191,1.6234131,0.0,-0.004257202,-0.015975952,-25.849915,15.753174,-14.144897,0,0.0,0.0,0.0,0.0
1.17855835,0.14218561,-0.4678105,-0.87231684,0.08515399,0.88378435,-0.46008047,0.9861704,-0.008864429,0.16549735,0.15001619,-0.4814658,-0.86353105,0.09170143,0.87642586,-0.47272465,0.9844217,-0.00827069,0.17562917,9.679749,-0.04548645,1.5059509,9.670914,-0.08692932,1.6229553,0.0,-0.008514404,-0.0032043457,-26.92566,17.546082,-13.798523,0,0.0,0.0,0.0,0.0
1.182952881,0.14217202,-0.46782643,-0.8723106,0.08515022,0.883776,-0.46009737,0.9861727,-0.008864449,0.16548373,0.1498614,-0.48119387,-0.86370945,0.091567986,0.8765751,-0.47247374,0.9844577,-0.008282564,0.17542674,9.68454,-0.08378601,1.5586243,9.670914,-0.08692932,1.622818,-0.0042419434,-0.007446289,-0.008529663,-26.92566,17.546082,-13.798523,0,0.0,0.0,0.0,0.0
1.187347412,0.14210917,-0.46789995,-0.8722813,0.085132554,0.88373697,-0.46017537,0.9861832,-0.008864404,0.16542064,0.14970934,-0.48092756,-0.86388415,0.091437206,0.8767211,-0.47222808,0.98449296,-0.008294201,0.17522801,9.641449,-0.08857727,1.4915771,9.671066,-0.08692932,1.6222076,-0.008514404,-0.008514404,0.0021209717,-26.92566,17.546082,-13.798523,0,0.0,0.0,0.0,0.0
1.191741943,0.1364664,-0.52244127,-0.84168404,0.09388959,0.852629,-0.5140121,0.9861854,-0.008879983,0.165407,0.14884613,-0.48144686,-0.863744,0.091317974,0.876434,-0.47278365,0.9846348,-0.008503328,0.17441855,9.6558075,-0.14604187,1.5586243,9.671066,-0.08708191,1.6220703,0.012786865,-0.0095825195,0.0053253174,-25.849915,18.263245,-15.527344,0,0.0,0.0,0.0,0.0
1.196136475,0.13641919,-0.52248925,-0.8416619,0.093907714,0.8525992,-0.5140581,0.9861902,-0.008911147,0.1653767,0.14859803,-0.48227763,-0.8633232,0.09137895,0.87597704,-0.47361803,0.98466665,-0.008510862,0.17423849,9.66539,-0.15560913,1.5586243,9.671066,-0.087387085,1.6217651,0.0021362305,-0.010650635,0.0,-25.849915,18.263245,-15.527344,0,0.0,0.0,0.0,0.0
1.200531006,0.13635746,-0.522552,-0.84163296,0.093918376,0.8525605,-0.5141205,0.9861977,-0.008940637,0.16533022,0.14835392,-0.48309237,-0.86290956,0.09143872,0.875528,-0.47443625,0.98469794,-0.008518867,0.17406134,9.622284,-0.17477417,1.4724274,9.671219,-0.087677,1.6213226,0.0,0.009597778,0.007446289,-25.849915,18.263245,-15.527344,0,0.0,0.0,0.0,0.0
1.204925537,0.1404729,-0.4837908,-0.8638366,0.087731004,0.8751378,-0.47585368,0.9861899,-0.008940708,0.16537663,0.14811343,-0.48389173,-0.8625029,0.0914972,0.8750863,-0.47523907,0.9847287,-0.008527303,0.17388679,9.670166,-0.08378601,1.7405701,9.671066,-0.087677,1.6217651,-0.008514404,0.007461548,-0.0010681152,-24.77417,16.828918,-13.453674,0,0.0,0.0,0.0,0.0
1.209320068,0.14041886,-0.48385075,-0.86381197,0.08773161,0.8751048,-0.47591484,0.98619765,-0.008956196,0.1653302,0.14796072,-0.48388973,-0.86253023,0.091421895,0.8750874,-0.47525167,0.9847587,-0.008535572,0.17371666,9.679749,-0.11730957,1.4963684,9.671219,-0.08782959,1.6213226,-0.0010681152,-0.0010528564,-0.017044067,-24.77417,16.828918,-13.453674,0,0.0,0.0,0.0,0.0
1.2137146,0.14031167,-0.48396927,-0.8637629,0.08773317,0.87503874,-0.4760356,0.9862127,-0.008987311,0.1652383,0.14780995,-0.48388895,-0.8625565,0.09134812,0.8750877,-0.4752652,0.9847882,-0.008543984,0.17354903,9.737213,-0.15560913,1.395813,9.671371,-0.088134766,1.6204224,-0.008514404,0.012786865,0.007446289,-24.77417,16.828918,-13.453674,0,0.0,0.0,0.0,0.0
1.218109131,0.13922434,-0.4950518,-0.8576365,0.08956522,0.86881673,-0.48696578,0.9862021,-0.00901692,0.16529983,0.14766015,-0.48389056,-0.86258125,0.09127592,0.8750867,-0.47528088,0.98481727,-0.00855285,0.173383,9.70369,-0.23701477,1.5203094,9.671219,-0.08842468,1.6210175,0.010650635,0.009597778,0.0063934326,-26.029968,18.08319,-14.663696,0,0.0,0.0,0.0,0.0
1.222503662,0.13923687,-0.49503842,-0.85764223,0.089604676,0.86882406,-0.4869455,0.9861968,-0.009047992,0.16533007,0.1474909,-0.48411462,-0.8624845,0.09124374,0.87496275,-0.4755153,0.98484564,-0.008562132,0.17322145,9.713272,-0.12210083,1.4006042,9.671219,-0.08872986,1.6213226,-0.011703491,0.025558472,-0.008529663,-26.029968,18.08319,-14.663696,0,0.0,0.0,0.0,0.0
1.226898193,0.13930327,-0.49496734,-0.85767245,0.08964451,0.8688644,-0.4868662,0.9861838,-0.0090635745,0.16540673,0.1473253,-0.48433384,-0.8623897,0.09121291,0.8748413,-0.47574466,0.98487335,-0.008571849,0.17306377,9.660599,-0.026321411,1.4867859,9.671066,-0.08888245,1.6220703,0.0063934326,0.025558472,0.0053253174,-26.029968,18.08319,-14.663696,0,0.0,0.0,0.0,0.0
1.231292725,0.14170866,-0.47206402,-0.8701001,0.085991494,0.881518,-0.4642537,0.9861664,-0.0090324385,0.16551223,0.1471643,-0.4845472,-0.8622973,0.091183335,0.87472296,-0.4759677,0.9849001,-0.008581684,0.17291065,9.583984,-0.08857727,1.3766632,9.670914,-0.08857727,1.6231079,-0.011703491,0.029815674,0.004257202,-26.747131,17.72461,-13.972473,0,0.0,0.0,0.0,0.0
1.235687256,0.14186722,-0.47188213,-0.8701729,0.0860878,0.88161486,-0.46405172,0.9861351,-0.009077545,0.16569555,0.14705639,-0.4842985,-0.8624554,0.09107781,0.87486064,-0.4757349,0.984926,-0.0085907,0.17276269,9.660599,-0.13166809,1.6543884,9.670624,-0.089019775,1.6249084,0.007461548,0.045791626,-0.0053253174,-26.747131,17.72461,-13.972473,0,0.0,0.0,0.0,0.0
1.240081787,0.14202133,-0.47170535,-0.8702436,0.08606455,0.8817101,-0.46387514,0.98611504,-0.009016964,0.16581877,0.14695378,-0.48405114,-0.86261183,0.09097644,0.87499744,-0.4755026,0.9849507,-0.008600436,0.17262144,9.727631,-0.09815979,1.5251007,9.670319,-0.08842468,1.6260986,-0.006378174,0.04046631,0.0053253174,-26.747131,17.72461,-13.972473,0,0.0,0.0,0.0,0.0
1.244476318,0.1410667,-0.48274806,-0.86432314,0.08793572,0.87571275,-0.47475743,0.986087,-0.00903241,0.16598472,0.14685628,-0.48380515,-0.8627664,0.09087671,0.8751334,-0.47527146,0.9849744,-0.008608767,0.17248546,9.593552,-0.11730957,1.6065063,9.670166,-0.08857727,1.6277466,0.018112183,0.039413452,-0.01171875,-24.954224,17.72461,-13.972473,0,0.0,0.0,0.0,0.0
1.24887085,0.14127083,-0.48253042,-0.8644114,0.087949894,0.87583315,-0.47453257,0.98605645,-0.008987277,0.16616815,0.14674067,-0.48378405,-0.8627979,0.09081781,0.875145,-0.4752614,0.9849971,-0.008617239,0.17235556,9.588776,-0.08378601,1.5251007,9.669876,-0.088134766,1.6295471,0.0,0.041534424,-0.0021362305,-24.954224,17.72461,-13.972473,0,0.0,0.0,0.0,0.0
1.253265381,0.14146698,-0.482321,-0.8644962,0.08801233,0.8759485,-0.47430807,0.98602283,-0.008987396,0.16636796,0.14663143,-0.483759,-0.8628305,0.09076034,0.8751588,-0.475247,0.9850187,-0.00862464,0.17223191,9.627075,-0.03590393,1.6783295,9.669418,-0.088134766,1.631485,-0.0021362305,0.047927856,-0.01171875,-24.954224,17.72461,-13.972473,0,0.0,0.0,0.0,0.0
1.257659912,0.138062,-0.51620615,-0.8452633,0.09352823,0.8564175,-0.5077415,0.9859976,-0.008956174,0.16651857,0.14887819,-0.48332837,-0.86268705,0.09215797,0.87539434,-0.47454357,0.9845517,-0.008854294,0.17486969,9.809036,-0.07421875,1.6543884,9.669281,-0.08782959,1.6329803,-0.007446289,0.04260254,0.0021209717,-26.747131,16.290283,-14.317322,0,0.0,0.0,0.0,0.0
1.262054443,0.13817523,-0.5160746,-0.8453252,0.09358441,0.85649663,-0.50759774,0.98597646,-0.008971824,0.16664316,0.148661,-0.48399293,-0.86235183,0.09219218,0.87502706,-0.47521383,0.98458135,-0.008856332,0.17470278,9.536102,-0.13645935,1.6735382,9.668976,-0.08798218,1.6341858,0.004257202,0.03514099,-0.0032043457,-26.747131,16.290283,-14.317322,0,0.0,0.0,0.0,0.0
1.266448975,0.13829945,-0.51593024,-0.845393,0.093644045,0.8565835,-0.5074402,0.98595333,-0.008987316,0.16677882,0.148661,-0.48399293,-0.86235183,0.09219218,0.87502706,-0.47521383,0.98458135,-0.008856332,0.17470278,9.536102,-0.13645935,1.6735382,9.668823,-0.088134766,1.6355286,0.004257202,0.03514099,-0.0032043457,-26.747131,16.290283,-14.317322,0,0.0,0.0,0.0,0.0
1.270843506,0.13835171,-0.5158695,-0.8454215,0.0936778,0.85661995,-0.50737244,0.98594284,-0.009001366,0.16684034,0.14824934,-0.48527044,-0.8617045,0.09226197,0.8743192,-0.4765015,0.9846369,-0.008861518,0.17438926,9.6558075,-0.05984497,1.4724274,9.668671,-0.088272095,1.6361237,0.0063934326,0.025558472,0.0010681152,-26.747131,16.290283,-14.317322,0,0.0,0.0,0.0,0.0
1.275238037,0.13835171,-0.5158695,-0.8454215,0.0936778,0.85661995,-0.50737244,0.98594284,-0.009001366,0.16684034,0.14805068,-0.48588857,-0.86139035,0.092296034,0.8739758,-0.47712442,0.9846636,-0.008864315,0.17423831,9.603134,-0.10772705,1.6065063,9.668671,-0.088272095,1.6361237,-0.0053100586,0.030883789,0.0021209717,-26.747131,16.290283,-14.317322,0,0.0,0.0,0.0,0.0
1.279632568,0.13840215,-0.5158109,-0.845449,0.09371253,0.85665494,-0.5073067,0.98593235,-0.00901683,0.16690081,0.14785606,-0.486494,-0.86108196,0.092329204,0.87363887,-0.47773463,0.9846897,-0.008867056,0.1740904,9.622284,-0.10772705,1.7932434,9.668671,-0.08842468,1.636734,-0.007446289,0.005340576,-0.007461548,-26.747131,16.290283,-14.317322,0,0.0,0.0,0.0,0.0
1.2840271,0.14386164,-0.4628726,-0.87467295,0.08515504,0.88637894,-0.45506153,0.9859272,-0.009016911,0.16693188,0.1476663,-0.48708594,-0.8607799,0.092362106,0.873309,-0.47833112,0.98471516,-0.008870051,0.1739466,9.516937,-0.08857727,1.692688,9.668533,-0.08842468,1.6370239,-0.008514404,-0.018096924,0.0063934326,-25.132751,18.263245,-13.798523,0,0.0,0.0,0.0,0.0
1.288421631,0.14389952,-0.462832,-0.87468815,0.08514877,0.88640034,-0.45502108,0.9859223,-0.009001305,0.16696216,0.14759316,-0.4866053,-0.8610642,0.09221534,0.8735769,-0.47787,0.9847399,-0.008872989,0.17380644,9.569611,-0.05505371,1.692688,9.668533,-0.088272095,1.6373291,0.01171875,-0.012771606,0.003189087,-25.132751,18.263245,-13.798523,0,0.0,0.0,0.0,0.0
1.292816162,0.1437711,-0.46296966,-0.8746365,0.08512854,0.8863282,-0.45516518,0.98594266,-0.009016924,0.16684033,0.14752208,-0.48613325,-0.86134297,0.092071496,0.87383956,-0.47741717,0.984764,-0.008875555,0.17366967,9.646225,-0.16519165,1.7693024,9.668671,-0.08842468,1.6361237,0.0053253174,-0.019165039,0.010650635,-25.132751,18.263245,-13.798523,0,0.0,0.0,0.0,0.0
1.297210693,0.14376648,-0.46175402,-0.8752796,0.08490311,0.8869619,-0.4539715,0.98596287,-0.009048086,0.16671973,0.14744975,-0.48567325,-0.8616148,0.09193015,0.8740954,-0.47697604,0.984788,-0.008878383,0.17353314,9.742004,-0.19871521,1.7597351,9.668823,-0.08872986,1.6349335,-0.007446289,-0.03727722,-0.004272461,-26.029968,17.72461,-13.626099,0,0.0,0.0,0.0,0.0
1.301605225,0.14355257,-0.46199664,-0.8751866,0.084910944,0.88683474,-0.454218,0.98599327,-0.009108763,0.166536,0.14737883,-0.48519832,-0.8618945,0.09178706,0.874359,-0.47652012,0.98481196,-0.0088817775,0.17339694,9.756363,-0.19871521,1.6160736,9.669128,-0.08932495,1.6331329,0.0010681152,-0.036209106,-0.004272461,-26.029968,17.72461,-13.626099,0,0.0,0.0,0.0,0.0
1.305999756,0.14330874,-0.4622732,-0.87508065,0.084842786,0.8866908,-0.45451203,0.98603463,-0.009108729,0.16629109,0.14730497,-0.48473752,-0.86216635,0.09164702,0.87461454,-0.47607797,0.9848361,-0.008886317,0.17325982,9.689331,-0.13645935,1.4820099,9.669571,-0.08932495,1.6307373,0.008514404,-0.038345337,0.004257202,-26.029968,17.72461,-13.626099,0,0.0,0.0,0.0,0.0
1.310394287,0.13479151,-0.5406986,-0.8303471,0.09737424,0.84116673,-0.53193706,0.9860779,-0.009153821,0.16603222,0.14722764,-0.48429126,-0.8624303,0.09150844,0.87486166,-0.47565037,0.98486054,-0.008890765,0.17312057,9.651016,-0.007171631,1.5586243,9.670029,-0.089767456,1.6282043,-0.0021362305,-0.04473877,-0.004272461,-25.671387,16.648865,-15.008545,0,0.0,0.0,0.0,0.0
1.314788818,0.1347492,-0.5407436,-0.83032477,0.097322986,0.8411382,-0.5319917,0.98608875,-0.009124228,0.16596945,0.14698085,-0.4854407,-0.86182594,0.091637865,0.8742243,-0.47679588,0.98488533,-0.008896026,0.17297898,9.583984,-0.03590393,1.4772186,9.670166,-0.08947754,1.627594,0.0010681152,-0.053253174,0.014892578,-25.671387,16.648865,-15.008545,0,0.0,0.0,0.0,0.0
1.31918335,0.13456485,-0.54093957,-0.83022684,0.09726899,0.8410117,-0.532201,0.98611915,-0.009139781,0.16578728,0.1467379,-0.48656732,-0.86123186,0.09176323,0.87359774,-0.47791892,0.9849099,-0.00890059,0.17283888,9.617508,-0.14125061,1.4532776,9.670471,-0.08963013,1.6258087,0.0010681152,-0.019165039,-0.0053253174,-25.671387,16.648865,-15.008545,0,0.0,0.0,0.0,0.0
1.323577881,0.14247863,-0.46487814,-0.8738353,0.08496034,0.8853278,-0.45713934,0.9861448,-0.009108754,0.1656365,0.14497158,-0.4881259,-0.8606488,0.09079447,0.87273085,-0.4796845,0.98526114,-0.008601526,0.17084031,9.612717,-0.01675415,1.5107269,9.670624,-0.08932495,1.6243134,0.008514404,-0.028747559,-0.0032043457,-26.208496,17.904663,-13.798523,0,0.0,0.0,0.0,0.0
1.327972412,0.14238739,-0.464981,-0.87379545,0.08493432,0.8852739,-0.4572488,0.9861603,-0.009108754,0.16554467,0.1449238,-0.4876642,-0.8609186,0.0906759,0.8729888,-0.47923732,0.98527914,-0.008611672,0.17073624,9.698898,-0.09815979,1.3910217,9.670776,-0.08932495,1.6234131,0.0,-0.024490356,0.0,-26.208496,17.904663,-13.798523,0,0.0,0.0,0.0,0.0
1.332366943,0.14231113,-0.46506694,-0.8737622,0.084810175,0.8852296,-0.45735738,0.98618186,-0.009016877,0.16542041,0.14487512,-0.4872137,-0.86118174,0.09055927,0.8732402,-0.47880116,0.98529696,-0.0086216135,0.1706325,9.70369,-0.13166809,1.3814392,9.671066,-0.08842468,1.6222076,-0.003189087,-0.007446289,0.008514404,-26.208496,17.904663,-13.798523,0,0.0,0.0,0.0,0.0
1.336761475,0.13856827,-0.5018036,-0.8538103,0.09065549,0.8649348,-0.4936289,0.98619497,-0.009001295,0.16534376,0.14482585,-0.48677373,-0.8614388,0.0904425,0.87348545,-0.47837567,0.98531497,-0.008629519,0.17052831,9.646225,-0.07421875,1.4341125,9.671219,-0.088272095,1.62146,0.012786865,-0.007446289,-0.02557373,-27.464294,17.366028,-14.663696,0,0.0,0.0,0.0,0.0
1.341156006,0.13851011,-0.50187033,-0.85378045,0.09063671,0.864896,-0.49370015,0.9862048,-0.009001385,0.16528472,0.14470044,-0.4870758,-0.8612891,0.09044867,0.87331694,-0.47868204,0.98533285,-0.008636954,0.1704247,9.627075,-0.08857727,1.4293365,9.671219,-0.088272095,1.6208649,-0.0021362305,-0.0021209717,-0.007461548,-27.464294,17.366028,-14.663696,0,0.0,0.0,0.0,0.0
1.345550537,0.13841711,-0.50197715,-0.85373276,0.09064195,0.8648337,-0.49380836,0.9862174,-0.009032478,0.16520798,0.1445763,-0.48737308,-0.8611418,0.09045423,0.87315106,-0.47898358,0.98535055,-0.008644243,0.17032191,9.68454,-0.13645935,1.4484863,9.671371,-0.08857727,1.6201172,-0.009567261,0.015991211,0.008514404,-27.464294,17.366028,-14.663696,0,0.0,0.0,0.0,0.0
1.349945068,0.14158759,-0.4717806,-0.8702735,0.085866615,0.8816697,-0.46398863,0.9861947,-0.0090324115,0.1653437,0.14445277,-0.4876665,-0.86099637,0.090459734,0.87298715,-0.47928122,0.98536813,-0.008652007,0.17021959,9.560043,-0.09815979,1.4053955,9.671219,-0.08857727,1.62146,0.0021362305,0.015991211,-0.004272461,-24.954224,17.007446,-13.279724,0,0.0,0.0,0.0,0.0
1.3543396,0.14170244,-0.471652,-0.87032455,0.085951045,0.8817381,-0.4638431,0.9861708,-0.009077602,0.16548342,0.14439675,-0.4873503,-0.86118484,0.09036663,0.87316364,-0.47897723,0.98538494,-0.008659615,0.17012219,9.636658,-0.14604187,1.5586243,9.670914,-0.089019775,1.622818,0.0138549805,0.04899597,0.0021209717,-24.954224,17.007446,-13.279724,0,0.0,0.0,0.0,0.0
1.358734131,0.14177415,-0.47157165,-0.8703564,0.08604173,0.8817804,-0.46374583,0.9861526,-0.009139802,0.1655885,0.14434393,-0.48703787,-0.8613704,0.09027708,0.87333786,-0.47867638,0.98540086,-0.008667975,0.17002939,9.679749,-0.15083313,1.7501526,9.670776,-0.08963013,1.6238556,-0.0053100586,0.03727722,0.003189087,-24.954224,17.007446,-13.279724,0,0.0,0.0,0.0,0.0
1.363128662,0.14202528,-0.47129026,-0.8704679,0.08609824,0.88193107,-0.46344888,0.9861116,-0.009124295,0.16583374,0.14434393,-0.48703787,-0.8613704,0.09027708,0.87333786,-0.47867638,0.98540086,-0.008667975,0.17002939,9.679749,-0.15083313,1.7501526,9.670319,-0.08947754,1.6262512,-0.0053100586,0.03727722,0.003189087,-24.954224,17.007446,-13.279724,0,0.0,0.0,0.0,0.0
1.367523193,0.14539224,-0.43699652,-0.88763463,0.080661744,0.8994169,-0.42958492,0.9860806,-0.009139841,0.16601712,0.1442541,-0.48641723,-0.86173606,0.09010949,0.87368345,-0.47807685,0.98542935,-0.008686045,0.16986325,9.641449,-0.09336853,1.5442505,9.670029,-0.08963013,1.6280518,-0.0021362305,0.04685974,-0.008529663,-27.28424,17.546082,-13.1073,0,0.0,0.0,0.0,0.0
1.371917725,0.1455368,-0.43681914,-0.8876982,0.0806441,0.8995034,-0.4294068,0.9860607,-0.009093122,0.16613775,0.14428279,-0.48544312,-0.86228037,0.089919224,0.874225,-0.4771217,0.9854425,-0.00869512,0.16978629,9.560043,-0.15083313,1.6591797,9.669876,-0.08917236,1.629242,0.003189087,0.04899597,0.003189087,-27.28424,17.546082,-13.1073,0,0.0,0.0,0.0,0.0
1.376312256,0.14132515,-0.48257694,-0.8643765,0.08804058,0.875807,-0.47456396,0.9860406,-0.0090323975,0.1662599,0.1443136,-0.48448452,-0.86281425,0.08973262,0.87475663,-0.47618172,0.98545504,-0.008703081,0.16971333,9.670166,-0.09336853,1.6639557,9.6697235,-0.08857727,1.6304474,0.0053253174,0.023422241,-0.019180298,-24.595642,18.441772,-14.317322,0,0.0,0.0,0.0,0.0
1.380706787,0.14142795,-0.48247218,-0.86441815,0.08814271,0.8758641,-0.4744396,0.9860167,-0.009093147,0.16639805,0.14425388,-0.48444638,-0.86284566,0.089698635,0.8747777,-0.47614944,0.9854669,-0.008709668,0.16964424,9.722839,-0.14604187,1.6160736,9.669418,-0.08917236,1.6317902,-0.0010681152,0.025558472,-0.012786865,-24.595642,18.441772,-14.317322,0,0.0,0.0,0.0,0.0
1.385101318,0.14151084,-0.4823876,-0.8644517,0.08815238,0.87591076,-0.4743515,0.98600394,-0.009077598,0.16647449,0.14419748,-0.48440692,-0.8628772,0.08966742,0.87479943,-0.47611532,0.985478,-0.008717337,0.16957939,9.698898,-0.05984497,1.5681915,9.669281,-0.089019775,1.6325378,-0.006378174,0.034088135,0.007446289,-24.595642,18.441772,-14.317322,0,0.0,0.0,0.0,0.0
1.38949585,0.1366941,-0.5276506,-0.83839107,0.09545094,0.849413,-0.5190247,0.98600394,-0.009077598,0.16647449,0.14414386,-0.48436657,-0.8629087,0.089637026,0.8748216,-0.47608015,0.98548853,-0.008724541,0.16951735,9.660599,-0.08857727,1.6256561,9.669281,-0.089019775,1.6325378,0.0,0.026626587,-0.0032043457,-25.671387,16.648865,-14.663696,0,0.0,0.0,0.0,0.0
1.393890381,0.13668776,-0.5276575,-0.8383877,0.095432386,0.84940886,-0.519035,0.98600674,-0.00906362,0.16645941,0.14433372,-0.48593935,-0.8619923,0.0911442,0.87393916,-0.4774129,0.9853225,-0.0096588135,0.17042944,9.598343,-0.06463623,1.5969238,9.669281,-0.08888245,1.6323853,0.0095825195,0.014923096,0.015960693,-25.671387,16.648865,-14.663696,0,0.0,0.0,0.0,0.0
1.398284912,0.13671708,-0.52762574,-0.838403,0.09544316,0.84942865,-0.51900065,0.98600155,-0.009063573,0.16648966,0.14418171,-0.4867852,-0.8615404,0.091235094,0.87346846,-0.4782563,0.98533636,-0.009646909,0.17035006,9.751572,-0.06942749,1.711853,9.669281,-0.08888245,1.6326904,-0.006378174,0.02130127,0.0021209717,-25.671387,16.648865,-14.663696,0,0.0,0.0,0.0,0.0
1.402679443,0.146554,-0.42931277,-0.89118594,0.07957823,0.9031102,-0.42197055,0.98599654,-0.00907753,0.16651838,0.14403322,-0.48761302,-0.861097,0.091324106,0.8730067,-0.47908163,0.98534983,-0.009635243,0.17027278,9.651016,-0.11251831,1.7022705,9.669281,-0.089019775,1.6329803,-0.0010681152,0.0032043457,0.0063934326,-26.208496,17.546082,-12.762451,0,0.0,0.0,0.0,0.0
1.407073975,0.14651021,-0.4293651,-0.8911679,0.0796022,0.903085,-0.42202,0.9860012,-0.009108692,0.1664896,0.14409256,-0.4864668,-0.8617351,0.09108891,0.873646,-0.4779596,0.98536295,-0.009624088,0.17019764,9.593552,-0.19871521,1.5586243,9.669281,-0.08932495,1.6326904,0.007461548,-0.006378174,-0.0032043457,-26.208496,17.546082,-12.762451,0,0.0,0.0,0.0,0.0
1.411468506,0.14651759,-0.4293563,-0.89117104,0.07958689,0.90308946,-0.42201355,0.98600125,-0.009093134,0.1664896,0.14414948,-0.48534372,-0.8623587,0.090858854,0.8742706,-0.47686017,0.9853759,-0.00961378,0.17012343,9.713272,-0.03590393,1.6352386,9.669281,-0.08917236,1.6326904,-0.010635376,0.004272461,0.008514404,-26.208496,17.546082,-12.762451,0,0.0,0.0,0.0,0.0
1.415863037,0.14571318,-0.4385954,-0.88679296,0.08104532,0.8986391,-0.43113738,0.9860017,-0.009048014,0.16648968,0.14420521,-0.48424208,-0.8629684,0.090633176,0.8748813,-0.47578174,0.98538846,-0.009603367,0.17005083,9.68454,0.03111267,1.6495972,9.669281,-0.08872986,1.6326904,-0.008514404,-0.014907837,-0.0010681152,-26.38855,18.08319,-13.279724,0,0.0,0.0,0.0,0.0
1.420257568,0.14558421,-0.43874496,-0.8867402,0.08106295,0.89856565,-0.43128717,0.98601925,-0.00909317,0.16638292,0.14424133,-0.48334134,-0.8634672,0.090440795,0.87537944,-0.47490135,0.98540086,-0.00959226,0.16997966,9.651016,-0.12210083,1.5729828,9.669418,-0.08917236,1.6316376,-0.0021362305,-0.020233154,-0.0053253174,-26.38855,18.08319,-13.279724,0,0.0,0.0,0.0,0.0
1.4246521,0.1453634,-0.4390008,-0.8866498,0.08102529,0.89844054,-0.43155482,0.98605496,-0.0091087725,0.16617052,0.1442738,-0.482461,-0.863954,0.090252474,0.8758651,-0.47404104,0.9854134,-0.009582279,0.16990769,9.670166,-0.10293579,1.5011597,9.6697235,-0.08932495,1.6295471,0.0063934326,-0.02130127,0.0095825195,-26.38855,18.08319,-13.279724,0,0.0,0.0,0.0,0.0
1.429046631,0.14625753,-0.42745224,-0.8921285,0.079076685,0.9039922,-0.42017254,0.98608094,-0.009093165,0.16601717,0.14430112,-0.48160276,-0.86442816,0.09006704,0.87633735,-0.47320274,0.98542637,-0.009572809,0.16983299,9.651016,-0.11730957,1.5251007,9.670029,-0.08917236,1.6280518,0.008514404,-0.03514099,0.0010681152,-26.567078,17.546082,-12.762451,0,0.0,0.0,0.0,0.0
1.433441162,0.14608195,-0.42766497,-0.89205545,0.079120226,0.90389097,-0.42038247,0.98610353,-0.009169343,0.16587907,0.14434806,-0.48053658,-0.8650134,0.08984658,0.87692255,-0.47215933,0.9854396,-0.009563216,0.16975664,9.631866,-0.16519165,1.5155182,9.670319,-0.089920044,1.626709,0.0138549805,-0.027694702,-0.004272461,-26.567078,17.546082,-12.762451,0,0.0,0.0,0.0,0.0
1.437835693,0.14589614,-0.42788988,-0.8919779,0.07907824,0.9037844,-0.42061916,0.98613435,-0.009169341,0.16569541,0.14439026,-0.4794951,-0.86558414,0.08963126,0.87749255,-0.4711402,0.985453,-0.00955534,0.16967912,9.631866,-0.09815979,1.4436951,9.670624,-0.089920044,1.6249084,-0.010635376,-0.019165039,0.007446289,-26.567078,17.546082,-12.762451,0,0.0,0.0,0.0,0.0
1.442230225,0.14035971,-0.48486656,-0.8632518,0.088228926,0.87453955,-0.4768611,0.9861617,-0.00923169,0.16552936,0.14442764,-0.4784782,-0.8661405,0.08941923,0.8780475,-0.47014543,0.9854668,-0.00954762,0.16959947,9.583984,-0.08857727,1.4580536,9.670776,-0.090530396,1.6232605,0.010650635,-0.028747559,0.0021209717,-25.491333,17.1875,-13.798523,0,0.0,0.0,0.0,0.0
1.446624756,0.1401938,-0.48505095,-0.86317503,0.0881771,0.8744371,-0.4770581,0.9861899,-0.009231677,0.16536108,0.14434604,-0.47860622,-0.8660833,0.08939597,0.8779778,-0.47028002,0.98548084,-0.009541302,0.16951808,9.6558075,-0.15083313,1.4628448,9.671066,-0.090530396,1.6216125,0.0053253174,-0.022369385,0.01171875,-25.491333,17.1875,-13.798523,0,0.0,0.0,0.0,0.0
1.451019287,0.14015546,-0.48509362,-0.8631574,0.08818081,0.8744134,-0.47710112,0.986195,-0.009245583,0.16532977,0.1442628,-0.47873536,-0.8660258,0.08937219,0.87790745,-0.47041586,0.9854952,-0.009535109,0.16943502,9.670166,-0.12689209,1.5490417,9.671219,-0.090667725,1.6213226,0.008514404,-0.027694702,-0.0032043457,-25.491333,17.1875,-13.798523,0,0.0,0.0,0.0,0.0
1.455413818,0.13761714,-0.5089354,-0.849733,0.09201502,0.86075455,-0.5006345,0.98620224,-0.009292331,0.16528429,0.14418042,-0.47886276,-0.8659691,0.089348905,0.877838,-0.47054982,0.9855094,-0.009529318,0.16935292,9.583984,-0.18434143,1.4915771,9.671219,-0.09112549,1.6208649,-0.007446289,-0.020233154,0.0010681152,-26.029968,16.290283,-13.972473,0,0.0,0.0,0.0,0.0
