Time,Rot1,Rot2,Rot3,Rot4,Rot5,Rot6,Rot7,Rot8,Rot9,FRot1,FRot2,FRot3,FRot4,FRot5,FRot6,FRot7,FRot8,FRot9,AccX,AccY,AccZ,GravX,GravY,GravZ,GyroX,GyroY,GyroZ,MagX,MagY,MagZ,Imid
0.0,0.95408386,0.05329999,-0.29475924,-0.2995244,0.17963152,-0.9370259,0.0030045793,0.98228896,0.1873482,1.0,0.0,0.0,0.0,1.0,0.0,0.0,0.0,1.0,0.10055542,9.706085,1.8291626,0.029464722,9.632919,1.8372498,0.0,0.0,0.0,-7.7423096,-22.795105,-29.182434,0,0.0,0.0,0.0,0.0
0.004394532,0.95412624,0.053145606,-0.2946499,-0.29938808,0.17963234,-0.93706924,0.0031275272,0.9822971,0.1873031,0.99998325,0.005766628,-4.8018084E-4,-0.005777697,0.99960124,-0.027640339,3.2059778E-4,0.02764265,0.9996178,0.12449646,9.600739,1.8243713,0.030670166,9.632919,1.836792,0.003189087,-0.08308411,-0.0021362305,-7.7423096,-22.795105,-29.182434,0,0.0,0.0,0.0,0.0
0.008789063,0.95414835,0.053065304,-0.29459304,-0.2993171,0.17967305,-0.9370843,0.0032037606,0.98229414,0.18731807,0.9999343,0.011389193,-0.0012722572,-0.011441739,0.9984372,-0.054701995,6.472572E-4,0.054712962,0.9985019,0.24420166,9.528915,1.9153595,0.031417847,9.632919,1.8369446,0.01171875,-0.08201599,0.003189087,-7.7423096,-22.795105,-29.182434,0,0.0,0.0,0.0,0.0
0.013183594,0.9742312,0.039173327,-0.22212406,-0.22552912,0.1831735,-0.9568616,0.0032037792,0.98229986,0.18728805,0.999855,0.016865289,-0.0023512007,-0.01700051,0.9965549,-0.08117451,9.740688E-4,0.08120271,0.9966971,0.04309082,9.648621,1.7429657,0.031417847,9.632919,1.8366394,0.004257202,-0.06817627,-0.012786865,-6.1279297,-21.897888,-30.73883,0,0.0,0.0,0.0,0.0
0.017578125,0.97422534,0.03920317,-0.22214414,-0.2255543,0.18321288,-0.9568481,0.0031881914,0.9822913,0.18733309,0.99978,0.020676116,-0.0035269442,-0.02093492,0.99403244,-0.107057564,0.0012923622,0.10710785,0.9942466,0.04788208,9.643829,1.8578949,0.03126526,9.632919,1.8370972,-0.0032043457,-0.057525635,-0.014907837,-6.1279297,-21.897888,-30.73883,0,0.0,0.0,0.0,0.0
0.021972657,0.9742032,0.03931689,-0.22222075,-0.2256512,0.18309328,-0.956848,0.003066837,0.982309,0.187242,0.99969095,0.024378158,-0.004870624,-0.02480842,0.99089336,-0.13234381,0.0015999703,0.13242374,0.99119186,0.009567261,9.730026,1.5562286,0.030075073,9.633057,1.8361969,-0.008514404,-0.06285095,-0.017044067,-6.1279297,-21.897888,-30.73883,0,0.0,0.0,0.0,0.0
0.026367188,0.9619623,0.048478037,-0.2688468,-0.2731674,0.18108363,-0.944769,0.00288321,0.9822722,0.18743822,0.9995882,0.027979951,-0.0063611,-0.028631892,0.987178,-0.15703428,0.0018857265,0.15715174,0.9875726,-0.0335083,9.730026,1.8339539,0.028274536,9.632767,1.8381348,-0.0032043457,-0.043670654,-0.034088135,-7.0251465,-22.436523,-29.182434,0,0.0,0.0,0.0,0.0
0.030761719,0.96190774,0.048696898,-0.26900196,-0.27336082,0.1810562,-0.94471806,0.0026996324,0.9822663,0.1874712,0.9994401,0.032447904,-0.008159149,-0.033389322,0.9828949,-0.18111517,0.002142779,0.1812862,0.98342806,-0.01914978,9.567215,1.656784,0.026473999,9.632614,1.83844,-0.047927856,-0.038345337,-0.046875,-7.0251465,-22.436523,-29.182434,0,0.0,0.0,0.0,0.0
0.03515625,0.96182406,0.049032897,-0.26924014,-0.27365723,0.1812604,-0.9445932,0.0024864392,0.98221195,0.18775883,0.9992718,0.036789637,-0.010120488,-0.038082488,0.9781055,-0.20459557,0.0023719082,0.20483197,0.9787943,0.004776001,9.792282,1.9009857,0.024383545,9.632172,1.8412781,-0.022369385,-0.03302002,-0.04473877,-7.0251465,-22.436523,-29.182434,0,0.0,0.0,0.0,0.0
0.039550782,0.953015,0.054861892,-0.2979135,-0.3029148,0.17977284,-0.9359082,0.0022110592,0.9821771,0.18794471,0.999084,0.041007664,-0.012230488,-0.042715423,0.9728471,-0.2274728,0.002570267,0.22778684,0.9737077,-0.01914978,9.706085,1.9009857,0.02168274,9.631714,1.8430786,-0.06283569,-0.025558472,-0.050064087,-7.9208374,-23.690796,-29.701233,0,0.0,0.0,0.0,0.0
0.043945313,0.9529142,0.055217918,-0.2981706,-0.30323395,0.17989759,-0.935781,0.0019682986,0.9821343,0.1881709,0.99884856,0.045690693,-0.014624137,-0.047896124,0.9671266,-0.249744,0.0027324152,0.2501569,0.96820146,-0.0143585205,9.706085,1.7429657,0.019302368,9.631424,1.8453217,-0.039413452,0.014907837,-0.05859375,-7.9208374,-23.690796,-29.701233,0,0.0,0.0,0.0,0.0
0.048339844,0.95279706,0.05562938,-0.2984676,-0.3036031,0.17991193,-0.93565845,0.0016477783,0.98210853,0.18830885,0.9985902,0.05022981,-0.017165566,-0.05300467,0.96100056,-0.2714193,0.0028627797,0.27194646,0.96230817,-0.08618164,9.701294,1.7525482,0.016159058,9.631119,1.8466644,-0.061782837,0.0,-0.053268433,-7.9208374,-23.690796,-29.701233,0,0.0,0.0,0.0,0.0
0.052734375,0.96182275,0.050261613,-0.26901805,-0.27366954,0.18162718,-0.9445192,0.001387937,0.9820821,0.18844824,0.99830943,0.054632016,-0.01983742,-0.05804697,0.9545002,-0.29250625,0.0029546162,0.29316327,0.95605785,-0.08618164,9.701294,1.8195801,0.01361084,9.630814,1.8480225,-0.039413452,0.028747559,-0.06071472,-7.2036743,-22.973633,-30.047607,0,0.0,0.0,0.0,0.0
0.057128907,0.9617424,0.050583553,-0.26924494,-0.27395296,0.1816789,-0.944427,0.0011436517,0.982056,0.18858583,0.99789774,0.06139512,-0.02075614,-0.064806074,0.94822,-0.3109326,5.916433E-4,0.31162405,0.9502053,-0.0335083,9.758759,1.9728088,0.01121521,9.630524,1.8493652,-0.03514099,0.024490356,-0.046875,-7.2036743,-22.973633,-30.047607,0,0.0,0.0,0.0,0.0
0.061523438,0.9616663,0.050888006,-0.2694595,-0.274221,0.18173574,-0.9443384,9.149259E-4,0.9820298,0.18872368,0.9976176,0.0648474,-0.023536328,-0.06898311,0.9411269,-0.33094034,6.9004804E-4,0.33177552,0.9433581,-0.11012268,9.777908,2.1020966,0.008972168,9.6302185,1.850708,-0.022369385,0.030883789,-0.043670654,-7.2036743,-22.973633,-30.047607,0,0.0,0.0,0.0,0.0
0.065917969,0.9522393,0.056980133,-0.2999893,-0.30535197,0.17994925,-0.935082,7.017504E-4,0.9820242,0.18875374,0.9973243,0.068172134,-0.026397135,-0.073100396,0.9337493,-0.3503835,7.619162E-4,0.3513756,0.93623424,-0.12449646,9.76355,2.087738,0.006881714,9.6302185,1.8510132,-0.013839722,0.026626587,-0.038345337,-7.7423096,-22.436523,-28.837585,0,0.0,0.0,0.0,0.0
0.0703125,0.95220196,0.05711292,-0.30008262,-0.3054687,0.17984225,-0.9350645,5.632654E-4,0.98203605,0.18869235,0.9969687,0.071965665,-0.029569648,-0.07779952,0.92606634,-0.36925375,8.098612E-4,0.37043494,0.92885804,-0.0622406,9.720444,2.039856,0.0055236816,9.630371,1.8504181,0.012771606,0.028747559,-0.03302002,-7.7423096,-22.436523,-28.837585,0,0.0,0.0,0.0,0.0
0.074707032,0.9521764,0.05720355,-0.30014625,-0.30554843,0.17968297,-0.93506914,4.418963E-4,0.9820601,0.18856835,0.99659765,0.075599626,-0.032830138,-0.08241609,0.9181458,-0.38757715,8.4216584E-4,0.38896418,0.92125255,-0.1771698,9.715668,1.9823914,0.004333496,9.630661,1.8492126,0.027694702,0.0063934326,-0.02557373,-7.7423096,-22.436523,-28.837585,0,0.0,0.0,0.0,0.0
0.079101563,0.9619724,0.05111616,-0.26832083,-0.27314618,0.18122493,-0.9447479,3.345361E-4,0.9821124,0.18829559,0.9962124,0.07907357,-0.036169607,-0.086949006,0.9100108,-0.40536427,8.611345E-4,0.4069738,0.91343945,-0.08618164,9.662994,1.8387451,0.0032806396,9.631119,1.8465271,0.04046631,-0.0053253174,-0.012786865,-7.0251465,-22.795105,-29.528809,0,0.0,0.0,0.0,0.0
0.083496094,0.96194714,0.051216427,-0.26839224,-0.27323523,0.18102197,-0.94476104,1.9760992E-4,0.9821446,0.18812774,0.99587584,0.08177644,-0.03929284,-0.09072243,0.9017387,-0.42265448,8.68693E-4,0.42447615,0.9054387,-0.09576416,9.615112,2.0781555,0.0019378662,9.631424,1.8448792,0.06390381,-0.022369385,-0.020248413,-7.0251465,-22.795105,-29.528809,0,0.0,0.0,0.0,0.0
0.087890625,0.96195656,0.051179122,-0.2683657,-0.27320215,0.18085839,-0.944802,1.8205054E-4,0.98217666,0.18796018,0.9955312,0.0843496,-0.042458978,-0.09442921,0.89329803,-0.43943343,8.624896E-4,0.44147906,0.89727116,0.03829956,9.672562,2.1260376,0.0017852783,9.631714,1.8432312,0.05857849,-0.0095825195,-0.026626587,-7.0251465,-22.795105,-29.528809,0,0.0,0.0,0.0,0.0
0.092285157,0.96199,0.05104662,-0.2682714,-0.27308473,0.18053171,-0.9448985,1.9761169E-4,0.98224366,0.18760973,0.9951801,0.08678213,-0.045667157,-0.09806068,0.88470995,-0.45571092,8.546266E-4,0.45799255,0.8889556,-0.009567261,9.787491,1.9345093,0.0019378662,9.632309,1.8397827,0.06285095,-0.026626587,-0.0138549805,-7.0251465,-22.795105,-29.528809,0,0.0,0.0,0.0,0.0
0.096679688,0.96203417,0.05087112,-0.2681464,-0.2729291,0.18013628,-0.9450188,2.2872926E-4,0.98232526,0.18718144,0.99482346,0.089072786,-0.048911437,-0.10161482,0.8759917,-0.47150078,8.4812427E-4,0.4740302,0.8805082,-0.11012268,9.82579,1.7812805,0.002243042,9.633209,1.8356018,0.08627319,-0.039413452,-0.0010681152,-7.0251465,-22.795105,-29.528809,0,0.0,0.0,0.0,0.0
0.101074219,0.9621037,0.050593972,-0.267949,-0.2726835,0.179771,-0.9451593,3.500976E-4,0.98240656,0.18675451,0.9944622,0.09122306,-0.05218548,-0.10509166,0.8671601,-0.48681524,8.443879E-4,0.48960364,0.87194467,-0.009567261,9.62468,1.8435211,0.0034332275,9.633957,1.8314056,0.09159851,-0.057525635,0.0063934326,-7.0251465,-22.795105,-29.528809,0,0.0,0.0,0.0,0.0
0.10546875,0.96173656,0.050688077,-0.269246,-0.27397543,0.17934774,-0.944866,3.952198E-4,0.98247904,0.18637258,0.9940976,0.093227066,-0.055486545,-0.10848648,0.8582327,-0.5016647,8.5164484E-4,0.50472313,0.8632809,-0.028717041,9.696503,1.8626862,0.0038757324,9.634705,1.8276672,0.09906006,-0.043670654,0.018096924,-7.0251465,-21.71936,-29.182434,0,0.0,0.0,0.0,0.0
0.109863282,0.9617776,0.0505203,-0.26913098,-0.2738313,0.17902802,-0.94496846,4.4189513E-4,0.98254603,0.18601918,0.99372613,0.095123224,-0.05882028,-0.11183698,0.84922147,-0.51605743,8.6239574E-4,0.51939815,0.8545319,-0.07182312,9.701294,1.8148041,0.004333496,9.635452,1.8242188,0.09159851,-0.045806885,0.004257202,-7.0251465,-21.71936,-29.182434,0,0.0,0.0,0.0,0.0
0.114257813,0.96181524,0.05036656,-0.26902562,-0.27369937,0.17869285,-0.94507015,4.730177E-4,0.9826149,0.18565477,0.9933519,0.0968891,-0.062166017,-0.11511448,0.84014416,-0.5300061,8.766053E-4,0.5336387,0.84571207,-0.04788208,9.60553,1.7094574,0.004638672,9.636063,1.8206329,0.078826904,-0.036209106,0.007461548,-7.0251465,-21.71936,-29.182434,0,0.0,0.0,0.0,0.0
0.118652344,0.9669032,0.04676012,-0.25082204,-0.25514296,0.17926016,-0.950141,5.3370016E-4,0.98268986,0.18525775,0.9929749,0.09853038,-0.06551764,-0.1183216,0.83101404,-0.5435216,8.926974E-4,0.54745543,0.8368344,0.13406372,9.60553,1.5945282,0.0052337646,9.63681,1.816742,0.076690674,-0.03727722,0.007461548,-6.486511,-23.332214,-29.354858,0,0.0,0.0,0.0,0.0
0.123046875,0.96694356,0.046592265,-0.25069755,-0.2549897,0.1789728,-0.95023626,5.9438305E-4,0.9827502,0.18493715,0.99264246,0.09973447,-0.06865898,-0.12107925,0.821882,-0.55664164,9.1321615E-4,0.56085926,0.8279107,0.0909729,9.76355,1.6519928,0.0058288574,9.637405,1.8135986,0.07136536,-0.03727722,-0.0053253174,-6.486511,-23.332214,-29.354858,0,0.0,0.0,0.0,0.0
0.127441407,0.9669669,0.046494957,-0.25062537,-0.2549009,0.17873037,-0.9503056,6.0994504E-4,0.9827988,0.18467797,0.99209857,0.10075212,-0.07476253,-0.1254264,0.8104577,-0.57221186,0.0029403116,0.5770678,0.8166909,0.04788208,9.658203,1.5801697,0.0059814453,9.637848,1.8110504,0.059646606,-0.039413452,-0.0032043457,-6.486511,-23.332214,-29.354858,0,0.0,0.0,0.0,0.0
0.131835938,0.9637992,0.048577175,-0.26216683,-0.26662847,0.17806709,-0.94720715,6.706312E-4,0.9828186,0.18457296,0.99176186,0.10174082,-0.07782887,-0.12806287,0.8012806,-0.58442223,0.002903167,0.58957464,0.80770874,0.09576416,9.686935,1.6424103,0.006576538,9.6380005,1.8100128,0.041534424,-0.045806885,-0.0095825195,-6.845093,-22.615051,-29.354858,0,0.0,0.0,0.0,0.0
0.136230469,0.9638186,0.0484975,-0.26210997,-0.26655796,0.1779444,-0.94725,7.017474E-4,0.9828447,0.18443353,0.9913936,0.102827065,-0.08102669,-0.13088347,0.79207754,-0.5962237,0.0028714796,0.60169744,0.798719,0.0335083,9.701294,1.7238159,0.006881714,9.638306,1.8086548,0.007446289,-0.04473877,-0.0010681152,-6.845093,-22.615051,-29.354858,0,0.0,0.0,0.0,0.0
0.140625,0.9638445,0.04839168,-0.2620345,-0.26646432,0.17791016,-0.9472828,7.7798846E-4,0.98285615,0.18437238,0.9910253,0.103815146,-0.08420854,-0.1336435,0.7828825,-0.6076465,0.002842479,0.61344707,0.78973067,-0.04309082,9.634262,1.6472015,0.0076293945,9.638443,1.8080597,0.023422241,-0.036209106,-0.004257202,-6.845093,-22.615051,-29.354858,0,0.0,0.0,0.0,0.0
0.145019532,0.9526962,0.0552034,-0.29886886,-0.30392313,0.17585179,-0.9363263,8.6823147E-4,0.9828676,0.18431091,0.99065787,0.10470491,-0.08737268,-0.13634205,0.77370614,-0.61869997,0.0028198548,0.6248325,0.78075373,-0.04788208,9.696503,1.5993195,0.008514404,9.638596,1.8074646,0.0010528564,-0.043670654,0.013839722,-8.459473,-21.359253,-30.911255,0,0.0,0.0,0.0,0.0
0.149414063,0.95273453,0.05505154,-0.2987744,-0.3038021,0.17599612,-0.9363383,0.0010362744,0.9828502,0.18440238,0.990182,0.106098354,-0.09100981,-0.13975614,0.764474,-0.6293233,0.0028044668,0.6358638,0.7717962,0.03829956,9.60553,1.7238159,0.0101623535,9.638443,1.8083649,-0.0032043457,-0.041534424,0.019165039,-8.459473,-21.359253,-30.911255,0,0.0,0.0,0.0,0.0
0.153808594,0.9527675,0.054921288,-0.29869342,-0.30369845,0.17610174,-0.9363523,0.0011747584,0.98283875,0.18446353,0.98970544,0.10736779,-0.09463233,-0.1430918,0.7552796,-0.63959163,0.0028023238,0.64654845,0.7628678,-0.004776001,9.653412,1.7142334,0.011520386,9.638306,1.80896,-0.026626587,-0.041534424,0.026611328,-8.459473,-21.359253,-30.911255,0,0.0,0.0,0.0,0.0
0.158203125,0.9805088,0.0348921,-0.19335221,-0.19647028,0.18115416,-0.96362996,0.0014034818,0.9828356,0.1844785,0.9892285,0.10852088,-0.09823538,-0.14635257,0.7461299,-0.6495161,0.002810298,0.6568968,0.7539752,-0.05265808,9.490601,1.8578949,0.013763428,9.638306,1.8091125,-0.024490356,-0.043670654,0.025543213,-5.052185,-22.615051,-29.701233,0,0.0,0.0,0.0,0.0
0.162597657,0.9805384,0.03472663,-0.19323124,-0.19632086,0.1811564,-0.96365994,0.0015404153,0.982841,0.1844484,0.9892285,0.10852088,-0.09823538,-0.14635257,0.7461299,-0.6495161,0.002810298,0.6568968,0.7539752,-0.05265808,9.490601,1.8578949,0.015106201,9.638306,1.8088074,-0.024490356,-0.043670654,0.025543213,-5.052185,-22.615051,-29.701233,0,0.0,0.0,0.0,0.0
0.166992188,0.9805872,0.034455333,-0.19303297,-0.19607592,0.18118116,-0.9637052,0.0017691526,0.98284596,0.18441977,0.9892285,0.10852088,-0.09823538,-0.14635257,0.7461299,-0.6495161,0.002810298,0.6568968,0.7539752,-0.05265808,9.490601,1.8578949,0.017349243,9.638306,1.8085175,-0.024490356,-0.043670654,0.025543213,-5.052185,-22.615051,-29.701233,0,0.0,0.0,0.0,0.0
0.171386719,0.9666751,0.045290023,-0.2519683,-0.25599837,0.17874973,-0.9500071,0.0020134249,0.9828517,0.18438709,0.988799,0.10656169,-0.104504,-0.14922366,0.71972966,-0.67802775,0.0029628454,0.6860276,0.7275695,-0.04309082,9.634262,1.7860718,0.019744873,9.638443,1.8082123,0.012771606,-0.03514099,0.051116943,-6.3079834,-23.87085,-28.49121,0,0.0,0.0,0.0,0.0
0.17578125,0.9667678,0.04492,-0.2516788,-0.25564554,0.1787862,-0.9500952,0.0023184193,0.982862,0.18432835,0.9884749,0.10672715,-0.10736234,-0.15135457,0.7109168,-0.68679625,0.0030258903,0.69513065,0.7188771,-0.01914978,9.730026,1.8291626,0.022735596,9.638443,1.8076172,0.006378174,-0.025558472,0.055374146,-6.3079834,-23.87085,-28.49121,0,0.0,0.0,0.0,0.0
0.180175782,0.9668557,0.0445684,-0.2514037,-0.25531045,0.17876515,-0.95018935,0.0025937993,0.98288184,0.18421887,0.98815495,0.10681042,-0.110187456,-0.15342775,0.7021768,-0.69527525,0.0031084323,0.7039455,0.7102472,-0.03829956,9.8688965,1.656784,0.025436401,9.638748,1.8065643,0.014907837,-0.0234375,0.07241821,-6.3079834,-23.87085,-28.49121,0,0.0,0.0,0.0,0.0
0.184570313,0.95674026,0.050887004,-0.28645873,-0.29092902,0.17713863,-0.9402033,0.0028987785,0.9828695,0.18428016,0.98783916,0.10681797,-0.11297682,-0.1554463,0.6935127,-0.7034747,0.003207117,0.7124817,0.7016834,0.0622406,9.773117,1.8291626,0.028427124,9.638596,1.8071594,0.010650635,-0.043670654,0.057510376,-7.383728,-23.512268,-28.837585,0,0.0,0.0,0.0,0.0
0.188964844,0.95682704,0.050572105,-0.28622422,-0.2906403,0.17721924,-0.94027734,0.0031726353,0.98287123,0.18426648,0.98740953,0.10726415,-0.11626111,-0.15814932,0.68485093,-0.7113142,0.0033230088,0.72074515,0.6931921,-0.03829956,9.682144,1.8100128,0.03111267,9.638596,1.8070221,-0.015975952,-0.039413452,0.060699463,-7.383728,-23.512268,-28.837585,0,0.0,0.0,0.0,0.0
0.193359375,0.95691,0.050271068,-0.286,-0.29036406,0.17734243,-0.94033945,0.0034480738,0.9828644,0.18429767,0.9870653,0.103617564,-0.12233315,-0.16010281,0.676667,-0.71867156,0.008311805,0.7289617,0.684504,0.07182312,9.677353,1.8578949,0.033813477,9.638443,1.807312,0.0053253174,-0.043670654,0.061767578,-7.383728,-23.512268,-28.837585,0,0.0,0.0,0.0,0.0
0.197753907,0.96288216,0.046277124,-0.26592568,-0.26989746,0.17843044,-0.9462125,0.0036612418,0.9828637,0.18429755,0.9866334,0.104017146,-0.12543865,-0.16274378,0.66817266,-0.7259888,0.008299395,0.73669916,0.67616963,0.028717041,9.840164,1.771698,0.03590393,9.638443,1.807312,-0.004272461,-0.05432129,0.050048828,-7.0251465,-23.512268,-29.528809,0,0.0,0.0,0.0,0.0
0.202148438,0.9629538,0.04599205,-0.26571575,-0.26963866,0.17842983,-0.9462863,0.0038899637,0.98287714,0.1842209,0.9862744,0.10405883,-0.12819713,-0.16490562,0.6598135,-0.7331113,0.008299506,0.7441894,0.66791713,0.12927246,9.686935,1.5849609,0.038146973,9.638596,1.8065643,-0.0053253174,-0.050064087,0.037261963,-7.0251465,-23.512268,-29.528809,0,0.0,0.0,0.0,0.0
0.206542969,0.9630146,0.045749456,-0.26553702,-0.26941803,0.1784968,-0.94633645,0.00410313,0.98287624,0.18422075,0.9859196,0.10403547,-0.13091688,-0.1670135,0.6515465,-0.7399957,0.008312641,0.7514411,0.6597477,0.0909729,9.672562,1.8674622,0.040237427,9.638596,1.8065643,-0.004272461,-0.041534424,0.038330078,-7.0251465,-23.512268,-29.528809,0,0.0,0.0,0.0,0.0
0.2109375,0.9524115,0.052158985,-0.30031946,-0.30478552,0.17671804,-0.93588275,0.004257182,0.9828785,0.18420559,0.98556876,0.10395246,-0.13359681,-0.16907015,0.6433748,-0.7466486,0.008336859,0.75846076,0.65166533,-0.01914978,9.686935,1.905777,0.041748047,9.638596,1.8064117,0.004257202,-0.036209106,0.036209106,-7.562256,-22.973633,-27.972412,0,0.0,0.0,0.0,0.0
0.215332032,0.9524378,0.05206804,-0.3002519,-0.30470255,0.17668226,-0.93591654,0.0043178466,0.9828898,0.18414411,0.9850945,0.10428907,-0.13679409,-0.17181042,0.6352222,-0.7529768,0.008367402,0.76525587,0.6436719,-0.04788208,9.572006,1.8818359,0.04234314,9.638748,1.8058167,0.013839722,-0.03514099,0.034072876,-7.562256,-22.973633,-27.972412,0,0.0,0.0,0.0,0.0
0.219726563,0.95245737,0.05200017,-0.30020145,-0.30464056,0.17665495,-0.9359418,0.004362939,0.98289824,0.18409766,0.98462266,0.10456278,-0.13994639,-0.17449312,0.62716717,-0.7590873,0.008397497,0.7718342,0.6357685,0.04309082,9.600739,1.7669067,0.042785645,9.638901,1.8053741,0.022369385,-0.014907837,0.018096924,-7.562256,-22.973633,-27.972412,0,0.0,0.0,0.0,0.0
0.224121094,0.96992326,0.040583923,-0.24000402,-0.24337094,0.17960767,-0.95315886,0.004423633,0.98290086,0.18408258,0.98415315,0.10477805,-0.14305286,-0.17712018,0.6192113,-0.7649874,0.008426052,0.77820235,0.6279571,-0.009567261,9.615112,1.9440765,0.043380737,9.638901,1.8052216,0.006378174,-0.025558472,0.007461548,-6.3079834,-23.87085,-29.528809,0,0.0,0.0,0.0,0.0
0.228515625,0.96994376,0.040494386,-0.23993601,-0.24328811,0.17950441,-0.95319945,0.0044703446,0.98292345,0.18396099,0.9839145,0.10415853,-0.14513192,-0.17843993,0.61148995,-0.7708691,0.0084541235,0.7843666,0.6202399,0.0622406,9.677353,1.7381897,0.0438385,9.639053,1.8040161,0.017044067,-0.029815674,0.0095825195,-6.3079834,-23.87085,-29.528809,0,0.0,0.0,0.0,0.0
0.232910157,0.96992356,0.040582005,-0.24000254,-0.24336943,0.17954478,-0.953171,0.004409612,0.9829125,0.18402116,0.9836791,0.10352068,-0.14716959,-0.17973173,0.6038661,-0.776558,0.008480922,0.7903349,0.6126164,-0.10533142,9.730026,1.9488678,0.04324341,9.639053,1.8046265,0.020233154,-0.029815674,0.003189087,-6.3079834,-23.87085,-29.528809,0,0.0,0.0,0.0,0.0
0.237304688,0.9629498,0.045437556,-0.26582503,-0.26964462,0.17828336,-0.94631225,0.0043940665,0.98292965,0.18392995,0.98344606,0.102875635,-0.14916591,-0.18100175,0.59634185,-0.782058,0.0084991725,0.79611117,0.6050907,-0.02394104,9.7348175,1.747757,0.04309082,9.639191,1.8037262,0.007446289,-0.015975952,-0.007461548,-7.0251465,-23.87085,-29.528809,0,0.0,0.0,0.0,0.0
0.241699219,0.96295357,0.04542286,-0.26581404,-0.2696313,0.17824058,-0.9463241,0.004394104,0.98293805,0.18388484,0.9831166,0.10253999,-0.1515498,-0.1827822,0.58886063,-0.7872953,0.008512461,0.80170363,0.59766114,0.0,9.753967,1.7094574,0.04309082,9.639191,1.8032684,0.012771606,-0.029815674,-0.0032043457,-7.0251465,-23.87085,-29.528809,0,0.0,0.0,0.0,0.0
0.24609375,0.96295965,0.045398936,-0.26579612,-0.26960912,0.1782784,-0.9463233,0.0044236416,0.9829322,0.18391488,0.98279047,0.10217941,-0.15389055,-0.18452726,0.5814815,-0.7923566,0.008521984,0.8071175,0.59032935,-0.05744934,9.672562,1.9105682,0.043380737,9.639191,1.8035736,0.0010528564,-0.034088135,-0.004257202,-7.0251465,-23.87085,-29.528809,0,0.0,0.0,0.0,0.0
0.250488282,0.9617173,0.046160758,-0.2701276,-0.27400687,0.17805274,-0.94510186,0.0044703456,0.9829377,0.18388478,0.98246783,0.10179394,-0.15618885,-0.18623696,0.57420635,-0.7972471,0.00852971,0.8123577,0.58309704,0.09576416,9.619888,1.771698,0.0438385,9.639191,1.8032684,0.0021209717,-0.024490356,0.01171875,-6.845093,-25.125122,-28.663635,0,0.0,0.0,0.0,0.0
0.254882813,0.9617429,0.04606815,-0.27005252,-0.27391598,0.17806463,-0.94512594,0.004546599,0.98293984,0.18387118,0.98213154,0.101436056,-0.15851909,-0.18800186,0.5670255,-0.8019584,0.008536877,0.8174306,0.5759638,0.05744934,9.686935,1.8339539,0.04458618,9.639191,1.8031311,0.006378174,-0.028762817,0.0,-6.845093,-25.125122,-28.663635,0,0.0,0.0,0.0,0.0
0.259277344,0.9617835,0.045920536,-0.26993287,-0.27377167,0.1779766,-0.94518435,0.004638363,0.98296267,0.18374671,0.9813487,0.10052936,-0.1638558,-0.19193882,0.55981624,-0.8060802,0.010694418,0.822496,0.5686704,-0.0143585205,9.572006,1.747757,0.04548645,9.639496,1.8019257,0.004257202,-0.04685974,0.007461548,-6.845093,-25.125122,-28.663635,0,0.0,0.0,0.0,0.0
0.263671875,0.9697979,0.04035359,-0.2405485,-0.24386485,0.17935565,-0.95308006,0.004683531,0.9829564,0.18377957,0.98102295,0.100131676,-0.16603462,-0.19359937,0.5528446,-0.81048256,0.010636372,0.8272463,0.5617387,0.004776001,9.595947,1.9440765,0.045928955,9.639343,1.8022308,0.024490356,-0.050064087,0.015960693,-6.1279297,-21.539307,-28.318787,0,0.0,0.0,0.0,0.0
0.268066407,0.96982086,0.040248804,-0.24047376,-0.24377231,0.17931819,-0.95311075,0.004759752,0.98296744,0.18371804,0.980822,0.099374406,-0.16766907,-0.19461824,0.54603964,-0.81484014,0.01057971,0.83184457,0.5549078,0.11012268,9.701294,1.8483124,0.046676636,9.639496,1.8016357,0.0053253174,-0.043670654,0.0053253174,-6.1279297,-21.539307,-28.318787,0,0.0,0.0,0.0,0.0
0.272460938,0.9698607,0.040066056,-0.24034338,-0.24361084,0.17926891,-0.9531612,0.0048966836,0.9829839,0.18362641,0.98062456,0.098608956,-0.16926825,-0.19561356,0.53933656,-0.8190552,0.0105263665,0.83629686,0.54817593,0.12449646,9.672562,1.8243713,0.04801941,9.639648,1.8007355,0.019165039,-0.059646606,0.0021362305,-6.1279297,-21.539307,-28.318787,0,0.0,0.0,0.0,0.0
0.276855469,0.9641449,0.043957666,-0.26171023,-0.2653293,0.17821349,-0.94754434,0.0049884585,0.9830095,0.1834869,0.9804311,0.097831994,-0.17083268,-0.19658351,0.5327351,-0.82313323,0.0104798125,0.84060824,0.54154223,0.13885498,9.677353,1.7333984,0.048919678,9.639954,1.7993774,0.020233154,-0.076690674,0.010650635,-7.0251465,-21.71936,-29.528809,0,0.0,0.0,0.0,0.0
0.28125,0.96418434,0.04378635,-0.26159364,-0.26518363,0.17815118,-0.94759685,0.005111406,0.9830285,0.183382,0.98015183,0.097285226,-0.17273632,-0.19797303,0.52619,-0.827001,0.010437148,0.8447838,0.535006,0.07182312,9.600739,1.6615753,0.050125122,9.640091,1.7983398,0.026626587,-0.059646606,0.0010681152,-7.0251465,-21.71936,-29.528809,0,0.0,0.0,0.0,0.0
0.285644532,0.9642118,0.04366731,-0.2615126,-0.26508197,0.17818336,-0.9476193,0.0052172104,0.9830279,0.1833819,0.97987723,0.09671963,-0.17460209,-0.19932993,0.51974696,-0.830741,0.010399948,0.84882766,0.5285673,0.03829956,9.720444,1.9153595,0.05116272,9.640091,1.7983398,0.013839722,-0.05645752,0.012786865,-7.0251465,-21.71936,-29.528809,0,0.0,0.0,0.0,0.0
0.290039063,0.96082705,0.04582936,-0.27333304,-0.2770988,0.17753042,-0.9442982,0.005248352,0.9830476,0.18327531,0.9796068,0.09613857,-0.1764305,-0.20065612,0.513407,-0.83435625,0.010366838,0.852743,0.5222278,0.10533142,9.634262,1.8148041,0.051467896,9.640244,1.797287,0.007446289,-0.06390381,0.013839722,-7.2036743,-24.049377,-29.354858,0,0.0,0.0,0.0,0.0
0.294433594,0.96084,0.04578019,-0.27329594,-0.27705377,0.1774462,-0.94432735,0.0052638394,0.9830652,0.18318099,0.97928977,0.095674604,-0.17843194,-0.20219992,0.5071427,-0.8378075,0.010333556,0.85653526,0.5159851,0.07182312,9.686935,1.637619,0.051620483,9.640549,1.7963867,0.026626587,-0.061782837,-0.007461548,-7.2036743,-24.049377,-29.354858,0,0.0,0.0,0.0,0.0
0.298828125,0.9608328,0.045807816,-0.27331677,-0.27707976,0.17735879,-0.9443361,0.0052171545,0.9830796,0.18310454,0.9789768,0.09519694,-0.1803941,-0.2037116,0.50097835,-0.8411434,0.010299251,0.8602083,0.5098389,0.028717041,9.730026,1.7094574,0.05116272,9.640701,1.795639,0.0095825195,-0.041534424,-0.007461548,-7.2036743,-24.049377,-29.354858,0,0.0,0.0,0.0,0.0
0.303222657,0.96081716,0.045867357,-0.27336174,-0.2771351,0.17731217,-0.94432855,0.0051565007,0.98308516,0.18307601,0.9786675,0.094710805,-0.18231766,-0.20519403,0.49491265,-0.8443677,0.010260568,0.8637658,0.503789,0.07661438,9.691727,1.8291626,0.050567627,9.640701,1.7953491,0.008514404,-0.03514099,-0.014907837,-7.2036743,-24.049377,-29.354858,0,0.0,0.0,0.0,0.0
0.307617188,0.9608103,0.04589328,-0.2733813,-0.27715954,0.17722552,-0.9443377,0.00511138,0.9830997,0.18299986,0.9783619,0.09421829,-0.18420346,-0.20664853,0.48894536,-0.8474838,0.010216956,0.8672112,0.4978356,0.13406372,9.749176,1.7812805,0.050125122,9.640839,1.7946014,0.007446289,-0.026626587,-0.0234375,-7.2036743,-24.049377,-29.354858,0,0.0,0.0,0.0,0.0
0.312011719,0.96078897,0.045974717,-0.27344278,-0.27723423,0.1773457,-0.94429326,0.0050802818,0.9830742,0.18313755,0.97806007,0.09371881,-0.1860519,-0.20807476,0.4830752,-0.8504959,0.010169605,0.8705487,0.4919771,0.1819458,9.600739,1.8674622,0.049819946,9.640549,1.7959442,0.014907837,-0.015975952,-0.02130127,-7.2036743,-24.049377,-29.354858,0,0.0,0.0,0.0,0.0
0.31640625,0.96237576,0.04503984,-0.26796323,-0.27167627,0.1775984,-0.94585985,0.004988467,0.98307186,0.18315266,0.97776186,0.093213946,-0.18786421,-0.20947412,0.47730502,-0.85340524,0.010119263,0.8737798,0.48621652,0.15322876,9.643829,1.7621307,0.048919678,9.640549,1.7960968,-0.022369385,-0.0021209717,-0.020248413,-7.0251465,-23.512268,-29.182434,0,0.0,0.0,0.0,0.0
0.320800782,0.9623576,0.045111272,-0.2680164,-0.2717414,0.17764243,-0.94583285,0.004943365,0.9830606,0.18321416,0.97749186,0.092651635,-0.18954006,-0.21073323,0.47164196,-0.85623914,0.010063087,0.8769091,0.48055092,0.15800476,9.7444,1.8770447,0.048477173,9.640396,1.7966919,-0.006378174,0.03727722,-0.02130127,-7.0251465,-23.512268,-29.182434,0,0.0,0.0,0.0,0.0
0.325195313,0.9623077,0.04530749,-0.26816252,-0.27192113,0.17760357,-0.94578844,0.004775309,0.9830586,0.18322934,0.9777648,0.092965044,-0.18797238,-0.20955956,0.46651658,-0.85932946,0.0078046354,0.8796134,0.4756252,0.0143585205,9.787491,1.7669067,0.046829224,9.640396,1.7968445,-0.010650635,0.04899597,-0.01171875,-7.0251465,-23.512268,-29.182434,0,0.0,0.0,0.0,0.0
0.329589844,0.9661083,0.042895224,-0.2545482,-0.25809518,0.17829257,-0.9495255,0.004653938,0.98304206,0.18332097,0.9774956,0.09238204,-0.18965182,-0.21081112,0.46103686,-0.8619766,0.0078053186,0.8825591,0.4701367,0.13406372,9.634262,1.8100128,0.045639038,9.640244,1.7977448,-0.0053253174,0.07136536,-0.02557373,-7.0251465,-23.153687,-30.56488,0,0.0,0.0,0.0,0.0
0.333984375,0.96607184,0.04305338,-0.25465962,-0.25823358,0.17831457,-0.9494837,0.004531037,0.9830312,0.18338253,0.9772908,0.09167171,-0.19104695,-0.2117589,0.45567778,-0.8645901,0.0077973926,0.8854118,0.464742,0.02394104,9.7827,1.8195801,0.044433594,9.640091,1.7983398,-0.020233154,0.07562256,-0.02130127,-7.0251465,-23.153687,-30.56488,0,0.0,0.0,0.0,0.0
0.338378907,0.9660383,0.043198984,-0.25476217,-0.25836065,0.17841582,-0.94943017,0.0044391854,0.9830065,0.18351744,0.97708833,0.09097186,-0.1924125,-0.21269202,0.45041034,-0.8671174,0.007781288,0.8881749,0.45943964,0.1197052,9.720444,1.795639,0.043533325,9.639954,1.7996826,-0.014907837,0.069229126,-0.0138549805,-7.0251465,-23.153687,-30.56488,0,0.0,0.0,0.0,0.0
0.342773438,0.9714845,0.039430406,-0.23380168,-0.23706427,0.17942433,-0.9547814,0.0043022856,0.98298126,0.18365547,0.9768882,0.09028124,-0.19374928,-0.21361011,0.44523513,-0.8695611,0.0077589354,0.8908507,0.45422995,-0.0143585205,9.691727,1.8866272,0.04219055,9.639648,1.8010254,-0.031951904,0.08201599,-0.014907837,-6.3079834,-21.71936,-29.873657,0,0.0,0.0,0.0,0.0
0.347167969,0.97145975,0.03955117,-0.23388426,-0.23716718,0.17952046,-0.9547378,0.004226013,0.9829588,0.18377711,0.9767852,0.089407355,-0.19467172,-0.21408181,0.4401903,-0.87201005,0.007728489,0.89344215,0.4491118,0.08139038,9.634262,1.7525482,0.04144287,9.639496,1.8022308,-0.023422241,0.07455444,-0.012786865,-6.3079834,-21.71936,-29.873657,0,0.0,0.0,0.0,0.0
0.3515625,0.97143024,0.039694495,-0.23398224,-0.23728964,0.1795647,-0.954699,0.004118658,0.98294497,0.18385367,0.9766834,0.08854997,-0.19557223,-0.21454698,0.43523413,-0.8743803,0.007693363,0.8959521,0.44408408,0.0335083,9.658203,1.637619,0.040390015,9.639343,1.8029785,-0.031951904,0.076690674,-0.007461548,-6.3079834,-21.71936,-29.873657,0,0.0,0.0,0.0,0.0
0.355957032,0.9396157,0.059293542,-0.33705568,-0.34220794,0.17428628,-0.92331904,0.003997327,0.98290825,0.18405285,0.97658265,0.08771023,-0.19645149,-0.21500629,0.43036446,-0.8766748,0.007652386,0.89838374,0.43914473,0.03829956,9.725235,1.9919739,0.03919983,9.638901,1.8049164,-0.029815674,0.07029724,-0.0095825195,-9.176636,-22.436523,-29.528809,0,0.0,0.0,0.0,0.0
0.360351563,0.9395696,0.059446324,-0.3371574,-0.34233534,0.17445797,-0.9232394,0.0039366093,0.98286855,0.18426597,0.9760086,0.08782142,-0.19923519,-0.21759923,0.42539084,-0.87846065,0.0076051587,0.9007386,0.43429497,0.08618164,9.806641,1.9632416,0.038604736,9.638596,1.8070221,-0.03302002,0.06390381,-0.015975952,-9.176636,-22.436523,-29.528809,0,0.0,0.0,0.0,0.0
0.364746094,0.93954337,0.059533134,-0.33721524,-0.3424074,0.17465451,-0.9231756,0.003936629,0.98282844,0.18448007,0.97543865,0.087908804,-0.20196928,-0.22014193,0.42050982,-0.88017565,0.0075548757,0.90301913,0.4295339,0.12449646,9.844955,1.9967499,0.038604736,9.638153,1.8091125,-0.03727722,0.053253174,-0.0095825195,-9.176636,-22.436523,-29.528809,0,0.0,0.0,0.0,0.0
0.369140625,0.95358837,0.05188816,-0.2966089,-0.30108762,0.1771873,-0.93699044,0.003936611,0.9828085,0.18458661,0.97487324,0.08797058,-0.20465407,-0.22263376,0.41572076,-0.8818222,0.0075045396,0.90522784,0.42486027,0.20111084,9.691727,1.9345093,0.038604736,9.6380005,1.8101654,-0.034072876,0.050064087,0.0010681152,-8.100891,-23.87085,-30.220032,0,0.0,0.0,0.0,0.0
0.373535157,0.9535567,0.0520023,-0.29669055,-0.3011885,0.1772805,-0.93694025,0.0038744046,0.9827855,0.18470952,0.97450924,0.08764829,-0.20651785,-0.22422373,0.41109756,-0.88358504,0.0074542672,0.90736794,0.42027116,0.06703186,9.7348175,1.8770447,0.037994385,9.637695,1.8113556,-0.017028809,0.04046631,-0.0063934326,-8.100891,-23.87085,-30.220032,0,0.0,0.0,0.0,0.0
0.377929688,0.95356345,0.051978234,-0.29667336,-0.301167,0.17731954,-0.9369399,0.0039055017,0.9827798,0.18473956,0.9741493,0.08732087,-0.2083462,-0.22578374,0.40655985,-0.88528574,0.007401284,0.90944165,0.4157656,0.11491394,9.7444,1.9249268,0.03829956,9.637695,1.8116608,-0.020233154,0.031951904,-0.01171875,-8.100891,-23.87085,-30.220032,0,0.0,0.0,0.0,0.0
0.382324219,0.9596028,0.04835026,-0.27717274,-0.2813316,0.1784537,-0.9428716,0.003874419,0.98275965,0.18484713,0.97379446,0.08698351,-0.21013874,-0.22731122,0.40210602,-0.88692755,0.0073499847,0.91145194,0.41134092,0.10533142,9.572006,1.8866272,0.037994385,9.637405,1.8126984,-0.011703491,0.015975952,-0.012786865,-7.2036743,-23.332214,-29.01001,0,0.0,0.0,0.0,0.0
0.38671875,0.9596229,0.0482739,-0.27711633,-0.28126186,0.17850712,-0.94288224,0.0039506387,0.9827537,0.18487713,0.9735392,0.08647524,-0.21152702,-0.22840403,0.39777145,-0.8885997,0.007297537,0.9134002,0.40699732,0.20111084,9.691727,1.905777,0.038742065,9.637405,1.8130035,-0.019165039,0.009597778,-0.010650635,-7.2036743,-23.332214,-29.01001,0,0.0,0.0,0.0,0.0
0.391113282,0.959619,0.048288688,-0.27712724,-0.28127512,0.17854825,-0.94287044,0.0039506056,0.98274547,0.18492071,0.9732881,0.08596304,-0.2128863,-0.22947262,0.3935176,-0.89021695,0.0072487593,0.91528916,0.4027322,0.05744934,9.706085,1.929718,0.038742065,9.637405,1.813446,-0.0010681152,0.011703491,-0.010650635,-7.2036743,-23.332214,-29.01001,0,0.0,0.0,0.0,0.0
0.395507813,0.9695858,0.0416434,-0.24118316,-0.24472219,0.1803051,-0.9526811,0.0038136763,0.98272884,0.18501231,0.9728963,0.08682337,-0.21432328,-0.23116264,0.3894125,-0.8915838,0.006049859,0.91696215,0.3989283,-0.0335083,9.686935,1.9728088,0.037399292,9.637253,1.8143463,-0.006378174,-0.0021209717,-0.020248413,-6.1279297,-23.332214,-28.663635,0,0.0,0.0,0.0,0.0
0.399902344,0.9695793,0.041671053,-0.2412043,-0.24474795,0.18033211,-0.95266926,0.0037981528,0.98272264,0.1850452,0.9728318,0.08598608,-0.21495259,-0.23143433,0.38538104,-0.8932634,0.006030433,0.91874254,0.3948111,-0.0143585205,9.62468,1.905777,0.037246704,9.6371,1.8146515,-0.006378174,-0.012771606,-0.026626587,-6.1279297,-23.332214,-28.663635,0,0.0,0.0,0.0,0.0
0.404296875,0.9695763,0.041684,-0.2412142,-0.24475992,0.18037386,-0.9526583,0.0037981211,0.9827144,0.18508878,0.9727684,0.08516366,-0.21556613,-0.2317013,0.38142335,-0.8948915,0.006009732,0.9204691,0.39076912,0.04788208,9.667786,1.9345093,0.037246704,9.6371,1.815094,0.003189087,0.0021362305,-0.0234375,-6.1279297,-23.332214,-28.663635,0,0.0,0.0,0.0,0.0
0.408691407,0.96348685,0.046005882,-0.2637737,-0.26772985,0.17922425,-0.9466781,0.0037218863,0.982732,0.18499735,0.9727061,0.08435526,-0.21616429,-0.23196326,0.37753874,-0.8964695,0.005988484,0.9221435,0.38680157,-0.0622406,9.7348175,1.953659,0.036499023,9.637253,1.8141937,0.01171875,-0.0010528564,-0.019180298,-6.845093,-22.973633,-29.01001,0,0.0,0.0,0.0,0.0
0.413085938,0.9634659,0.046089984,-0.2638354,-0.2678067,0.17902684,-0.9466937,0.0036005236,0.982764,0.18482947,0.9725344,0.08374056,-0.21717353,-0.23268275,0.37368315,-0.89789736,0.0059636566,0.9237686,0.3829047,-0.13406372,9.811432,1.771698,0.035308838,9.637558,1.8125458,0.028762817,-0.03302002,-0.018112183,-6.845093,-22.973633,-29.01001,0,0.0,0.0,0.0,0.0
0.417480469,0.9634566,0.046127625,-0.26386303,-0.2678414,0.17885806,-0.9467158,0.0035242785,0.9827929,0.18467686,0.9725344,0.08374056,-0.21717353,-0.23268275,0.37368315,-0.89789736,0.0059636566,0.9237686,0.3829047,-0.13406372,9.811432,1.771698,0.034561157,9.637848,1.8110504,0.028762817,-0.03302002,-0.018112183,-6.845093,-22.973633,-29.01001,0,0.0,0.0,0.0,0.0
0.421875,0.9658981,0.044442777,-0.2550801,-0.25889903,0.17912634,-0.9491497,0.0035087105,0.98282176,0.18452394,0.9721982,0.082543544,-0.2191284,-0.23408526,0.36617,-0.90062404,0.0058975467,0.92687976,0.375312,-0.01914978,9.758759,1.8531036,0.03440857,9.638153,1.809555,0.029815674,-0.04260254,-0.012786865,-6.845093,-23.690796,-30.047607,0,0.0,0.0,0.0,0.0
0.426269532,0.96592927,0.044312473,-0.25498447,-0.25878164,0.17895763,-0.94921345,0.003569419,0.98285836,0.18432766,0.9721982,0.082543544,-0.2191284,-0.23408526,0.36617,-0.90062404,0.0058975467,0.92687976,0.375312,-0.01914978,9.758759,1.8531036,0.035003662,9.638443,1.8076172,0.029815674,-0.04260254,-0.012786865,-6.845093,-23.690796,-30.047607,0,0.0,0.0,0.0,0.0
0.430664063,0.96596533,0.044161543,-0.2548737,-0.25864515,0.17890279,-0.9492609,0.003676786,0.9828751,0.18423608,0.971961,0.08123057,-0.22066584,-0.23506972,0.35895288,-0.9032691,0.005835578,0.92981416,0.36798307,-0.04309082,9.662994,1.8531036,0.03605652,9.638596,1.8067169,0.04899597,-0.06071472,0.007461548,-6.845093,-23.690796,-30.047607,0,0.0,0.0,0.0,0.0
0.435058594,0.96452993,0.045034707,-0.26010334,-0.26394653,0.17854431,-0.94786805,0.0037530079,0.9829006,0.18409811,0.9718464,0.08058206,-0.22140719,-0.23554376,0.35544452,-0.90453213,0.005808914,0.9312173,0.3644181,-0.18673706,9.682144,1.9393005,0.0368042,9.638901,1.8053741,0.023422241,-0.059646606,0.02128601,-7.0251465,-22.077942,-29.873657,0,0.0,0.0,0.0,0.0
0.439453125,0.96457547,0.04483754,-0.2599683,-0.26377794,0.17845595,-0.9479317,0.0038899714,0.9829258,0.18396142,0.971708,0.07997786,-0.22223212,-0.2361146,0.35199127,-0.90573287,0.0057851886,0.9325801,0.36091664,-0.0622406,9.667786,1.8578949,0.038146973,9.639053,1.8040161,0.043670654,-0.055389404,0.026611328,-7.0251465,-22.077942,-29.873657,0,0.0,0.0,0.0,0.0
0.443847657,0.9646326,0.04459058,-0.25979924,-0.26356688,0.17833178,-0.9480138,0.0040579713,0.9829595,0.18377724,0.971573,0.079374425,-0.22303717,-0.23666987,0.3486018,-0.9068981,0.0057666404,0.9339039,0.35747764,0.004776001,9.701294,1.8004303,0.039794922,9.639496,1.8022308,0.03514099,-0.05857849,0.027679443,-7.0251465,-22.077942,-29.873657,0,0.0,0.0,0.0,0.0
0.448242188,0.96247447,0.045805745,-0.2674784,-0.27133858,0.17795229,-0.9458902,0.0042711953,0.9829724,0.18370341,0.9714416,0.078770466,-0.22382225,-0.2372089,0.34527475,-0.9080294,0.0057542725,0.93519014,0.3540993,0.01914978,9.567215,1.8578949,0.041885376,9.639496,1.8014832,0.041534424,-0.07562256,0.026611328,-7.0251465,-22.795105,-29.182434,0,0.0,0.0,0.0,0.0
0.452636719,0.96252614,0.045597482,-0.26732817,-0.27115294,0.17789651,-0.945954,0.0044236314,0.98299223,0.18359393,0.97127444,0.07822183,-0.2247385,-0.23789282,0.34199813,-0.90908986,0.005749475,0.93643934,0.35078242,-0.07661438,9.696503,1.8818359,0.043380737,9.639801,1.8004303,0.023422241,-0.07562256,0.038330078,-7.0251465,-22.795105,-29.182434,0,0.0,0.0,0.0,0.0
0.45703125,0.9625697,0.045421466,-0.26720116,-0.27099583,0.17788441,-0.94600123,0.004562161,0.98300254,0.18353517,0.97111106,0.077672355,-0.22563301,-0.23855858,0.33878326,-0.9101185,0.0057496345,0.9376529,0.34752557,0.07661438,9.639053,1.8435211,0.04473877,9.639801,1.7998352,0.030883789,-0.07136536,0.029815674,-7.0251465,-22.795105,-29.182434,0,0.0,0.0,0.0,0.0
0.461425782,0.9704841,0.039783165,-0.23786119,-0.24111998,0.17915398,-0.95381594,0.0046679596,0.9830163,0.1834586,0.96996856,0.07572275,-0.23114304,-0.24308279,0.33489314,-0.9103611,0.008473169,0.9392085,0.34324268,-0.04309082,9.686935,1.8914185,0.045776367,9.639954,1.7990875,0.017044067,-0.07136536,0.018096924,-5.949402,-23.153687,-28.146362,0,0.0,0.0,0.0,0.0
0.465820313,0.97049445,0.03973798,-0.23782623,-0.24107683,0.17925927,-0.953807,0.00473019,0.9829989,0.18355006,0.9699776,0.07500942,-0.2313375,-0.2430491,0.33185732,-0.91148114,0.008401371,0.94034266,0.34012514,-0.004776001,9.629471,1.9967499,0.04638672,9.639801,1.7999878,0.024490356,-0.064971924,0.019165039,-5.949402,-23.153687,-28.146362,0,0.0,0.0,0.0,0.0
0.470214844,0.97049165,0.039750762,-0.23783612,-0.24108872,0.17930113,-0.9537963,0.004730151,0.9829908,0.18359366,0.9699868,0.07430801,-0.23152524,-0.24301477,0.32888085,-0.9125685,0.008333068,0.94144344,0.337068,-0.16758728,9.682144,1.9680328,0.04638672,9.639801,1.8004303,-0.0032043457,-0.05857849,0.0063934326,-5.949402,-23.153687,-28.146362,0,0.0,0.0,0.0,0.0
0.474609375,0.95629156,0.04920024,-0.28824636,-0.29237616,0.17697695,-0.9397848,0.0047753192,0.9829845,0.18362652,0.9699958,0.07362062,-0.23170708,-0.24298115,0.32596105,-0.9136244,0.008265896,0.9425123,0.33406928,-0.02394104,9.797058,1.8914185,0.046829224,9.639648,1.8007355,0.0053253174,-0.039413452,0.012786865,-7.562256,-22.973633,-29.01001,0,0.0,0.0,0.0,0.0
0.479003907,0.9563112,0.049126957,-0.28819346,-0.2923112,0.17688465,-0.9398224,0.0048063863,0.98300475,0.18351713,0.96974546,0.073289216,-0.23285685,-0.24398026,0.32301956,-0.9144024,0.008201477,0.9435502,0.33112788,0.0622406,9.60553,1.8339539,0.0471344,9.639954,1.7996826,-0.0010681152,-0.038345337,0.0063934326,-7.562256,-22.973633,-29.01001,0,0.0,0.0,0.0,0.0
0.483398438,0.956331,0.049053337,-0.2881403,-0.29224536,0.17689107,-0.9398415,0.004867081,0.9830072,0.18350202,0.9694996,0.07295618,-0.23398252,-0.24495749,0.3201332,-0.91515595,0.00813929,0.9445592,0.3282402,-0.05265808,9.619888,1.8674622,0.047729492,9.639954,1.79953,0.025558472,-0.04473877,-0.0010681152,-7.562256,-22.973633,-29.01001,0,0.0,0.0,0.0,0.0
0.487792969,0.96065265,0.046285093,-0.27386886,-0.27770853,0.17760804,-0.94410455,0.0049433494,0.9830123,0.18347341,0.9692581,0.07262126,-0.23508462,-0.24591325,0.3173028,-0.91588515,0.008080269,0.9455396,0.32540685,0.06703186,9.725235,1.8435211,0.048477173,9.639954,1.7992401,0.012771606,-0.034088135,0.014892578,-7.383728,-23.512268,-29.873657,0,0.0,0.0,0.0,0.0
0.4921875,0.9606791,0.046181034,-0.27379355,-0.27761585,0.177527,-0.944147,0.0050040605,0.98303175,0.18336707,0.9690954,0.072189264,-0.23588689,-0.24655528,0.31454915,-0.91666204,0.008024863,0.94649225,0.3226268,0.10055542,9.715668,1.8483124,0.049072266,9.640091,1.7981873,0.0095825195,-0.05218506,0.007461548,-7.383728,-23.512268,-29.873657,0,0.0,0.0,0.0,0.0
0.496582032,0.9607148,0.04604084,-0.273692,-0.27749074,0.17745298,-0.9441977,0.0050958055,0.98305166,0.18325761,0.9689362,0.07175891,-0.23667118,-0.24718216,0.3118471,-0.9174161,0.007972434,0.94741863,0.31989747,0.12927246,9.615112,1.8722534,0.049972534,9.640396,1.7971344,0.026626587,-0.041534424,0.0010681152,-7.383728,-23.512268,-29.873657,0,0.0,0.0,0.0,0.0
0.500976563,0.97029907,0.03934866,-0.23868674,-0.24185279,0.1789509,-0.95366865,0.005187627,0.9830709,0.1831525,0.9687805,0.071329206,-0.23743738,-0.24779342,0.30919623,-0.91814816,0.007923963,0.9483195,0.31721818,0.11012268,9.811432,1.7812805,0.050872803,9.640549,1.7960968,0.03302002,-0.050064087,0.0021362305,-6.486511,-24.407959,-30.392456,0,0.0,0.0,0.0,0.0
0.505371094,0.9703128,0.039287962,-0.2386409,-0.24179702,0.17887138,-0.95369756,0.0052171974,0.98308766,0.18306091,0.9688106,0.0706748,-0.23751,-0.2476769,0.30664748,-0.919034,0.007879299,0.9491957,0.31458783,0.02394104,9.567215,1.8195801,0.05116272,9.640701,1.7951965,0.020233154,-0.05645752,0.0063934326,-6.486511,-24.407959,-30.392456,0,0.0,0.0,0.0,0.0
0.509765625,0.970329,0.03921647,-0.23858696,-0.24173118,0.17882581,-0.9537229,0.0052638617,0.98309886,0.18299972,0.96884054,0.070032164,-0.23757851,-0.24756141,0.30414572,-0.91989607,0.00783618,0.95004785,0.31200597,0.07661438,9.615112,1.7238159,0.051620483,9.640839,1.7946014,0.023422241,-0.064971924,-0.004257202,-6.486511,-24.407959,-30.392456,0,0.0,0.0,0.0,0.0
0.514160157,0.9703618,0.039071035,-0.23847717,-0.24159724,0.17872047,-0.9537766,0.0053557153,0.98312384,0.18286298,0.9688701,0.06940069,-0.23764294,-0.24744667,0.30169111,-0.9207348,0.0077951327,0.9508765,0.30947247,0.2106781,9.730026,1.6519928,0.052520752,9.640991,1.7932434,0.007446289,-0.0745697,-0.004257202,-6.486511,-24.407959,-30.392456,0,0.0,0.0,0.0,0.0
0.518554688,0.9703629,0.03906666,-0.2384739,-0.24159366,0.17864272,-0.95379215,0.005340148,0.98313814,0.1827865,0.96889997,0.06877784,-0.2377026,-0.24733122,0.29928148,-0.92155194,0.007757638,0.9516828,0.30698472,0.0143585205,9.653412,1.795639,0.052368164,9.641144,1.7924957,0.019165039,-0.061782837,-0.0053253174,-6.486511,-24.407959,-30.392456,0,0.0,0.0,0.0,0.0
0.522949219,0.97037756,0.039001305,-0.23842452,-0.24153332,0.17861079,-0.9538132,0.005385232,0.9831464,0.18274002,0.9689291,0.06816814,-0.23775922,-0.247218,0.29691654,-0.9223469,0.0077199717,0.95246714,0.30454347,0.07182312,9.619888,1.7142334,0.05281067,9.641296,1.7920532,0.017044067,-0.05857849,-0.012786865,-6.486511,-24.407959,-30.392456,0,0.0,0.0,0.0,0.0
0.52734375,0.9624215,0.04444657,-0.26789805,-0.27150545,0.17727268,-0.94596994,0.005445891,0.98315763,0.18267852,0.9678122,0.06775411,-0.24238169,-0.25151825,0.29420382,-0.9220535,0.008836706,0.9533381,0.30177546,0.05744934,9.572006,1.7525482,0.05340576,9.641449,1.7914581,0.0053253174,-0.07136536,-0.004257202,-7.2036743,-25.125122,-30.047607,0,0.0,0.0,0.0,0.0
0.531738282,0.9624503,0.044336483,-0.2678129,-0.27140158,0.17728752,-0.94599706,0.005537706,0.9831599,0.1826634,0.9677076,0.067340784,-0.24291411,-0.25192282,0.29189354,-0.9226771,0.00877126,0.95407724,0.2994323,0.07182312,9.610321,1.7286072,0.05430603,9.641449,1.7913055,0.010650635,-0.059646606,0.0021362305,-7.2036743,-25.125122,-30.047607,0,0.0,0.0,0.0,0.0
0.536132813,0.9624678,0.044269327,-0.267761,-0.2713378,0.17736991,-0.9459998,0.00561397,0.9831481,0.18272477,0.96760553,0.06693005,-0.24343373,-0.25231677,0.28962868,-0.92328304,0.008710014,0.9547961,0.2971339,0.0909729,9.572006,1.7333984,0.05505371,9.641296,1.7919006,0.0,-0.05857849,0.0063934326,-7.2036743,-25.125122,-30.047607,0,0.0,0.0,0.0,0.0
0.540527344,0.96299165,0.04382365,-0.26594496,-0.2694708,0.17748389,-0.9465121,0.0057213292,0.9831475,0.18272467,0.96750575,0.06652314,-0.24394138,-0.25270113,0.28740963,-0.92387116,0.0086522885,0.9554948,0.29488093,0.12927246,9.686935,1.7860718,0.056106567,9.641296,1.7919006,-0.020233154,-0.05857849,0.0053253174,-7.2036743,-24.049377,-30.047607,0,0.0,0.0,0.0,0.0
0.544921875,0.963012,0.04374179,-0.26588434,-0.26939604,0.17752193,-0.9465261,0.0057975533,0.9831443,0.18273963,0.96741766,0.066108175,-0.24440297,-0.25303984,0.28523704,-0.92445153,0.008598984,0.95617443,0.29267135,0.004776001,9.58638,1.6424103,0.056854248,9.641296,1.7920532,0.0,-0.0745697,0.004257202,-7.2036743,-24.049377,-30.047607,0,0.0,0.0,0.0,0.0
0.549316407,0.9630572,0.043561153,-0.2657506,-0.26923105,0.17760558,-0.9465575,0.0059656496,0.9831372,0.18277232,0.96733165,0.06569726,-0.24485362,-0.25336996,0.28310767,-0.9250155,0.008548949,0.9568354,0.29050472,0.12927246,9.600739,1.6807251,0.058502197,9.641144,1.7923584,-0.015975952,-0.05857849,0.010650635,-7.2036743,-24.049377,-30.047607,0,0.0,0.0,0.0,0.0
0.553710938,0.95588225,0.04804686,-0.28979397,-0.29368782,0.17660588,-0.9394455,0.006041907,0.9831083,0.18292522,0.96724826,0.065287225,-0.24529232,-0.2536896,0.28102165,-0.9255638,0.008504958,0.95747817,0.28838038,0.0143585205,9.567215,2.0111237,0.059249878,9.640839,1.7938538,-0.017028809,-0.06071472,0.019165039,-7.383728,-24.946594,-28.49121,0,0.0,0.0,0.0,0.0
0.558105469,0.9559276,0.047891993,-0.28967008,-0.29353678,0.17676207,-0.9394633,0.0062099122,0.9830878,0.18302982,0.9670369,0.06502487,-0.24619381,-0.25449556,0.27894673,-0.9259702,0.008463864,0.9581026,0.2863003,0.12927246,9.62468,1.9440765,0.060897827,9.640701,1.7948914,-0.014907837,-0.05857849,0.010650635,-7.383728,-24.946594,-28.49121,0,0.0,0.0,0.0,0.0
0.5625,0.9559501,0.04781527,-0.28960872,-0.29346144,0.17691526,-0.93945795,0.0063157654,0.9830639,0.18315408,0.96683,0.064759195,-0.24707493,-0.2552817,0.27691588,-0.9263632,0.008428435,0.9587095,0.28426242,0.1197052,9.667786,1.8626862,0.061935425,9.640396,1.7960968,-0.011703491,-0.050064087,0.02128601,-7.383728,-24.946594,-28.49121,0,0.0,0.0,0.0,0.0
0.566894532,0.95147073,0.050378002,-0.3035876,-0.30767208,0.17631556,-0.9350137,0.006423098,0.9830437,0.18325903,0.966627,0.06449295,-0.24793714,-0.2560501,0.27492827,-0.92674303,0.008396537,0.95929927,0.28226653,0.08618164,9.667786,1.8483124,0.06298828,9.640244,1.7971344,-0.02130127,-0.045806885,0.012786865,-8.279419,-22.615051,-29.701233,0,0.0,0.0,0.0,0.0
0.571289063,0.95150167,0.0502643,-0.30350965,-0.307574,0.17641781,-0.9350268,0.0065460415,0.9830312,0.18332183,0.966351,0.06430796,-0.24905857,-0.25709075,0.2729634,-0.92703575,0.008368102,0.9598726,0.28031147,0.11012268,9.701294,1.8291626,0.064193726,9.640091,1.7977448,-0.019165039,-0.047927856,0.013839722,-8.279419,-22.615051,-29.701233,0,0.0,0.0,0.0,0.0
0.575683594,0.95153254,0.050150353,-0.30343148,-0.30747533,0.17656405,-0.9350316,0.006682925,0.98301077,0.18342645,0.96607995,0.06411907,-0.25015616,-0.25810802,0.27103963,-0.9273175,0.008343504,0.96043026,0.27839562,0.1197052,9.672562,1.8914185,0.0655365,9.639954,1.7987823,-0.014907837,-0.04260254,0.012786865,-8.279419,-22.615051,-29.701233,0,0.0,0.0,0.0,0.0
0.580078125,0.9688192,0.039084036,-0.24466679,-0.24767826,0.17946644,-0.95207524,0.006698537,0.98298734,0.1835508,0.965814,0.06392636,-0.2512304,-0.25910234,0.26915672,-0.9275886,0.008322996,0.9609725,0.27651882,0.07182312,9.730026,1.929718,0.06568909,9.639648,1.7999878,-0.017028809,-0.04260254,0.019165039,-6.486511,-22.973633,-29.354858,0,0.0,0.0,0.0,0.0
0.584472657,0.96884143,0.038985465,-0.24459456,-0.24758807,0.17963049,-0.95206773,0.0068198317,0.9829613,0.18368578,0.9658754,0.06340145,-0.25112745,-0.2588741,0.26739272,-0.9281624,0.008302805,0.9614996,0.27468106,0.10055542,9.658203,1.9009857,0.06687927,9.639496,1.8013306,-0.017028809,-0.03514099,-0.004257202,-6.486511,-22.973633,-29.354858,0,0.0,0.0,0.0,0.0
0.588867188,0.9688548,0.03892574,-0.24455076,-0.24753372,0.17967929,-0.9520727,0.0068805777,0.9829548,0.18371859,0.965936,0.062884934,-0.25102413,-0.25864834,0.26566622,-0.92872095,0.008286066,0.96201193,0.27288166,0.22984314,9.835373,1.8914185,0.067474365,9.639343,1.8016357,-0.024490356,-0.041534424,0.017028809,-6.486511,-22.973633,-29.354858,0,0.0,0.0,0.0,0.0
0.593261719,0.9670688,0.040158745,-0.2513266,-0.2544205,0.17940944,-0.9503064,0.006927255,0.98295444,0.18371852,0.9657934,0.06250694,-0.25166646,-0.259169,0.26498666,-0.9287699,0.008633693,0.96222395,0.2721222,0.1819458,9.691727,1.8339539,0.06793213,9.639343,1.8016357,-0.015975952,-0.012771606,0.0021362305,-6.3079834,-22.077942,-27.799988,0,0.0,0.0,0.0,0.0
0.59765625,0.96706045,0.040194597,-0.25135317,-0.25445285,0.1794609,-0.9502881,0.006911619,0.98294365,0.18377718,0.9658191,0.06204523,-0.25168225,-0.25907418,0.26329902,-0.9292762,0.008610533,0.962717,0.27037352,0.05265808,9.672562,1.9440765,0.06777954,9.639343,1.8022308,-0.0021362305,-0.0053253174,0.003189087,-6.3079834,-22.077942,-27.799988,0,0.0,0.0,0.0,0.0
0.602050782,0.9670755,0.040130526,-0.2513057,-0.25439417,0.17949578,-0.9502973,0.006972385,0.98293984,0.18379493,0.96584404,0.06159423,-0.25169727,-0.2589819,0.26164496,-0.929769,0.008586916,0.9631968,0.26866,0.22026062,9.696503,1.8914185,0.068374634,9.639191,1.8023834,-0.007446289,-0.0021209717,-0.0010681152,-6.3079834,-22.077942,-27.799988,0,0.0,0.0,0.0,0.0
0.606445313,0.9420238,0.055127367,-0.3309866,-0.33547235,0.1754077,-0.9255758,0.0070330394,0.9829513,0.18373193,0.9658688,0.061150875,-0.25171027,-0.25889018,0.26002383,-0.9302491,0.008565119,0.96366394,0.26698026,0.17237854,9.634262,1.9776001,0.06896973,9.639343,1.8017731,0.006378174,-0.015975952,-0.004257202,-9.355164,-22.615051,-30.392456,0,0.0,0.0,0.0,0.0
0.610839844,0.94203514,0.05508823,-0.33096093,-0.33543962,0.17545328,-0.925579,0.0070796753,0.98294526,0.18376192,0.9654523,0.061153572,-0.25330234,-0.26043966,0.25832996,-0.9302885,0.008545122,0.9641192,0.26533207,0.1819458,9.667786,1.8626862,0.06942749,9.639343,1.8020782,0.029815674,-0.004257202,0.004257202,-9.355164,-22.615051,-30.392456,0,0.0,0.0,0.0,0.0
0.615234375,0.9420665,0.054979514,-0.3308897,-0.3353502,0.17537819,-0.9256256,0.0071403873,0.98296475,0.1836553,0.965042,0.061150108,-0.25486216,-0.26195678,0.25667095,-0.9303218,0.008526438,0.9645624,0.2637169,0.10533142,9.696503,1.9440765,0.07002258,9.639496,1.8010254,0.008514404,-0.0010528564,0.003189087,-9.355164,-22.615051,-30.392456,0,0.0,0.0,0.0,0.0
0.619628907,0.9613024,0.04371382,-0.272005,-0.27540025,0.17839992,-0.94463116,0.0072322353,0.9829865,0.18353508,0.964638,0.061139308,-0.2563895,-0.26344103,0.25504345,-0.9303503,0.008509488,0.9649947,0.2621312,0.19631958,9.686935,1.9249268,0.07092285,9.639648,1.7998352,0.036209106,-0.010650635,0.0063934326,-7.0251465,-22.795105,-28.49121,0,0.0,0.0,0.0,0.0
0.624023438,0.9613108,0.04368086,-0.27198067,-0.27537143,0.17825004,-0.94466794,0.007216658,0.98301524,0.18338215,0.9645727,0.060801808,-0.25671488,-0.26368016,0.25352335,-0.93069786,0.008495105,0.9654165,0.26057395,0.05265808,9.643829,1.8339539,0.07077026,9.639954,1.7983398,0.03727722,-0.013839722,0.0063934326,-7.0251465,-22.795105,-28.49121,0,0.0,0.0,0.0,0.0
0.628417969,0.9613467,0.043539356,-0.2718763,-0.2752451,0.17795597,-0.94476014,0.0072477693,0.9830748,0.1830614,0.96450895,0.060470045,-0.25703284,-0.263914,0.2520303,-0.93103707,0.00848021,0.9658282,0.25904438,0.19631958,9.701294,1.637619,0.07107544,9.640549,1.7951965,0.04046631,-0.0021209717,-0.0021362305,-7.0251465,-22.795105,-28.49121,0,0.0,0.0,0.0,0.0
0.6328125,0.9721558,0.035850964,-0.23157643,-0.2342211,0.17947893,-0.95547247,0.0073084827,0.98310834,0.18287855,0.964447,0.060141172,-0.2573421,-0.26414058,0.2505609,-0.9313695,0.008466213,0.966231,0.25753844,-0.004776001,9.696503,1.7381897,0.07167053,9.640839,1.793396,0.05857849,-0.0095825195,-0.0053253174,-5.949402,-24.946594,-28.837585,0,0.0,0.0,0.0,0.0
0.637207032,0.9721813,0.03574124,-0.23148678,-0.23411429,0.17929946,-0.95553255,0.007353532,0.9831451,0.1826791,0.9646104,0.059604365,-0.25685453,-0.26354402,0.2491678,-0.931912,0.0084538525,0.9666244,0.25605822,0.06703186,9.500183,1.6807251,0.07211304,9.641296,1.7914581,0.03727722,-0.014907837,0.019165039,-5.949402,-24.946594,-28.837585,0,0.0,0.0,0.0,0.0
0.641601563,0.97218716,0.035715736,-0.2314659,-0.23409022,0.17914832,-0.95556664,0.0073379637,0.98317355,0.1825264,0.9647706,0.059077457,-0.25637397,-0.2629572,0.24779823,-0.93244284,0.008442666,0.9670087,0.2546033,0.10533142,9.662994,1.7381897,0.07196045,9.641586,1.7899628,0.03727722,-0.02130127,0.003189087,-5.949402,-24.946594,-28.837585,0,0.0,0.0,0.0,0.0
0.645996094,0.9701092,0.03726751,-0.23979029,-0.24255848,0.17873798,-0.9535295,0.007323972,0.9831907,0.18243489,0.9649274,0.058562458,-0.25590155,-0.26238155,0.24645199,-0.9329615,0.00843092,0.96738404,0.25317398,0.04309082,9.643829,1.5849609,0.07182312,9.641739,1.7890625,0.03302002,-0.018096924,-0.008529663,-6.486511,-22.25647,-29.701233,0,0.0,0.0,0.0,0.0
0.650390625,0.97010255,0.037298508,-0.23981209,-0.24258572,0.17871493,-0.9535267,0.0072928746,0.9831937,0.1824199,0.9650351,0.058102157,-0.25560033,-0.26198572,0.24511935,-0.9334238,0.008418647,0.9677503,0.2517707,0.02394104,9.682144,1.6902924,0.071517944,9.641739,1.7889099,0.008514404,-0.020233154,0.007461548,-6.486511,-22.25647,-29.701233,0,0.0,0.0,0.0,0.0
0.654785157,0.9701119,0.03725439,-0.23978107,-0.24254733,0.17869465,-0.9535402,0.007324034,0.983199,0.18238977,0.96514016,0.057653267,-0.2553046,-0.26159835,0.24381195,-0.9338747,0.008405385,0.96810734,0.2503947,0.04309082,9.658203,1.656784,0.07182312,9.641739,1.7886047,-0.0032043457,-0.029815674,-0.010650635,-6.486511,-22.25647,-29.701233,0,0.0,0.0,0.0,0.0
0.659179688,0.95119125,0.04947108,-0.3046109,-0.30851582,0.17576629,-0.9348391,0.007292833,0.9831881,0.18244997,0.96524334,0.05721348,-0.25501344,-0.26121792,0.24252957,-0.934315,0.00839289,0.9684555,0.24904525,0.009567261,9.725235,1.8339539,0.071517944,9.641739,1.7892151,-0.004272461,-0.05857849,-0.0021362305,-8.279419,-23.690796,-29.701233,0,0.0,0.0,0.0,0.0
0.663574219,0.9511688,0.049550824,-0.30466828,-0.30858707,0.17572519,-0.93482345,0.007216615,0.9831915,0.18243504,0.9644029,0.057699338,-0.25806546,-0.26430005,0.24173884,-0.9336529,0.008513289,0.96862435,0.2483836,-0.05265808,9.720444,1.613678,0.07077026,9.641739,1.7890625,-0.010650635,-0.03302002,-0.0063934326,-8.279419,-23.690796,-29.701233,0,0.0,0.0,0.0,0.0
0.66796875,0.9511525,0.049608305,-0.30470958,-0.3086378,0.17577152,-0.9347979,0.007185527,0.9831802,0.18249652,0.9644029,0.057699338,-0.25806546,-0.26430005,0.24173884,-0.9336529,0.008513289,0.96862435,0.2483836,-0.05265808,9.720444,1.613678,0.07046509,9.641586,1.7896576,-0.010650635,-0.03302002,-0.0063934326,-8.279419,-23.690796,-29.701233,0,0.0,0.0,0.0,0.0
0.672363282,0.95782906,0.045753017,-0.28367287,-0.28725016,0.17700115,-0.94135976,0.0071403747,0.98314667,0.18267938,0.96391726,0.05748431,-0.25992146,-0.26606727,0.2391274,-0.9338235,0.008474141,0.96928513,0.24579372,-0.04788208,9.7444,1.7333984,0.07002258,9.641296,1.7914581,-0.03302002,-0.027694702,-0.0021362305,-7.9208374,-22.615051,-30.392456,0,0.0,0.0,0.0,0.0
0.676757813,0.9577991,0.045872945,-0.2837543,-0.28735116,0.17712562,-0.9413052,0.007079713,0.98311853,0.18283242,0.96379995,0.05727246,-0.26040256,-0.26649234,0.2378894,-0.93401843,0.008453477,0.9696022,0.24454048,0.05265808,9.715668,1.7286072,0.06942749,9.640991,1.7929535,-0.04685974,-0.0095825195,-0.0021362305,-7.9208374,-22.615051,-30.392456,0,0.0,0.0,0.0,0.0
0.681152344,0.95777595,0.045966044,-0.28381756,-0.28742853,0.17738312,-0.9412333,0.007079673,0.9830678,0.18310523,0.96368426,0.05706682,-0.26087534,-0.26691097,0.23667826,-0.93420655,0.008431319,0.9699107,0.24331486,0.02394104,9.710876,1.9105682,0.06942749,9.640549,1.795639,-0.043670654,-0.0063934326,-0.014907837,-7.9208374,-22.615051,-30.392456,0,0.0,0.0,0.0,0.0
0.685546875,0.9397151,0.056188654,-0.3373104,-0.34188622,0.1746232,-0.9233744,0.007019059,0.98303074,0.1833062,0.96357036,0.05686636,-0.26133963,-0.26732278,0.23549634,-0.9343875,0.008409307,0.97021013,0.24211897,-0.05265808,9.797058,1.7764893,0.0688324,9.640091,1.7975922,-0.053253174,-0.022369385,0.0010681152,-8.996582,-23.690796,-29.01001,0,0.0,0.0,0.0,0.0
0.689941407,0.9396648,0.05634733,-0.33742437,-0.34202632,0.17475946,-0.9232969,0.006942789,0.9829975,0.18348755,0.9631506,0.056940597,-0.2628663,-0.2688319,0.23427601,-0.93426126,0.008385874,0.9705012,0.24095052,0.07182312,9.931137,1.8004303,0.06808472,9.639801,1.7993774,-0.04899597,-0.014907837,-0.008529663,-8.996582,-23.690796,-29.01001,0,0.0,0.0,0.0,0.0
0.694335938,0.93961823,0.05649363,-0.33752942,-0.34215507,0.17495297,-0.9232126,0.0068961373,0.98295474,0.18371858,0.9627361,0.05701346,-0.2643645,-0.2703132,0.23308273,-0.93413234,0.008360686,0.9707842,0.23980865,0.1197052,9.677353,1.8914185,0.06762695,9.639343,1.8016357,-0.045791626,0.0,-0.017044067,-8.996582,-23.690796,-29.01001,0,0.0,0.0,0.0,0.0
0.698730469,0.95070034,0.0505688,-0.30596018,-0.31003433,0.17692927,-0.93411714,0.0068961265,0.9829237,0.18388478,0.962327,0.05708459,-0.2658347,-0.27176693,0.23191711,-0.9340006,0.008334574,0.9710591,0.23869382,0.10533142,9.806641,1.8387451,0.06762695,9.639053,1.8032684,-0.045791626,0.0,-0.015975952,-8.279419,-24.049377,-29.701233,0,0.0,0.0,0.0,0.0
0.703125,0.9506907,0.050602302,-0.30598462,-0.31006357,0.17706224,-0.9340822,0.0069116154,0.982898,0.18402137,0.9621094,0.056995213,-0.26664037,-0.27253717,0.23081698,-0.9340487,0.00830882,0.9713265,0.23760448,0.18673706,9.653412,1.9249268,0.06777954,9.638901,1.8046265,-0.038345337,-0.014907837,-0.0063934326,-8.279419,-24.049377,-29.701233,0,0.0,0.0,0.0,0.0
0.707519532,0.95069057,0.050602987,-0.30598512,-0.31006315,0.17720711,-0.934055,0.0069567733,0.98287183,0.18415922,0.96189535,0.056906477,-0.2674304,-0.2732924,0.22974116,-0.93409324,0.0082838135,0.97158664,0.23653905,0.22026062,9.696503,2.178711,0.068222046,9.638596,1.8059692,-0.022369385,0.0010681152,-0.0095825195,-8.279419,-24.049377,-29.701233,0,0.0,0.0,0.0,0.0
0.711914063,0.9501322,0.050873555,-0.30766982,-0.3117681,0.177212,-0.93348616,0.007033021,0.98285687,0.18423559,0.961685,0.056817718,-0.26820457,-0.27403232,0.22869,-0.9341344,0.008260317,0.97183985,0.23549764,0.24420166,9.610321,1.9919739,0.06896973,9.638443,1.8067169,-0.0053253174,0.008529663,-0.0063934326,-7.9208374,-23.332214,-28.318787,0,0.0,0.0,0.0,0.0
0.716308594,0.95014435,0.050832126,-0.30763906,-0.31172964,0.1773055,-0.93348134,0.0070952554,0.98284227,0.1843117,0.96146846,0.056735985,-0.26899695,-0.27479166,0.22765961,-0.93416303,0.008239084,0.9720865,0.23447812,0.22505188,9.715668,2.015915,0.06958008,9.638306,1.8074646,-0.010650635,0.0032043457,-0.008529663,-7.9208374,-23.332214,-28.318787,0,0.0,0.0,0.0,0.0
0.720703125,0.95012546,0.050896518,-0.30768684,-0.31178868,0.17726901,-0.9334685,0.0070330394,0.9828455,0.18429676,0.96125597,0.056653194,-0.26977283,-0.27553478,0.2266518,-0.9341892,0.008219701,0.97232676,0.23348032,0.14364624,9.720444,1.9009857,0.06896973,9.638306,1.807312,0.0010528564,0.015975952,-0.0095825195,-7.9208374,-23.332214,-28.318787,0,0.0,0.0,0.0,0.0
0.725097657,0.95012754,0.050889317,-0.3076815,-0.31178257,0.17720696,-0.93348235,0.0070190183,0.98285705,0.18423562,0.96104676,0.056572355,-0.27053404,-0.27626413,0.22566344,-0.9342131,0.008199006,0.97256136,0.23250203,0.16279602,9.667786,1.929718,0.0688324,9.638443,1.8067169,0.008514404,0.017028809,-0.018112183,-7.9208374,-23.332214,-28.318787,0,0.0,0.0,0.0,0.0
0.729492188,0.9500969,0.050993707,-0.30775896,-0.31187847,0.17712754,-0.9334655,0.0069117188,0.982866,0.18419217,0.96101016,0.05670699,-0.27063593,-0.27641612,0.2229296,-0.9348243,0.007321684,0.9731838,0.22991233,0.11012268,9.696503,1.8052216,0.06777954,9.638443,1.8062744,0.025558472,0.011703491,-0.010650635,-7.9208374,-23.332214,-28.318787,0,0.0,0.0,0.0,0.0
0.733886719,0.9500787,0.05105538,-0.30780467,-0.31193498,0.17708892,-0.93345386,0.0068509523,0.98286974,0.18417439,0.96080494,0.05662143,-0.27138168,-0.2771289,0.22201283,-0.9348315,0.007318713,0.9733983,0.22900245,0.1484375,9.720444,1.905777,0.06718445,9.638596,1.8061218,0.008514404,0.020233154,-0.02557373,-7.9208374,-23.332214,-28.318787,0,0.0,0.0,0.0,0.0
0.73828125,0.95473707,0.0484032,-0.29348657,-0.29737303,0.17794241,-0.93803304,0.0068198997,0.9828498,0.184282,0.9606029,0.056538012,-0.2721132,-0.27782845,0.22111355,-0.9348369,0.0073140934,0.97360784,0.22811016,-0.0143585205,9.710876,2.1068878,0.06687927,9.638306,1.8071594,0.012771606,0.019165039,-0.014907837,-7.7423096,-24.229431,-29.182434,0,0.0,0.0,0.0,0.0
0.742675782,0.95473707,0.0484032,-0.29348657,-0.29737303,0.17794241,-0.93803304,0.0068198997,0.9828498,0.184282,0.9604895,0.056389187,-0.2725439,-0.27822024,0.22025146,-0.93492395,0.0073085884,0.97381186,0.2272378,0.04309082,9.662994,1.8052216,0.06687927,9.638306,1.8071594,0.0,0.014907837,-0.015975952,-7.7423096,-24.229431,-29.182434,0,0.0,0.0,0.0,0.0
0.747070313,0.9547142,0.048483986,-0.29354754,-0.29744813,0.17790096,-0.9380171,0.0067435843,0.9828533,0.18426603,0.9603783,0.05624275,-0.27296585,-0.27860415,0.2194064,-0.93500835,0.0073030163,0.97401106,0.2263826,-0.12449646,9.7444,1.8148041,0.06613159,9.638443,1.8070221,0.019165039,0.0063934326,-0.008529663,-7.7423096,-24.229431,-29.182434,0,0.0,0.0,0.0,0.0
0.751464844,0.9689225,0.039194673,-0.24423999,-0.24727418,0.18020572,-0.9520407,0.0066985185,0.9828477,0.18429717,0.9602686,0.05610079,-0.2733804,-0.27898195,0.2185775,-0.9350898,0.007295534,0.9742056,0.22554423,-0.03829956,9.753967,1.8961945,0.06568909,9.638306,1.807312,-0.0053253174,0.008529663,-0.0095825195,-6.666565,-23.512268,-30.220032,0,0.0,0.0,0.0,0.0
0.755859375,0.9689105,0.039247714,-0.24427861,-0.24732241,0.18012938,-0.95204246,0.0066362643,0.98285955,0.18423608,0.96045196,0.055735145,-0.27281076,-0.27835053,0.21782352,-0.93545383,0.007286944,0.97439545,0.22472294,-0.09576416,9.715668,1.6711426,0.065078735,9.638443,1.8067169,0.004257202,-0.003189087,-0.01171875,-6.666565,-23.512268,-30.220032,0,0.0,0.0,0.0,0.0
0.760253907,0.9688969,0.039308295,-0.24432273,-0.24737681,0.18014532,-0.95202535,0.0065911054,0.98285425,0.18426621,0.9606309,0.05537916,-0.27225265,-0.2777326,0.21708237,-0.93580973,0.007276892,0.9745811,0.22391662,-0.0622406,9.629471,1.8914185,0.06463623,9.638443,1.8070221,0.006378174,-0.020233154,-0.007461548,-6.666565,-23.512268,-30.220032,0,0.0,0.0,0.0,0.0
0.764648438,0.9572585,0.047178674,-0.28535986,-0.28916058,0.17827493,-0.940534,0.006499361,0.982849,0.18429741,0.96080554,0.05503281,-0.27170599,-0.27712807,0.21635588,-0.93615717,0.0072658295,0.9747623,0.22312705,-0.1484375,9.662994,1.9153595,0.06373596,9.638306,1.807312,0.0010528564,-0.039413452,-0.0063934326,-7.0251465,-23.512268,-27.453613,0,0.0,0.0,0.0,0.0
0.769042969,0.9572636,0.047160868,-0.28534588,-0.28914353,0.1782802,-0.9405382,0.0065149204,0.98284894,0.1842974,0.96073604,0.054883648,-0.2719817,-0.27736917,0.21559568,-0.93626106,0.007252656,0.9749391,0.22235356,-0.028717041,9.667786,1.8531036,0.06388855,9.638306,1.807312,0.0021209717,-0.03302002,-0.010650635,-7.0251465,-23.512268,-27.453613,0,0.0,0.0,0.0,0.0
0.7734375,0.95726615,0.047151882,-0.28533888,-0.2891355,0.17820327,-0.94055533,0.0064993626,0.9828633,0.18422122,0.96066797,0.05473675,-0.27225155,-0.27760512,0.21485083,-0.9363624,0.007240038,0.9751118,0.2215955,-0.10055542,9.648621,1.8100128,0.06373596,9.638443,1.8065643,0.003189087,-0.051132202,0.0021362305,-7.0251465,-23.512268,-27.453613,0,0.0,0.0,0.0,0.0
0.777832032,0.9632374,0.04326369,-0.2651448,-0.2685712,0.1791736,-0.9464493,0.006560063,0.9828658,0.18420613,0.9606013,0.054592386,-0.27251577,-0.27783617,0.21411934,-0.9364614,0.0072272327,0.97528076,0.22085105,0.05265808,9.667786,1.7764893,0.064331055,9.638443,1.8064117,0.019165039,-0.040481567,0.004257202,-7.0251465,-22.436523,-29.182434,0,0.0,0.0,0.0,0.0
0.782226563,0.96324784,0.043220516,-0.2651141,-0.26853278,0.17921658,-0.946452,0.006606702,0.9828598,0.18423612,0.9606549,0.05435773,-0.27237374,-0.27765113,0.21342573,-0.9366746,0.0072160545,0.97544587,0.22012094,0.05265808,9.787491,1.7573395,0.06478882,9.638443,1.8067169,0.0,-0.045806885,0.004257202,-7.0251465,-22.436523,-29.182434,0,0.0,0.0,0.0,0.0
0.786621094,0.96327764,0.043096818,-0.2650262,-0.26842383,0.17918651,-0.9464886,0.0066984734,0.98287064,0.18417457,0.96070755,0.054127075,-0.27223375,-0.27746895,0.21274681,-0.93688303,0.0072061233,0.97560704,0.21940604,0.0909729,9.864105,1.656784,0.06568909,9.638596,1.8061218,-0.013839722,-0.040481567,0.0053253174,-7.0251465,-22.436523,-29.182434,0,0.0,0.0,0.0,0.0
0.791015625,0.97636527,0.033429448,-0.213526,-0.21602508,0.18128407,-0.95941085,0.006636284,0.9828624,0.18422106,0.9607599,0.053898394,-0.27209473,-0.27728823,0.21208055,-0.9370876,0.0071984855,0.97576475,0.21870387,0.01914978,9.686935,1.771698,0.065078735,9.638443,1.8065643,-0.0021362305,-0.04473877,0.008514404,-5.5892944,-23.153687,-29.182434,0,0.0,0.0,0.0,0.0
0.795410157,0.9763733,0.033389013,-0.21349543,-0.21598671,0.18141697,-0.9593944,0.0066984612,0.9828393,0.18434228,0.96046615,0.05465326,-0.27297938,-0.2783158,0.21213365,-0.9367708,0.0067105317,0.97571117,0.21895805,0.13885498,9.567215,1.8578949,0.06568909,9.638306,1.8077698,-0.014907837,-0.03302002,-0.014907837,-5.5892944,-23.153687,-29.182434,0,0.0,0.0,0.0,0.0
0.799804688,0.9763794,0.033358913,-0.21347272,-0.21595867,0.18144017,-0.9593963,0.006728108,0.98283595,0.18435857,0.9608236,0.054184597,-0.27181247,-0.27707925,0.21154246,-0.93727094,0.0067142285,0.97586566,0.21826842,0.05744934,9.7444,1.6615753,0.065979004,9.638153,1.8079071,-0.022369385,-0.038345337,-0.0021362305,-5.5892944,-23.153687,-29.182434,0,0.0,0.0,0.0,0.0
0.804199219,0.96957797,0.038723502,-0.24170032,-0.24468976,0.18052693,-0.9526473,0.0067435796,0.98280746,0.18451019,0.9611725,0.053726293,-0.27066752,-0.27586642,0.2109626,-0.93775934,0.0067183888,0.9760165,0.21759273,0.08618164,9.7348175,1.9201355,0.06613159,9.6380005,1.8094177,-0.017028809,-0.031951904,0.0021362305,-6.486511,-22.973633,-29.701233,0,0.0,0.0,0.0,0.0
0.80859375,0.9695567,0.03882005,-0.24177037,-0.2447755,0.1806609,-0.9526,0.0066984748,0.9827791,0.18466318,0.96135056,0.05340348,-0.27009848,-0.2752452,0.21036464,-0.9380762,0.0067226323,0.9761633,0.2169332,0.004776001,9.562439,1.9345093,0.06568909,9.637695,1.8109131,-0.025558472,-0.029815674,-0.004257202,-6.486511,-22.973633,-29.701233,0,0.0,0.0,0.0,0.0
0.812988282,0.969568,0.038768418,-0.2417329,-0.24472906,0.18067361,-0.9526095,0.0067435964,0.9827788,0.18466313,0.9615242,0.053090252,-0.26954162,-0.274638,0.20978071,-0.9383848,0.00672555,0.976306,0.21628982,0.17237854,9.58638,1.771698,0.06613159,9.637695,1.8109131,-0.025558472,-0.01171875,-0.007461548,-6.486511,-22.973633,-29.701233,0,0.0,0.0,0.0,0.0
0.817382813,0.9630965,0.043505475,-0.26561707,-0.26907566,0.17979103,-0.946189,0.0065911687,0.98274237,0.18486238,0.9616942,0.052782975,-0.26899487,-0.27404195,0.20920852,-0.9386867,0.0067293337,0.9764455,0.21565937,0.10055542,9.662994,1.7908478,0.06463623,9.637253,1.812851,-0.019165039,-0.007446289,-0.008529663,-7.383728,-23.153687,-30.56488,0,0.0,0.0,0.0,0.0
0.821777344,0.96304506,0.043721408,-0.26576826,-0.26926357,0.17987221,-0.9461201,0.0064386236,0.9827179,0.18499762,0.96172255,0.052592263,-0.26893085,-0.27394244,0.20862369,-0.93884593,0.0067293146,0.97658086,0.21504536,0.0335083,9.653412,1.9584503,0.06314087,9.6371,1.8141937,-0.04899597,0.013839722,-0.034088135,-7.383728,-23.153687,-30.56488,0,0.0,0.0,0.0,0.0
0.826171875,0.96300817,0.04387576,-0.26587623,-0.26939815,0.17987971,-0.94608027,0.006315748,0.9827096,0.18504567,0.96174926,0.052410524,-0.26887086,-0.2738488,0.208052,-0.93900007,0.0067256303,0.9767126,0.21444641,0.0,9.691727,1.8387451,0.061935425,9.636948,1.8146515,-0.017028809,0.059646606,-0.0234375,-7.383728,-23.153687,-30.56488,0,0.0,0.0,0.0,0.0
0.830566407,0.95386696,0.049792126,-0.29607213,-0.30016658,0.17840654,-0.9370545,0.006163265,0.9826962,0.18512201,0.96177465,0.052236117,-0.268814,-0.27375978,0.20749158,-0.9391501,0.0067190863,0.97684115,0.21386029,0.06703186,9.643829,1.9249268,0.060440063,9.63681,1.8153992,-0.0095825195,0.05432129,-0.012786865,-7.7423096,-23.153687,-28.837585,0,0.0,0.0,0.0,0.0
0.834960938,0.95380396,0.05001831,-0.29623678,-0.30036965,0.17849405,-0.93697274,0.0060107065,0.9826688,0.18527229,0.96162355,0.052201886,-0.26936036,-0.27429008,0.20690908,-0.93912375,0.0067090755,0.9769665,0.2132871,-0.0143585205,9.749176,1.9871826,0.058944702,9.636658,1.8168945,-0.007446289,0.08201599,-0.02130127,-7.7423096,-23.153687,-28.837585,0,0.0,0.0,0.0,0.0
0.839355469,0.95376897,0.050143946,-0.29632825,-0.3004829,0.17847392,-0.9369404,0.0059049777,0.98266613,0.18529026,0.9614742,0.05217284,-0.269899,-0.27481383,0.20634016,-0.9390959,0.006695704,0.9770884,0.21272856,0.07661438,9.653412,1.8531036,0.057907104,9.636505,1.8170471,-0.022369385,0.07136536,-0.017044067,-7.7423096,-23.153687,-28.837585,0,0.0,0.0,0.0,0.0
0.84375,0.9691466,0.040110085,-0.24319966,-0.24641582,0.18105121,-0.9521028,0.0058426745,0.9826554,0.18534893,0.9613267,0.052146662,-0.27042857,-0.27532938,0.20578216,-0.9390673,0.006680151,0.9772075,0.21218139,0.10055542,9.485825,1.9201355,0.057296753,9.636505,1.8176422,0.0021209717,0.07562256,-0.0095825195,-6.3079834,-22.436523,-28.837585,0,0.0,0.0,0.0,0.0
0.848144532,0.9691102,0.04027211,-0.2433178,-0.24656205,0.18102932,-0.9520691,0.0057058246,0.98265284,0.18536694,0.9614915,0.05189127,-0.26989123,-0.27475366,0.20529436,-0.9393426,0.0066634654,0.97732365,0.21164611,0.0909729,9.715668,1.9440765,0.05595398,9.636353,1.8177948,-0.004272461,0.06816101,-0.007461548,-6.3079834,-22.436523,-28.837585,0,0.0,0.0,0.0,0.0
0.852539063,0.96908015,0.040406257,-0.24341558,-0.2466829,0.18104087,-0.95203567,0.0055999733,0.98264515,0.18541062,0.9616519,0.05164528,-0.2693666,-0.27419236,0.2048156,-0.9396111,0.0066439984,0.97743714,0.21112205,0.04788208,9.706085,1.8866272,0.05491638,9.636353,1.8182373,0.006378174,0.069229126,-0.022369385,-6.3079834,-22.436523,-28.837585,0,0.0,0.0,0.0,0.0
0.856933594,0.9439786,0.056138434,-0.3251965,-0.32996154,0.17682315,-0.9272857,0.005445904,0.98264027,0.18544082,0.9618081,0.051407766,-0.268854,-0.27364463,0.20434621,-0.939873,0.0066225254,0.9775479,0.21060929,0.004776001,9.648621,1.8770447,0.05340576,9.636353,1.8185425,-0.0053253174,0.05432129,-0.0138549805,-8.459473,-22.795105,-28.49121,0,0.0,0.0,0.0,0.0
0.861328125,0.9439284,0.056303553,-0.32531375,-0.33010724,0.17684732,-0.9272294,0.0053245486,0.9826266,0.18551742,0.9614841,0.051533677,-0.26998633,-0.27478138,0.20379618,-0.9396608,0.0065980107,0.97765607,0.2101073,0.0622406,9.76355,1.9153595,0.052215576,9.6362,1.8192902,-0.0010681152,0.041534424,-0.024505615,-8.459473,-22.795105,-28.49121,0,0.0,0.0,0.0,0.0
0.865722657,0.9438642,0.056514483,-0.3254634,-0.33029342,0.17683937,-0.92716455,0.0051565203,0.9826159,0.18557872,0.96163213,0.053307984,-0.2691131,-0.27430284,0.20342664,-0.9398806,0.004641631,0.9776379,0.21024413,0.08618164,9.710876,1.9919739,0.050567627,9.636063,1.8198853,-0.0095825195,0.030883789,-0.0234375,-8.459473,-22.795105,-28.49121,0,0.0,0.0,0.0,0.0
0.870117188,0.954869,0.050418653,-0.29271683,-0.2969848,0.1787144,-0.9380091,0.0050195553,0.98260826,0.18562241,0.9613092,0.053398605,-0.27024645,-0.27543217,0.20289455,-0.9396653,0.004654714,0.9777435,0.2097521,0.0335083,9.720444,1.6998749,0.049224854,9.636063,1.8203278,0.0010528564,0.047927856,-0.034088135,-7.7423096,-22.795105,-29.182434,0,0.0,0.0,0.0,0.0
0.874511719,0.95480746,0.05064638,-0.29287842,-0.2971856,0.17875913,-0.9379371,0.004851566,0.9825884,0.1857319,0.9611853,0.053347524,-0.27069712,-0.27586433,0.20241056,-0.9396429,0.00466433,0.9778466,0.20927073,0.004776001,9.557648,1.9871826,0.047576904,9.635757,1.8213806,-0.023422241,0.036209106,-0.0234375,-7.7423096,-22.795105,-29.182434,0,0.0,0.0,0.0,0.0
0.87890625,0.9547722,0.050776485,-0.2929707,-0.29730067,0.1787005,-0.9379117,0.0047301436,0.9825924,0.18571416,0.9610625,0.053302165,-0.27114183,-0.27629188,0.20193714,-0.9396192,0.0046698684,0.97794694,0.20880115,-0.08618164,9.739609,1.8818359,0.04638672,9.63591,1.821228,-0.007446289,0.047927856,-0.02557373,-7.7423096,-22.795105,-29.182434,0,0.0,0.0,0.0,0.0
0.883300782,0.9449565,0.05649867,-0.32228106,-0.3271633,0.17707087,-0.9282296,0.004622847,0.9825752,0.18580857,0.96094114,0.053260334,-0.2715794,-0.27671322,0.201472,-0.939595,0.004672504,0.97804517,0.20834059,-0.028717041,9.677353,2.178711,0.045333862,9.635605,1.8221283,0.008514404,0.04260254,-0.007461548,-8.6380005,-22.973633,-29.354858,0,0.0,0.0,0.0,0.0
0.887695313,0.94494826,0.056526456,-0.32230037,-0.32718775,0.17699637,-0.92823505,0.0045761494,0.98258686,0.18574716,0.96064776,0.053348146,-0.27259836,-0.27773017,0.20098375,-0.93939954,0.004672617,0.97814083,0.20789099,0.04309082,9.643829,1.8961945,0.0448761,9.635757,1.8215332,0.008514404,0.029815674,-0.012786865,-8.6380005,-22.973633,-29.354858,0,0.0,0.0,0.0,0.0
0.892089844,0.94493717,0.05656388,-0.3223264,-0.32722065,0.17690265,-0.9282413,0.004515462,0.9826015,0.18567075,0.960359,0.053434018,-0.27359712,-0.27872702,0.2005037,-0.93920684,0.0046716467,0.97823465,0.20744906,-0.12449646,9.619888,1.8052216,0.044281006,9.63591,1.8207855,0.020233154,0.031951904,-0.0063934326,-8.6380005,-22.973633,-29.354858,0,0.0,0.0,0.0,0.0
0.896484375,0.9603129,0.047500193,-0.27485055,-0.27888834,0.17946969,-0.9434045,0.0045154574,0.9826161,0.18559432,0.96007484,0.05351832,-0.27457625,-0.2797044,0.20003158,-0.93901694,0.004669316,0.97832674,0.2070146,-0.0622406,9.686935,1.8004303,0.044281006,9.636063,1.8200378,0.019165039,0.029815674,0.007461548,-7.562256,-22.973633,-30.392456,0,0.0,0.0,0.0,0.0
0.900878907,0.9603424,0.047381066,-0.27476788,-0.2787856,0.17934483,-0.94345844,0.0045761354,0.9826446,0.18544163,0.96007955,0.053397078,-0.27458316,-0.279688,0.19962141,-0.939109,0.0046670013,0.9784171,0.20658696,-0.0909729,9.672562,1.8052216,0.0448761,9.636353,1.8185425,0.014907837,0.031951904,0.015960693,-7.562256,-22.973633,-30.392456,0,0.0,0.0,0.0,0.0
0.905273438,0.9603575,0.0473206,-0.2747259,-0.27873346,0.17928255,-0.9434858,0.0046072495,0.9826589,0.18536516,0.9600849,0.0532758,-0.2745883,-0.27966994,0.19921724,-0.93920034,0.004666072,0.9785061,0.2061651,-0.1819458,9.710876,1.9009857,0.045181274,9.636505,1.8177948,0.034088135,0.014907837,0.027679443,-7.562256,-22.973633,-30.392456,0,0.0,0.0,0.0,0.0
0.909667969,0.97391474,0.037488572,-0.2237963,-0.22686517,0.1814248,-0.95687896,0.0047301715,0.98269004,0.18519711,0.9600904,0.05315564,-0.2745924,-0.2796511,0.19881974,-0.93929017,0.00466582,0.97859347,0.20574994,-0.028717041,9.696503,1.771698,0.04638672,9.63681,1.8161469,0.023422241,-0.018096924,0.023422241,-5.949402,-21.71936,-29.528809,0,0.0,0.0,0.0,0.0
0.9140625,0.9739751,0.03718322,-0.22358386,-0.22660078,0.18125932,-0.95697296,0.0049433256,0.98273224,0.18496783,0.96039504,0.05282158,-0.27358952,-0.27860287,0.19848444,-0.9396724,0.004668279,0.9786796,0.20533971,0.08139038,9.739609,1.9249268,0.048477173,9.637253,1.8139038,0.03514099,-0.0234375,0.027679443,-5.949402,-21.71936,-29.528809,0,0.0,0.0,0.0,0.0
0.918457032,0.9740345,0.036883656,-0.22337548,-0.22634067,0.18124911,-0.9570365,0.0051876004,0.9827453,0.18489112,0.96039504,0.05282158,-0.27358952,-0.27860287,0.19848444,-0.9396724,0.004668279,0.9786796,0.20533971,0.08139038,9.739609,1.9249268,0.050872803,9.637405,1.8131561,0.03514099,-0.0234375,0.027679443,-5.949402,-21.71936,-29.528809,0,0.0,0.0,0.0,0.0
0.922851563,0.9655335,0.042878114,-0.25672278,-0.26022094,0.17984001,-0.9486531,0.0054925703,0.9827609,0.18479933,0.9609889,0.052149277,-0.2716262,-0.27654713,0.1978275,-0.94041795,0.0046930206,0.9788487,0.20453177,0.10533142,9.725235,1.7908478,0.053863525,9.637558,1.8122559,0.026626587,-0.045806885,0.043655396,-6.845093,-23.690796,-29.701233,0,0.0,0.0,0.0,0.0
0.927246094,0.96560466,0.04258321,-0.25650394,-0.25995165,0.17980783,-0.948733,0.0057213255,0.9827796,0.18469286,0.9610826,0.051955447,-0.27133167,-0.276221,0.19747177,-0.9405886,0.0047116443,0.97893083,0.20413786,0.1197052,9.543274,1.8291626,0.056106567,9.637695,1.811203,0.019165039,-0.07029724,0.051116943,-6.845093,-23.690796,-29.701233,0,0.0,0.0,0.0,0.0
0.931640625,0.9657085,0.04215238,-0.25618425,-0.2595579,0.17982651,-0.9488372,0.006072974,0.98279476,0.18460096,0.95988303,0.04924756,-0.2760419,-0.28029132,0.19599363,-0.93969315,0.007824859,0.97936773,0.20193462,0.18673706,9.667786,1.8243713,0.059555054,9.637848,1.8103027,0.027694702,-0.07775879,0.031936646,-6.845093,-23.690796,-29.701233,0,0.0,0.0,0.0,0.0
0.936035157,0.9657792,0.04185789,-0.25596565,-0.259289,0.17979512,-0.94891673,0.00630172,0.9828131,0.18449569,0.96000385,0.049100645,-0.27564776,-0.2798784,0.19567263,-0.9398831,0.0077878567,0.9794393,0.20158869,0.13406372,9.653412,1.8148041,0.061798096,9.6380005,1.8092651,0.022369385,-0.08308411,0.053253174,-6.845093,-23.690796,-29.701233,0,0.0,0.0,0.0,0.0
0.940429688,0.9658403,0.041603275,-0.25577664,-0.2590565,0.17976715,-0.9489855,0.006499332,0.98282903,0.18440396,0.96012354,0.04895046,-0.27525717,-0.27946824,0.19535747,-0.9400706,0.0077566546,0.9795097,0.20124742,0.10055542,9.749176,1.8435211,0.06373596,9.638153,1.8083649,0.022369385,-0.08201599,0.031936646,-6.845093,-23.690796,-29.701233,0,0.0,0.0,0.0,0.0
0.944824219,0.9659096,0.041313704,-0.25556162,-0.25879276,0.17963819,-0.94908184,0.00669854,0.98286486,0.18420596,0.96024215,0.048798017,-0.2748706,-0.27906153,0.19504836,-0.9402557,0.0077304463,0.9795789,0.2009113,0.09576416,9.691727,1.8100128,0.06568909,9.638443,1.8064117,0.023422241,-0.10119629,0.023422241,-6.845093,-23.690796,-29.701233,0,0.0,0.0,0.0,0.0
0.94921875,0.9587742,0.045823358,-0.28045008,-0.28408498,0.17856447,-0.9420247,0.006911681,0.9828606,0.18422073,0.9603596,0.04864257,-0.2744875,-0.2786576,0.19474295,-0.9404388,0.0077091428,0.97964746,0.20057788,0.08618164,9.672562,1.8674622,0.06777954,9.638443,1.8065643,0.045806885,-0.09587097,0.023422241,-7.0251465,-23.153687,-27.799988,0,0.0,0.0,0.0,0.0
0.953613282,0.95883673,0.045592647,-0.2802737,-0.2838688,0.17861548,-0.94208014,0.007109301,0.98286206,0.18420543,0.96032816,0.048588302,-0.2746071,-0.2787664,0.19441932,-0.9404735,0.0076929145,0.9797144,0.20025113,0.08618164,9.648621,1.8914185,0.06971741,9.638443,1.8064117,0.0010528564,-0.100128174,0.027679443,-7.0251465,-23.153687,-27.799988,0,0.0,0.0,0.0,0.0
0.958007813,0.9588907,0.045393463,-0.28012145,-0.28368184,0.17870435,-0.94211954,0.007292856,0.9828551,0.18423524,0.9602985,0.048530065,-0.27472082,-0.27886862,0.19410342,-0.94050837,0.0076813186,0.9797799,0.19993074,0.07661438,9.730026,1.8483124,0.071517944,9.638443,1.8067169,0.007446289,-0.09373474,0.027679443,-7.0251465,-23.153687,-27.799988,0,0.0,0.0,0.0,0.0
0.962402344,0.9442455,0.053802945,-0.32481626,-0.3291589,0.17643881,-0.92764413,0.00740021,0.98284,0.18431129,0.96027064,0.04846861,-0.2748293,-0.27896497,0.19379577,-0.94054335,0.00767393,0.97984385,0.19961742,-0.11012268,9.686935,2.0254822,0.0725708,9.638306,1.8074646,-0.004272461,-0.08201599,0.027679443,-8.818054,-23.512268,-29.528809,0,0.0,0.0,0.0,0.0
0.966796875,0.9442912,0.0536509,-0.32470882,-0.329025,0.17649074,-0.9276819,0.007537129,0.9828391,0.18431112,0.95997614,0.04859145,-0.27583465,-0.2799769,0.19344996,-0.9403138,0.007668987,0.97990614,0.19931181,-0.06703186,9.600739,1.9009857,0.073913574,9.638306,1.8074646,0.0,-0.06604004,0.027679443,-8.818054,-23.512268,-29.528809,0,0.0,0.0,0.0,0.0
0.971191407,0.94429886,0.05362494,-0.32469043,-0.32900155,0.17656462,-0.92767596,0.0075822803,0.9828272,0.18437248,0.95968723,0.04870782,-0.27681756,-0.2809655,0.19311179,-0.94008845,0.0076670726,0.97996706,0.19901213,-0.12449646,9.830582,2.0685883,0.07435608,9.638153,1.8080597,0.010650635,-0.06817627,0.028747559,-8.818054,-23.512268,-29.528809,0,0.0,0.0,0.0,0.0
0.975585938,0.93900687,0.05630388,-0.33925807,-0.34381318,0.17566743,-0.9224606,0.007658487,0.98283815,0.18431094,0.95940334,0.048820578,-0.27778023,-0.2819336,0.19278169,-0.93986636,0.0076661296,0.9800264,0.19871955,-0.0909729,9.739609,1.8961945,0.07510376,9.638306,1.8074646,0.0053253174,-0.06817627,0.014892578,-9.176636,-22.795105,-29.182434,0,0.0,0.0,0.0,0.0
0.979980469,0.93903804,0.05620216,-0.3391884,-0.3437261,0.17565751,-0.9224949,0.0077347895,0.9828458,0.18426724,0.95903504,0.048989203,-0.27901945,-0.28318372,0.19244222,-0.93956,0.0076668314,0.9800847,0.19843177,-0.12449646,9.840164,1.8578949,0.07585144,9.638306,1.8070221,0.020233154,-0.061782837,0.020217896,-9.176636,-22.795105,-29.182434,0,0.0,0.0,0.0,0.0
0.984375,0.93908054,0.056063898,-0.3390938,-0.34360805,0.17560995,-0.9225479,0.007826611,0.9828621,0.18417588,0.9586731,0.049151562,-0.2802321,-0.28440654,0.19210921,-0.93925875,0.007669134,0.98014194,0.19814897,-0.0909729,9.821014,1.795639,0.07675171,9.638443,1.8061218,0.008514404,-0.06390381,0.024490356,-9.176636,-22.795105,-29.182434,0,0.0,0.0,0.0,0.0
0.988769532,0.95060766,0.049768075,-0.30637926,-0.31029445,0.17750017,-0.9339224,0.00790285,0.9828616,0.18417577,0.95831764,0.049307056,-0.28141826,-0.2856021,0.19178154,-0.93896294,0.007673332,0.98019826,0.19786981,-0.07182312,9.720444,2.0063324,0.07749939,9.638443,1.8061218,0.020233154,-0.045806885,0.028747559,-8.100891,-22.795105,-28.837585,0,0.0,0.0,0.0,0.0
0.993164063,0.95066524,0.049563445,-0.30623364,-0.31011397,0.1774691,-0.93398815,0.00805534,0.98287743,0.18408403,0.9581697,0.04932225,-0.28191876,-0.2860977,0.19149575,-0.9388704,0.0076790466,0.9802534,0.1975964,0.05265808,9.758759,1.7764893,0.07899475,9.638596,1.8052216,0.012771606,-0.05432129,0.019165039,-8.100891,-22.795105,-28.837585,0,0.0,0.0,0.0,0.0
0.997558594,0.950715,0.049386572,-0.30610785,-0.30995876,0.17736456,-0.93405974,0.008162675,0.9829053,0.18393093,0.9576506,0.046986323,-0.2840731,-0.28775638,0.19070025,-0.93852526,0.010074963,0.98052317,0.19614483,0.0335083,9.854523,1.7286072,0.08004761,9.638901,1.8037262,0.018096924,-0.025558472,0.031936646,-8.100891,-22.795105,-28.837585,0,0.0,0.0,0.0,0.0
1.001953125,0.9538192,0.047490172,-0.2966033,-0.30026853,0.17777422,-0.9371419,0.00822339,0.98292464,0.18382429,0.9575169,0.047041807,-0.28451434,-0.2882024,0.19043362,-0.9384425,0.010035058,0.98057234,0.19590096,0.14364624,9.691727,1.8243713,0.0806427,9.639053,1.8026733,0.026626587,-0.030883789,0.02128601,-8.459473,-23.153687,-30.911255,0,0.0,0.0,0.0,0.0
1.006347657,0.95385545,0.047350787,-0.29650882,-0.30015114,0.17765698,-0.9372018,0.008299621,0.98295265,0.1836715,0.9574444,0.04705537,-0.28475606,-0.28844455,0.19018029,-0.9384196,0.009997304,0.98062086,0.1956599,0.0622406,9.739609,1.7238159,0.08139038,9.639343,1.801178,0.023422241,-0.013839722,0.0063934326,-8.459473,-23.153687,-30.911255,0,0.0,0.0,0.0,0.0
1.010742188,0.9538964,0.04719403,-0.29640257,-0.30001888,0.17754474,-0.93726546,0.008391394,0.9829804,0.18351838,0.957374,0.047065604,-0.28499106,-0.28867945,0.18992965,-0.93839806,0.009961978,0.98066896,0.19542058,0.17237854,9.682144,1.6998749,0.08229065,9.639648,1.7996826,0.029815674,-0.02130127,0.017028809,-8.459473,-23.153687,-30.911255,0,0.0,0.0,0.0,0.0
1.015136719,0.9332204,0.058182403,-0.35456273,-0.35920534,0.17428786,-0.91683996,0.008452026,0.98297435,0.18354838,0.9573057,0.0470722,-0.28521928,-0.28890696,0.18968171,-0.9383782,0.009929353,0.9807166,0.19518286,0.24899292,9.7444,1.8626862,0.08288574,9.639648,1.7999878,0.023422241,-0.0053253174,0.0095825195,-9.535217,-22.795105,-28.837585,0,0.0,0.0,0.0,0.0
1.01953125,0.9332367,0.05813143,-0.35452783,-0.35916153,0.17430705,-0.9168533,0.008498701,0.98297393,0.1835483,0.9568754,0.047315042,-0.2866197,-0.29033014,0.18938063,-0.93799967,0.009898725,0.9807631,0.19495064,0.1819458,9.706085,1.8148041,0.083343506,9.639648,1.7999878,0.0095825195,-0.0053253174,-0.0010681152,-9.535217,-22.795105,-28.837585,0,0.0,0.0,0.0,0.0
1.023925782,0.933232,0.058146052,-0.35453784,-0.35917452,0.17425321,-0.91685855,0.008467657,0.98298264,0.18350324,0.95645183,0.047551125,-0.28799093,-0.29172328,0.18908568,-0.93762684,0.009869748,0.9808086,0.19472311,0.31602478,9.662994,1.8483124,0.08303833,9.639648,1.79953,0.003189087,-0.0053253174,-0.0138549805,-9.535217,-22.795105,-28.837585,0,0.0,0.0,0.0,0.0
1.028320313,0.95204324,0.048258793,-0.3021336,-0.30584705,0.17733963,-0.9354187,0.008438082,0.9829658,0.18359482,0.9560347,0.04778206,-0.28933448,-0.29308823,0.18879505,-0.9372597,0.009840717,0.9808534,0.19449899,0.16758728,9.686935,1.7429657,0.08274841,9.639496,1.8004303,0.01171875,0.004272461,-0.02557373,-8.279419,-22.615051,-29.701233,0,0.0,0.0,0.0,0.0
1.032714844,0.9520141,0.04836738,-0.30220816,-0.3059408,0.177274,-0.93540055,0.0083307745,0.9829723,0.1835649,0.9559566,0.047795463,-0.28959054,-0.2933442,0.18856561,-0.9372259,0.009811677,0.98089683,0.19428106,0.0909729,9.60553,1.6759338,0.08169556,9.639496,1.8001251,-0.025558472,-0.007446289,-0.015975952,-8.279419,-22.615051,-29.701233,0,0.0,0.0,0.0,0.0
1.037109375,0.95201564,0.048361547,-0.3022041,-0.30593586,0.17725867,-0.9354051,0.008330669,0.98297536,0.18354857,0.9558793,0.04781081,-0.28984293,-0.2935969,0.18833962,-0.937192,0.009780995,0.9809395,0.19406705,0.10055542,9.672562,1.7764893,0.08169556,9.639648,1.7999878,-0.0021362305,-0.0010528564,-0.027694702,-8.279419,-22.615051,-29.701233,0,0.0,0.0,0.0,0.0
1.041503907,0.96815574,0.037938356,-0.24745743,-0.2502081,0.17976545,-0.9513571,0.008391371,0.9829777,0.18353343,0.9558035,0.047825586,-0.2900902,-0.2938444,0.18811785,-0.93715906,0.009750965,0.98098135,0.19385698,0.22505188,9.682144,1.7525482,0.08229065,9.639648,1.7998352,-0.004272461,0.0021362305,-0.018112183,-6.486511,-23.690796,-29.01001,0,0.0,0.0,0.0,0.0
1.045898438,0.96817106,0.03787306,-0.24740754,-0.2501468,0.17979732,-0.95136726,0.008452026,0.98297435,0.18354838,0.9560698,0.047620516,-0.289245,-0.29297754,0.18795598,-0.9374629,0.009722856,0.98102236,0.19365078,0.23461914,9.610321,1.8387451,0.08288574,9.639648,1.7999878,-0.007446289,-0.0010528564,-0.0095825195,-6.486511,-23.690796,-29.01001,0,0.0,0.0,0.0,0.0
1.050292969,0.96814287,0.037993412,-0.24749951,-0.25025856,0.1798786,-0.95132244,0.008375882,0.9829548,0.18365635,0.9563305,0.04741844,-0.2884154,-0.29212657,0.18779767,-0.9377601,0.009696617,0.9810625,0.19344883,0.16279602,9.653412,1.9105682,0.08213806,9.639343,1.8010254,-0.006378174,-0.0063934326,-0.02130127,-6.486511,-23.690796,-29.01001,0,0.0,0.0,0.0,0.0
1.0546875,0.9564146,0.045730975,-0.28840932,-0.29189187,0.17810051,-0.93972313,0.008391393,0.98294914,0.1836864,0.9565846,0.047223262,-0.28760388,-0.29129457,0.18764387,-0.9380497,0.009669337,0.9811013,0.19325311,0.13885498,9.696503,1.8866272,0.08229065,9.639343,1.8013306,-0.014907837,-0.004257202,-0.02557373,-7.562256,-22.615051,-28.663635,0,0.0,0.0,0.0,0.0
1.059082032,0.95640844,0.0457538,-0.2884257,-0.29191205,0.17810942,-0.939715,0.00837581,0.9829464,0.18370146,0.9565811,0.047194377,-0.28762004,-0.29130673,0.1874531,-0.93808407,0.009642977,0.9811391,0.19306214,0.028717041,9.595947,1.8531036,0.08213806,9.639343,1.8014832,0.0095825195,0.0,0.0021362305,-7.562256,-22.615051,-28.663635,0,0.0,0.0,0.0,0.0
1.063476563,0.9564178,0.045718726,-0.28840053,-0.29188076,0.17811985,-0.93972284,0.008406928,0.9829461,0.1837014,0.9565445,0.046990957,-0.28777498,-0.2914362,0.18573996,-0.93838453,0.009355722,0.98147464,0.1913634,0.01914978,9.648621,2.0542145,0.08244324,9.639343,1.8014832,0.023422241,-0.0010528564,-0.004257202,-7.562256,-22.615051,-28.663635,0,0.0,0.0,0.0,0.0
1.067871094,0.9672652,0.03863216,-0.2508102,-0.25362924,0.17985208,-0.9504344,0.008391404,0.9829348,0.18376288,0.95654196,0.04696608,-0.28778753,-0.2914452,0.18558767,-0.9384119,0.009336289,0.9815047,0.19121043,0.05744934,9.682144,1.9919739,0.08229065,9.639191,1.8020782,0.023422241,-0.008514404,0.0095825195,-6.845093,-23.690796,-30.047607,0,0.0,0.0,0.0,0.0
1.072265625,0.9672578,0.038663976,-0.25083363,-0.25365776,0.17989168,-0.9504193,0.0083758915,0.9829263,0.18380903,0.95677096,0.046794802,-0.28705332,-0.29069322,0.18547659,-0.93866706,0.0093169315,0.9815338,0.19106154,0.03829956,9.686935,1.9201355,0.08213806,9.639053,1.8025208,-0.0032043457,0.007461548,-0.0021362305,-6.845093,-23.690796,-30.047607,0,0.0,0.0,0.0,0.0
1.076660157,0.9672629,0.03864138,-0.25081694,-0.25363728,0.17988078,-0.95042664,0.008391355,0.9829291,0.18379293,0.9569946,0.04662786,-0.28633404,-0.2899567,0.18536854,-0.93891615,0.009297667,0.9815622,0.19091676,0.1197052,9.677353,1.771698,0.08229065,9.639191,1.8023834,0.003189087,0.0010681152,0.004257202,-6.845093,-23.690796,-30.047607,0,0.0,0.0,0.0,0.0
1.081054688,0.96240765,0.04179562,-0.26837403,-0.2714747,0.17910558,-0.94563353,0.00854395,0.9829417,0.18371904,0.9572134,0.046463948,-0.28562862,-0.2892343,0.18526228,-0.93916,0.009279124,0.98159003,0.1907745,0.1771698,9.730026,1.9393005,0.08378601,9.639191,1.8016357,0.013839722,-0.0010528564,0.0095825195,-7.2036743,-22.615051,-29.354858,0,0.0,0.0,0.0,0.0
1.085449219,0.9624591,0.0415827,-0.26822263,-0.27128744,0.17903465,-0.94570065,0.008696356,0.9829636,0.1835944,0.9573204,0.046368495,-0.285285,-0.28888014,0.18514024,-0.939293,0.009264129,0.98161757,0.19063346,0.12449646,9.634262,1.9009857,0.08528137,9.639496,1.8004303,0.026626587,-0.008514404,0.025543213,-7.2036743,-22.615051,-29.354858,0,0.0,0.0,0.0,0.0
1.090118409,0.96249187,0.041446798,-0.26812595,-0.2711686,0.17891292,-0.94575775,0.00877257,0.9829915,0.18344131,0.9574263,0.046270605,-0.28494522,-0.28852928,0.18501925,-0.93942463,0.009252607,0.981645,0.19049273,0.07182312,9.701294,1.8674622,0.08602905,9.639801,1.7989349,0.03727722,-0.0010528564,0.031936646,-7.2036743,-22.615051,-29.354858,0,0.0,0.0,0.0,0.0
1.094787598,0.9442781,0.05202718,-0.32501063,-0.32902747,0.17597835,-0.92777824,0.008925156,0.9830182,0.1832909,0.9575307,0.04617197,-0.28461033,-0.28818303,0.18489844,-0.9395547,0.009242913,0.9816724,0.1903519,0.09576416,9.557648,1.9488678,0.087524414,9.639954,1.7974396,0.043670654,0.008529663,0.018096924,-8.996582,-22.25647,-29.701233,0,0.0,0.0,0.0,0.0
1.099487305,0.94432366,0.051866785,-0.32490426,-0.3288946,0.17587125,-0.92784584,0.009016942,0.9830459,0.18313807,0.95728284,0.046295688,-0.28542274,-0.2890054,0.18472187,-0.9393368,0.009236583,0.9816998,0.1902108,0.009567261,9.686935,1.8914185,0.08842468,9.640244,1.7959442,0.04899597,0.009597778,0.03514099,-8.996582,-22.25647,-29.701233,0,0.0,0.0,0.0,0.0
1.104156495,0.9444224,0.051517654,-0.32467255,-0.32860482,0.17568213,-0.92798424,0.009231588,0.98309803,0.18284707,0.95704013,0.04641347,-0.28621662,-0.28980842,0.18454655,-0.9391238,0.009232289,0.98172724,0.19006947,0.22026062,9.662994,1.8961945,0.090530396,9.640839,1.7931061,0.043670654,0.019165039,0.03300476,-8.996582,-22.25647,-29.701233,0,0.0,0.0,0.0,0.0
1.108856202,0.97215444,0.033813156,-0.2318885,-0.23415345,0.17972061,-0.9554436,0.009368583,0.9831364,0.18263368,0.9568033,0.046521597,-0.28698972,-0.29058924,0.18437062,-0.9389171,0.009232549,0.9817552,0.1899251,0.0143585205,9.634262,1.8195801,0.09187317,9.641144,1.7910004,0.07562256,0.0063934326,0.036209106,-6.3079834,-23.512268,-29.873657,0,0.0,0.0,0.0,0.0
1.113525391,0.97222173,0.03349551,-0.23165272,-0.2338656,0.1795291,-0.9555502,0.00958176,0.98318225,0.18237554,0.95714265,0.04626045,-0.28589842,-0.2894696,0.1842862,-0.93927944,0.0092356475,0.98178333,0.18977918,0.15800476,9.811432,1.7573395,0.09396362,9.641586,1.7884674,0.051132202,-0.0010528564,0.039398193,-6.3079834,-23.512268,-29.873657,0,0.0,0.0,0.0,0.0
1.118225098,0.9722754,0.03324148,-0.23146409,-0.23363487,0.17943048,-0.9556251,0.009765321,0.98320884,0.1822222,0.95747554,0.045998078,-0.28482398,-0.28836623,0.18419999,-0.9396357,0.009243138,0.9818119,0.18963128,0.028717041,9.658203,1.8148041,0.09576416,9.6418915,1.786972,0.055389404,-0.0010528564,0.041534424,-6.3079834,-23.512268,-29.873657,0,0.0,0.0,0.0,0.0
1.122894288,0.9471275,0.04904548,-0.3170869,-0.32070094,0.17557797,-0.930765,0.010023646,0.9832431,0.18202363,0.95780194,0.045735847,-0.28376696,-0.28728002,0.18411346,-0.9399854,0.009254287,0.9818404,0.18948321,0.28729248,9.634262,1.7621307,0.09829712,9.642197,1.7850189,0.03727722,0.013839722,0.051116943,-8.6380005,-22.973633,-29.354858,0,0.0,0.0,0.0,0.0
1.127593995,0.94720066,0.04878904,-0.3169077,-0.3204793,0.17546925,-0.93086165,0.010191718,0.9832752,0.18184048,0.9576,0.04580649,-0.2844363,-0.2879519,0.18394318,-0.9398131,0.00927058,0.981869,0.18933406,0.04788208,9.509766,1.8004303,0.09994507,9.642487,1.7832184,0.045806885,0.018096924,0.04685974,-8.6380005,-22.973633,-29.354858,0,0.0,0.0,0.0,0.0
1.132263184,0.9472963,0.04845377,-0.3166735,-0.32018843,0.17544962,-0.93096566,0.010451451,0.9832953,0.18171708,0.9579201,0.042016644,-0.28394312,-0.28677842,0.18191454,-0.9405664,0.012133935,0.9824163,0.18630905,0.1819458,9.567215,1.8722534,0.102493286,9.642792,1.7820282,0.04473877,0.020233154,0.047927856,-8.6380005,-22.973633,-29.354858,0,0.0,0.0,0.0,0.0
1.136962891,0.9559405,0.043245662,-0.29035762,-0.29336664,0.17666328,-0.9395349,0.010664727,0.9833208,0.18156643,0.9577191,0.04214994,-0.28460056,-0.28745034,0.18178742,-0.9403859,0.012099592,0.9824341,0.1862173,0.10055542,9.538498,1.8531036,0.10458374,9.642944,1.7805328,0.038345337,0.014907837,0.05430603,-7.562256,-22.973633,-28.318787,0,0.0,0.0,0.0,0.0
1.141632081,0.95602584,0.042929277,-0.29012376,-0.29308134,0.17648578,-0.93965745,0.0108639,0.98336655,0.1813067,0.95768386,0.042172983,-0.28471565,-0.2875689,0.18168479,-0.9403694,0.012070315,0.9824521,0.18612424,0.19152832,9.696503,1.7669067,0.106536865,9.643387,1.7779846,0.045806885,0.043670654,0.05644226,-7.562256,-22.973633,-28.318787,0,0.0,0.0,0.0,0.0
1.146331788,0.9560902,0.042689636,-0.28994656,-0.29286408,0.17646086,-0.93972987,0.011047499,0.9833815,0.18121478,0.957651,0.04218911,-0.28482378,-0.2876793,0.18158066,-0.94035584,0.012045711,0.98247063,0.18602784,0.20588684,9.643829,1.8914185,0.1083374,9.643539,1.7770844,0.055389404,0.04046631,0.045791626,-7.562256,-22.973633,-28.318787,0,0.0,0.0,0.0,0.0
1.151000977,0.9561376,0.042513397,-0.28981626,-0.29270422,0.17644863,-0.9397819,0.011184361,0.9833913,0.18115303,0.9576201,0.04219999,-0.2849262,-0.28778318,0.1814782,-0.94034386,0.012025391,0.9824891,0.18593162,0.0622406,9.562439,1.9249268,0.109680176,9.643692,1.7764893,0.034088135,0.05432129,0.041534424,-7.562256,-22.973633,-28.318787,0,0.0,0.0,0.0,0.0
1.155670166,0.9561831,0.04234417,-0.28969112,-0.29255113,0.17640314,-0.9398383,0.011305745,0.9834069,0.18106152,0.9575907,0.042207003,-0.285024,-0.28788173,0.18137749,-0.94033307,0.01200829,0.9825074,0.18583602,0.0143585205,9.682144,1.9967499,0.11087036,9.643829,1.775589,0.026626587,0.02130127,0.038330078,-7.562256,-22.973633,-28.318787,0,0.0,0.0,0.0,0.0
1.160369873,0.9562127,0.042233314,-0.28960907,-0.2924515,0.17631014,-0.9398865,0.011366496,0.98342824,0.18094122,0.9575628,0.04221038,-0.2851173,-0.28797522,0.18127786,-0.9403237,0.01199403,0.98252565,0.18574046,0.03829956,9.715668,1.8531036,0.111465454,9.643982,1.7743988,0.04046631,0.023422241,0.043655396,-7.562256,-22.973633,-28.318787,0,0.0,0.0,0.0,0.0
1.165039063,0.9672936,0.034964092,-0.25123802,-0.25340167,0.17782047,-0.9508772,0.011428709,0.9834416,0.18086457,0.957536,0.042211432,-0.28520715,-0.28806487,0.18117839,-0.9403154,0.011981313,0.98254395,0.18564446,0.05744934,9.777908,1.8387451,0.112075806,9.6441345,1.7736511,0.036209106,0.023422241,0.024490356,-6.845093,-24.049377,-29.701233,0,0.0,0.0,0.0,0.0
1.16973877,0.9673227,0.034838848,-0.2511433,-0.25328708,0.17772326,-0.9509259,0.011504847,0.98346364,0.18073998,0.9577433,0.042063776,-0.28453192,-0.28737518,0.18111412,-0.94053876,0.011970137,0.9825621,0.18554893,0.05265808,9.701294,1.7094574,0.11282349,9.64444,1.7724457,0.020233154,0.0021362305,0.019165039,-6.845093,-24.049377,-29.701233,0,0.0,0.0,0.0,0.0
1.174346924,0.9673548,0.034700863,-0.251039,-0.25316122,0.17758696,-0.95098495,0.011581253,0.98349315,0.1805745,0.9577433,0.042063776,-0.28453192,-0.28737518,0.18111412,-0.94053876,0.011970137,0.9825621,0.18554893,0.05265808,9.701294,1.7094574,0.11357117,9.644592,1.7707977,0.020233154,0.0021362305,0.019165039,-6.845093,-24.049377,-29.701233,0,0.0,0.0,0.0,0.0
1.17868042,0.9568162,0.041443817,-0.2877241,-0.29045856,0.17609486,-0.9405447,0.01168698,0.98350036,0.18052812,0.958147,0.041766576,-0.28321353,-0.28602698,0.18097998,-0.9409754,0.011954656,0.9825995,0.18535179,0.0622406,9.572006,1.9632416,0.114608765,9.64473,1.7703552,0.031951904,-0.02130127,0.017028809,-7.9208374,-23.332214,-29.701233,0,0.0,0.0,0.0,0.0
1.182983399,0.9568561,0.041289285,-0.2876134,-0.2903238,0.17593291,-0.94061655,0.011763276,0.9835359,0.18032977,0.95812064,0.041760553,-0.2833038,-0.2861157,0.18088232,-0.9409673,0.011949333,0.98261774,0.18525542,0.12449646,9.60553,1.7908478,0.115356445,9.645035,1.7684021,0.028762817,-0.020233154,0.023422241,-7.9208374,-23.332214,-29.701233,0,0.0,0.0,0.0,0.0
1.187286377,0.956896,0.041135162,-0.28750294,-0.29018992,0.17572418,-0.94069695,0.011825498,0.9835796,0.18008678,0.95809543,0.041751508,-0.28339002,-0.28619993,0.18078342,-0.94096065,0.011945693,0.98263633,0.18515706,0.13885498,9.567215,1.8052216,0.1159668,9.645477,1.7660217,0.04899597,-0.018096924,0.013839722,-7.9208374,-23.332214,-29.701233,0,0.0,0.0,0.0,0.0
1.191589356,0.9610121,0.038293764,-0.27384165,-0.27624592,0.17592423,-0.94484854,0.011993578,0.98365855,0.17964382,0.9580716,0.04173948,-0.28347236,-0.2862798,0.1806822,-0.94095576,0.0119434055,0.98265547,0.18505566,0.28250122,9.672562,1.6184692,0.117614746,9.646225,1.761673,0.059646606,-0.010650635,0.01171875,-7.562256,-22.615051,-29.701233,0,0.0,0.0,0.0,0.0
1.195892334,0.9610797,0.03801174,-0.27364412,-0.27600724,0.17542939,-0.94501054,0.012083728,0.983758,0.17909311,0.95813143,0.041669335,-0.28328037,-0.2860794,0.18058768,-0.94103485,0.011944646,0.9826758,0.18494748,0.25378418,9.777908,1.7094574,0.118499756,9.647278,1.7562866,0.090545654,0.0010681152,0.022354126,-7.562256,-22.615051,-29.701233,0,0.0,0.0,0.0,0.0
1.200195313,0.9611478,0.037726395,-0.2734442,-0.2757651,0.17498517,-0.9451634,0.012191068,0.98384804,0.17859021,0.95882374,0.0384221,-0.28139073,-0.2837252,0.17330655,-0.94311446,0.01253042,0.98411816,0.17707175,0.16758728,9.662994,1.6807251,0.11955261,9.648178,1.751358,0.12036133,0.031951904,0.014892578,-7.562256,-22.615051,-29.701233,0,0.0,0.0,0.0,0.0
1.204498291,0.95343953,0.042224094,-0.29861373,-0.30133706,0.17345627,-0.93760806,0.012206774,0.983936,0.17810376,0.95887095,0.038408384,-0.281232,-0.28356618,0.17334023,-0.9431561,0.012523714,0.9841128,0.17710222,0.13406372,9.581589,1.5849609,0.1197052,9.648926,1.7465668,0.111846924,0.03514099,0.024490356,-7.7423096,-24.229431,-28.146362,0,0.0,0.0,0.0,0.0
1.20880127,0.9534965,0.042026736,-0.2984595,-0.30115417,0.17314506,-0.9377243,0.012267295,0.98399925,0.17774975,0.9587655,0.038484465,-0.28158066,-0.28392258,0.17334332,-0.9430483,0.012517413,0.9841093,0.17712219,0.12927246,9.581589,1.6041107,0.12030029,9.649673,1.7431183,0.09906006,0.028747559,0.0063934326,-7.7423096,-24.229431,-28.146362,0,0.0,0.0,0.0,0.0
1.213104248,0.953537,0.04188676,-0.29835016,-0.30102444,0.17293118,-0.93780553,0.0123124,0.9840428,0.1775052,0.95866317,0.038555205,-0.28191915,-0.2842681,0.17333995,-0.9429448,0.012512424,0.9841071,0.17713465,0.10533142,9.648621,1.5753784,0.1207428,9.650116,1.7407227,0.07029724,0.0063934326,0.015960693,-7.7423096,-24.229431,-28.146362,0,0.0,0.0,0.0,0.0
1.217407227,0.9342254,0.051839676,-0.35289598,-0.35646802,0.17006114,-0.91870004,0.012388776,0.98406905,0.17735462,0.9585635,0.038621858,-0.28224865,-0.2846041,0.17333245,-0.9428448,0.012508436,0.98410577,0.17714211,0.12449646,9.548065,1.5610046,0.12149048,9.650269,1.7392273,0.04473877,-0.003189087,0.0095825195,-9.176636,-23.87085,-27.799988,0,0.0,0.0,0.0,0.0
1.221710206,0.93423206,0.051819935,-0.35288125,-0.35645056,0.17001873,-0.91871464,0.012388686,0.9840774,0.1773082,0.9581305,0.038888406,-0.28367895,-0.28605884,0.17327705,-0.94241464,0.012506046,0.98410505,0.17714639,0.12449646,9.749176,1.4269409,0.12149048,9.650421,1.7387848,0.02130127,-0.024490356,0.012786865,-9.176636,-23.87085,-27.799988,0,0.0,0.0,0.0,0.0
1.226013184,0.9342202,0.051855117,-0.35290748,-0.35648212,0.17005545,-0.91869557,0.012374775,0.98406917,0.17735465,0.95770395,0.039149236,-0.28507966,-0.28748345,0.17322156,-0.94199127,0.012503709,0.98410445,0.17714973,0.19152832,9.543274,1.5179138,0.12135315,9.650269,1.7392273,-0.019165039,-0.047927856,-0.010650635,-9.176636,-23.87085,-27.799988,0,0.0,0.0,0.0,0.0
1.230316163,0.960288,0.0377254,-0.27644843,-0.2787341,0.17381844,-0.9445076,0.012419914,0.9840549,0.17743112,0.9572838,0.03940541,-0.28645232,-0.28887963,0.17316754,-0.94157404,0.012501137,0.98410374,0.1771539,0.22505188,9.581589,1.608902,0.121795654,9.650116,1.739975,-0.029815674,-0.055389404,-0.020248413,-7.562256,-22.615051,-29.354858,0,0.0,0.0,0.0,0.0
1.234619141,0.960296,0.03769259,-0.27642524,-0.27870396,0.1739384,-0.9444944,0.0124805225,0.98403496,0.17753741,0.9573449,0.039371923,-0.28625256,-0.28867704,0.1731808,-0.9416336,0.012499523,0.9841028,0.17715955,0.22505188,9.519333,1.5514374,0.12239075,9.649979,1.7410278,-0.026626587,-0.07350159,-0.01171875,-7.562256,-22.615051,-29.354858,0,0.0,0.0,0.0,0.0
1.23892212,0.96027744,0.037768587,-0.276479,-0.27876753,0.17415632,-0.9444353,0.012480588,0.9839934,0.17776707,0.95740503,0.039338425,-0.2860563,-0.28847793,0.17319602,-0.94169194,0.012499137,0.9841014,0.17716698,0.12449646,9.677353,1.8195801,0.12239075,9.649521,1.7432709,-0.039413452,-0.07350159,-0.010650635,-7.562256,-22.615051,-29.354858,0,0.0,0.0,0.0,0.0
1.243225098,0.95924836,0.038547006,-0.2799226,-0.28229114,0.17427592,-0.94336617,0.012419826,0.98394215,0.17805538,0.9574634,0.039307203,-0.28586504,-0.28828397,0.17321548,-0.9417477,0.012498779,0.98409927,0.17717913,0.08139038,9.639053,1.8866272,0.121795654,9.649078,1.746109,-0.047927856,-0.051132202,-0.010650635,-7.383728,-23.153687,-28.49121,0,0.0,0.0,0.0,0.0
1.247528077,0.9592284,0.038624667,-0.27998057,-0.28235924,0.17449339,-0.9433056,0.01241989,0.9839005,0.17828502,0.95749944,0.03929208,-0.28574628,-0.28816423,0.17323661,-0.94178045,0.012497205,0.9840961,0.17719653,0.14364624,9.753967,1.8914185,0.121795654,9.648621,1.748352,-0.05432129,-0.034088135,-0.017044067,-7.383728,-23.153687,-28.49121,0,0.0,0.0,0.0,0.0
1.251831055,0.9592056,0.038712557,-0.2800461,-0.28243622,0.17473903,-0.9432369,0.0124198655,0.9838534,0.1785445,0.9575343,0.03927887,-0.28563106,-0.28804824,0.17326185,-0.9418113,0.012495684,0.98409224,0.17721838,0.12449646,9.730026,1.9584503,0.121795654,9.648178,1.7509003,-0.04046631,-0.03302002,-0.0053253174,-7.383728,-23.153687,-28.49121,0,0.0,0.0,0.0,0.0
1.256134034,0.96011186,0.0382175,-0.27699217,-0.27934027,0.17509785,-0.9440921,0.012419894,0.98380905,0.17878921,0.9575681,0.039267637,-0.28551948,-0.28793612,0.17329122,-0.94184023,0.01249418,0.9840875,0.17724472,0.12449646,9.768341,2.1212616,0.121795654,9.64772,1.7532959,-0.043670654,-0.018096924,-0.004257202,-7.383728,-23.512268,-28.837585,0,0.0,0.0,0.0,0.0
1.260437012,0.96012366,0.038171362,-0.27695757,-0.27929625,0.17523563,-0.94407946,0.012496026,0.9837863,0.17890899,0.9576198,0.039246872,-0.28534913,-0.28776443,0.17332733,-0.94188607,0.012492719,0.984082,0.17727552,0.15800476,9.730026,1.9153595,0.122543335,9.647583,1.7544861,-0.027694702,-0.020233154,-0.004257202,-7.383728,-23.512268,-28.837585,0,0.0,0.0,0.0,0.0
1.264739991,0.9601169,0.03819753,-0.27697718,-0.2793193,0.17530961,-0.94405895,0.012496044,0.9837721,0.17898704,0.9573121,0.03892952,-0.28642276,-0.28875098,0.17431787,-0.9414012,0.013280307,0.9839196,0.17811754,0.1484375,9.7348175,1.9823914,0.122543335,9.64743,1.755249,-0.012771606,-0.020233154,0.008514404,-7.383728,-23.512268,-28.837585,0,0.0,0.0,0.0,0.0
1.269042969,0.95316654,0.042333454,-0.29946837,-0.30218497,0.17440894,-0.93715835,0.012556808,0.9837629,0.17903332,0.95736915,0.038914934,-0.28623408,-0.2885626,0.17433758,-0.9414553,0.013264687,0.9839167,0.1781348,0.28250122,9.643829,1.8722534,0.12313843,9.647278,1.7556915,0.0021209717,-0.0063934326,0.008514404,-8.279419,-23.690796,-29.701233,0,0.0,0.0,0.0,0.0
1.273345948,0.9532141,0.042158347,-0.2993419,-0.3020313,0.17425177,-0.93723714,0.012648486,0.98379827,0.17883238,0.95728695,0.03898311,-0.28649938,-0.28883561,0.17433953,-0.94137114,0.013250594,0.98391366,0.17815268,0.25378418,9.648621,1.8339539,0.1240387,9.64772,1.7537384,0.020233154,0.010650635,0.0063934326,-8.279419,-23.690796,-29.701233,0,0.0,0.0,0.0,0.0
1.277648926,0.95325965,0.041990012,-0.29922032,-0.30188352,0.17411244,-0.93731064,0.012740298,0.98383015,0.17865047,0.9572074,0.039046492,-0.2867568,-0.28910005,0.1743382,-0.94129026,0.013238589,0.98391134,0.17816615,0.23461914,9.557648,1.8531036,0.124938965,9.6480255,1.7519531,0.051132202,0.014907837,0.01171875,-8.279419,-23.690796,-29.701233,0,0.0,0.0,0.0,0.0
1.281951905,0.96599376,0.033945143,-0.2563276,-0.25824988,0.17562968,-0.94997966,0.012771543,0.9838709,0.1784235,0.95713013,0.039105345,-0.28700665,-0.28935623,0.17433427,-0.9412123,0.013228659,0.9839097,0.17817596,0.30166626,9.500183,1.9728088,0.12524414,9.648331,1.7497101,0.05218506,0.03302002,0.015960693,-7.2036743,-21.897888,-30.047607,0,0.0,0.0,0.0,0.0
1.286254883,0.96601105,0.03386474,-0.25627318,-0.25818607,0.17531802,-0.9500545,0.012755952,0.9839292,0.17810254,0.95731723,0.039002605,-0.2863959,-0.288737,0.17436175,-0.9413974,0.013219534,0.98390895,0.178181,0.1771698,9.591171,1.7333984,0.12509155,9.648926,1.7465668,0.07775879,0.04685974,-0.0010681152,-7.2036743,-21.897888,-30.047607,1,0.0,0.0,0.0,0.0
1.290557862,0.96600485,0.033893254,-0.25629246,-0.2582135,0.1750577,-0.95009506,0.012664153,0.98397464,0.1778583,0.95750064,0.03890007,-0.28579617,-0.2881287,0.17438224,-0.94157994,0.013210249,0.98390937,0.17817931,0.09576416,9.600739,1.747757,0.124191284,9.649368,1.7441711,0.07562256,0.07136536,0.004257202,-7.2036743,-21.897888,-30.047607,1,0.0,0.0,0.0,0.0
1.29486084,0.9580596,0.039143294,-0.28388306,-0.2862971,0.17388335,-0.94223076,0.012480521,0.9839881,0.17779723,0.95767975,0.038799986,-0.28520876,-0.28753304,0.17439696,-0.9417592,0.013199294,0.9839107,0.17817271,0.1484375,9.591171,1.7190247,0.12239075,9.649521,1.743576,0.05645752,0.069229126,-0.008529663,-7.9208374,-24.049377,-30.047607,1,0.0,0.0,0.0,0.0
1.299163819,0.9580148,0.039316975,-0.28401023,-0.28645486,0.17373787,-0.94220954,0.0122985095,0.98400676,0.17770599,0.9576873,0.03880692,-0.28518224,-0.28750834,0.17438689,-0.94176865,0.013184903,0.9839122,0.17816542,0.11012268,9.725235,1.5849609,0.12060547,9.649673,1.7426758,0.015975952,0.08308411,-0.027694702,-7.9208374,-24.049377,-30.047607,1,0.0,0.0,0.0,0.0
1.303466797,0.9579344,0.039628133,-0.2842381,-0.28673396,0.17375821,-0.9421208,0.012054212,0.9839906,0.1778117,0.95769393,0.038817134,-0.2851588,-0.2874873,0.1743738,-0.9417775,0.013167121,0.98391414,0.17815617,0.028717041,9.706085,1.637619,0.11820984,9.649521,1.7437134,0.007446289,0.06604004,-0.027694702,-7.9208374,-24.049377,-30.047607,1,0.0,0.0,0.0,0.0
1.307769776,0.95431876,0.042068023,-0.2958139,-0.2985573,0.17333874,-0.9385186,0.01179439,0.9839634,0.17798015,0.9576988,0.038833406,-0.2851404,-0.28747225,0.17436153,-0.94178444,0.013144819,0.9839157,0.17814934,-0.05265808,9.82579,1.4796143,0.11566162,9.649231,1.7453613,-0.036209106,0.05644226,-0.039413452,-8.100891,-23.87085,-29.528809,1,0.0,0.0,0.0,0.0
1.312072754,0.9541867,0.042553827,-0.29617035,-0.29899234,0.17351012,-0.9383484,0.011458246,0.9839123,0.17828433,0.9576324,0.038898304,-0.2853542,-0.28769433,0.17434153,-0.94172025,0.013117768,0.98391664,0.17814593,-0.08618164,9.797058,1.6998749,0.11236572,9.648773,1.748352,-0.06071472,0.04685974,-0.03729248,-8.100891,-23.87085,-29.528809,1,0.0,0.0,0.0,0.0
1.316375733,0.95408744,0.04291786,-0.2964374,-0.29931635,0.17381659,-0.9381884,0.011260709,0.9838424,0.17868225,0.95756495,0.038971577,-0.28557092,-0.28792068,0.17432566,-0.941654,0.013084592,0.9839166,0.17814885,0.08618164,9.753967,1.771698,0.11042786,9.6480255,1.752243,-0.076690674,0.03727722,-0.054336548,-8.100891,-23.87085,-29.528809,1,0.0,0.0,0.0,0.0
1.320678711,0.95166385,0.04462486,-0.30388224,-0.3069415,0.17386042,-0.9357133,0.0110770175,0.9837587,0.17915392,0.9574967,0.039050505,-0.2857886,-0.28814894,0.17431629,-0.9415859,0.013048205,0.9839151,0.17815962,0.11012268,9.730026,1.747757,0.10862732,9.647278,1.7568817,-0.090545654,0.036209106,-0.03515625,-8.279419,-23.332214,-29.354858,1,0.0,0.0,0.0,0.0
1.32498169,0.95154667,0.04504926,-0.30418652,-0.30731395,0.17411259,-0.93554413,0.010817134,0.98369473,0.17952053,0.9573837,0.03916188,-0.28615165,-0.28852588,0.17430897,-0.9414718,0.013008992,0.98391193,0.17817977,-0.0335083,9.821014,1.7860718,0.1060791,9.646683,1.7604828,-0.10971069,0.04046631,-0.03729248,-8.279419,-23.332214,-29.354858,1,0.0,0.0,0.0,0.0
1.329284668,0.951453,0.045387886,-0.30442926,-0.30760935,0.17448893,-0.935377,0.010664752,0.98361254,0.17997974,0.9572706,0.039279357,-0.28651357,-0.28890273,0.17430717,-0.9413566,0.012965485,0.9839076,0.17820705,0.07182312,9.710876,1.8722534,0.10458374,9.645782,1.7649689,-0.08627319,0.047927856,-0.03729248,-8.279419,-23.332214,-29.354858,1,0.0,0.0,0.0,0.0
1.333587647,0.9710893,0.03292436,-0.23643477,-0.23848322,0.17754912,-0.95477843,0.010543316,0.983561,0.18026799,0.9579313,0.042723663,-0.2837997,-0.28679422,0.17971626,-0.9409841,0.010801135,0.9827903,0.18440872,-0.028717041,9.864105,1.8291626,0.103393555,9.64534,1.767807,-0.09480286,0.04473877,-0.024505615,-6.3079834,-23.512268,-29.182434,1,0.0,0.0,0.0,0.0
1.337890625,0.97104794,0.03311371,-0.23657836,-0.23865652,0.17774092,-0.9546996,0.010436014,0.9835201,0.18049777,0.9582181,0.042524673,-0.2828598,-0.28583467,0.1796782,-0.94128335,0.010795973,0.9828059,0.18432593,0.009567261,9.830582,1.9393005,0.1023407,9.644882,1.77005,-0.064971924,0.036209106,-0.01171875,-6.3079834,-23.512268,-29.182434,1,0.0,0.0,0.0,0.0
1.342193604,0.9710644,0.033038463,-0.23652132,-0.23858482,0.17793143,-0.95468193,0.010543351,0.9834881,0.18066537,0.9584973,0.042333774,-0.28194115,-0.28489745,0.17964418,-0.9415739,0.01078871,0.98282033,0.18424925,0.26335144,9.854523,1.9728088,0.103393555,9.644592,1.771698,-0.041534424,0.017028809,-0.01171875,-6.3079834,-23.512268,-29.182434,1,0.0,0.0,0.0,0.0
1.346496582,0.96124685,0.039771527,-0.27280548,-0.27548414,0.17674123,-0.9449187,0.010635118,0.9834536,0.18084836,0.95877033,0.042145465,-0.28103942,-0.2839773,0.1796147,-0.9418574,0.01078379,0.9828338,0.1841776,0.20588684,9.835373,2.178711,0.10429382,9.644287,1.7734985,-0.022369385,-0.0021209717,0.007461548,-7.562256,-23.332214,-30.047607,1,0.0,0.0,0.0,0.0
1.350799561,0.9612758,0.03965279,-0.27272058,-0.2753776,0.17688784,-0.94492227,0.010772149,0.983432,0.18095748,0.9588206,0.042097487,-0.2808751,-0.28380767,0.1795577,-0.94191945,0.010780844,0.9828463,0.18411122,0.24899292,9.864105,2.039856,0.1056366,9.643982,1.7745514,-0.011703491,-0.022369385,0.007461548,-7.562256,-23.332214,-30.047607,1,0.0,0.0,0.0,0.0
1.35510254,0.9613045,0.039535183,-0.27263644,-0.27527258,0.17698136,-0.94493526,0.010893382,0.98341984,0.18101592,0.9588705,0.04204803,-0.28071234,-0.28363925,0.17950456,-0.9419803,0.010780727,0.9828581,0.18404809,0.11012268,9.849731,2.1930847,0.10682678,9.643982,1.7751465,-0.0053253174,-0.038345337,0.010650635,-7.562256,-23.332214,-30.047607,1,0.0,0.0,0.0,0.0
1.359405518,0.9613734,0.039252646,-0.2724344,-0.2750234,0.17693275,-0.9450169,0.011108157,0.98343986,0.18089382,0.9589198,0.041997235,-0.28055114,-0.2834721,0.17945448,-0.9420401,0.010783079,0.98286945,0.18398751,0.2681427,9.76355,2.0542145,0.108932495,9.6441345,1.773941,0.02130127,-0.050064087,0.019165039,-7.562256,-23.332214,-30.047607,1,0.0,0.0,0.0,0.0
1.363708497,0.9614527,0.038926408,-0.27220106,-0.27473527,0.17691325,-0.9451043,0.01136646,0.9834563,0.18078817,0.95896965,0.04194169,-0.2803892,-0.28330335,0.1794043,-0.9421005,0.01078974,0.98288095,0.18392551,0.22026062,9.811432,2.0350647,0.111465454,9.644287,1.7729034,0.047927856,-0.064971924,0.024490356,-7.562256,-23.332214,-30.047607,1,0.0,0.0,0.0,0.0
1.368011475,0.9615655,0.03846179,-0.27186865,-0.2743263,0.17677115,-0.94524974,0.011702538,0.9835002,0.1805281,0.95902,0.041880693,-0.2802258,-0.28313217,0.17935501,-0.94216126,0.010801534,0.9828926,0.18386284,0.3256073,9.701294,1.9393005,0.11476135,9.64473,1.7703552,0.04473877,-0.07350159,0.037261963,-7.562256,-23.332214,-30.047607,1,0.0,0.0,0.0,0.0
1.372314454,0.953424,0.04308734,-0.2985399,-0.3013953,0.17538895,-0.9372297,0.011977867,0.9835559,0.18020637,0.9590718,0.041811448,-0.2800591,-0.2829562,0.17930391,-0.9422239,0.010819943,0.98290485,0.18379614,0.3256073,9.768341,1.9871826,0.11746216,9.64534,1.7672119,0.07350159,-0.069229126,0.04472351,-7.9208374,-23.332214,-28.663635,1,0.0,0.0,0.0,0.0
1.376617432,0.95355624,0.042608,-0.2981863,-0.30096516,0.17508924,-0.937424,0.012267447,0.9836302,0.17978096,0.9589623,0.041837793,-0.28042966,-0.28332597,0.17922556,-0.9421277,0.010843622,0.982918,0.1837243,0.33039856,9.753967,1.8914185,0.12030029,9.645935,1.7630157,0.090545654,-0.07136536,0.031936646,-7.9208374,-23.332214,-28.663635,1,0.0,0.0,0.0,0.0
1.380920411,0.95365727,0.042240646,-0.2979152,-0.30063653,0.17478393,-0.9375863,0.012466537,0.9837003,0.17938307,0.9588575,0.041853905,-0.28078568,-0.28367963,0.17914276,-0.94203705,0.010872793,0.9829324,0.18364547,0.31602478,9.730026,1.9393005,0.12225342,9.646683,1.7591248,0.10545349,-0.06604004,0.034072876,-7.9208374,-23.332214,-28.663635,1,0.0,0.0,0.0,0.0
1.385223389,0.9656809,0.03428461,-0.2574588,-0.25941586,0.17616971,-0.9495618,0.012801092,0.9837625,0.17901768,0.95875645,0.041862283,-0.2811291,-0.2840195,0.1790556,-0.94195116,0.010905516,0.98294795,0.18356043,0.39743042,9.572006,1.9871826,0.12553406,9.647278,1.755539,0.10545349,-0.07243347,0.015960693,-7.0251465,-23.87085,-29.528809,1,0.0,0.0,0.0,0.0
1.389526368,0.96576405,0.033931598,-0.25719324,-0.25909752,0.17572406,-0.94973123,0.012969142,0.9838545,0.17849958,0.9589012,0.04170807,-0.28065804,-0.28352904,0.17900087,-0.94210935,0.010944474,0.98296446,0.18346961,0.13406372,9.548065,1.632843,0.127182,9.648178,1.7504578,0.10758972,-0.069229126,0.036209106,-7.0251465,-23.87085,-29.528809,1,0.0,0.0,0.0,0.0
1.393829346,0.965824,0.03367682,-0.25700152,-0.25886774,0.17540723,-0.9498524,0.013091918,0.98391974,0.17813037,0.95904464,0.041549593,-0.28019112,-0.28304195,0.17893873,-0.9422676,0.010986213,0.98298246,0.1833705,0.03829956,9.615112,1.9153595,0.12838745,9.648926,1.7468567,0.10865784,-0.06817627,0.027679443,-7.0251465,-23.87085,-29.528809,1,0.0,0.0,0.0,0.0
1.398132325,0.96005374,0.037184373,-0.27733397,-0.27950352,0.17424087,-0.94420224,0.013213347,0.9840007,0.17767377,0.95918626,0.04138899,-0.27972972,-0.28255993,0.17887166,-0.942425,0.0110297045,0.9830015,0.1832661,0.06703186,9.619888,1.8004303,0.12957764,9.649673,1.7423706,0.100128174,-0.06604004,0.022354126,-7.562256,-23.690796,-29.354858,1,0.0,0.0,0.0,0.0
1.402435303,0.96011543,0.036940377,-0.27715293,-0.27928787,0.17381781,-0.94434404,0.013289696,0.9840847,0.17720217,0.9582191,0.03779585,-0.28352728,-0.28572807,0.17241628,-0.9426729,0.013255598,0.98429877,0.17601192,-0.0335083,9.62468,1.637619,0.13032532,9.650421,1.7377319,0.10971069,-0.05645752,0.023422241,-7.562256,-23.690796,-29.354858,1,0.0,0.0,0.0,0.0
1.406738282,0.9601484,0.03680982,-0.27705607,-0.27917528,0.1733917,-0.9444556,0.013273978,0.98416483,0.17675816,0.9582574,0.037778933,-0.28339985,-0.28559935,0.17244451,-0.94270664,0.013256298,0.9842945,0.17603587,-0.1771698,9.696503,1.6615753,0.13017273,9.651321,1.7333984,0.10119629,-0.07562256,0.017028809,-7.562256,-23.690796,-29.354858,1,0.0,0.0,0.0,0.0
1.41104126,0.95226264,0.041358903,-0.3024657,-0.30499092,0.17201968,-0.936691,0.013289529,0.9842249,0.17642196,0.95829564,0.03775968,-0.2832731,-0.28547102,0.17246361,-0.94274205,0.013256665,0.98429185,0.17605042,-0.11491394,9.653412,1.5562286,0.13032532,9.6519165,1.7301025,0.09480286,-0.080947876,0.010650635,-8.279419,-24.049377,-29.354858,1,0.0,0.0,0.0,0.0
1.415344239,0.9523154,0.04116916,-0.30232513,-0.30482313,0.17172779,-0.936799,0.013350398,0.9842838,0.17608833,0.9581789,0.037831716,-0.28365818,-0.28586262,0.17245564,-0.9426248,0.013257336,0.98429054,0.17605802,-0.03829956,9.595947,1.6232605,0.13092041,9.652359,1.7268066,0.061782837,-0.047927856,0.013839722,-8.279419,-24.049377,-29.354858,1,0.0,0.0,0.0,0.0
1.419647217,0.95235604,0.04102279,-0.3022167,-0.30469385,0.17150144,-0.9368825,0.013397064,0.98432946,0.17582986,0.9581789,0.037831716,-0.28365818,-0.28586262,0.17245564,-0.9426248,0.013257336,0.98429054,0.17605802,-0.03829956,9.595947,1.6232605,0.13137817,9.652817,1.7242737,0.061782837,-0.047927856,0.013839722,-8.279419,-24.049377,-29.354858,1,0.0,0.0,0.0,0.0
1.425720215,0.9517977,0.04121693,-0.30394435,-0.3064309,0.17125355,-0.93636113,0.013457609,0.98436445,0.17562889,0.9579554,0.037958473,-0.28439522,-0.28661048,0.17241889,-0.9424045,0.01326287,0.9842921,0.1760489,0.20588684,9.801849,1.5131226,0.13197327,9.653259,1.7223206,0.05218506,-0.04685974,0.014892578,-8.459473,-24.946594,-29.873657,1,0.0,0.0,0.0,0.0
1.431793213,0.9518495,0.041034713,-0.30380684,-0.30626532,0.17113301,-0.9364374,0.013564937,0.98439306,0.17546038,0.9579554,0.037958473,-0.28439522,-0.28661048,0.17241889,-0.9424045,0.01326287,0.9842921,0.1760489,0.20588684,9.801849,1.5131226,0.13302612,9.653564,1.7206726,0.05218506,-0.04685974,0.014892578,-8.459473,-24.946594,-29.873657,1,0.0,0.0,0.0,0.0
1.437896729,0.95186514,0.040979806,-0.30376542,-0.30621555,0.17108816,-0.9364619,0.0135946395,0.98440313,0.1754015,0.95772135,0.038080923,-0.2851662,-0.2873912,0.17236894,-0.94217587,0.013274868,0.9842961,0.17602552,0.23461914,9.720444,1.5466461,0.13331604,9.653564,1.7200775,0.018096924,-0.02130127,0.012786865,-8.459473,-24.946594,-29.873657,1,0.0,0.0,0.0,0.0
1.443145752,0.9661832,0.03216433,-0.2558429,-0.25749412,0.17295282,-0.95067555,0.013670905,0.9844047,0.17538622,0.95760775,0.038139217,-0.28553924,-0.28776878,0.17234379,-0.9420652,0.013281289,0.9842982,0.17601304,0.296875,9.768341,1.7190247,0.13406372,9.653564,1.7199249,-0.012771606,-0.0053253174,0.004257202,-7.2036743,-22.615051,-30.047607,1,0.0,0.0,0.0,0.0
1.447448731,0.9661649,0.032247692,-0.25590125,-0.25756496,0.1730421,-0.95064014,0.013625743,0.9843864,0.17549309,0.95778865,0.03801975,-0.28494805,-0.28716597,0.17235805,-0.9422465,0.013289115,0.9843004,0.17600057,0.2681427,9.610321,1.6998749,0.13362122,9.653412,1.7209778,-0.010650635,-0.004257202,-0.012786865,-7.2036743,-22.615051,-30.047607,1,0.0,0.0,0.0,0.0
1.451751709,0.9661284,0.03241457,-0.2560181,-0.25770763,0.17315541,-0.9505809,0.013518245,0.984361,0.17564383,0.957965,0.03790436,-0.2843697,-0.2865765,0.17237349,-0.94242305,0.013295859,0.9843021,0.17599028,0.1771698,9.528915,1.7764893,0.13256836,9.653259,1.7224731,-0.026626587,0.0,-0.022369385,-7.2036743,-22.615051,-30.047607,1,0.0,0.0,0.0,0.0
1.456054688,0.9440629,0.045501716,-0.32661128,-0.3294946,0.17030047,-0.9286717,0.013365891,0.9843411,0.17576692,0.9581368,0.037794717,-0.28380516,-0.2860016,0.17239083,-0.9425945,0.013300317,0.9843033,0.17598335,0.20111084,9.562439,1.7142334,0.131073,9.652969,1.7236633,-0.025558472,0.020233154,-0.024505615,-8.996582,-24.049377,-29.354858,1,0.0,0.0,0.0,0.0
1.460357666,0.94398886,0.045748588,-0.3267908,-0.32971284,0.17042764,-0.92857087,0.013213373,0.9843076,0.17596565,0.95787483,0.03794985,-0.2846674,-0.28687763,0.17235243,-0.9423353,0.0133016305,0.9843041,0.17597903,0.30166626,9.629471,1.8961945,0.12957764,9.652664,1.7256165,-0.027694702,0.026626587,-0.038345337,-8.996582,-24.049377,-29.354858,1,0.0,0.0,0.0,0.0
