Time,Rot1,Rot2,Rot3,Rot4,Rot5,Rot6,Rot7,Rot8,Rot9,FRot1,FRot2,FRot3,FRot4,FRot5,FRot6,FRot7,FRot8,FRot9,AccX,AccY,AccZ,GravX,GravY,GravZ,GyroX,GyroY,GyroZ,MagX,MagY,MagZ,Imid
0.0,0.0,0.0,0.0,0.0,0.0,0.0,0.0,0.0,0.0,0.0,0.0,0.0,0.0,0.0,0.0,0.0,0.0,0.0,9.792282,-0.1771698,1.2545471,9.714172,-0.13452148,1.3361053,0.0,0.0,0.0,0.0,0.0,0.0,0,0.0,0.0,0.0,0.0
0.004394531,0.11908639,-0.40536445,-0.9063653,0.06766174,0.9140524,-0.39991245,0.99057573,-0.01370211,0.1362789,1.0,0.0,0.0,0.0,1.0,0.0,0.0,0.0,1.0,9.730026,-0.10533142,1.4269409,9.71402,-0.1343689,1.3364105,0.0,0.0,0.0,-25.849915,18.621826,-11.7248535,0,0.0,0.0,0.0,0.0
0.00881958,0.119130716,-0.40531358,-0.9063822,0.06767291,0.914075,-0.399859,0.99056965,-0.013702027,0.13632318,0.9995538,-0.008348277,-0.02867891,0.0083527025,0.9999651,3.4519486E-5,0.028677622,-2.7405052E-4,0.99958867,9.595947,-0.10055542,1.4412994,9.71402,-0.1343689,1.336853,-0.0021362305,0.01171875,-0.0095825195,-25.849915,18.621826,-11.7248535,0,0.0,0.0,0.0,0.0
0.013214112,0.119146004,-0.4052961,-0.90638804,0.06767676,0.9140827,-0.3998406,0.9905675,-0.013701996,0.13633844,0.998251,-0.016527915,-0.05675927,0.016532067,0.99986327,-3.9642304E-4,0.05675806,-5.4261833E-4,0.9983878,9.710876,-0.1484375,1.364685,9.71402,-0.1343689,1.3370056,0.0095825195,-0.0138549805,0.009597778,-25.849915,18.621826,-11.7248535,0,0.0,0.0,0.0,0.0
0.01763916,0.11910568,-0.40534237,-0.9063726,0.06776598,0.91406083,-0.39987555,0.99056625,-0.013793782,0.13633826,0.99614424,-0.024542505,-0.08422757,0.024523146,0.99969846,-0.001264587,0.08423322,-8.058141E-4,0.9964458,9.643829,-0.18673706,1.6041107,9.71402,-0.13526917,1.3370056,0.0,-0.015975952,-0.013839722,-25.849915,18.621826,-11.7248535,0,0.0,0.0,0.0,0.0
0.022033692,0.11902033,-0.40544027,-0.90634,0.06772739,0.9140176,-0.39998084,0.99057925,-0.013778186,0.13624611,0.99328417,-0.03239629,-0.11107304,0.032314084,0.9994745,-0.0025407048,0.11109698,-0.0010655818,0.993809,9.634262,-0.07182312,1.4604492,9.714172,-0.13511658,1.3361053,0.0,-0.021316528,0.015975952,-25.849915,18.621826,-11.7248535,0,0.0,0.0,0.0,0.0
0.026428223,0.118855074,-0.40562996,-0.90627694,0.06771914,0.91393304,-0.40017557,0.9905996,-0.013809394,0.1360945,0.9897193,-0.040093195,-0.137289,0.0398944,0.99919504,-0.0042004026,0.1373469,-0.0013198423,0.9905221,9.706085,-0.1197052,1.2785034,9.71431,-0.13542175,1.33461,0.0021362305,-0.031967163,0.0032043457,-25.849915,18.621826,-11.7248535,0,0.0,0.0,0.0,0.0
0.030853272,0.11812854,-0.41277277,-0.9031414,0.06859277,0.91072893,-0.40726882,0.9906264,-0.013838897,0.1358963,0.98549676,-0.047638003,-0.16287059,0.04725663,0.9988634,-0.006217244,0.16298164,-0.0015696415,0.9866278,9.662994,-0.13885498,1.3215942,9.714615,-0.13571167,1.3326721,-0.0053100586,-0.030899048,0.004272461,-26.38855,17.72461,-11.552429,0,0.0,0.0,0.0,0.0
0.035308838,0.11794858,-0.41299102,-0.9030651,0.06849816,0.9106307,-0.40750447,0.99065447,-0.013793732,0.13569671,0.9806531,-0.055185623,-0.1878136,0.054542392,0.9984744,-0.008595056,0.18800141,-0.0018150349,0.982167,9.710876,0.0,1.3694763,9.71492,-0.13526917,1.330719,-0.0021362305,-0.04473877,0.008529663,-26.38855,17.72461,-11.552429,0,0.0,0.0,0.0,0.0
0.039733887,0.11761187,-0.41339913,-0.9029223,0.068528034,0.9104438,-0.40791658,0.9906923,-0.013899655,0.13540843,0.97523826,-0.062584005,-0.21211672,0.061591607,0.9980376,-0.011289541,0.21240701,-0.0020546168,0.97717917,9.758759,-0.22026062,1.206665,9.71521,-0.13630676,1.3278809,0.0063934326,-0.045806885,0.0021362305,-26.38855,17.72461,-11.552429,0,0.0,0.0,0.0,0.0
0.044189453,0.10953578,-0.50790244,-0.8544221,0.080580376,0.8613025,-0.5016621,0.9907112,-0.013899702,0.1352704,0.96929324,-0.06984003,-0.23578165,0.068403944,0.99755555,-0.014275216,0.23620228,-0.0022915257,0.9717012,9.715668,-0.05744934,1.3982086,9.715363,-0.13630676,1.3265228,-0.006378174,-0.054336548,0.0138549805,-26.38855,16.648865,-13.279724,0,0.0,0.0,0.0,0.0
0.048614502,0.109303325,-0.5081685,-0.85429364,0.08054593,0.86114484,-0.50193834,0.99073976,-0.013946345,0.13505688,0.9619991,-0.07911235,-0.2613406,0.07727627,0.99685943,-0.017311437,0.26188937,-0.0035418374,0.9650914,9.696503,-0.15322876,1.2306061,9.715668,-0.13676453,1.3244324,-0.014892578,-0.039413452,0.004272461,-26.38855,16.648865,-13.279724,0,0.0,0.0,0.0,0.0
0.053131104,0.109042436,-0.50846696,-0.8541494,0.0804988,0.8609679,-0.5022493,0.99077225,-0.0139915105,0.134813,0.9548769,-0.08815875,-0.28361645,0.085581064,0.99609935,-0.021492051,0.28440487,-0.003749935,0.95869696,9.701294,-0.1819458,1.2449799,9.715958,-0.13720703,1.3220367,-0.0021362305,-0.038360596,0.009597778,-26.38855,16.648865,-13.279724,0,0.0,0.0,0.0,0.0
0.057800293,0.11630567,-0.42186615,-0.8991674,0.069382474,0.9065506,-0.41635567,0.990787,-0.013961935,0.13470708,0.94731784,-0.097024076,-0.30524597,0.09356626,0.9952742,-0.025974333,0.3063236,-0.003954774,0.9519192,9.730026,-0.16279602,1.3311615,9.71611,-0.13691711,1.3209991,0.004257202,-0.046875,0.004272461,-26.92566,16.828918,-11.378479,0,0.0,0.0,0.0,0.0
0.062438965,0.11627656,-0.42190343,-0.8991536,0.06940743,0.9065327,-0.41639027,0.9907887,-0.013991523,0.13469175,0.9395576,-0.10375714,-0.32629123,0.09938445,0.994594,-0.030092195,0.32764956,-0.004154924,0.9447902,9.691727,-0.22026062,1.2785034,9.71611,-0.13720703,1.3208466,-0.0010681152,-0.024505615,-0.0095825195,-26.92566,16.828918,-11.378479,0,0.0,0.0,0.0,0.0
0.067108155,0.116176575,-0.4220315,-0.89910644,0.06939905,0.906473,-0.41652197,0.9908011,-0.0140070375,0.1345995,0.9314568,-0.11035175,-0.34671423,0.104945906,0.9938831,-0.034391902,0.34838858,-0.004351663,0.9373401,9.706085,-0.17237854,1.043869,9.716263,-0.13735962,1.3199463,0.004257202,-0.008529663,-0.0010681152,-26.92566,16.828918,-11.378479,0,0.0,0.0,0.0,0.0
0.071990967,0.11124904,-0.482923,-0.8685673,0.07717628,0.8755514,-0.47692117,0.9907914,-0.01397578,0.13467443,0.9230463,-0.116812535,-0.3665246,0.11025431,0.99314356,-0.038856275,0.36855045,-0.004544777,0.92959666,9.662994,-0.15800476,1.2545471,9.716263,-0.13705444,1.320694,-0.0053100586,0.0,-0.013839722,-25.849915,15.753174,-12.069702,0,0.0,0.0,0.0,0.0
0.076904297,0.11140069,-0.48273802,-0.8686506,0.07715841,0.87565416,-0.47673494,0.99077564,-0.0139150955,0.13479578,0.9141995,-0.12449503,-0.38566858,0.116558634,0.9922089,-0.043994334,0.3881409,-0.0047334037,0.9215879,9.691727,-0.1197052,1.3024445,9.71611,-0.13645935,1.3218842,-0.0010681152,0.026611328,-0.0095825195,-25.849915,15.753174,-12.069702,0,0.0,0.0,0.0,0.0
0.081817627,0.111595,-0.48250097,-0.86875737,0.07710389,0.8757866,-0.47650066,0.99075806,-0.013809478,0.13493611,0.9050927,-0.13201244,-0.4042028,0.1225597,0.99123585,-0.049300943,0.40716863,-0.0049170437,0.9133398,9.691727,-0.11491394,1.4029999,9.715805,-0.13542175,1.3232422,-0.008514404,0.028747559,-0.013839722,-25.849915,15.753174,-12.069702,0,0.0,0.0,0.0,0.0
0.08670044,0.11905653,-0.38978812,-0.9131762,0.06523993,0.9208013,-0.38453716,0.99074185,-0.013793887,0.13505717,0.89575493,-0.13936675,-0.4221373,0.12826046,0.9902277,-0.054756746,0.4256433,-0.005094899,0.90487665,9.629471,-0.17237854,1.3263855,9.715668,-0.13526917,1.3244324,0.012786865,0.023422241,-0.022369385,-25.132751,18.980408,-11.378479,0,0.0,0.0,0.0,0.0
0.09161377,0.119047776,-0.38979793,-0.91317314,0.065221086,0.9207974,-0.38454974,0.9907442,-0.013778359,0.13504192,0.8864862,-0.14452611,-0.43960717,0.13184363,0.98948693,-0.0594375,0.44357583,-0.0052688844,0.89622134,9.773117,-0.09576416,1.3982086,9.715668,-0.13511658,1.3242798,-0.0021362305,0.03086853,-0.0053253174,-25.132751,18.980408,-11.378479,0,0.0,0.0,0.0,0.0
0.096496582,0.11908491,-0.38975647,-0.913186,0.06521332,0.9208151,-0.38450843,0.9907401,-0.013762743,0.13507248,0.8864862,-0.14452611,-0.43960717,0.13184363,0.98948693,-0.0594375,0.44357583,-0.0052688844,0.89622134,9.773117,-0.09576416,1.3982086,9.715668,-0.13496399,1.324585,-0.0021362305,0.03086853,-0.0053253174,-25.132751,18.980408,-11.378479,0,0.0,0.0,0.0,0.0
0.101409912,0.12117014,-0.3602428,-0.9249556,0.06146521,0.93275625,-0.35522893,0.9907268,-0.013809455,0.1351646,0.86746496,-0.15452464,-0.4728918,0.13838764,0.987973,-0.06897931,0.47786337,-0.0056052515,0.87841624,9.696503,-0.22505188,1.2497711,9.715515,-0.13542175,1.3254852,0.007461548,0.01914978,-0.0021209717,-27.28424,18.263245,-10.687256,0,0.0,0.0,0.0,0.0
0.106292725,0.12114097,-0.36028007,-0.92494494,0.061491005,0.9327416,-0.35526347,0.990729,-0.01383883,0.13514721,0.86746496,-0.15452464,-0.4728918,0.13838764,0.987973,-0.06897931,0.47786337,-0.0056052515,0.87841624,9.696503,-0.22505188,1.2497711,9.715668,-0.13571167,1.3253326,0.007461548,0.01914978,-0.0021209717,-27.28424,18.263245,-10.687256,0,0.0,0.0,0.0,0.0
0.111206055,0.12111932,-0.36030778,-0.924937,0.061503537,0.9327306,-0.35528997,0.99073076,-0.013854416,0.1351319,0.84812057,-0.16286993,-0.50414765,0.14307192,0.9866297,-0.07805266,0.51011956,-0.0059313118,0.86008304,9.758759,-0.16279602,1.2976532,9.715668,-0.13586426,1.32518,0.0063934326,0.014892578,-0.004257202,-27.28424,18.263245,-10.687256,0,0.0,0.0,0.0,0.0
0.116088867,0.11596004,-0.4337283,-0.8935508,0.0710775,0.90093696,-0.4280895,0.99070746,-0.013870085,0.13530101,0.83885777,-0.1677641,-0.5178541,0.14566086,0.98581207,-0.083411746,0.5245003,-0.0054604867,0.85139275,9.662994,-0.08139038,1.2976532,9.715363,-0.13601685,1.326828,0.014907837,0.018096924,0.0063934326,-26.747131,16.648865,-11.552429,0,0.0,0.0,0.0,0.0
0.121002197,0.1161054,-0.4335438,-0.8936214,0.07106505,0.9010264,-0.4279031,0.9906913,-0.013823397,0.13542385,0.8287465,-0.17328396,-0.5321202,0.14889984,0.98485583,-0.088813566,0.53945166,-0.005628684,0.84199774,9.720444,-0.02394104,1.2785034,9.71521,-0.13555908,1.3280334,0.010650635,0.04046631,0.010650635,-26.747131,16.648865,-11.552429,0,0.0,0.0,0.0,0.0
0.125640869,0.11620418,-0.4334184,-0.8936695,0.071108565,0.9010866,-0.42776933,0.99067664,-0.013838969,0.13552979,0.8185788,-0.17868412,-0.54589444,0.15192334,0.9838895,-0.09423835,0.5539386,-0.005792584,0.83253735,9.658203,-0.05265808,1.206665,9.715057,-0.13571167,1.329071,0.0053253174,0.03514099,-0.0010681152,-26.747131,16.648865,-11.552429,0,0.0,0.0,0.0,0.0
0.130126953,0.11623488,-0.43538737,-0.89270777,0.07143511,0.90013695,-0.42970952,0.9906495,-0.013823444,0.13572928,0.80836993,-0.18396829,-0.5591902,0.15473974,0.98291415,-0.09967643,0.56797326,-0.005953517,0.8230255,9.696503,-0.09576416,1.4029999,9.714767,-0.13555908,1.3310242,0.004257202,0.03514099,0.008529663,-26.38855,15.931702,-11.206055,0,0.0,0.0,0.0,0.0
0.134338379,0.11635749,-0.43522784,-0.89276963,0.0715358,0.90021324,-0.4295331,0.9906278,-0.013885597,0.13588093,0.79812855,-0.18918455,-0.5720141,0.15739274,0.98192257,-0.1051459,0.5815655,-0.0061109206,0.8134766,9.682144,-0.1484375,1.364685,9.714615,-0.13616943,1.3325195,-0.0021362305,0.038330078,0.0,-26.38855,15.931702,-11.206055,0,0.0,0.0,0.0,0.0
0.138549805,0.11640168,-0.43517032,-0.8927919,0.07151313,0.9002416,-0.42947763,0.99062437,-0.013854429,0.13591002,0.7878748,-0.19428782,-0.5843847,0.15985051,0.98092455,-0.11061119,0.5947277,-0.0062664193,0.8039028,9.648621,-0.08139038,1.4365082,9.714615,-0.13586426,1.3328094,-0.010635376,0.03300476,0.009597778,-26.38855,15.931702,-11.206055,0,0.0,0.0,0.0,0.0
0.142761231,0.11818419,-0.4134763,-0.9028122,0.06885005,0.910408,-0.40794215,0.9906019,-0.013946353,0.1360637,0.77762014,-0.19928266,-0.5963164,0.16212031,0.979921,-0.11606799,0.6074733,-0.0064181844,0.7943141,9.658203,-0.27772522,1.4077759,9.71431,-0.13676453,1.3343048,-0.0053100586,0.022354126,-0.008514404,-26.92566,17.904663,-11.7248535,0,0.0,0.0,0.0,0.0
0.146972656,0.118343696,-0.4132812,-0.9028806,0.06883925,0.91049737,-0.40774468,0.99058366,-0.013899614,0.13620159,0.76745605,-0.20370345,-0.6078784,0.16384381,0.97901064,-0.121216536,0.61981165,-0.0065687527,0.78472316,9.715668,0.009567261,1.4029999,9.714172,-0.13630676,1.3356628,0.008514404,0.026611328,0.007461548,-26.92566,17.904663,-11.7248535,0,0.0,0.0,0.0,0.0
0.151184082,0.118388206,-0.41322675,-0.9028997,0.06885033,0.91052216,-0.40768763,0.99057764,-0.01389953,0.13624589,0.7573157,-0.20802757,-0.6190294,0.16540745,0.9780999,-0.1263366,0.6317541,-0.0067153745,0.77513975,9.629471,-0.10533142,1.4317322,9.714172,-0.13630676,1.3361053,0.0010681152,0.026611328,0.004272461,-26.92566,17.904663,-11.7248535,0,0.0,0.0,0.0,0.0
0.155395508,0.11496361,-0.4573961,-0.8818006,0.074591115,0.889155,-0.4514861,0.99056524,-0.013870011,0.13633813,0.74720746,-0.21226011,-0.6297831,0.16682017,0.9771891,-0.13142462,0.64331335,-0.006859062,0.76557225,9.758759,-0.09576416,1.613678,9.71402,-0.13601685,1.3370056,0.0053253174,0.0053253174,0.0138549805,-27.464294,17.366028,-12.588501,0,0.0,0.0,0.0,0.0
0.159606934,0.115047716,-0.45729363,-0.8818428,0.07459927,0.889208,-0.45138058,0.990555,-0.013854525,0.13641511,0.73697555,-0.21736225,-0.64001614,0.16881205,0.97606593,-0.13710515,0.6544994,-0.006999285,0.7560301,9.739609,-0.07661438,1.5418549,9.713867,-0.13586426,1.3377533,-0.0053100586,0.0010681152,0.0032043457,-27.464294,17.366028,-12.588501,0,0.0,0.0,0.0,0.0
0.16381836,0.11489533,-0.4574792,-0.8817663,0.07462083,0.8891114,-0.4515668,0.9905709,-0.013915214,0.13629223,0.72679454,-0.22235432,-0.64986783,0.17062993,0.9749398,-0.14275081,0.6653233,-0.0071363943,0.74652123,9.792282,-0.22505188,1.2832794,9.71402,-0.13645935,1.3365479,0.0010681152,-0.010650635,0.009597778,-27.464294,17.366028,-12.588501,0,0.0,0.0,0.0,0.0
0.168029785,0.11547615,-0.45091465,-0.88506573,0.07380638,0.89245844,-0.44505137,0.99056447,-0.013930683,0.13633803,0.7166686,-0.22724494,-0.6593526,0.1722858,0.9738105,-0.14836022,0.67579854,-0.007271975,0.7370505,9.753967,-0.1819458,1.450882,9.71402,-0.13661194,1.3370056,0.0021362305,-0.022369385,0.0063934326,-26.029968,17.366028,-12.243652,0,0.0,0.0,0.0,0.0
0.172241211,0.1153547,-0.45105672,-0.88500905,0.073769614,0.89238656,-0.4452014,0.99058133,-0.013930702,0.13621528,0.7066341,-0.23188883,-0.6685026,0.17367898,0.9727141,-0.15382743,0.68593276,-0.0074051535,0.72762716,9.619888,-0.1197052,1.2210388,9.714172,-0.13661194,1.3358002,0.0053253174,-0.022369385,0.0,-26.029968,17.366028,-12.243652,0,0.0,0.0,0.0,0.0
0.176452637,0.115377545,-0.45103005,-0.8850198,0.073759235,0.8924003,-0.44517562,0.9905794,-0.013915115,0.13623057,0.6966694,-0.23643781,-0.67731,0.17492671,0.9716174,-0.15924905,0.69573873,-0.007535668,0.7182554,9.730026,-0.10055542,1.3742676,9.714172,-0.13645935,1.3359528,-0.015960693,-0.017044067,-0.003189087,-26.029968,17.366028,-12.243652,0,0.0,0.0,0.0,0.0
0.180664063,0.11044544,-0.50544643,-0.85576034,0.080648854,0.8627462,-0.49916393,0.9906046,-0.013885708,0.13605006,0.68596613,-0.24031828,-0.68680245,0.17562993,0.97066146,-0.16422701,0.70611936,-0.00796889,0.708048,9.682144,-0.04788208,1.206665,9.71431,-0.13616943,1.3341675,-0.009567261,-0.019180298,-0.003189087,-25.671387,16.290283,-12.9348755,0,0.0,0.0,0.0,0.0
0.184875488,0.110416636,-0.5054793,-0.85574454,0.080602184,0.86272746,-0.49920392,0.9906117,-0.013854469,0.13600221,0.68596613,-0.24031828,-0.68680245,0.17562993,0.97066146,-0.16422701,0.70611936,-0.00796889,0.708048,9.682144,-0.04788208,1.206665,9.714462,-0.13586426,1.3337097,-0.009567261,-0.019180298,-0.003189087,-25.671387,16.290283,-12.9348755,0,0.0,0.0,0.0,0.0
0.189086914,0.1102638,-0.5056539,-0.85566115,0.080527104,0.86262536,-0.4993924,0.99063474,-0.013839015,0.1358352,0.66601866,-0.251345,-0.70231396,0.17909525,0.96786284,-0.1765403,0.7241161,-0.008201965,0.6896294,9.639053,-0.1197052,1.2449799,9.714615,-0.13571167,1.3320618,-0.0053100586,-0.009597778,-0.0021209717,-25.671387,16.290283,-12.9348755,0,0.0,0.0,0.0,0.0
0.19329834,0.11387816,-0.4658445,-0.8775083,0.075403646,0.88475907,-0.45990828,0.990629,-0.013793811,0.1358811,0.65618354,-0.25668576,-0.7096023,0.18058184,0.9664591,-0.18261138,0.73267543,-0.008314709,0.6805274,9.667786,-0.02394104,1.4221497,9.714615,-0.13526917,1.3325195,0.0,-0.029830933,-0.0010681152,-26.567078,17.546082,-12.762451,0,0.0,0.0,0.0,0.0
0.197509766,0.11374937,-0.46599394,-0.8774455,0.07541254,0.88467956,-0.46005955,0.99064314,-0.013838914,0.13577354,0.6466159,-0.2610327,-0.7167634,0.18132304,0.9652932,-0.18796541,0.74095196,-0.008424294,0.67150515,9.682144,-0.15322876,1.3982086,9.714767,-0.13571167,1.3314667,0.003189087,-0.019180298,0.007461548,-26.567078,17.546082,-12.762451,0,0.0,0.0,0.0,0.0
0.201721192,0.11376441,-0.46597654,-0.8774529,0.07541738,0.8846889,-0.46004117,0.9906412,-0.013838887,0.13578883,0.6371494,-0.26529083,-0.72364455,0.18194672,0.9641307,-0.1932548,0.7489566,-0.00853259,0.66256404,9.643829,-0.12927246,1.3838348,9.714767,-0.13571167,1.3316193,-0.003189087,-0.028762817,0.0063934326,-26.567078,17.546082,-12.762451,0,0.0,0.0,0.0,0.0
0.205932617,0.117899,-0.41470104,-0.90228754,0.068804726,0.90985245,-0.40918747,0.99063903,-0.013838857,0.13580409,0.62779015,-0.26945838,-0.7302546,0.18245594,0.9629733,-0.19847487,0.75669634,-0.008638719,0.6537094,9.720444,-0.13885498,1.3790588,9.714767,-0.13571167,1.3317719,0.004257202,-0.015975952,-0.01171875,-25.491333,18.263245,-11.7248535,0,0.0,0.0,0.0,0.0
0.210144043,0.11792994,-0.41466567,-0.90229976,0.06881314,0.90986854,-0.40915018,0.99063474,-0.013839015,0.1358352,0.6187497,-0.27243856,-0.7368352,0.18214965,0.96213347,-0.20278239,0.76417947,-0.008742724,0.6449444,9.710876,-0.14364624,1.3838348,9.714615,-0.13571167,1.3320618,-0.0010681152,-0.015975952,-0.003189087,-25.491333,18.263245,-11.7248535,0,0.0,0.0,0.0,0.0
0.214355469,0.11787553,-0.41472787,-0.9022783,0.0687816,0.9098404,-0.40921798,0.9906434,-0.013823357,0.13577357,0.60981846,-0.27535585,-0.74316937,0.18177432,0.9613017,-0.20701972,0.77141404,-0.008844652,0.63627213,9.749176,-0.10533142,1.2114563,9.714767,-0.13555908,1.3314667,0.0,-0.009597778,-0.007446289,-25.491333,18.263245,-11.7248535,0,0.0,0.0,0.0,0.0
0.218566895,0.116984814,-0.42598337,-0.89713585,0.07015906,0.9046263,-0.4203914,0.99065244,-0.0137628,0.13571413,0.60099655,-0.27821362,-0.74926645,0.18133448,0.96047753,-0.21118858,0.77840924,-0.008944229,0.6276935,9.758759,0.0143585205,1.1875153,9.714767,-0.13496399,1.3308716,0.024505615,-0.0021362305,0.0021362305,-25.312805,16.648865,-11.206055,0,0.0,0.0,0.0,0.0
0.222778321,0.11702111,-0.4259391,-0.8971521,0.07015165,0.9046474,-0.42034733,0.9906487,-0.013747188,0.13574317,0.59224176,-0.28124994,-0.7550816,0.18097942,0.959592,-0.21547556,0.78517264,-0.009040603,0.61921084,9.615112,-0.11012268,1.4029999,9.714767,-0.1348114,1.3311615,0.004257202,0.012771606,0.014923096,-25.312805,16.648865,-11.206055,0,0.0,0.0,0.0,0.0
0.226989746,0.11709606,-0.42584783,-0.89718574,0.07013913,0.90469086,-0.42025593,0.9906407,-0.0137175135,0.13580433,0.5836028,-0.28422183,-0.7606745,0.18055911,0.958715,-0.21969047,0.7917109,-0.009134738,0.6108276,9.76355,-0.05265808,1.498764,9.714767,-0.13452148,1.3317719,-0.013839722,-0.007461548,0.0063934326,-25.312805,16.648865,-11.206055,0,0.0,0.0,0.0,0.0
0.231201172,0.11705972,-0.42589208,-0.8971694,0.07017888,0.9046692,-0.4202956,0.99064213,-0.0137626575,0.13578896,0.575082,-0.2871297,-0.7660531,0.18007681,0.9578473,-0.2238324,0.79803073,-0.009226394,0.60254616,9.682144,-0.25378418,1.2832794,9.714767,-0.13496399,1.3316193,-0.012771606,-0.010650635,0.0053253174,-25.312805,16.648865,-11.206055,0,0.0,0.0,0.0,0.0
0.235412598,0.11703717,-0.42591956,-0.89715934,0.07018994,0.9046561,-0.4203221,0.99064404,-0.013778243,0.13577366,0.5666782,-0.2899778,-0.7712255,0.17953867,0.95698804,-0.22790302,0.8041404,-0.0093171215,0.5943665,9.82579,-0.15322876,1.3024445,9.714767,-0.13511658,1.3314667,-0.011703491,-0.0138549805,0.01171875,-25.312805,16.648865,-11.206055,0,0.0,0.0,0.0,0.0
0.239624024,0.11699283,-0.42597356,-0.89713943,0.0701782,0.90463066,-0.42037877,0.9906501,-0.013778328,0.13572937,0.55839264,-0.29276702,-0.7761992,0.1789476,0.9561376,-0.23190248,0.8100466,-0.009406347,0.5862901,9.768341,-0.17237854,1.2353973,9.714767,-0.13511658,1.3310242,-0.0053100586,-0.014923096,-0.0053253174,-25.312805,16.648865,-11.206055,0,0.0,0.0,0.0,0.0
0.243835449,0.11285339,-0.47560924,-0.87238747,0.07657841,0.87954825,-0.46960685,0.99065626,-0.013809317,0.1356814,0.5502254,-0.29549915,-0.7809816,0.17830682,0.95529586,-0.23583163,0.8157565,-0.009493788,0.5783176,9.639053,-0.18673706,1.206665,9.71492,-0.13542175,1.3305664,0.0053253174,0.0095825195,0.0021362305,-26.567078,16.470337,-12.416077,0,0.0,0.0,0.0,0.0
0.248046875,0.112916894,-0.47553223,-0.8724212,0.0765642,0.87959033,-0.46953025,0.9906501,-0.013778328,0.13572937,0.5417502,-0.30030677,-0.78506213,0.17799139,0.9538038,-0.24202777,0.8214778,-0.008615703,0.5701754,9.653412,-0.07182312,1.4412994,9.714767,-0.13511658,1.3310242,0.022369385,-0.0053253174,-0.0021209717,-26.567078,16.470337,-12.416077,0,0.0,0.0,0.0,0.0
0.252258301,0.11297749,-0.4754588,-0.8724534,0.07651553,0.87963086,-0.469462,0.9906469,-0.0137176,0.13575849,0.53363806,-0.3039401,-0.789209,0.17782256,0.9526512,-0.246647,0.82680684,-0.008718957,0.56241834,9.7348175,0.0143585205,1.3982086,9.714767,-0.13452148,1.3313141,-0.012771606,0.0063934326,-0.0010681152,-26.567078,16.470337,-12.416077,0,0.0,0.0,0.0,0.0
0.256469727,0.11656035,-0.43164432,-0.89448136,0.07084939,0.9019396,-0.42601097,0.99065334,-0.0137174735,0.13571212,0.525652,-0.3074949,-0.7931814,0.17758352,0.9515089,-0.25118712,0.831958,-0.008818933,0.55476856,9.672562,-0.13406372,1.1923065,9.71492,-0.13452148,1.3308716,0.0095825195,0.0,0.008529663,-25.671387,17.007446,-11.552429,0,0.0,0.0,0.0,0.0
0.260681153,0.11650798,-0.4317073,-0.89445776,0.070850424,0.9019092,-0.42607504,0.9906594,-0.013731562,0.13566628,0.5179644,-0.31003955,-0.797238,0.17677036,0.95068187,-0.25486523,0.83693796,-0.008916906,0.5472252,9.706085,-0.1484375,1.2162476,9.71492,-0.13465881,1.3304138,0.004257202,0.003189087,-0.01171875,-25.671387,17.007446,-11.552429,0,0.0,0.0,0.0,0.0
0.264892578,0.116492994,-0.4317253,-0.894451,0.07081388,0.9019011,-0.42609847,0.9906639,-0.013702059,0.13563731,0.5103961,-0.31253245,-0.80113626,0.1759222,0.9498643,-0.25847465,0.84175247,-0.009013202,0.5397884,9.730026,-0.07182312,1.2641296,9.71492,-0.1343689,1.3301239,0.0053253174,-0.007461548,0.0138549805,-25.671387,17.007446,-11.552429,0,0.0,0.0,0.0,0.0
0.269226074,0.11770777,-0.41670278,-0.9013899,0.06892902,0.90893906,-0.4111916,0.99065316,-0.013731474,0.13571209,0.5029475,-0.3149738,-0.80488217,0.17504066,0.9490566,-0.26201564,0.8464068,-0.009106982,0.5324589,9.7444,-0.21546936,1.5370636,9.71492,-0.13465881,1.3308716,0.0,-0.0021362305,0.0,-25.132751,18.263245,-11.7248535,0,0.0,0.0,0.0,0.0
0.273559571,0.11767733,-0.41673696,-0.901378,0.06892081,0.9089233,-0.4112276,0.99065727,-0.013731532,0.13568154,0.4956775,-0.31704965,-0.8085687,0.17396505,0.9483644,-0.2652193,0.8509054,-0.009199474,0.5252384,9.715668,-0.12449646,1.2641296,9.71492,-0.13465881,1.3305664,-0.0042419434,-0.0053253174,0.004272461,-25.132751,18.263245,-11.7248535,0,0.0,0.0,0.0,0.0
0.277923584,0.11769256,-0.41671988,-0.901384,0.068924926,0.9089314,-0.41120967,0.9906553,-0.013731505,0.13569683,0.4885241,-0.31908315,-0.8121146,0.17286956,0.9476812,-0.2683589,0.85525453,-0.009290117,0.5181249,9.629471,-0.15800476,1.3359528,9.71492,-0.13465881,1.330719,-0.0010681152,0.0021209717,-0.004257202,-25.132751,18.263245,-11.7248535,0,0.0,0.0,0.0,0.0
0.282562256,0.1172481,-0.42183608,-0.89905906,0.06956222,0.9065681,-0.41628754,0.99066335,-0.013731616,0.13563725,0.4814877,-0.3210742,-0.81552494,0.17175585,0.9470076,-0.27143422,0.85945886,-0.009378946,0.5111189,9.667786,-0.14364624,1.1635742,9.71492,-0.13465881,1.3301239,0.017044067,-0.01171875,-0.01171875,-24.954224,19.158936,-12.243652,0,0.0,0.0,0.0,0.0
0.28717041,0.11724646,-0.42183784,-0.89905834,0.06952948,0.90656763,-0.41629383,0.9906659,-0.013702087,0.13562204,0.47454703,-0.32313073,-0.81877446,0.17067914,0.94630694,-0.27453908,0.863524,-0.009466002,0.5042189,9.639053,-0.05265808,1.2880707,9.71492,-0.1343689,1.3299713,-0.0010681152,0.015960693,-0.0010681152,-24.954224,19.158936,-12.243652,0,0.0,0.0,0.0,0.0
0.291809082,0.11720088,-0.42188647,-0.8990416,0.069516264,0.90654504,-0.4163453,0.9906722,-0.01370198,0.13557585,0.46772218,-0.3251447,-0.8218983,0.1695849,0.94561607,-0.27758104,0.86745423,-0.009550725,0.49742526,9.739609,-0.12927246,1.2401886,9.715057,-0.1343689,1.3295288,0.008514404,0.015960693,-0.0021209717,-24.954224,19.158936,-12.243652,0,0.0,0.0,0.0,0.0
0.296844483,0.1164022,-0.43244472,-0.8941152,0.0709076,0.9015561,-0.4268123,0.9906678,-0.013717675,0.13560674,0.46101135,-0.32711795,-0.8249014,0.16847576,0.94493437,-0.28056175,0.8712545,-0.0096337525,0.4907369,9.7827,-0.1819458,1.4173584,9.71492,-0.13452148,1.3298187,0.004257202,0.01914978,0.008529663,-26.208496,17.1875,-11.7248535,0,0.0,0.0,0.0,0.0
0.301910401,0.11644133,-0.43239725,-0.89413315,0.07093364,0.90157866,-0.4267603,0.99066126,-0.013731587,0.13565251,0.4543759,-0.3292709,-0.82772166,0.16745976,0.9441855,-0.28367403,0.8749284,-0.009715433,0.48415476,9.691727,-0.05265808,1.206665,9.71492,-0.13465881,1.3302765,0.003189087,0.02128601,0.008529663,-26.208496,17.1875,-11.7248535,0,0.0,0.0,0.0,0.0
0.306976319,0.116432704,-0.4324077,-0.89412916,0.07091592,0.90157384,-0.42677343,0.99066365,-0.013717616,0.13563728,0.4478557,-0.3313781,-0.8304299,0.16642685,0.9434472,-0.286722,0.87848014,-0.009795759,0.47767842,9.758759,-0.10533142,1.3120117,9.71492,-0.13452148,1.3301239,-0.010635376,0.02128601,0.008529663,-26.208496,17.1875,-11.7248535,0,0.0,0.0,0.0,0.0
0.312011719,0.11465188,-0.45446816,-0.8833536,0.07376033,0.89065737,-0.44865233,0.99066365,-0.013717616,0.13563728,0.44144842,-0.33344176,-0.8330305,0.1653786,0.942719,-0.2897082,0.8819145,-0.009874199,0.47130597,9.753967,-0.12927246,1.3215942,9.71492,-0.13452148,1.3301239,0.018112183,0.0095825195,0.009597778,-26.029968,15.214539,-11.206055,0,0.0,0.0,0.0,0.0
0.317077637,0.11473463,-0.45435977,-0.88339865,0.07386859,0.8907114,-0.448527,0.9906459,-0.01379383,0.13575836,0.43594715,-0.33611867,-0.8348499,0.16558121,0.9417596,-0.29269734,0.88460886,-0.010634883,0.46621233,9.739609,-0.2106781,1.3790588,9.714767,-0.13526917,1.3313141,-0.0021362305,0.020217896,0.010650635,-26.029968,15.214539,-11.206055,0,0.0,0.0,0.0,0.0
0.322113037,0.11476523,-0.45431978,-0.88341534,0.073877215,0.89073193,-0.44848508,0.9906417,-0.013793771,0.1357889,0.42967,-0.33854496,-0.83712065,0.16469607,0.9408894,-0.29597694,0.8878395,-0.010698063,0.46002898,9.76355,-0.12927246,1.4317322,9.714767,-0.13526917,1.3316193,0.0,0.023422241,0.010650635,-26.029968,15.214539,-11.206055,0,0.0,0.0,0.0,0.0
0.327178955,0.11553465,-0.44502592,-0.88803357,0.07266511,0.8954116,-0.43926948,0.99064195,-0.013778214,0.13578893,0.42350593,-0.3409197,-0.83929527,0.16379064,0.9400309,-0.29918998,0.8909632,-0.010759979,0.45394808,9.844955,-0.09576416,1.364685,9.714767,-0.13511658,1.3316193,-0.0042419434,0.01914978,0.0053253174,-26.567078,17.1875,-12.069702,0,0.0,0.0,0.0,0.0
0.332244873,0.11558069,-0.44497016,-0.88805556,0.072678596,0.8954394,-0.43921077,0.99063563,-0.013778343,0.13583532,0.41748697,-0.34304935,-0.8414403,0.1627799,0.9392551,-0.30216327,0.89398396,-0.010820344,0.44796827,9.639053,-0.15800476,1.4317322,9.714615,-0.13511658,1.3320618,0.0010681152,0.007446289,0.004272461,-26.567078,17.1875,-12.069702,0,0.0,0.0,0.0,0.0
0.337127686,0.11556507,-0.44498906,-0.8880481,0.07263947,0.8954305,-0.43923545,0.99064034,-0.013747073,0.13580427,0.41157767,-0.34513354,-0.8434967,0.1617567,0.9384905,-0.30507424,0.896905,-0.010879506,0.4420894,9.749176,-0.0335083,1.2641296,9.714767,-0.1348114,1.3317719,-0.008514404,0.0010681152,0.009597778,-26.567078,17.1875,-12.069702,0,0.0,0.0,0.0,0.0
0.34161377,0.11921562,-0.3976749,-0.90974855,0.06650363,0.9174238,-0.39231512,0.9906387,-0.01373149,0.13581805,0.40577516,-0.34717482,-0.8454681,0.16072224,0.9377367,-0.30792585,0.8997305,-0.010936858,0.43630895,9.643829,-0.10533142,1.340744,9.714767,-0.13465881,1.3319092,-0.006378174,-0.0053253174,0.009597778,-24.954224,17.366028,-10.861206,0,0.0,0.0,0.0,0.0
0.345947266,0.119257,-0.39762548,-0.9097645,0.066530444,0.9174447,-0.39226103,0.9906319,-0.013747171,0.13586593,0.40024543,-0.34819546,-0.8476812,0.15926069,0.9373574,-0.30983377,0.9024631,-0.0109927505,0.43062693,9.667786,-0.15322876,1.4556732,9.714615,-0.1348114,1.332367,0.0063934326,-0.018112183,0.012786865,-24.954224,17.366028,-10.861206,0,0.0,0.0,0.0,0.0
0.350280762,0.11922166,-0.39766765,-0.9097509,0.06648995,0.91742706,-0.3923096,0.9906389,-0.013717488,0.13581808,0.39481533,-0.34919435,-0.84981424,0.15781116,0.9369852,-0.31169596,0.90510577,-0.01104784,0.42504284,9.653412,-0.0909729,1.2162476,9.714767,-0.13452148,1.3319092,0.010650635,0.0,0.019165039,-24.954224,17.366028,-10.861206,0,0.0,0.0,0.0,0.0
0.354614258,0.11195804,-0.48761612,-0.86584985,0.07813855,0.8729499,-0.48151097,0.990636,-0.013747228,0.13583538,0.38948163,-0.35017368,-0.85187,0.15637349,0.936619,-0.3135158,0.9076626,-0.011101234,0.41955376,9.643829,-0.20111084,1.3598938,9.714615,-0.1348114,1.3320618,0.0021362305,0.010650635,0.009597778,-25.849915,16.111755,-12.416077,0,0.0,0.0,0.0,0.0
0.358947754,0.11194961,-0.48762614,-0.8658453,0.07815331,0.8729441,-0.4815192,0.9906359,-0.013762786,0.13583535,0.38393226,-0.35301223,-0.85321647,0.15572041,0.9355522,-0.31700665,0.9101358,-0.011154154,0.41415986,9.615112,-0.16758728,1.3072205,9.714615,-0.13496399,1.3320618,-0.003189087,-0.004272461,0.017028809,-25.849915,16.111755,-12.416077,0,0.0,0.0,0.0,0.0
0.36328125,0.11188094,-0.4877078,-0.8658082,0.07814719,0.8728982,-0.4816033,0.99064404,-0.013778243,0.13577366,0.37848797,-0.35579112,-0.8544938,0.1550444,0.93449837,-0.32042804,0.91252846,-0.011206328,0.4088598,9.686935,-0.16279602,1.1970978,9.714767,-0.13511658,1.3314667,-0.0021362305,0.008514404,0.0032043457,-25.849915,16.111755,-12.416077,0,0.0,0.0,0.0,0.0
0.367614746,0.117502905,-0.42077407,-0.8995234,0.069521956,0.9070613,-0.4152186,0.990636,-0.013747228,0.13583538,0.37314576,-0.35851312,-0.8557047,0.15434754,0.93345684,-0.32378268,0.91484374,-0.011257768,0.4036511,9.60553,-0.0909729,1.4604492,9.714615,-0.1348114,1.3320618,0.004257202,-0.0010681152,0.007461548,-26.92566,17.546082,-11.7248535,0,0.0,0.0,0.0,0.0
0.371948242,0.11751008,-0.42076522,-0.89952654,0.06950682,0.9070656,-0.41521165,0.9906362,-0.0137316715,0.13583541,0.3681376,-0.35977542,-0.85734266,0.15307756,0.9329704,-0.32578135,0.9170834,-0.011307557,0.398535,9.792282,-0.07182312,1.340744,9.714615,-0.13465881,1.3320618,0.012786865,0.010650635,0.0021362305,-26.92566,17.546082,-11.7248535,0,0.0,0.0,0.0,0.0
0.376281738,0.117539026,-0.42072937,-0.8995395,0.069481954,0.9070827,-0.41517854,0.99063456,-0.013702084,0.13585073,0.36322245,-0.36101168,-0.8589179,0.15181533,0.93249214,-0.32773542,0.9192505,-0.01135604,0.39350918,9.672562,-0.05265808,1.3598938,9.714615,-0.1343689,1.3322144,0.0021362305,0.0053253174,0.0053253174,-26.92566,17.546082,-11.7248535,0,0.0,0.0,0.0,0.0
0.380615235,0.11960382,-0.392864,-0.9117855,0.06586422,0.9194945,-0.38754582,0.99063456,-0.013702084,0.13585073,0.35839942,-0.36222184,-0.8604331,0.15056099,0.93202215,-0.32964537,0.9213475,-0.011402962,0.38857266,9.706085,-0.14364624,1.3598938,9.714615,-0.1343689,1.3322144,0.0010681152,0.018096924,0.012786865,-26.029968,18.08319,-11.206055,0,0.0,0.0,0.0,0.0
0.384948731,0.119632475,-0.39282957,-0.91179657,0.06583733,0.9195097,-0.3875144,0.99063295,-0.013670943,0.13586608,0.3538978,-0.36336148,-0.8618148,0.1494521,0.931577,-0.3314035,0.9232661,-0.0115170665,0.3839882,9.682144,-0.04788208,1.3598938,9.714615,-0.13406372,1.332367,0.007461548,0.004257202,0.004272461,-26.029968,18.08319,-11.206055,0,0.0,0.0,0.0,0.0
0.389282227,0.11959506,-0.39287454,-0.91178215,0.06584547,0.9194903,-0.38755918,0.9906369,-0.013686556,0.1358355,0.3493403,-0.36395457,-0.8634225,0.14800082,0.931345,-0.33270454,0.92523354,-0.011560145,0.3792219,9.7827,-0.1771698,1.2641296,9.714615,-0.13421631,1.3320618,0.0053253174,-0.0063934326,0.007461548,-26.029968,18.08319,-11.206055,0,0.0,0.0,0.0,0.0
0.393615723,0.106348544,-0.5465743,-0.8306303,0.08563388,0.8372986,-0.5399982,0.99063456,-0.013702084,0.13585073,0.34486598,-0.36453655,-0.8649743,0.14656973,0.9311168,-0.3339743,0.927138,-0.011602672,0.37454054,9.710876,-0.20111084,1.3838348,9.714615,-0.1343689,1.3322144,0.010650635,0.0053253174,0.0032043457,-26.38855,15.57312,-13.626099,0,0.0,0.0,0.0,0.0
0.397949219,0.10637261,-0.54654664,-0.8306453,0.08562575,0.8373168,-0.5399711,0.9906327,-0.0136865,0.13586605,0.33996576,-0.368354,-0.86529684,0.14634635,0.92961264,-0.33823514,0.9289812,-0.0116446605,0.36994374,9.811432,-0.07661438,1.3886261,9.714615,-0.13421631,1.332367,-0.0010681152,0.0095825195,-0.0010681152,-26.38855,15.57312,-13.626099,0,0.0,0.0,0.0,0.0
0.402282715,0.10639668,-0.54651904,-0.8306604,0.085617624,0.8373351,-0.53994405,0.9906308,-0.013670912,0.13588133,0.3351634,-0.37208843,-0.86557245,0.14608708,0.92812365,-0.34241045,0.9307653,-0.011685497,0.3654304,9.801849,-0.12449646,1.3694763,9.714615,-0.13406372,1.3325195,0.0095825195,0.015960693,0.0010681152,-26.38855,15.57312,-13.626099,0,0.0,0.0,0.0,0.0
0.406616211,0.115211196,-0.45058176,-0.88526964,0.07332809,0.8926304,-0.44478512,0.9906308,-0.013670912,0.13588133,0.33045724,-0.37574175,-0.8658038,0.14579421,0.9266502,-0.34650165,0.93249243,-0.011725206,0.36099923,9.701294,-0.11491394,1.3455353,9.714615,-0.13406372,1.3325195,-0.0042419434,0.0063934326,0.007461548,-26.92566,16.828918,-12.069702,0,0.0,0.0,0.0,0.0
0.410949707,0.11523365,-0.45055395,-0.88528097,0.073284574,0.89264524,-0.4447627,0.99063134,-0.013625797,0.13588142,0.32616678,-0.37726521,-0.8667677,0.14474791,0.9260306,-0.3485907,0.93416446,-0.01176412,0.35664874,9.643829,-0.0143585205,1.3311615,9.714615,-0.13362122,1.3325195,0.018112183,0.0095825195,0.0032043457,-26.92566,16.828918,-12.069702,0,0.0,0.0,0.0,0.0
0.415283203,0.11524112,-0.45054463,-0.8852847,0.07330397,0.8926496,-0.44475055,0.990629,-0.013641325,0.13589665,0.32195982,-0.3787566,-0.86768967,0.14370531,0.9254211,-0.35063457,0.93578345,-0.011801355,0.35237774,9.696503,-0.1771698,1.3551178,9.714615,-0.1337738,1.3326721,-0.007446289,0.010650635,0.01171875,-26.92566,16.828918,-12.069702,0,0.0,0.0,0.0,0.0
0.419616699,0.11681127,-0.43131813,-0.8946058,0.07083077,0.9020967,-0.42568114,0.99062514,-0.013641271,0.13592568,0.31783482,-0.38021705,-0.8685712,0.14266832,0.9248215,-0.35263422,0.9373509,-0.011838154,0.34818542,9.7348175,-0.14364624,1.4173584,9.714615,-0.1337738,1.332962,-0.0021362305,-0.0032043457,-0.0021209717,-25.671387,16.290283,-11.206055,0,0.0,0.0,0.0,0.0
0.423950196,0.11681074,-0.43131885,-0.89460564,0.0707965,0.90209687,-0.42568654,0.9906276,-0.013610185,0.13591047,0.31385133,-0.3812513,-0.86956584,0.14150284,0.92439514,-0.35421816,0.9388686,-0.011874217,0.3440708,9.821014,-0.06703186,1.2976532,9.714615,-0.13346863,1.3328094,-0.0021362305,-0.010650635,0.008529663,-25.671387,16.290283,-11.206055,0,0.0,0.0,0.0,0.0
0.428283692,0.11681812,-0.4313096,-0.89460915,0.07078138,0.9021016,-0.4256792,0.9906278,-0.013594628,0.1359105,0.3099444,-0.38226444,-0.8705219,0.14034902,0.9239762,-0.3557669,0.94033855,-0.011908936,0.34003168,9.62468,-0.07182312,1.3120117,9.714615,-0.13331604,1.3328094,-0.006378174,-0.014923096,0.0010681152,-25.671387,16.290283,-11.206055,0,0.0,0.0,0.0,0.0
0.432617188,0.11839856,-0.4107718,-0.9040179,0.06813829,0.91163665,-0.4053096,0.9906255,-0.013610156,0.13592574,0.30611297,-0.38325667,-0.8714409,0.13920733,0.9235647,-0.35728088,0.9417623,-0.01194265,0.33606726,9.667786,-0.1819458,1.4029999,9.714615,-0.13346863,1.332962,-0.0053100586,-0.019180298,0.0010681152,-25.312805,17.366028,-11.206055,0,0.0,0.0,0.0,0.0
0.436950684,0.11842422,-0.41074112,-0.9040284,0.06816186,0.9116502,-0.40527508,0.99062085,-0.013625867,0.13595836,0.30611297,-0.38325667,-0.8714409,0.13920733,0.9235647,-0.35728088,0.9417623,-0.01194265,0.33606726,9.667786,-0.1819458,1.4029999,9.714462,-0.13362122,1.3332672,-0.0053100586,-0.019180298,0.0010681152,-25.312805,17.366028,-11.206055,0,0.0,0.0,0.0,0.0
0.44128418,0.11830125,-0.4108878,-0.9039779,0.06813069,0.9115841,-0.40542898,0.99063766,-0.0136258835,0.1358356,0.29879507,-0.3843518,-0.873496,0.13669565,0.9231086,-0.35942292,0.9444765,-0.012009307,0.3283595,9.653412,-0.0622406,1.4412994,9.714615,-0.13362122,1.3320618,-0.006378174,-0.018112183,0.01171875,-25.312805,17.366028,-11.206055,0,0.0,0.0,0.0,0.0
0.445617676,0.1183472,-0.41083303,-0.9039968,0.06814226,0.9116088,-0.40537152,0.99063134,-0.013625797,0.13588142,0.29523808,-0.38488576,-0.8744698,0.13546808,0.9228857,-0.36045867,0.9457711,-0.012041639,0.3246107,9.706085,-0.11491394,1.450882,9.714615,-0.13362122,1.3325195,-0.011703491,-0.03515625,0.0053253174,-25.312805,17.366028,-11.206055,0,0.0,0.0,0.0,0.0
0.449951172,0.11823256,-0.41096967,-0.9039497,0.068130046,0.91154695,-0.40551257,0.9906459,-0.0136413425,0.13577391,0.29052868,-0.3848989,-0.8760399,0.13390985,0.92287534,-0.36106694,0.94744986,-0.012410068,0.3196635,9.725235,-0.14364624,1.3934174,9.714767,-0.1337738,1.3314667,-0.009567261,-0.020248413,0.0021362305,-25.312805,17.366028,-11.206055,0,0.0,0.0,0.0,0.0
0.454284668,0.1180634,-0.4111714,-0.9038801,0.06808695,0.9114561,-0.4057243,0.99066913,-0.013641255,0.13560499,0.2871274,-0.38542345,-0.87693024,0.1327275,0.922656,-0.3620625,0.9486524,-0.012434693,0.31607613,9.653412,-0.1771698,1.3503265,9.715057,-0.1337738,1.3298187,0.003189087,-0.031967163,0.0021362305,-25.312805,17.366028,-11.206055,0,0.0,0.0,0.0,0.0
0.458618164,0.11589207,-0.43781772,-0.89156294,0.07142434,0.8989609,-0.43216634,0.99069047,-0.013594655,0.1354533,0.28378797,-0.38594148,-0.8777891,0.13156334,0.92243916,-0.36303875,0.9498187,-0.012458825,0.31255287,9.7348175,-0.13885498,1.3551178,9.71521,-0.13331604,1.3283234,-0.0042419434,-0.03729248,-0.0021209717,-26.567078,17.546082,-12.069702,0,0.0,0.0,0.0,0.0
0.46295166,0.11580063,-0.4379274,-0.89152104,0.071331516,0.89890844,-0.43229085,0.9907078,-0.013533996,0.13533218,0.28043368,-0.38699183,-0.8784044,0.1305803,0.9219987,-0.3645096,0.9509499,-0.012481541,0.309093,9.619888,-0.12927246,1.4125671,9.715363,-0.13272095,1.3271332,0.0138549805,-0.036224365,-0.0095825195,-26.567078,17.546082,-12.069702,0,0.0,0.0,0.0,0.0
0.467285156,0.115670815,-0.43808296,-0.8914615,0.07127747,0.8988328,-0.43245685,0.9907268,-0.013518483,0.13519417,0.27714336,-0.388023,-0.87899363,0.12960677,0.92156494,-0.36595112,0.9520471,-0.01250259,0.30569598,9.725235,-0.15800476,1.2832794,9.715515,-0.13256836,1.3257751,0.007461548,-0.036224365,-0.013839722,-26.567078,17.546082,-12.069702,0,0.0,0.0,0.0,0.0
0.471618653,0.118624315,-0.39811134,-0.90963495,0.066088535,0.9172376,-0.3928202,0.99073744,-0.013518415,0.13511725,0.27391508,-0.3890362,-0.8795575,0.12864381,0.92113733,-0.36736465,0.95311135,-0.012522909,0.3023605,9.758759,-0.12927246,1.1252747,9.715668,-0.13256836,1.3250275,-0.003189087,-0.026641846,-0.007446289,-26.92566,17.1875,-11.03363,0,0.0,0.0,0.0,0.0
0.475952149,0.118586205,-0.39816043,-0.9096184,0.06606323,0.9172164,-0.39287367,0.99074364,-0.013502941,0.13507298,0.2708614,-0.38921806,-0.88042223,0.12745291,0.9210602,-0.36797255,0.95414346,-0.012542819,0.29908663,9.854523,-0.11012268,1.2114563,9.715668,-0.13241577,1.324585,0.0,-0.0063934326,-0.004257202,-26.92566,17.1875,-11.03363,0,0.0,0.0,0.0,0.0
0.480285645,0.11858439,-0.39816272,-0.90961766,0.06606262,0.91721547,-0.39287606,0.9907439,-0.013502753,0.1350711,0.2678653,-0.3893973,-0.8812593,0.1262829,0.92098427,-0.3685657,0.95514435,-0.012562021,0.2958739,9.677353,-0.10533142,1.316803,9.715805,-0.13241577,1.324585,-0.003189087,-0.0063934326,-0.012771606,-26.92566,17.1875,-11.03363,0,0.0,0.0,0.0,0.0
0.484619141,0.11465084,-0.44942608,-0.88592964,0.07268175,0.8932153,-0.44371608,0.9907435,-0.013518498,0.13507296,0.26492664,-0.38957295,-0.8820696,0.12513386,0.92090964,-0.36914346,0.9561147,-0.012580836,0.29272225,9.706085,-0.1771698,1.3455353,9.715668,-0.13256836,1.324585,0.0138549805,-0.004272461,-0.003189087,-26.38855,18.08319,-12.588501,0,0.0,0.0,0.0,0.0
0.488952637,0.11470221,-0.44936725,-0.8859529,0.07268017,0.89324504,-0.4436562,0.99073756,-0.013502858,0.13511726,0.26190364,-0.3907875,-0.882435,0.12430231,0.92039466,-0.3707055,0.95705557,-0.012599589,0.2896305,9.643829,-0.09576416,1.4412994,9.715668,-0.13241577,1.3250275,-0.013839722,-0.01171875,-0.0021209717,-26.38855,18.08319,-12.588501,0,0.0,0.0,0.0,0.0
0.493286133,0.114665695,-0.44940904,-0.8859364,0.07272075,0.89322335,-0.44369334,0.99073887,-0.013549555,0.13510345,0.25894213,-0.39197594,-0.88278186,0.123478375,0.9198889,-0.37223303,0.95796764,-0.012617654,0.28659853,9.76355,-0.27293396,1.2737122,9.715668,-0.13287354,1.3248901,-0.010635376,-0.0053253174,-0.0021209717,-26.38855,18.08319,-12.588501,0,0.0,0.0,0.0,0.0
0.497619629,0.11559853,-0.4376215,-0.8916975,0.071199626,0.89905727,-0.43200323,0.99074095,-0.013549584,0.13508818,0.25603917,-0.3931408,-0.8831105,0.12266353,0.9193914,-0.37372854,0.9588522,-0.012636293,0.2836243,9.682144,-0.11012268,1.2928619,9.715668,-0.13287354,1.3247375,-0.0021362305,-0.007461548,0.0010681152,-26.029968,17.366028,-11.897278,0,0.0,0.0,0.0,0.0
0.501953125,0.115590796,-0.4376307,-0.891694,0.0711803,0.89905304,-0.43201527,0.9907433,-0.013534056,0.13507293,0.25322598,-0.39404002,-0.88352084,0.121790126,0.9190062,-0.37495977,0.95971024,-0.012654559,0.28070644,9.58638,-0.10533142,1.2785034,9.715668,-0.13272095,1.324585,-0.015960693,0.004257202,0.010650635,-26.029968,17.366028,-11.897278,0,0.0,0.0,0.0,0.0
0.506286621,0.11561372,-0.43760344,-0.8917044,0.07120393,0.89906603,-0.43198422,0.99073887,-0.013549555,0.13510345,0.25046852,-0.39492103,-0.88391334,0.12092759,0.9186277,-0.3761645,0.96054256,-0.012672149,0.27784416,9.749176,-0.1771698,1.4125671,9.715668,-0.13287354,1.3248901,0.010650635,0.0010681152,-0.0010681152,-26.029968,17.366028,-11.897278,0,0.0,0.0,0.0,0.0
0.510620117,0.11754219,-0.41260773,-0.90329325,0.06800364,0.91080785,-0.4071912,0.99073684,-0.013565088,0.13511717,0.24776645,-0.39578354,-0.8842891,0.12007664,0.9182561,-0.37734234,0.9613498,-0.012689697,0.27503744,9.634262,-0.16758728,1.340744,9.715668,-0.13302612,1.3250275,-0.006378174,0.014892578,0.0,-25.849915,17.546082,-11.378479,0,0.0,0.0,0.0,0.0
0.514953613,0.11770844,-0.41240788,-0.9033628,0.06797829,0.91089916,-0.40699083,0.9907187,-0.013502813,0.1352553,0.24518403,-0.39612135,-0.88485736,0.11910189,0.9181102,-0.37800574,0.96213275,-0.0127072055,0.27228478,9.686935,-0.0622406,1.3982086,9.715515,-0.13241577,1.3263855,-0.007446289,0.0010681152,-0.008514404,-25.849915,17.546082,-11.378479,0,0.0,0.0,0.0,0.0
0.51928711,0.11770844,-0.41240788,-0.9033628,0.06797829,0.91089916,-0.40699083,0.9907187,-0.013502813,0.1352553,0.24437125,-0.39628276,-0.88500994,0.11841934,0.91804564,-0.37837693,0.9624238,-0.012337853,0.2712715,9.7348175,-0.11012268,1.3215942,9.715515,-0.13241577,1.3263855,-0.0010681152,0.026611328,-0.0063934326,-25.849915,17.546082,-11.378479,0,0.0,0.0,0.0,0.0
0.523620606,0.11827703,-0.4053166,-0.9064926,0.06711468,0.91407603,-0.39995039,0.9907099,-0.013534025,0.13531691,0.24185875,-0.39660648,-0.8855549,0.117472544,0.91790545,-0.37901148,0.96317416,-0.012361152,0.26859385,9.710876,-0.11012268,1.2401886,9.715363,-0.13272095,1.3269806,0.004257202,0.01914978,-0.008514404,-25.849915,17.904663,-11.378479,0,0.0,0.0,0.0,0.0
0.527954102,0.118299305,-0.40529013,-0.9065016,0.067137025,0.91408765,-0.39992037,0.9907058,-0.013549528,0.1353459,0.23941433,-0.39678106,-0.8861409,0.11650594,0.91782975,-0.37949303,0.963902,-0.01238461,0.26596892,9.662994,-0.02394104,1.2306061,9.715363,-0.13287354,1.3272705,-0.003189087,0.022354126,0.009597778,-25.849915,17.904663,-11.378479,0,0.0,0.0,0.0,0.0
0.532287598,0.11828628,-0.40530562,-0.9064964,0.06716583,0.9140804,-0.3999322,0.9907053,-0.0135790855,0.13534585,0.23701788,-0.3969516,-0.8867085,0.115557335,0.91775566,-0.37996188,0.9646082,-0.012407909,0.26339516,9.667786,-0.19152832,1.3120117,9.715363,-0.13316345,1.3272705,0.012786865,0.015960693,0.014923096,-25.849915,17.904663,-11.378479,0,0.0,0.0,0.0,0.0
0.536621094,0.12015256,-0.37861258,-0.9177232,0.06370881,0.92545533,-0.37346148,0.99070907,-0.013594697,0.13531679,0.23466781,-0.39711902,-0.88725847,0.11462666,0.917683,-0.3804192,0.96529365,-0.012431333,0.26087108,9.739609,-0.1771698,1.2545471,9.715363,-0.13331604,1.3269806,0.003189087,0.01171875,0.015975952,-27.105713,17.72461,-10.861206,0,0.0,0.0,0.0,0.0
0.54095459,0.12016169,-0.3786008,-0.9177268,0.06372729,0.92546,-0.37344697,0.99070686,-0.013610227,0.13533205,0.23242885,-0.39675045,-0.88801235,0.11357824,0.91784203,-0.38034984,0.965959,-0.012454601,0.2583952,9.739609,-0.17237854,1.3598938,9.715363,-0.13346863,1.3271332,-0.0010681152,0.008514404,0.0021362305,-27.105713,17.72461,-10.861206,0,0.0,0.0,0.0,0.0
0.545288086,0.12015528,-0.3786091,-0.9177243,0.063742645,0.92545635,-0.3734533,0.99070656,-0.013625783,0.13533202,0.23023248,-0.39638895,-0.88874567,0.11255214,0.9179979,-0.38027874,0.96660495,-0.012477714,0.25596735,9.552856,-0.16758728,1.3120117,9.715363,-0.13362122,1.3271332,-0.008514404,0.0095825195,-0.004257202,-27.105713,17.72461,-10.861206,0,0.0,0.0,0.0,0.0
0.549621582,0.11627422,-0.43141466,-0.8946294,0.07057425,0.90205085,-0.425821,0.99070656,-0.013625783,0.13533202,0.22807781,-0.39603478,-0.88945884,0.11154794,0.9181504,-0.38020635,0.9672319,-0.012500674,0.2535866,9.682144,-0.15322876,1.3311615,9.715363,-0.13362122,1.3271332,0.003189087,0.004257202,-0.004257202,-27.105713,17.366028,-11.897278,0,0.0,0.0,0.0,0.0
0.553955078,0.11623626,-0.4314617,-0.89461154,0.07058113,0.90202796,-0.425868,0.9907105,-0.013641397,0.13530143,0.22583622,-0.39674842,-0.88971263,0.11082584,0.9178419,-0.3811611,0.9678407,-0.012523177,0.25125194,9.658203,-0.15800476,1.2353973,9.715363,-0.1337738,1.326828,0.0010681152,0.004257202,-0.0021209717,-27.105713,17.366028,-11.897278,0,0.0,0.0,0.0,0.0
0.558288574,0.11619732,-0.43151003,-0.89459336,0.0705534,0.90200526,-0.4259211,0.9907172,-0.013625714,0.13525508,0.22363865,-0.39744857,-0.8899553,0.11011456,0.9175387,-0.38209623,0.96843207,-0.012545542,0.248962,9.691727,-0.10533142,1.1970978,9.715515,-0.13362122,1.3263855,-0.003189087,-0.007461548,0.0063934326,-27.105713,17.366028,-11.897278,0,0.0,0.0,0.0,0.0
0.562622071,0.1156861,-0.43731418,-0.8918369,0.071307264,0.89920515,-0.4316775,0.990723,-0.013655359,0.13520922,0.2214841,-0.3981354,-0.8901871,0.10941328,0.9172406,-0.38301235,0.9690065,-0.012567146,0.24671549,9.725235,-0.22984314,1.2210388,9.715515,-0.13391113,1.3259277,0.003189087,0.0,0.0021362305,-26.029968,18.08319,-12.243652,0,0.0,0.0,0.0,0.0
0.566955567,0.11557273,-0.43744412,-0.8917878,0.07125866,0.89914215,-0.4318167,0.99073976,-0.01364137,0.135088,0.2193576,-0.39892653,-0.89035946,0.108750895,0.9168965,-0.38402355,0.9695646,-0.01258891,0.24451181,9.615112,-0.04309082,1.2593384,9.715668,-0.1337738,1.3247375,0.007461548,-0.01171875,0.0,-26.029968,18.08319,-12.243652,0,0.0,0.0,0.0,0.0
0.571289063,0.11557273,-0.43744412,-0.8917878,0.07125866,0.89914215,-0.4318167,0.99073976,-0.01364137,0.135088,0.21727139,-0.39970413,-0.8905222,0.10809719,0.91655743,-0.3850161,0.9701073,-0.012609959,0.24234863,9.758759,-0.13406372,1.3551178,9.715668,-0.1337738,1.3247375,-0.008514404,-0.0234375,0.0021362305,-26.029968,18.08319,-12.243652,0,0.0,0.0,0.0,0.0
0.575622559,0.11861929,-0.396784,-0.91021526,0.06595588,0.9178113,-0.39149994,0.99074686,-0.013594597,0.13504039,0.2152271,-0.40046594,-0.8906763,0.1074527,0.9162246,-0.38598758,0.97063446,-0.0126305865,0.2402275,9.725235,0.0,1.201889,9.715805,-0.13331604,1.3242798,0.004257202,-0.01171875,-0.004257202,-24.77417,17.904663,-11.03363,0,0.0,0.0,0.0,0.0
0.579956055,0.11861219,-0.3967922,-0.91021264,0.06593736,0.917808,-0.39151078,0.9907489,-0.013579064,0.13502666,0.21331891,-0.40039235,-0.89116836,0.10662532,0.9162565,-0.3861413,0.9711468,-0.012649867,0.23814681,9.720444,-0.09576416,1.3024445,9.715805,-0.13316345,1.3241425,-0.003189087,-0.0053253174,0.007461548,-24.77417,17.904663,-11.03363,0,0.0,0.0,0.0,0.0
0.584289551,0.11855957,-0.3968529,-0.910193,0.065941334,0.91778153,-0.3915722,0.99075496,-0.0135947075,0.13498081,0.21254517,-0.40045017,-0.89132726,0.10567877,0.9162392,-0.38644242,0.9714199,-0.012057894,0.23706129,9.730026,-0.16758728,1.1779327,9.715805,-0.13331604,1.3236847,0.004257202,0.014892578,-0.008514404,-24.77417,17.904663,-11.03363,0,0.0,0.0,0.0,0.0
0.588623047,0.12016566,-0.37355134,-0.9197932,0.06290148,0.92751,-0.3684676,0.9907591,-0.013579205,0.1349518,0.21068789,-0.4003783,-0.8918004,0.10488601,0.91627026,-0.38658485,0.97191024,-0.012088631,0.23504111,9.686935,-0.12449646,1.2449799,9.715805,-0.13316345,1.3233948,-0.015960693,0.014892578,-0.004257202,-26.567078,18.621826,-11.03363,0,0.0,0.0,0.0,0.0
0.592956543,0.12011372,-0.3736143,-0.9197745,0.06285887,0.9274852,-0.36853766,0.99076813,-0.013549551,0.13488868,0.2089189,-0.399845,-0.8924555,0.10400296,0.91650265,-0.38627228,0.9723869,-0.012118443,0.23305978,9.682144,-0.03829956,1.1683655,9.715958,-0.13287354,1.3227844,0.017044067,0.014892578,-0.0053253174,-26.567078,18.621826,-11.03363,0,0.0,0.0,0.0,0.0
0.597290039,0.12007944,-0.37365592,-0.9197621,0.06281827,0.9274689,-0.3685856,0.9907748,-0.01351831,0.13484234,0.20718244,-0.3993235,-0.89309365,0.10313848,0.9167296,-0.38596538,0.97285044,-0.012147065,0.23111588,9.610321,-0.07182312,1.1731567,9.71611,-0.13256836,1.3223419,-0.007446289,0.01171875,0.0032043457,-26.567078,18.621826,-11.03363,0,0.0,0.0,0.0,0.0
0.601623535,0.11076305,-0.49251845,-0.86322474,0.078081675,0.8701969,-0.48647755,0.9907748,-0.01351831,0.13484234,0.20547827,-0.3988131,-0.89371514,0.10229208,0.9169514,-0.38566366,0.9733011,-0.012174491,0.229209,9.672562,-0.12927246,1.316803,9.71611,-0.13256836,1.3223419,-0.007446289,0.022354126,0.004272461,-25.671387,16.290283,-12.588501,0,0.0,0.0,0.0,0.0
0.605957031,0.110831454,-0.49243894,-0.8632614,0.0780885,0.87024224,-0.48639557,0.9907667,-0.013502852,0.13490404,0.20353791,-0.4007336,-0.8933,0.10200203,0.9161134,-0.38772655,0.97373915,-0.012201368,0.22733943,9.749176,-0.08618164,1.1635742,9.715958,-0.13241577,1.322937,0.004257202,0.018096924,-0.003189087,-25.671387,16.290283,-12.588501,0,0.0,0.0,0.0,0.0
0.610290528,0.11086122,-0.4924043,-0.8632773,0.078099035,0.8702619,-0.48635882,0.9907626,-0.013502795,0.1349346,0.20163913,-0.40261233,-0.89288574,0.10170984,0.9152889,-0.38974518,0.97416466,-0.012227397,0.2255077,9.753967,-0.10533142,1.4269409,9.715958,-0.13241577,1.3232422,0.0021362305,0.028747559,0.0010681152,-25.671387,16.290283,-12.588501,0,0.0,0.0,0.0,0.0
0.614624024,0.11630457,-0.42825446,-0.89614254,0.06998143,0.9035566,-0.4227151,0.99074507,-0.013549641,0.13505761,0.1997803,-0.40445113,-0.8924725,0.10141613,0.9144776,-0.3917213,0.9745782,-0.012252905,0.22371247,9.615112,-0.14364624,1.3934174,9.715668,-0.13287354,1.3244324,0.0010681152,0.018096924,-0.0053253174,-26.38855,17.007446,-11.552429,0,0.0,0.0,0.0,0.0
0.61895752,0.11629564,-0.4282655,-0.8961384,0.06992773,0.9035521,-0.42273372,0.99074996,-0.013502836,0.1350268,0.19810781,-0.40492994,-0.89262813,0.1008366,0.9142652,-0.3923659,0.97497964,-0.012278841,0.22195484,9.7348175,-0.04309082,1.2210388,9.715805,-0.13241577,1.3241425,0.0021362305,0.023422241,0.008529663,-26.38855,17.007446,-11.552429,0,0.0,0.0,0.0,0.0
0.623291016,0.11626506,-0.42830336,-0.89612424,0.069919616,0.9035341,-0.4227734,0.9907541,-0.013502892,0.13499625,0.19646852,-0.40539935,-0.89277744,0.10026564,0.9140569,-0.3929972,0.9753701,-0.012303322,0.22023101,9.701294,-0.12449646,1.2306061,9.715805,-0.13241577,1.3238373,0.0063934326,0.015960693,-0.0010681152,-26.38855,17.007446,-11.552429,0,0.0,0.0,0.0,0.0
0.627624512,0.11484724,-0.44606343,-0.8876021,0.07216229,0.8948999,-0.4403938,0.99075866,-0.013473391,0.13496575,0.19486135,-0.40586,-0.8929203,0.0997041,0.9138521,-0.3936158,0.97575,-0.012327313,0.21854036,9.662994,-0.07182312,1.2737122,9.715805,-0.13212585,1.3235321,0.0010681152,0.013824463,0.0021362305,-25.132751,17.546082,-12.069702,0,0.0,0.0,0.0,0.0
0.631958008,0.11483338,-0.44607916,-0.887596,0.072292306,0.89489025,-0.44039217,0.99075073,-0.013594649,0.13501135,0.1932469,-0.4066722,-0.89290166,0.09922756,0.91349065,-0.3945741,0.9761196,-0.012350235,0.21688232,9.62468,-0.1197052,1.2114563,9.715805,-0.13331604,1.3239899,0.004257202,0.022354126,0.0032043457,-25.132751,17.546082,-12.069702,0,0.0,0.0,0.0,0.0
0.636291504,0.11485603,-0.4460536,-0.88760597,0.07228199,0.89490324,-0.44036746,0.9907489,-0.013579064,0.13502666,0.19166501,-0.40746817,-0.8928797,0.09876019,0.9131356,-0.39551216,0.9764788,-0.012375124,0.21525776,9.710876,-0.09576416,1.3838348,9.715805,-0.13316345,1.3241425,-0.0010681152,0.018096924,0.026626587,-25.132751,17.546082,-12.069702,0,0.0,0.0,0.0,0.0
0.640625,0.11357821,-0.46142763,-0.87987757,0.07424592,0.88707393,-0.45561758,0.99075097,-0.013579093,0.13501139,0.19011566,-0.40824738,-0.89285505,0.09829906,0.9127871,-0.39643028,0.9768282,-0.012399203,0.21366546,9.811432,-0.13406372,1.2832794,9.715805,-0.13316345,1.3239899,0.010650635,0.015960693,0.0032043457,-25.132751,16.828918,-12.069702,0,0.0,0.0,0.0,0.0
0.644958496,0.11356318,-0.46144494,-0.8798704,0.07424113,0.8870649,-0.45563588,0.990753,-0.013579121,0.1349961,0.18856356,-0.4093256,-0.89269054,0.09790933,0.91230375,-0.39763746,0.9771681,-0.012422801,0.21210404,9.777908,-0.13885498,1.3120117,9.715805,-0.13316345,1.3238373,0.008514404,-0.0032043457,0.014923096,-25.132751,16.828918,-12.069702,0,0.0,0.0,0.0,0.0
0.649291992,0.113600336,-0.46140212,-0.87988806,0.07423734,0.8870874,-0.45559275,0.9907491,-0.0135650635,0.1350267,0.18705203,-0.4104977,-0.89247024,0.09783543,0.9117731,-0.39887094,0.977466,-0.012705589,0.21071024,9.725235,-0.0909729,1.3742676,9.715805,-0.13302612,1.3241425,0.0010681152,0.0021209717,0.004272461,-25.132751,16.828918,-12.069702,0,0.0,0.0,0.0,0.0
0.653625488,0.11359324,-0.46141028,-0.87988466,0.0742507,0.8870829,-0.45559925,0.9907489,-0.013579064,0.13502666,0.18556273,-0.41152924,-0.8923061,0.09744752,0.9113077,-0.40002772,0.97778857,-0.012722777,0.20920725,9.76355,-0.1819458,1.364685,9.715805,-0.13316345,1.3241425,-0.0042419434,-0.012786865,0.007461548,-25.132751,16.828918,-12.069702,0,0.0,0.0,0.0,0.0
0.657958985,0.11358529,-0.4614194,-0.8798809,0.074232556,0.8870784,-0.45561105,0.9907512,-0.013565092,0.13501142,0.18410376,-0.41253978,-0.89214164,0.09706429,0.91085047,-0.4011607,0.9781024,-0.012739903,0.20773387,9.667786,-0.08139038,1.2449799,9.715805,-0.13302612,1.3239899,0.0,0.0053253174,-0.0010681152,-25.132751,16.828918,-12.069702,0,0.0,0.0,0.0,0.0
0.662292481,0.11349473,-0.46152374,-0.8798379,0.07423647,0.8870236,-0.45571694,0.9907613,-0.013594581,0.13493443,0.1826744,-0.41352984,-0.8919771,0.096685156,0.91040117,-0.40227062,0.9784079,-0.012756407,0.20628919,9.634262,-0.13885498,1.4269409,9.715958,-0.13331604,1.3232422,0.014907837,-0.015975952,0.008529663,-25.132751,16.828918,-12.069702,0,0.0,0.0,0.0,0.0
0.666625977,0.11359301,-0.4601062,-0.8805674,0.07399441,0.88776046,-0.45431942,0.99076813,-0.013549551,0.13488868,0.1812724,-0.41450173,-0.89181197,0.09631084,0.90995884,-0.4033597,0.9787055,-0.012773171,0.20487145,9.677353,-0.0909729,1.4891815,9.715958,-0.13287354,1.3227844,0.0138549805,-0.026641846,0.007461548,-25.849915,15.394592,-11.378479,0,0.0,0.0,0.0,0.0
0.670959473,0.113387935,-0.4603687,-0.88045657,0.073950715,0.88762414,-0.45459282,0.9907949,-0.013565051,0.13469048,0.17990166,-0.41542467,-0.8916601,0.095934086,0.9095377,-0.40439814,0.97899544,-0.012788699,0.20348072,9.667786,-0.13885498,1.2737122,9.716263,-0.13302612,1.3208466,-0.007446289,-0.0234375,-0.0053253174,-25.849915,15.394592,-11.378479,0,0.0,0.0,0.0,0.0
0.675292969,0.113250695,-0.4605443,-0.88038236,0.073942825,0.88753253,-0.4547728,0.9908111,-0.013594625,0.13456765,0.17855464,-0.41633415,-0.8915067,0.0955618,0.9091216,-0.40542078,0.9792784,-0.012804226,0.20211351,9.643829,-0.20588684,1.3215942,9.716415,-0.13331604,1.3196411,0.004257202,-0.040481567,0.0021362305,-25.849915,15.394592,-11.378479,0,0.0,0.0,0.0,0.0
0.679626465,0.11858549,-0.38985804,-0.91320765,0.06482147,0.9207749,-0.38467112,0.9908258,-0.013579052,0.1344617,0.17723235,-0.41722855,-0.8913523,0.09519452,0.90871114,-0.40642592,0.9795543,-0.012820034,0.20077088,9.720444,-0.09576416,1.158783,9.716568,-0.13316345,1.3186035,-0.020233154,-0.027694702,-0.0053253174,-27.28424,17.546082,-11.03363,0,0.0,0.0,0.0,0.0
0.683959961,0.118422255,-0.39006865,-0.913139,0.0647711,0.92068595,-0.38489258,0.9908486,-0.013565169,0.13429485,0.17723235,-0.41722855,-0.8913523,0.09519452,0.90871114,-0.40642592,0.9795543,-0.012820034,0.20077088,9.720444,-0.09576416,1.158783,9.716705,-0.13302612,1.3169556,-0.020233154,-0.027694702,-0.0053253174,-27.28424,17.546082,-11.03363,0,0.0,0.0,0.0,0.0
0.688293457,0.118328795,-0.39018917,-0.9130995,0.06475073,0.92063487,-0.3850181,0.9908611,-0.013565127,0.13420264,0.17494962,-0.41615987,-0.8923024,0.0939294,0.90920067,-0.40562475,0.9800867,-0.012849541,0.19815396,9.62468,-0.17237854,1.4173584,9.716858,-0.13302612,1.3160553,0.008514404,-0.0234375,0.0,-27.28424,17.546082,-11.03363,0,0.0,0.0,0.0,0.0
0.692626953,0.108827025,-0.5073686,-0.8548296,0.07966507,0.86162263,-0.50125843,0.99086344,-0.013549599,0.1341874,0.17383899,-0.41564366,-0.8927599,0.09331718,0.9094366,-0.405237,0.98034275,-0.012863854,0.19688223,9.634262,-0.10055542,1.2497711,9.716858,-0.13287354,1.3159027,0.0053253174,-0.030899048,-0.0021209717,-25.132751,16.111755,-12.762451,0,0.0,0.0,0.0,0.0
0.697845459,0.10882105,-0.5073754,-0.8548264,0.07964492,0.8616188,-0.5012681,0.9908656,-0.013534068,0.13417213,0.17250532,-0.4175251,-0.8921405,0.09317121,0.90857416,-0.40720043,0.9805922,-0.012877569,0.19563518,9.595947,-0.0909729,1.2832794,9.716858,-0.13272095,1.3157501,0.004257202,-0.020248413,0.0,-25.132751,16.111755,-12.762451,0,0.0,0.0,0.0,0.0
0.703063965,0.108812295,-0.50738525,-0.8548216,0.07965947,0.8616128,-0.50127614,0.99086547,-0.013549627,0.13417211,0.17119934,-0.41936737,-0.8915278,0.093022734,0.90772516,-0.40912336,0.98083514,-0.012890699,0.19441263,9.739609,-0.17237854,1.2976532,9.716858,-0.13287354,1.3157501,-0.0021362305,-0.019180298,-0.010650635,-25.132751,16.111755,-12.762451,0,0.0,0.0,0.0,0.0
0.708312988,0.11843416,-0.38727033,-0.9143276,0.06433402,0.92186636,-0.38213015,0.9908756,-0.013565112,0.13409513,0.16992033,-0.42117128,-0.8909219,0.09287263,0.9068893,-0.41100663,0.9810717,-0.0129038775,0.19321421,9.749176,-0.18673706,1.1252747,9.7170105,-0.13302612,1.3150024,-0.0053100586,-0.014923096,-0.012771606,-25.132751,17.546082,-10.687256,0,0.0,0.0,0.0,0.0
0.713531494,0.11836858,-0.38734907,-0.9143027,0.06436738,0.9218326,-0.38220593,0.99088126,-0.0136101,0.13404867,0.16891518,-0.4204988,-0.89143056,0.092266425,0.9072012,-0.4104546,0.98130244,-0.012917102,0.19203795,9.715668,-0.22026062,1.1875153,9.717163,-0.13346863,1.3145599,-0.009567261,-0.0010681152,0.0010681152,-25.132751,17.546082,-10.687256,0,0.0,0.0,0.0,0.0
0.718780518,0.11830851,-0.38742125,-0.91427994,0.064353764,0.92180234,-0.38228142,0.99088943,-0.013610212,0.1339891,0.16807164,-0.42106968,-0.8913205,0.09119968,0.90694666,-0.4112546,0.98154706,-0.012167917,0.19083343,9.615112,-0.15322876,1.1731567,9.717163,-0.13346863,1.3139648,0.022369385,-0.0010681152,-0.007446289,-25.132751,17.546082,-10.687256,0,0.0,0.0,0.0,0.0
0.723999024,0.11381089,-0.44723433,-0.88714623,0.07201255,0.894313,-0.44160888,0.99088913,-0.013625768,0.13398905,0.16709915,-0.42040217,-0.8918183,0.09062847,0.9072559,-0.41069844,0.9817659,-0.0121967625,0.18970211,9.720444,-0.15800476,1.3024445,9.717163,-0.13362122,1.3139648,0.0010681152,0.0095825195,0.0021362305,-25.132751,17.546082,-12.069702,0,0.0,0.0,0.0,0.0
0.729248047,0.113901705,-0.44713184,-0.8871863,0.07204064,0.8943643,-0.44150048,0.9908767,-0.013625811,0.13408127,0.16602626,-0.42094254,-0.8917638,0.09028899,0.90700495,-0.41132712,0.98197925,-0.012225343,0.18859312,9.715668,-0.12449646,1.2497711,9.7170105,-0.13362122,1.3148651,0.008514404,0.004257202,-0.0021209717,-25.132751,17.546082,-12.069702,0,0.0,0.0,0.0,0.0
0.733886719,0.11400619,-0.4470138,-0.8872323,0.07203843,0.89442366,-0.44138035,0.99086475,-0.01359474,0.134172,0.16497704,-0.4214699,-0.89170945,0.08995542,0.90675956,-0.4119406,0.9821866,-0.012253352,0.18750802,9.749176,-0.004776001,1.2114563,9.716858,-0.13331604,1.3157501,-0.0010681152,0.025543213,0.0021362305,-25.132751,17.546082,-12.069702,0,0.0,0.0,0.0,0.0
0.73828125,0.10713534,-0.52445495,-0.8446711,0.08180472,0.85133,-0.5182136,0.99087334,-0.0135790855,0.13411039,0.16395107,-0.42198417,-0.89165545,0.089627,0.90652,-0.412539,0.98238844,-0.012280181,0.18644612,9.686935,-0.11491394,1.1731567,9.7170105,-0.13316345,1.315155,0.0021362305,0.031936646,0.0021362305,-24.954224,16.290283,-13.279724,0,0.0,0.0,0.0,0.0
0.742675781,0.10727207,-0.5243064,-0.8447458,0.08196802,0.85141987,-0.5180399,0.990845,-0.013670927,0.13430993,0.16278629,-0.42409444,-0.8908673,0.089591965,0.9055344,-0.41470566,0.9825854,-0.012306158,0.18540403,9.753967,-0.20588684,1.4221497,9.716705,-0.13406372,1.3171082,-0.006378174,0.014892578,0.0010681152,-24.954224,16.290283,-13.279724,0,0.0,0.0,0.0,0.0
0.747070313,0.107260115,-0.5243194,-0.84473926,0.08192876,0.85141236,-0.51805854,0.9908496,-0.013641426,0.13427943,0.16164878,-0.42615706,-0.8900898,0.08955552,0.90456516,-0.41682342,0.9827764,-0.012333455,0.18438657,9.691727,-0.0622406,1.2497711,9.716705,-0.1337738,1.316803,0.0010681152,0.036193848,0.0138549805,-24.954224,16.290283,-13.279724,0,0.0,0.0,0.0,0.0
0.751464844,0.11718113,-0.40660235,-0.9060591,0.06693697,0.91350365,-0.40128615,0.9908522,-0.013625688,0.13426211,0.16053446,-0.42817658,-0.889322,0.089514375,0.9036106,-0.4188975,0.98296285,-0.0123596145,0.18338859,9.811432,-0.08139038,1.2928619,9.716858,-0.13362122,1.3166504,0.008514404,0.01914978,0.0053253174,-27.822876,17.72461,-11.552429,0,0.0,0.0,0.0,0.0
0.755859375,0.11733152,-0.40640986,-0.90612596,0.06702163,0.9135886,-0.40107852,0.9908287,-0.013670895,0.13443099,0.15968089,-0.42774743,-0.88968205,0.08904412,0.9038135,-0.4185599,0.9831445,-0.012384936,0.18241012,9.691727,-0.08139038,1.2880707,9.716568,-0.13406372,1.3182983,-0.003189087,0.01914978,-0.003189087,-27.822876,17.72461,-11.552429,0,0.0,0.0,0.0,0.0
0.760253906,0.11735387,-0.40638128,-0.9061359,0.067010015,0.9136015,-0.40105096,0.9908268,-0.013655309,0.13444628,0.15884688,-0.42732295,-0.8900353,0.08858556,0.9040139,-0.41822425,0.983321,-0.012410656,0.18145443,9.76355,-0.07661438,1.3790588,9.716568,-0.13391113,1.3184509,-0.0010681152,0.04046631,0.015975952,-27.822876,17.72461,-11.552429,0,0.0,0.0,0.0,0.0
0.764648438,0.11550922,-0.43107462,-0.89489233,0.07020345,0.9022128,-0.4255393,0.9908225,-0.01367081,0.13447683,0.15802945,-0.4269063,-0.8903807,0.08813661,0.9042104,-0.41789415,0.9834931,-0.012435549,0.18051794,9.720444,-0.1771698,1.4029999,9.716568,-0.13406372,1.3187561,0.0,0.007446289,0.017028809,-26.029968,17.007446,-11.552429,0,0.0,0.0,0.0,0.0
0.769042969,0.115540184,-0.43103683,-0.89490646,0.070212096,0.9022306,-0.42549956,0.99081814,-0.013670964,0.13450791,0.15718044,-0.42698973,-0.890491,0.087783314,0.9041707,-0.41805452,0.98366076,-0.012460254,0.17960052,9.658203,-0.13885498,1.3886261,9.716415,-0.13406372,1.319046,0.0,0.02128601,0.009597778,-26.029968,17.007446,-11.552429,0,0.0,0.0,0.0,0.0
0.7734375,0.115592904,-0.43097258,-0.8949307,0.07027765,0.9022608,-0.42542517,0.99080735,-0.013717495,0.13458268,0.15634911,-0.42707074,-0.8905985,0.08743706,0.904132,-0.41821054,0.983824,-0.0124844685,0.17870204,9.710876,-0.26335144,1.5131226,9.716415,-0.13452148,1.3197937,-0.0053100586,0.0063934326,-0.0021209717,-26.029968,17.007446,-11.552429,0,0.0,0.0,0.0,0.0
0.777832031,0.11134303,-0.48071003,-0.86978185,0.076634444,0.87677103,-0.47476265,0.99082285,-0.013793737,0.13446131,0.1555353,-0.42714885,-0.8907034,0.08709872,0.90409476,-0.4183616,0.983983,-0.012509129,0.17782277,9.758759,-0.24420166,1.3982086,9.716568,-0.13526917,1.3186035,0.0053253174,-0.0063934326,0.014923096,-25.312805,16.290283,-12.243652,0,0.0,0.0,0.0,0.0
0.782226563,0.11121962,-0.48085392,-0.86971813,0.07653955,0.87669295,-0.4749223,0.9908441,-0.0137471575,0.13430981,0.15463786,-0.4282359,-0.8903377,0.08694026,0.90358007,-0.41950506,0.9841385,-0.012534821,0.17695862,9.720444,-0.01914978,1.2114563,9.716705,-0.1348114,1.3171082,0.0063934326,-0.03302002,0.007461548,-25.312805,16.290283,-12.243652,0,0.0,0.0,0.0,0.0
0.786621094,0.11107126,-0.48102686,-0.86964154,0.076488756,0.8765982,-0.47510558,0.99086463,-0.013747227,0.134158,0.15219688,-0.42961523,-0.8900937,0.08604365,0.90292555,-0.4210961,0.9845977,-0.0124974,0.17438813,9.7444,-0.09576416,1.4843903,9.716858,-0.1348114,1.3156128,0.0053253174,-0.026641846,0.0,-25.312805,16.290283,-12.243652,0,0.0,0.0,0.0,0.0
0.791015625,0.11064575,-0.4838891,-0.8681065,0.07675496,0.87502134,-0.4779606,0.99089164,-0.01374717,0.13395828,0.1513623,-0.43065813,-0.88973194,0.08589791,0.90242827,-0.42219046,0.98473907,-0.012522397,0.17358625,9.753967,-0.05265808,1.2401886,9.717163,-0.1348114,1.3136597,-0.0021362305,-0.045806885,0.0032043457,-27.105713,17.007446,-12.9348755,0,0.0,0.0,0.0,0.0
0.795410156,0.11044382,-0.48412883,-0.86799854,0.07670318,0.8748885,-0.47821203,0.9909181,-0.013762686,0.13376024,0.15053554,-0.43173853,-0.8893486,0.085761346,0.9019115,-0.42332092,0.98487765,-0.012546892,0.1727962,9.662994,-0.13885498,1.2353973,9.717453,-0.13496399,1.3117218,0.0021362305,-0.039413452,0.007461548,-27.105713,17.007446,-12.9348755,0,0.0,0.0,0.0,0.0
0.799804688,0.11028026,-0.48432294,-0.86791104,0.07661156,0.8747815,-0.4784223,0.99094343,-0.013731486,0.13357586,0.1497216,-0.43280166,-0.8889692,0.08562507,0.9014015,-0.42443335,0.9850136,-0.012571208,0.17201793,9.7444,-0.05744934,1.1875153,9.717758,-0.13465881,1.3099213,0.0010681152,-0.03729248,0.0032043457,-27.105713,17.007446,-12.9348755,0,0.0,0.0,0.0,0.0
0.804199219,0.1161853,-0.40868846,-0.90524846,0.06696096,0.91257036,-0.40339985,0.99096775,-0.013747168,0.13339344,0.14892086,-0.43384695,-0.88859403,0.08548822,0.9008985,-0.4255274,0.9851469,-0.012594413,0.1712514,9.686935,-0.17237854,1.2976532,9.717911,-0.1348114,1.3081207,0.003189087,-0.029830933,-0.0010681152,-25.849915,18.621826,-11.7248535,0,0.0,0.0,0.0,0.0
0.80859375,0.11614106,-0.40873903,-0.9052312,0.066949435,0.91254765,-0.40345302,0.9909738,-0.013747252,0.13334912,0.14827742,-0.433347,-0.8889455,0.08510041,0.9011388,-0.42509615,0.9852775,-0.012617469,0.17049654,9.691727,-0.14364624,1.2162476,9.717911,-0.1348114,1.3076782,0.0063934326,-0.042617798,-0.0010681152,-25.849915,18.621826,-11.7248535,0,0.0,0.0,0.0,0.0
0.812988281,0.11612385,-0.40875873,-0.9052246,0.06694471,0.91253906,-0.4034738,0.99097615,-0.013747068,0.13333178,0.14764546,-0.43285793,-0.88928896,0.0847208,0.90137357,-0.42467415,0.9854051,-0.012640065,0.16975577,9.581589,-0.1484375,1.2162476,9.718063,-0.1348114,1.3075256,0.015975952,-0.007461548,0.004272461,-25.849915,18.621826,-11.7248535,0,0.0,0.0,0.0,0.0
0.817382813,0.10966891,-0.4889119,-0.86541194,0.07709181,0.87222487,-0.48299143,0.9909741,-0.01374704,0.13334706,0.14702532,-0.43237886,-0.88962466,0.08434933,0.9016031,-0.42426053,0.98552966,-0.012662205,0.16902937,9.610321,-0.1197052,1.340744,9.718063,-0.1348114,1.3076782,0.003189087,-0.0021362305,0.0032043457,-27.28424,16.470337,-12.762451,0,0.0,0.0,0.0,0.0
0.821777344,0.10963244,-0.48895642,-0.86539143,0.07706168,0.87220013,-0.48304078,0.9909804,-0.013731568,0.13330124,0.14626643,-0.4335275,-0.8891906,0.08424875,0.901051,-0.4254517,0.98565114,-0.012683901,0.16831768,9.715668,-0.11491394,1.201889,9.718063,-0.13465881,1.3072205,0.007461548,-0.007461548,0.007461548,-27.28424,16.470337,-12.762451,0,0.0,0.0,0.0,0.0
0.826171875,0.10962008,-0.48897156,-0.8653845,0.07702389,0.87219214,-0.4830613,0.9909847,-0.013702063,0.13327225,0.14552228,-0.4346535,-0.88876295,0.08414786,0.90050817,-0.4266195,0.9857699,-0.012704854,0.16761917,9.658203,-0.04309082,1.206665,9.718063,-0.1343689,1.3069305,0.0010681152,-0.0010681152,0.008529663,-27.28424,16.470337,-12.762451,0,0.0,0.0,0.0,0.0
0.830566406,0.117600136,-0.38729432,-0.91442513,0.06407109,0.9218552,-0.3822013,0.99099195,-0.013641287,0.13322467,0.14479324,-0.43575653,-0.8883418,0.084046595,0.89997464,-0.4277638,0.985886,-0.012724797,0.1669341,9.758759,0.028717041,1.1875153,9.718201,-0.1337738,1.3064728,0.003189087,0.012771606,-0.0021209717,-24.23706,16.648865,-10.168457,0,0.0,0.0,0.0,0.0
0.834960938,0.11767013,-0.38720903,-0.9144523,0.064070344,0.92189133,-0.38211447,0.9909837,-0.013625806,0.13328768,0.14426851,-0.43479893,-0.8888963,0.0836177,0.9004375,-0.426873,0.98599935,-0.0127431275,0.16626166,9.62468,-0.04788208,1.1683655,9.718063,-0.13362122,1.3070831,0.0021362305,0.01914978,0.007461548,-24.23706,16.648865,-10.168457,0,0.0,0.0,0.0,0.0
0.839355469,0.11772223,-0.38714552,-0.91447246,0.06414745,0.92191714,-0.3820394,0.9909726,-0.013686552,0.13336451,0.14375491,-0.43385828,-0.8894389,0.083198525,0.90089077,-0.42599747,0.9861098,-0.012760781,0.16560383,9.849731,-0.20588684,1.2114563,9.717911,-0.13421631,1.3078308,0.01171875,0.026611328,0.0063934326,-24.23706,16.648865,-10.168457,0,0.0,0.0,0.0,0.0
0.84375,0.11178835,-0.46637508,-0.87749505,0.07427851,0.8844812,-0.46062538,0.99095213,-0.013686483,0.13351634,0.14325178,-0.43293476,-0.8899699,0.082790375,0.90133464,-0.4251371,0.9862174,-0.012779295,0.16496062,9.725235,-0.12927246,1.2306061,9.717758,-0.13421631,1.3093262,0.0095825195,0.029815674,0.007461548,-24.595642,18.441772,-12.9348755,0,0.0,0.0,0.0,0.0
0.848144531,0.11196574,-0.46619117,-0.8775702,0.07434034,0.88457817,-0.4604292,0.99092746,-0.013686572,0.13369927,0.14261602,-0.4336097,-0.8897434,0.08264291,0.9010099,-0.4258536,0.98632187,-0.01279744,0.16433322,9.739609,-0.10055542,1.3838348,9.717453,-0.13421631,1.3111115,0.0095825195,0.04258728,0.0,-24.595642,18.441772,-12.9348755,0,0.0,0.0,0.0,0.0
0.852539063,0.1121935,-0.46595502,-0.87766653,0.07440178,0.8847028,-0.4601797,0.99089706,-0.013670786,0.13392578,0.14405291,-0.43410078,-0.88927233,0.08364004,0.90077066,-0.4261649,0.98602897,-0.012988484,0.16606684,9.667786,-0.1197052,1.316803,9.717316,-0.13406372,1.3133545,-0.003189087,0.036193848,0.0021362305,-24.595642,18.441772,-12.9348755,0,0.0,0.0,0.0,0.0
0.856933594,0.114678025,-0.4365021,-0.8923648,0.070719026,0.89959925,-0.4309527,0.9908824,-0.013686358,0.13403326,0.14340921,-0.43474343,-0.8890624,0.083477385,0.9004605,-0.42685175,0.9861366,-0.013002131,0.16542558,9.730026,-0.12927246,1.2401886,9.717163,-0.13421631,1.3144073,-0.003189087,0.050048828,-0.003189087,-25.849915,16.470337,-11.378479,0,0.0,0.0,0.0,0.0
0.861328125,0.11486238,-0.4362736,-0.8924528,0.07080452,0.8997094,-0.43070817,0.9908548,-0.013717527,0.13423291,0.14283536,-0.43477863,-0.8891375,0.083224006,0.90044326,-0.4269375,0.9862412,-0.013015815,0.16479917,9.696503,-0.1197052,1.2353973,9.716858,-0.13452148,1.3163605,-0.0010681152,0.03300476,0.0032043457,-25.849915,16.470337,-11.378479,0,0.0,0.0,0.0,0.0
0.865722656,0.115022734,-0.4360748,-0.89252925,0.07086446,0.89980567,-0.43049738,0.990832,-0.013731624,0.13440031,0.14227676,-0.43480855,-0.8892125,0.082977206,0.9004287,-0.42701644,0.9863428,-0.01302985,0.16418928,9.662994,-0.1197052,1.316803,9.716568,-0.13465881,1.3179932,0.0010681152,0.05218506,0.009597778,-25.849915,16.470337,-11.378479,0,0.0,0.0,0.0,0.0
0.870117188,0.115160935,-0.4359034,-0.8925952,0.07093685,0.8998882,-0.43031287,0.99081075,-0.013762665,0.13455358,0.14173266,-0.43483385,-0.889287,0.08273638,0.90041625,-0.42708933,0.9864414,-0.013043885,0.16359496,9.730026,-0.16279602,1.4460907,9.716415,-0.13496399,1.3195038,-0.0042419434,0.04046631,0.0021362305,-25.849915,16.470337,-11.378479,0,0.0,0.0,0.0,0.0
0.874511719,0.11525929,-0.4357814,-0.8926421,0.07098115,0.8999471,-0.43018246,0.99079615,-0.013778239,0.13465953,0.14120218,-0.43485528,-0.88936096,0.082501665,0.9004057,-0.42715698,0.9865371,-0.01305826,0.16301551,9.701294,-0.07182312,1.2641296,9.716263,-0.13511658,1.3205414,-0.010635376,0.026611328,0.0032043457,-25.849915,16.470337,-11.378479,0,0.0,0.0,0.0,0.0
0.87890625,0.11528983,-0.4357435,-0.8926566,0.07098951,0.89996547,-0.4301427,0.99079204,-0.013778181,0.13469008,0.1406841,-0.4348738,-0.889434,0.08227232,0.9003965,-0.42722052,0.9866302,-0.01307266,0.16244954,9.792282,-0.14364624,1.4221497,9.716263,-0.13511658,1.3208466,0.003189087,0.027679443,0.008529663,-25.849915,16.470337,-11.378479,0,0.0,0.0,0.0,0.0
0.883300781,0.116662964,-0.41817647,-0.900843,0.06874362,0.90826124,-0.4127175,0.9907896,-0.013778363,0.13470742,0.14017703,-0.43489116,-0.8895055,0.082047686,0.9003879,-0.42728183,0.9867211,-0.013086771,0.16189551,9.643829,-0.11491394,1.3694763,9.71611,-0.13511658,1.3209991,-0.0053100586,0.01914978,-0.008514404,-27.642822,17.546082,-11.7248535,0,0.0,0.0,0.0,0.0
0.887695313,0.116737224,-0.4180823,-0.9008771,0.06872821,0.90830517,-0.4126236,0.99078196,-0.013747138,0.13476707,0.13971226,-0.4345583,-0.8897413,0.08177343,0.9005484,-0.42699608,0.9868098,-0.013100603,0.16135299,9.672562,-0.08139038,1.4604492,9.71611,-0.1348114,1.3215942,0.004257202,0.003189087,0.0053253174,-27.642822,17.546082,-11.7248535,0,0.0,0.0,0.0,0.0
0.892089844,0.116730094,-0.41809136,-0.90087384,0.068743385,0.9083007,-0.41263074,0.99078166,-0.013762694,0.13476704,0.13925804,-0.4342302,-0.8899727,0.08150463,0.90070647,-0.426714,0.9868962,-0.013113533,0.16082239,9.816223,-0.15800476,1.3551178,9.71611,-0.13496399,1.3215942,-0.0021362305,-0.0021362305,-0.010650635,-27.642822,17.546082,-11.7248535,0,0.0,0.0,0.0,0.0
0.896484375,0.11131424,-0.4846142,-0.8676164,0.07728565,0.87461954,-0.47861016,0.9907755,-0.013778168,0.13481133,0.13881253,-0.4339088,-0.890199,0.08124181,0.9008612,-0.42643744,0.98698074,-0.013126517,0.16030234,9.667786,-0.19631958,1.4173584,9.71611,-0.13511658,1.3220367,-0.006378174,0.003189087,-0.01171875,-26.208496,16.828918,-12.762451,0,0.0,0.0,0.0,0.0
0.900878906,0.11133765,-0.48458695,-0.8676286,0.07731157,0.87463427,-0.47857884,0.9907708,-0.013793879,0.13484392,0.13825542,-0.43493733,-0.8897837,0.08119154,0.9003649,-0.42749393,0.98706305,-0.01313955,0.15979354,9.672562,-0.1819458,1.4125671,9.715958,-0.13526917,1.3223419,-0.0021362305,-0.007461548,0.0053253174,-26.208496,16.828918,-12.762451,0,0.0,0.0,0.0,0.0
0.905273438,0.11120199,-0.48474464,-0.8675579,0.07729798,0.8745465,-0.4787416,0.9907872,-0.013823453,0.1347211,0.1377102,-0.43594417,-0.8893753,0.08114158,0.8998776,-0.4285281,0.98714334,-0.013152636,0.15929551,9.629471,-0.09576416,1.2593384,9.71611,-0.13555908,1.3211365,-0.0053100586,-0.0138549805,-0.0021209717,-26.208496,16.828918,-12.762451,0,0.0,0.0,0.0,0.0
0.909667969,0.110182315,-0.49583176,-0.8614005,0.078726515,0.8683082,-0.48973793,0.99078864,-0.013854594,0.1347073,0.13717338,-0.4369336,-0.8889727,0.08109151,0.8993974,-0.4295445,0.98722214,-0.013166052,0.158805,9.682144,-0.18673706,1.2689209,9.71611,-0.13586426,1.3209991,-0.003189087,-0.022369385,0.009597778,-25.671387,17.366028,-13.279724,0,0.0,0.0,0.0,0.0
0.9140625,0.11015938,-0.49585682,-0.861389,0.07870002,0.868294,-0.4897671,0.9907932,-0.013838882,0.13467468,0.13662644,-0.43813148,-0.88846725,0.08107656,0.89881426,-0.43076617,0.98729926,-0.013179822,0.15832397,9.5767975,-0.1197052,1.2114563,9.716263,-0.13571167,1.320694,-0.003189087,-0.014923096,0.0032043457,-25.671387,17.366028,-13.279724,0,0.0,0.0,0.0,0.0
0.918457031,0.11008658,-0.49593648,-0.8613523,0.07863904,0.86824894,-0.48985672,0.99080616,-0.0138092805,0.13458252,0.13534175,-0.43937263,-0.8880508,0.08022835,0.89821434,-0.43217406,0.98754543,-0.012755663,0.15681604,9.682144,-0.16758728,1.3790588,9.716415,-0.13542175,1.3197937,0.0021362305,-0.015975952,-0.0063934326,-25.671387,17.366028,-13.279724,0,0.0,0.0,0.0,0.0
0.922851563,0.11385943,-0.45199826,-0.88472235,0.073041566,0.8919119,-0.4462713,0.99080825,-0.013809309,0.13456725,0.13483074,-0.44052237,-0.8875589,0.08022548,0.8976507,-0.43334404,0.98761564,-0.012776735,0.15637204,9.595947,-0.15800476,1.2401886,9.716415,-0.13542175,1.3196411,0.0053253174,-0.024505615,-0.01171875,-26.029968,18.08319,-12.588501,0,0.0,0.0,0.0,0.0
0.927246094,0.113869496,-0.4519869,-0.8847269,0.07306048,0.89191747,-0.44625714,0.9908057,-0.013823495,0.13458458,0.13441002,-0.44075263,-0.88750833,0.080087304,0.8975374,-0.43360424,0.98768413,-0.012797387,0.15593672,9.658203,-0.1771698,1.3838348,9.716263,-0.13555908,1.3197937,0.008514404,-0.021316528,-0.0053253174,-26.029968,18.08319,-12.588501,0,0.0,0.0,0.0,0.0
0.931640625,0.11383086,-0.45203048,-0.8847096,0.073032655,0.89189565,-0.44630542,0.99081224,-0.013809365,0.13453822,0.1339979,-0.44097802,-0.8874587,0.079951994,0.89742637,-0.43385893,0.9877511,-0.012817909,0.15551032,9.7348175,-0.0909729,1.1683655,9.716415,-0.13542175,1.3193512,-0.007446289,-0.017044067,0.0010681152,-26.029968,18.08319,-12.588501,0,0.0,0.0,0.0,0.0
0.936035156,0.11624688,-0.4211824,-0.8994955,0.0690598,0.9068711,-0.415711,0.99081653,-0.013793865,0.1345077,0.13359332,-0.44119975,-0.88740945,0.07981869,0.89731705,-0.43410942,0.9878167,-0.012837738,0.15509155,9.710876,-0.028717041,1.340744,9.716415,-0.13526917,1.319046,-0.007446289,-0.009597778,-0.0021209717,-26.38855,16.648865,-11.206055,0,0.0,0.0,0.0,0.0
0.940429688,0.11626846,-0.42115495,-0.89950556,0.069014296,0.90688455,-0.4156892,0.9908172,-0.013747195,0.13450779,0.13359332,-0.44119975,-0.88740945,0.07981869,0.89731705,-0.43410942,0.9878167,-0.012837738,0.15509155,9.710876,-0.028717041,1.340744,9.716415,-0.1348114,1.319046,-0.007446289,-0.009597778,-0.0021209717,-26.38855,16.648865,-11.206055,0,0.0,0.0,0.0,0.0
0.944824219,0.11623206,-0.42120126,-0.8994885,0.06902209,0.90686274,-0.41573533,0.9908209,-0.013762807,0.13447872,0.13291645,-0.44041008,-0.8879033,0.07937611,0.8977044,-0.4333892,0.9879437,-0.012873753,0.15427773,9.677353,-0.1819458,1.2449799,9.716415,-0.13496399,1.3187561,-0.006378174,-0.004272461,0.0053253174,-26.38855,16.648865,-11.206055,0,0.0,0.0,0.0,0.0
0.94921875,0.11401188,-0.4500698,-0.88568527,0.07274105,0.89288723,-0.44436577,0.9908128,-0.013762694,0.13453831,0.13258709,-0.4400278,-0.888142,0.07916201,0.8978916,-0.43304044,0.9880051,-0.012891535,0.15388232,9.691727,0.009567261,1.2737122,9.716415,-0.13496399,1.3193512,-0.0010681152,0.017028809,0.008529663,-27.822876,17.72461,-12.588501,0,0.0,0.0,0.0,0.0
0.953613281,0.11398899,-0.4500978,-0.885674,0.07275157,0.89287287,-0.4443929,0.9908146,-0.013778279,0.13452299,0.1322145,-0.44022918,-0.88809776,0.079037815,0.89779264,-0.43326828,0.988065,-0.012908958,0.15349597,9.749176,-0.19152832,1.3120117,9.716415,-0.13511658,1.3191986,0.0138549805,0.015960693,0.012786865,-27.822876,17.72461,-12.588501,0,0.0,0.0,0.0,0.0
0.958007813,0.11410363,-0.44995785,-0.8857303,0.07273375,0.8929442,-0.44425267,0.9908028,-0.013731651,0.1346153,0.13184895,-0.44042706,-0.88805395,0.07891616,0.8976953,-0.43349203,0.98812354,-0.012926344,0.15311699,9.672562,-0.07661438,1.2306061,9.716263,-0.13465881,1.3200989,-0.0010681152,0.02128601,0.008529663,-27.822876,17.72461,-12.588501,0,0.0,0.0,0.0,0.0
0.962402344,0.11656605,-0.41937268,-0.9002994,0.0689436,0.907709,-0.41389772,0.9907872,-0.013823453,0.1347211,0.13149305,-0.4406182,-0.88801193,0.07879634,0.8976013,-0.43370846,0.9881805,-0.01294245,0.15274742,9.639053,-0.22026062,1.2114563,9.71611,-0.13555908,1.3211365,0.019180298,0.027679443,-0.0021209717,-26.747131,17.366028,-11.552429,0,0.0,0.0,0.0,0.0
0.966796875,0.11679226,-0.41909176,-0.9004008,0.06893525,0.9078396,-0.41361246,0.9907611,-0.013762624,0.13491884,0.13119887,-0.44019562,-0.88826495,0.07859224,0.8978084,-0.43331677,0.98823583,-0.012960071,0.1523874,9.696503,-0.10533142,1.3694763,9.715958,-0.13496399,1.3230896,-0.0021362305,0.03514099,0.010650635,-26.747131,17.366028,-11.552429,0,0.0,0.0,0.0,0.0
0.971191406,0.11692286,-0.41892952,-0.9004593,0.0689519,0.90791464,-0.41344476,0.99074453,-0.013747244,0.13504197,0.13091488,-0.43977582,-0.88851476,0.0783923,0.8980138,-0.43292704,0.98828936,-0.012976122,0.15203841,9.753967,-0.08139038,1.2210388,9.715668,-0.1348114,1.3242798,0.010650635,0.039398193,-0.0095825195,-26.747131,17.366028,-11.552429,0,0.0,0.0,0.0,0.0
0.975585938,0.11783939,-0.40855253,-0.905096,0.06764394,0.9126317,-0.40314716,0.99072605,-0.01371764,0.13518006,0.13063902,-0.43936118,-0.8887605,0.07819695,0.89821655,-0.43254164,0.98834133,-0.012991545,0.15169883,9.720444,-0.02394104,1.3024445,9.715515,-0.13452148,1.3256378,0.010650635,0.04046631,0.0021362305,-27.105713,17.007446,-11.206055,0,0.0,0.0,0.0,0.0
0.979980469,0.11797954,-0.4083711,-0.90515965,0.06774266,0.9127121,-0.40294877,0.9907026,-0.013778214,0.13534547,0.13038914,-0.43874988,-0.8890991,0.07797676,0.8985151,-0.4319609,0.98839176,-0.013006066,0.1513689,9.658203,-0.13406372,1.3886261,9.715363,-0.13511658,1.3272705,-0.0053100586,0.031936646,0.0010681152,-27.105713,17.007446,-11.206055,0,0.0,0.0,0.0,0.0
0.984375,0.11811213,-0.40819937,-0.90521985,0.06779063,0.9127887,-0.4027672,0.99068356,-0.0137937255,0.13548349,0.13014674,-0.43814704,-0.88943183,0.07776335,0.898809,-0.43138757,0.9884405,-0.013021509,0.15104885,9.658203,-0.16279602,1.3263855,9.71521,-0.13526917,1.3286285,-0.008514404,0.03514099,0.010650635,-27.105713,17.007446,-11.206055,0,0.0,0.0,0.0,0.0
0.988769531,0.11524555,-0.4461491,-0.88750744,0.07269467,0.89485276,-0.440402,0.9906734,-0.013762682,0.13556047,0.13171795,-0.43668115,-0.88992137,0.078429386,0.8995197,-0.42978266,0.98817974,-0.013185893,0.15273152,9.691727,-0.028717041,1.2785034,9.715057,-0.13496399,1.3293762,-0.014892578,0.03086853,0.0,-25.671387,17.72461,-12.243652,0,0.0,0.0,0.0,0.0
0.993164063,0.11524555,-0.4461491,-0.88750744,0.07269467,0.89485276,-0.440402,0.9906734,-0.013762682,0.13556047,0.13138759,-0.436871,-0.88987696,0.07831823,0.89942735,-0.42999616,0.98823255,-0.013197429,0.15238856,9.706085,-0.16279602,1.3072205,9.715057,-0.13496399,1.3293762,0.0095825195,0.024475098,0.0021362305,-25.671387,17.72461,-12.243652,0,0.0,0.0,0.0,0.0
0.997558594,0.115283504,-0.44610578,-0.8875242,0.07272351,0.89487416,-0.44035387,0.990667,-0.013778346,0.13560662,0.13106388,-0.43705702,-0.88983333,0.078209154,0.89933676,-0.43020535,0.9882841,-0.013208733,0.15205243,9.710876,-0.12927246,1.158783,9.71492,-0.13511658,1.3298187,0.003189087,0.022354126,0.008529663,-25.671387,17.72461,-12.243652,0,0.0,0.0,0.0,0.0
1.001953125,0.12067875,-0.37500292,-0.9191352,0.06356496,0.9269211,-0.3698337,0.99065447,-0.013793732,0.13569671,0.13074745,-0.43723845,-0.8897907,0.078102686,0.8992485,-0.43040934,0.9883345,-0.013220125,0.15172394,9.806641,-0.14364624,1.3359528,9.71492,-0.13526917,1.330719,-0.0021362305,0.026611328,0.0,-27.28424,18.263245,-11.03363,0,0.0,0.0,0.0,0.0
1.006347656,0.1208034,-0.37484553,-0.9191829,0.06350885,0.9269857,-0.36968088,0.9906428,-0.013717543,0.13578905,0.13056041,-0.43601266,-0.8904195,0.07779565,0.8998432,-0.42922017,0.9883834,-0.013231597,0.15140378,9.720444,-0.11012268,1.3263855,9.714767,-0.13452148,1.3316193,-0.013839722,0.02128601,0.0032043457,-27.28424,18.263245,-11.03363,0,0.0,0.0,0.0,0.0
1.010742188,0.120809734,-0.37483755,-0.91918534,0.06349351,0.9269892,-0.36967486,0.990643,-0.0137019865,0.13578908,0.13037913,-0.43480757,-0.8910352,0.077494375,0.90042603,-0.4280509,0.98843104,-0.013241316,0.15109189,9.730026,-0.08139038,1.3455353,9.714767,-0.1343689,1.3316193,0.007461548,0.022354126,-0.014907837,-27.28424,18.263245,-11.03363,0,0.0,0.0,0.0,0.0
1.015136719,0.12201296,-0.35646895,-0.92630583,0.061037365,0.93420726,-0.3514698,0.99064994,-0.013655403,0.13574335,0.13020103,-0.43362564,-0.89163697,0.07719943,0.9009957,-0.426904,0.9884776,-0.013250531,0.1507862,9.706085,-0.004776001,1.2210388,9.714767,-0.13391113,1.3311615,0.0053253174,0.013824463,0.017028809,-26.208496,17.904663,-10.342407,0,0.0,0.0,0.0,0.0
1.01953125,0.122033946,-0.3564426,-0.92631334,0.061026346,0.93421763,-0.35144445,0.99064803,-0.013641371,0.13575864,0.13005584,-0.4321107,-0.8923933,0.07685839,0.9017231,-0.4254271,0.98852324,-0.013258628,0.1504857,9.686935,-0.10533142,1.3503265,9.714767,-0.1337738,1.3313141,0.0010681152,0.01914978,-0.004257202,-26.208496,17.904663,-10.342407,0,0.0,0.0,0.0,0.0
1.023925781,0.12205551,-0.3564154,-0.92632097,0.06101378,0.9342283,-0.35141847,0.9906462,-0.013625787,0.13577396,0.12991332,-0.4306244,-0.89313227,0.07652469,0.90243375,-0.42397797,0.98856795,-0.013266282,0.15019155,9.701294,-0.10055542,1.3934174,9.714767,-0.13362122,1.3314667,-0.0053100586,0.02128601,0.009597778,-26.208496,17.904663,-10.342407,0,0.0,0.0,0.0,0.0
1.028320313,0.11831968,-0.41007426,-0.9043448,0.068006046,0.91195035,-0.40462545,0.99064404,-0.013625757,0.13578922,0.12977329,-0.4291661,-0.89385414,0.07619806,0.903128,-0.422556,0.9886115,-0.013273472,0.14990352,9.672562,-0.12927246,1.3598938,9.714767,-0.13362122,1.3316193,0.0053253174,0.017028809,0.0032043457,-25.312805,16.648865,-10.861206,0,0.0,0.0,0.0,0.0
1.032714844,0.11845004,-0.40991277,-0.904401,0.068054855,0.91202277,-0.40445408,0.99062514,-0.013641271,0.13592568,0.1295474,-0.4287861,-0.8940693,0.07602937,0.9033084,-0.4222007,0.98865414,-0.013280518,0.14962159,9.658203,-0.09576416,1.3790588,9.714615,-0.1337738,1.332962,0.0,0.017028809,0.0,-25.312805,16.648865,-10.861206,0,0.0,0.0,0.0,0.0
1.037109375,0.11849191,-0.40986088,-0.904419,0.06808045,0.91204584,-0.40439764,0.99061835,-0.013655395,0.13597357,0.1293284,-0.42841047,-0.894281,0.07586518,0.90348655,-0.42184895,0.98869544,-0.013287733,0.1493479,9.658203,-0.1771698,1.1970978,9.714462,-0.13391113,1.3334198,0.0063934326,0.026611328,0.008529663,-25.312805,16.648865,-10.861206,0,0.0,0.0,0.0,0.0
1.041503906,0.12047912,-0.38438976,-0.9152755,0.06477646,0.9230705,-0.3791368,0.99060017,-0.013610235,0.13611014,0.12911457,-0.4280412,-0.89448875,0.07570499,0.90366143,-0.421503,0.9887357,-0.013295086,0.14908071,9.725235,-0.08618164,1.3742676,9.71431,-0.13346863,1.3347626,0.0063934326,0.024475098,-0.0010681152,-27.105713,17.366028,-10.861206,0,0.0,0.0,0.0,0.0
1.045898438,0.12047912,-0.38438976,-0.9152755,0.06477646,0.9230705,-0.3791368,0.99060017,-0.013610235,0.13611014,0.1289496,-0.4271774,-0.8949255,0.07547693,0.90407,-0.42066696,0.98877466,-0.013301389,0.1488215,9.691727,-0.14364624,1.3072205,9.71431,-0.13346863,1.3347626,-0.003189087,0.028747559,-0.007446289,-27.105713,17.366028,-10.861206,0,0.0,0.0,0.0,0.0
1.050292969,0.12045707,-0.3844185,-0.91526645,0.06478864,0.9230585,-0.37916443,0.99060214,-0.013625823,0.13609485,0.12878759,-0.42633048,-0.8953525,0.07525379,0.90446955,-0.41984716,0.9888127,-0.013307566,0.14856745,9.715668,-0.17237854,1.2928619,9.71431,-0.13362122,1.33461,0.012786865,0.015960693,0.0053253174,-27.105713,17.366028,-10.861206,0,0.0,0.0,0.0,0.0
1.0546875,0.118719876,-0.41038853,-0.9041498,0.0682196,0.91180915,-0.40490746,0.99058145,-0.013610171,0.13624641,0.1300377,-0.42524174,-0.8956895,0.07561742,0.9049823,-0.4186754,0.98862135,-0.013286142,0.14983748,9.629471,-0.03829956,1.3455353,9.714172,-0.13346863,1.3361053,-0.0042419434,0.023422241,-0.0010681152,-25.312805,17.366028,-11.206055,0,0.0,0.0,0.0,0.0
1.059082031,0.11887402,-0.41020462,-0.90421295,0.06825864,0.91189194,-0.40471452,0.99056035,-0.013610308,0.13640028,0.12981364,-0.42494577,-0.89586246,0.075465776,0.9051212,-0.4184023,0.9886624,-0.013292623,0.14956594,9.787491,-0.17237854,1.3934174,9.713867,-0.13346863,1.3376007,0.0138549805,0.034072876,0.0063934326,-25.312805,17.366028,-11.206055,0,0.0,0.0,0.0,0.0
1.063476563,0.11897823,-0.41008028,-0.9042557,0.06840141,0.91194624,-0.404568,0.99053794,-0.013717578,0.13655183,0.12959705,-0.424652,-0.8960331,0.07531808,0.90525895,-0.41813082,0.98870206,-0.013298976,0.14930287,9.816223,-0.22505188,1.3742676,9.713715,-0.13452148,1.3390961,0.0063934326,0.031936646,-0.0053253174,-25.312805,17.366028,-11.206055,0,0.0,0.0,0.0,0.0
1.067871094,0.113503255,-0.47793734,-0.87102985,0.07735505,0.8782852,-0.4718383,0.99052167,-0.013823375,0.13665909,0.12938681,-0.42436165,-0.896201,0.07517637,0.905395,-0.41786173,0.9887404,-0.013307349,0.14904813,9.710876,-0.20111084,1.2737122,9.713562,-0.13555908,1.3401489,-0.023422241,0.036193848,0.012786865,-24.057007,17.546082,-12.762451,0,0.0,0.0,0.0,0.0
1.072265625,0.11354649,-0.477892,-0.871049,0.07740563,0.8783093,-0.471785,0.9905128,-0.013854567,0.13672048,0.12906785,-0.42544883,-0.89573145,0.0752361,0.90488446,-0.4189554,0.9887776,-0.01331767,0.1488006,9.610321,-0.21546936,1.4700317,9.713425,-0.13586426,1.340744,-0.0042419434,0.03086853,0.018096924,-24.057007,17.546082,-12.762451,0,0.0,0.0,0.0,0.0
1.076660156,0.113655195,-0.4777781,-0.8710974,0.07749516,0.8783706,-0.47165626,0.9904933,-0.013899635,0.13685687,0.12875627,-0.42651275,-0.89527017,0.07529496,0.90438336,-0.4200255,0.9888137,-0.013328408,0.1485593,9.634262,-0.21546936,1.4125671,9.713272,-0.13630676,1.3420868,0.0021362305,0.017028809,0.0053253174,-24.057007,17.546082,-12.762451,0,0.0,0.0,0.0,0.0
1.081054688,0.11362767,-0.47780693,-0.87108517,0.07745212,0.87835544,-0.47169167,0.99049985,-0.013870163,0.13681264,0.12845324,-0.42755243,-0.8948177,0.07535365,0.9038921,-0.42107108,0.9888486,-0.013339832,0.1483255,9.787491,-0.06703186,1.2401886,9.713272,-0.13601685,1.3416443,0.012786865,0.025543213,0.0053253174,-24.057007,17.546082,-12.762451,0,0.0,0.0,0.0,0.0
1.085449219,0.1136358,-0.47779843,-0.87108874,0.077437475,0.8783603,-0.47168502,0.9905001,-0.013854606,0.13681267,0.12815557,-0.4285714,-0.8943728,0.07540972,0.90340924,-0.42209604,0.98888296,-0.013350439,0.14809538,9.758759,-0.10533142,1.3503265,9.713272,-0.13586426,1.3416443,0.0053253174,0.014892578,0.007461548,-24.057007,17.546082,-12.762451,0,0.0,0.0,0.0,0.0
1.08984375,0.11360281,-0.47783303,-0.8710741,0.07746062,0.87834096,-0.47171718,0.99050206,-0.013885535,0.13679524,0.12786403,-0.4295693,-0.89393574,0.07546379,0.9029351,-0.42309985,0.9889166,-0.013360523,0.14786984,9.672562,-0.22026062,1.3072205,9.713425,-0.13616943,1.3414917,-0.006378174,0.0021209717,0.01171875,-24.057007,17.546082,-12.762451,0,0.0,0.0,0.0,0.0
1.094238281,0.116523415,-0.4438278,-0.8885039,0.0730517,0.8960048,-0.43799424,0.99049777,-0.013870134,0.13682792,0.1275778,-0.43054742,-0.89350593,0.07551679,0.9024689,-0.42408383,0.9889495,-0.013371023,0.14764854,9.658203,-0.06703186,1.3886261,9.713272,-0.13601685,1.3417969,0.004257202,0.012771606,-0.003189087,-26.567078,17.1875,-12.069702,0,0.0,0.0,0.0,0.0
1.098632813,0.116545506,-0.44380096,-0.88851434,0.073142156,0.8960168,-0.43795434,0.9904884,-0.013946245,0.13688731,0.1273559,-0.43081397,-0.89340913,0.07547061,0.9023416,-0.42436293,0.9889816,-0.013381005,0.14743231,9.7827,-0.0909729,1.3982086,9.713272,-0.13676453,1.342392,-0.009567261,0.013824463,0.010650635,-26.567078,17.1875,-12.069702,0,0.0,0.0,0.0,0.0
1.103027344,0.1165303,-0.44381943,-0.8885071,0.073137835,0.89600766,-0.4379738,0.99049056,-0.013946275,0.13687204,0.12713897,-0.43107456,-0.8933143,0.07542704,0.9022169,-0.42463562,0.98901284,-0.013392311,0.14722161,9.710876,-0.15800476,1.2928619,9.713272,-0.13676453,1.3422394,0.010650635,0.012771606,0.022354126,-26.567078,17.1875,-12.069702,0,0.0,0.0,0.0,0.0
1.107421875,0.117246896,-0.43589488,-0.8923278,0.072091825,0.89989024,-0.4301166,0.9904826,-0.0138997035,0.13693379,0.1269261,-0.43133032,-0.8932211,0.075384125,0.9020945,-0.4249032,0.9890435,-0.01340339,0.1470148,9.701294,-0.028717041,1.5131226,9.7131195,-0.13630676,1.3428345,-0.007446289,0.004257202,0.010650635,-28.001404,16.470337,-11.7248535,0,0.0,0.0,0.0,0.0
1.111816406,0.11726266,-0.4358739,-0.89233595,0.07213006,0.8998999,-0.43008995,0.990478,-0.013930758,0.13696426,0.12673235,-0.43142173,-0.89320445,0.07531932,0.9020507,-0.4250078,0.9890733,-0.013413316,0.1468134,9.758759,-0.2106781,1.4365082,9.7131195,-0.13661194,1.3431396,-0.008514404,-0.0021362305,0.009597778,-28.001404,16.470337,-11.7248535,0,0.0,0.0,0.0,0.0
1.116210938,0.117193006,-0.43596658,-0.89229983,0.07212915,0.8998547,-0.4301845,0.99048626,-0.013946216,0.13690257,0.12654276,-0.43151087,-0.89318824,0.075256504,0.9020078,-0.4251097,0.98910224,-0.0134236645,0.14661656,9.672562,-0.13885498,1.3838348,9.713272,-0.13676453,1.3425446,0.0010681152,-0.0010681152,-0.0053253174,-28.001404,16.470337,-11.7248535,0,0.0,0.0,0.0,0.0
1.120605469,0.11956569,-0.4044982,-0.9066891,0.06793048,0.91443336,-0.39899507,0.9904997,-0.01388572,0.13681261,0.12525877,-0.4306534,-0.89378285,0.0745959,0.9024161,-0.424359,0.98931575,-0.013517853,0.14516051,9.720444,-0.02394104,1.3982086,9.713272,-0.13616943,1.3416443,-0.015960693,-0.019180298,-0.0010681152,-26.92566,17.546082,-11.378479,0,0.0,0.0,0.0,0.0
1.125,0.11948639,-0.40459785,-0.9066552,0.06787813,0.91438985,-0.3991039,0.9905128,-0.013854567,0.13672048,0.12514776,-0.43013373,-0.8940487,0.074458845,0.9026638,-0.42385596,0.9893401,-0.01352521,0.14499362,9.768341,-0.10533142,1.498764,9.713425,-0.13586426,1.340744,0.0063934326,-0.0234375,-0.004257202,-26.92566,17.546082,-11.378479,0,0.0,0.0,0.0,0.0
1.129394531,0.11924034,-0.40490693,-0.9065495,0.06782028,0.91425294,-0.39942706,0.9905464,-0.013854623,0.13647676,0.12503734,-0.42962632,-0.8943081,0.074323624,0.9029054,-0.42336494,0.98936427,-0.0135317985,0.14482826,9.677353,-0.1197052,1.3503265,9.713715,-0.13586426,1.3383484,0.008514404,-0.031967163,-0.003189087,-26.92566,17.546082,-11.378479,0,0.0,0.0,0.0,0.0
1.133789063,0.11759693,-0.42453736,-0.8977411,0.0703398,0.90530396,-0.41889986,0.99056715,-0.013885597,0.13632283,0.1249241,-0.42913496,-0.89455974,0.07419003,0.9031389,-0.42289,0.9893886,-0.013538254,0.14466135,9.753967,-0.15800476,1.474823,9.71402,-0.13616943,1.336853,-0.0021362305,-0.05645752,0.0010681152,-26.208496,18.263245,-12.069702,0,0.0,0.0,0.0,0.0
1.138183594,0.11742406,-0.42473772,-0.8976689,0.07030783,0.9052098,-0.41910875,0.9905899,-0.013899703,0.13615578,0.12477801,-0.4290431,-0.8946242,0.07411232,0.90318245,-0.4228106,0.98941284,-0.013545201,0.14449468,9.7348175,-0.11491394,1.4317322,9.714172,-0.13630676,1.3352051,0.0010681152,-0.046875,0.0063934326,-26.208496,18.263245,-12.069702,0,0.0,0.0,0.0,0.0
1.142578125,0.11713879,-0.42506826,-0.8975497,0.07032992,0.90505314,-0.41944307,0.9906221,-0.013991543,0.13591185,0.12463135,-0.42895707,-0.89468586,0.07403556,0.9032232,-0.422737,0.98943704,-0.013552291,0.144328,9.739609,-0.19152832,1.201889,9.714462,-0.13720703,1.3328094,-0.010635376,-0.045806885,0.0032043457,-26.208496,18.263245,-12.069702,0,0.0,0.0,0.0,0.0
1.146972656,0.11249331,-0.48002294,-0.87001336,0.07741721,0.8771436,-0.47394693,0.99063206,-0.014038144,0.13583484,0.12448188,-0.42887935,-0.8947439,0.07396085,0.90325993,-0.4226715,0.9894615,-0.0135610765,0.14415978,9.643829,-0.13406372,1.474823,9.714615,-0.1376648,1.3320618,0.0021362305,-0.041549683,0.014923096,-27.464294,17.007446,-12.9348755,0,0.0,0.0,0.0,0.0
1.151367188,0.112229474,-0.4803413,-0.86987174,0.07738049,0.8769686,-0.47427663,0.9906648,-0.0140832905,0.13559076,0.12424246,-0.42991668,-0.8942793,0.07404111,0.9027666,-0.42371032,0.98948556,-0.013570617,0.14399345,9.773117,-0.14364624,1.1539917,9.71492,-0.1381073,1.3296661,0.004257202,-0.031967163,0.010650635,-27.464294,17.007446,-12.9348755,0,0.0,0.0,0.0,0.0
1.155761719,0.112021275,-0.4805924,-0.86975986,0.07743228,0.8768293,-0.47452575,0.9906844,-0.014190511,0.1354369,0.124002405,-0.43093926,-0.89382035,0.0741189,0.9022788,-0.42473456,0.9895099,-0.013580871,0.14382547,9.691727,-0.27293396,1.2689209,9.71521,-0.13916016,1.3281708,-0.0042419434,-0.038360596,0.008529663,-27.464294,17.007446,-12.9348755,0,0.0,0.0,0.0,0.0
1.16015625,0.119817585,-0.38253292,-0.9161399,0.06481378,0.92383313,-0.37726855,0.9906781,-0.0141750835,0.13548486,0.123763055,-0.43194598,-0.89336747,0.07419602,0.90179706,-0.42574292,0.9895341,-0.013593063,0.14365782,9.715668,-0.06703186,1.4412994,9.715057,-0.13900757,1.3286285,0.0053253174,-0.029830933,0.0138549805,-24.595642,16.648865,-10.168457,0,0.0,0.0,0.0,0.0
1.164550781,0.119715184,-0.38266,-0.9161003,0.06477505,0.92378086,-0.37740347,0.9906929,-0.014159514,0.13537739,0.12369074,-0.4309696,-0.89384884,0.07400229,0.9022639,-0.42478648,0.98955756,-0.013604703,0.14349443,9.62468,-0.13406372,1.0486603,9.71521,-0.13885498,1.3275757,-0.009567261,-0.014923096,0.0,-24.595642,16.648865,-10.168457,0,0.0,0.0,0.0,0.0
1.168945313,0.11967473,-0.38271013,-0.9160845,0.064749494,0.9237601,-0.37745804,0.9906994,-0.014143825,0.13533103,0.12361764,-0.4300148,-0.89431876,0.07381182,0.9027192,-0.42385128,0.989581,-0.013615799,0.14333218,9.677353,-0.07661438,1.206665,9.715363,-0.1387024,1.3271332,0.0021362305,-0.0063934326,0.0,-24.595642,16.648865,-10.168457,0,0.0,0.0,0.0,0.0
1.173339844,0.11205007,-0.48008427,-0.8700367,0.077272646,0.8771088,-0.47403485,0.9906935,-0.014114398,0.13537748,0.123544894,-0.42907956,-0.89477783,0.073624834,0.9031639,-0.42293537,0.98960394,-0.013626359,0.1431722,9.662994,-0.06703186,1.4365082,9.71521,-0.13841248,1.3275757,0.008514404,0.004257202,0.0021362305,-26.029968,17.366028,-12.9348755,0,0.0,0.0,0.0,0.0
1.177734375,0.11208144,-0.48004884,-0.8700522,0.07724833,0.8771287,-0.474002,0.9906919,-0.014083255,0.13539281,0.123315476,-0.43011403,-0.8943126,0.073708296,0.9026716,-0.4239706,0.98962635,-0.01363612,0.14301634,9.706085,-0.06703186,1.3838348,9.71521,-0.1381073,1.3277283,0.004257202,0.02128601,0.0010681152,-26.029968,17.366028,-12.9348755,0,0.0,0.0,0.0,0.0
1.182128906,0.11207321,-0.48005816,-0.87004817,0.07726306,0.87712336,-0.47400954,0.99069166,-0.014098812,0.13539279,0.12309132,-0.4311265,-0.893856,0.07378919,0.9021883,-0.424984,0.9896483,-0.013645062,0.14286402,9.710876,-0.18673706,1.3359528,9.71521,-0.13825989,1.3277283,-0.012771606,0.017028809,0.007461548,-26.029968,17.366028,-12.9348755,0,0.0,0.0,0.0,0.0
1.186523438,0.118739806,-0.39650872,-0.91031957,0.0665397,0.91792226,-0.39114094,0.99069333,-0.0141284,0.13537745,0.12334578,-0.4323489,-0.8932302,0.07448252,0.90159816,-0.42611396,0.98956466,-0.013970684,0.14341077,9.648621,-0.20588684,1.4125671,9.71521,-0.1385498,1.3275757,0.003189087,0.010650635,0.0053253174,-28.181458,18.08319,-11.552429,0,0.0,0.0,0.0,0.0
1.190917969,0.11875727,-0.39648622,-0.9103271,0.066577114,0.91793144,-0.3911129,0.99068874,-0.014159453,0.13540794,0.12334578,-0.4323489,-0.8932302,0.07448252,0.90159816,-0.42611396,0.98956466,-0.013970684,0.14341077,9.648621,-0.20588684,1.4125671,9.71521,-0.13885498,1.3278809,0.003189087,0.010650635,0.0053253174,-28.181458,18.08319,-11.552429,0,0.0,0.0,0.0,0.0
1.1953125,0.11872829,-0.39652345,-0.9103146,0.06660426,0.917915,-0.3911472,0.99069047,-0.014190597,0.13539262,0.12317257,-0.43094116,-0.8939341,0.07416065,0.90227175,-0.42474213,0.9896104,-0.013978159,0.143094,9.739609,-0.22505188,1.3072205,9.71521,-0.13916016,1.3277283,-0.011703491,0.008514404,0.004272461,-28.181458,18.08319,-11.552429,0,0.0,0.0,0.0,0.0
1.199707031,0.10973953,-0.5059272,-0.855567,0.08069076,0.8624592,-0.499653,0.9906797,-0.014204671,0.13546951,0.12308769,-0.4302587,-0.89427453,0.074005306,0.90259737,-0.42407694,0.9896326,-0.013982409,0.14294004,9.62468,-0.1819458,1.4843903,9.715057,-0.13929749,1.328476,0.004257202,0.014892578,0.0138549805,-25.312805,15.214539,-12.243652,0,0.0,0.0,0.0,0.0
1.204101563,0.10976231,-0.50589997,-0.8555802,0.08068301,0.86247545,-0.49962628,0.99067783,-0.01419064,0.13548483,0.12282402,-0.43180493,-0.8935651,0.074155934,0.90185857,-0.42561954,0.98965406,-0.013986854,0.14279081,9.643829,-0.0909729,1.3934174,9.715057,-0.13916016,1.3286285,0.022369385,-0.0010681152,0.0032043457,-25.312805,15.214539,-12.243652,0,0.0,0.0,0.0,0.0
1.208496094,0.109754406,-0.50590944,-0.8555756,0.08069618,0.8624697,-0.49963415,0.99067765,-0.014204641,0.1354848,0.12256583,-0.4333184,-0.89286774,0.074302636,0.9011323,-0.4271296,0.9896751,-0.01399093,0.14264473,9.730026,-0.17237854,1.3072205,9.715057,-0.13929749,1.3286285,-0.003189087,0.008514404,0.0021362305,-25.312805,15.214539,-12.243652,0,0.0,0.0,0.0,0.0
1.212890625,0.11683666,-0.4230753,-0.89853024,0.070077434,0.90598345,-0.41747242,0.99067575,-0.0141906105,0.1355001,0.12231256,-0.43480065,-0.8921817,0.07444606,0.900418,-0.4286085,0.98969567,-0.013995204,0.14250161,9.600739,-0.1197052,1.3598938,9.715057,-0.13916016,1.3287811,0.007461548,-0.0032043457,-0.0021209717,-26.567078,16.828918,-11.378479,0,0.0,0.0,0.0,0.0
1.217285156,0.11681476,-0.4231029,-0.89852,0.070087165,0.90597034,-0.41749927,0.99067765,-0.014204641,0.1354848,0.12220404,-0.43456686,-0.8923104,0.07435722,0.90053076,-0.42838687,0.9897157,-0.013999113,0.14236169,9.768341,-0.1771698,1.2928619,9.715057,-0.13929749,1.3286285,-0.007446289,-0.021316528,0.0021362305,-26.567078,16.828918,-11.378479,0,0.0,0.0,0.0,0.0
1.221679688,0.11681476,-0.4231029,-0.89852,0.070087165,0.90597034,-0.41749927,0.99067765,-0.014204641,0.1354848,0.122097194,-0.4343383,-0.8924363,0.07427041,0.90064096,-0.42817023,0.9897354,-0.014003224,0.14222422,9.696503,-0.15322876,1.3311615,9.715057,-0.13929749,1.3286285,0.0053253174,-0.0138549805,0.01171875,-26.567078,16.828918,-11.378479,0,0.0,0.0,0.0,0.0
1.226074219,0.118063115,-0.40653822,-0.90597343,0.067929916,0.9135236,-0.4010738,0.99067986,-0.014190669,0.13546954,0.12199243,-0.43411428,-0.89255965,0.07418538,0.9007489,-0.4279579,0.98975474,-0.014007252,0.14208947,9.720444,-0.08139038,1.2832794,9.715057,-0.13916016,1.328476,-0.010635376,-0.015975952,0.0010681152,-25.849915,18.621826,-11.7248535,0,0.0,0.0,0.0,0.0
1.23046875,0.11812272,-0.40646988,-0.90599626,0.06794509,0.91355395,-0.40100196,0.9906717,-0.014190553,0.13552912,0.1219166,-0.4335666,-0.89283615,0.07405735,0.9010126,-0.4274246,0.98977363,-0.01401092,0.1419572,9.677353,-0.13406372,1.4891815,9.715057,-0.13916016,1.329071,-0.011703491,-0.009597778,0.0053253174,-25.849915,18.621826,-11.7248535,0,0.0,0.0,0.0,0.0
1.234863281,0.11808751,-0.40651023,-0.90598273,0.06795129,0.9135357,-0.4010423,0.99067545,-0.01420461,0.13550006,0.12184335,-0.4330284,-0.89310724,0.07393232,0.90127134,-0.42690045,0.989792,-0.014014512,0.1418287,9.715668,-0.18673706,1.2545471,9.715057,-0.13929749,1.3287811,-0.007446289,-0.0063934326,-0.0053253174,-25.849915,18.621826,-11.7248535,0,0.0,0.0,0.0,0.0
1.239257813,0.118623026,-0.39933655,-0.90909785,0.0670431,0.91669416,-0.39392525,0.9906734,-0.014220141,0.13551378,0.12177072,-0.43250158,-0.8933724,0.07381,0.9015241,-0.42638743,0.98981005,-0.014018315,0.14170219,9.739609,-0.20111084,1.364685,9.715057,-0.13945007,1.3289185,-0.013839722,-0.0032043457,0.004272461,-25.491333,17.546082,-11.03363,0,0.0,0.0,0.0,0.0
1.243652344,0.11858518,-0.39938205,-0.90908283,0.06701732,0.9166746,-0.39397523,0.9906797,-0.014204671,0.13546951,0.12171107,-0.4318438,-0.89369863,0.07367152,0.9018394,-0.4257443,0.9898277,-0.014022351,0.1415784,9.686935,-0.08618164,1.2306061,9.715057,-0.13929749,1.328476,-0.012771606,-0.014923096,0.0053253174,-25.491333,17.546082,-11.03363,0,0.0,0.0,0.0,0.0
1.248046875,0.11859125,-0.3993747,-0.90908515,0.06700363,0.91667783,-0.3939696,0.99067986,-0.014190669,0.13546954,0.12165176,-0.43119982,-0.8940176,0.073535405,0.9021474,-0.42511472,0.98984516,-0.014025997,0.14145628,9.672562,-0.0909729,1.3311615,9.715057,-0.13916016,1.328476,-0.010635376,-0.018112183,0.0053253174,-25.491333,17.546082,-11.03363,0,0.0,0.0,0.0,0.0
1.252441406,0.11590093,-0.43413123,-0.89336276,0.07146872,0.9007378,-0.4284431,0.9906862,-0.014190537,0.13542315,0.1215937,-0.4305684,-0.89432985,0.0734019,0.90244895,-0.4244975,0.9898622,-0.0140292905,0.14133663,9.643829,-0.14364624,1.1923065,9.71521,-0.13916016,1.3280334,-0.006378174,0.0,0.012786865,-25.312805,17.72461,-11.897278,0,0.0,0.0,0.0,0.0
1.256835938,0.11594065,-0.43408585,-0.8933797,0.07152994,0.9007591,-0.42838845,0.99067724,-0.0142357545,0.13548474,0.12160675,-0.43165898,-0.89380217,0.07357949,0.901928,-0.42557243,0.9898474,-0.014013026,0.14144179,9.610321,-0.22984314,1.2880707,9.715057,-0.13960266,1.3286285,0.017044067,0.003189087,0.0021362305,-25.312805,17.72461,-11.897278,0,0.0,0.0,0.0,0.0
1.261230469,0.11594802,-0.4340774,-0.8933828,0.07151495,0.9007633,-0.42838186,0.99067736,-0.014220197,0.13548476,0.12149328,-0.43170756,-0.8937942,0.07353878,0.90190476,-0.4256289,0.9898644,-0.01401748,0.1413226,9.706085,-0.11491394,1.3215942,9.715057,-0.13945007,1.3286285,-0.024490356,0.015960693,-0.0010681152,-25.312805,17.72461,-11.897278,0,0.0,0.0,0.0,0.0
1.265625,0.11314008,-0.46775514,-0.87658685,0.07582469,0.8837437,-0.4617875,0.9906815,-0.014220257,0.13545421,0.12138231,-0.43175498,-0.8937863,0.0734986,0.901882,-0.42568406,0.989881,-0.0140215345,0.1412059,9.662994,-0.11012268,1.2401886,9.715057,-0.13945007,1.3283234,-0.006378174,0.004257202,0.0021362305,-26.029968,16.648865,-12.243652,0,0.0,0.0,0.0,0.0
1.270019531,0.11328952,-0.46757716,-0.8766625,0.07587245,0.883838,-0.4615994,0.9906609,-0.014220161,0.13560578,0.12121745,-0.43248206,-0.8934571,0.07355045,0.9015334,-0.4264127,0.9898974,-0.014025508,0.14109084,9.7827,-0.15322876,1.4221497,9.71492,-0.13945007,1.3298187,0.0095825195,0.0063934326,0.0,-26.029968,16.648865,-12.243652,0,0.0,0.0,0.0,0.0
1.274414063,0.113454424,-0.46738064,-0.87674594,0.07589196,0.88394225,-0.46139616,0.9906404,-0.014190528,0.1357576,0.12105899,-0.43319067,-0.89313525,0.073601894,0.9011931,-0.42712265,0.98991287,-0.014029402,0.1409812,9.691727,-0.06703186,1.3072205,9.714767,-0.13916016,1.3313141,0.0021362305,0.029815674,0.0010681152,-26.029968,16.648865,-12.243652,0,0.0,0.0,0.0,0.0
1.278808594,0.11559568,-0.4421422,-0.8894649,0.072646886,0.89683294,-0.4363635,0.9906362,-0.01417513,0.13579027,0.12090712,-0.43388087,-0.8928207,0.0736524,0.90086097,-0.42781407,0.98992765,-0.014032624,0.14087687,9.682144,-0.11012268,1.4221497,9.714615,-0.13900757,1.3316193,0.004257202,0.036193848,-0.0010681152,-24.954224,18.800354,-12.588501,0,0.0,0.0,0.0,0.0
1.283203125,0.115586184,-0.4421523,-0.8894612,0.07262653,0.89682823,-0.43637657,0.99063873,-0.014159384,0.13577293,0.120800614,-0.43404645,-0.8927547,0.07363318,0.90078115,-0.42798537,0.9899421,-0.014035474,0.14077513,9.730026,-0.07182312,1.2928619,9.714767,-0.13885498,1.3314667,0.0021362305,0.014892578,0.0021362305,-24.954224,18.800354,-12.588501,0,0.0,0.0,0.0,0.0
1.287597656,0.11570732,-0.44202378,-0.8895094,0.07269883,0.8968911,-0.43623534,0.9906193,-0.01419067,0.13591146,0.12069602,-0.43420887,-0.8926898,0.0736139,0.90070283,-0.42815349,0.98995626,-0.014037952,0.14067507,9.706085,-0.1484375,1.3886261,9.714462,-0.13916016,1.3328094,0.0,0.007446289,0.0,-24.954224,18.800354,-12.588501,0,0.0,0.0,0.0,0.0
1.291992188,0.11587148,-0.44184947,-0.88957447,0.07274978,0.8969769,-0.4360502,0.9905964,-0.014190566,0.1360785,0.12059604,-0.43436548,-0.8926271,0.0735964,0.90062726,-0.4283154,0.98996973,-0.014041007,0.14057982,9.653412,-0.07182312,1.450882,9.71431,-0.13916016,1.3344574,0.004257202,0.028747559,0.007461548,-24.954224,18.800354,-12.588501,0,0.0,0.0,0.0,0.0
1.296386719,0.115842946,-0.4418798,-0.8895632,0.07274097,0.89696205,-0.43608242,0.9906004,-0.014190623,0.13604948,0.12050142,-0.43451548,-0.8925669,0.07358024,0.90055484,-0.4284704,0.9899824,-0.014043997,0.14048989,9.677353,-0.11012268,1.2689209,9.71431,-0.13916016,1.3341675,0.0010681152,0.026611328,0.0063934326,-24.954224,18.800354,-12.588501,0,0.0,0.0,0.0,0.0
1.30078125,0.115896665,-0.44182274,-0.88958454,0.07280756,0.89698946,-0.43601498,0.99058926,-0.014235788,0.13612613,0.12040807,-0.43466306,-0.8925076,0.07356417,0.9004836,-0.42862293,0.98999506,-0.01404693,0.14040112,9.648621,0.0335083,1.3455353,9.714172,-0.13960266,1.3349152,0.0053253174,0.012771606,-0.004257202,-24.954224,18.800354,-12.588501,0,0.0,0.0,0.0,0.0
1.305175781,0.11253065,-0.4815638,-0.8691566,0.07793314,0.87629545,-0.4754291,0.9905874,-0.014235761,0.13613987,0.12031771,-0.43480656,-0.89245,0.07354973,0.9004143,-0.42877102,0.9900071,-0.014050707,0.14031568,9.801849,-0.1771698,1.3886261,9.714172,-0.13960266,1.3350525,-0.0042419434,0.017028809,0.024490356,-26.38855,15.931702,-12.243652,0,0.0,0.0,0.0,0.0
1.309570313,0.112525426,-0.48157024,-0.8691537,0.077913865,0.8762921,-0.47543824,0.99058944,-0.01422023,0.13612615,0.12016336,-0.43575397,-0.89200854,0.07364336,0.8999561,-0.42971587,0.9900189,-0.014054408,0.14023212,9.710876,-0.0909729,1.2976532,9.714172,-0.13945007,1.3349152,-0.015960693,-0.0063934326,-0.0010681152,-26.38855,15.931702,-12.243652,0,0.0,0.0,0.0,0.0
1.313964844,0.11258418,-0.48149788,-0.86918616,0.07793305,0.87633187,-0.47536182,0.9905813,-0.014220113,0.1361857,0.12001192,-0.43668205,-0.891575,0.07373449,0.89950603,-0.43064144,0.99003047,-0.014057725,0.14014997,9.7348175,-0.1484375,1.5083466,9.714172,-0.13945007,1.3355103,0.017044067,0.004257202,-0.004257202,-26.38855,15.931702,-12.243652,0,0.0,0.0,0.0,0.0
1.318359375,0.11188259,-0.48959678,-0.8647412,0.079022504,0.8718325,-0.48338756,0.9905744,-0.014251359,0.13623203,0.119864635,-0.43758965,-0.89114964,0.0738239,0.8990648,-0.43154657,0.9900416,-0.014060972,0.14007065,9.667786,-0.19152832,1.4221497,9.71402,-0.13975525,1.3359528,0.0095825195,-0.0053253174,-0.0021209717,-26.567078,16.470337,-12.762451,0,0.0,0.0,0.0,0.0
1.322753906,0.11196634,-0.489497,-0.8647868,0.0789983,0.8718893,-0.4832891,0.9905669,-0.014204571,0.13629168,0.11924477,-0.4390035,-0.89053726,0.07472274,0.8983614,-0.43285495,0.99004906,-0.014927693,0.13992845,9.730026,-0.04309082,1.498764,9.71402,-0.13929749,1.3365479,0.004257202,-0.0010681152,0.0138549805,-26.567078,16.470337,-12.762451,0,0.0,0.0,0.0,0.0
1.327148438,0.1118703,-0.4896114,-0.8647344,0.07894917,0.8718253,-0.4834126,0.99058175,-0.0141905565,0.13618578,0.11910043,-0.4400279,-0.8900509,0.07481398,0.8978602,-0.43387768,0.99005955,-0.01491323,0.13985577,9.672562,-0.08139038,1.4077759,9.714172,-0.13916016,1.3355103,0.007461548,-0.009597778,0.0063934326,-26.567078,16.470337,-12.762451,0,0.0,0.0,0.0,0.0
1.331542969,0.11559604,-0.44531637,-0.88788,0.07318371,0.8952611,-0.43949035,0.99059665,-0.014175009,0.13607854,0.118956886,-0.4410336,-0.88957214,0.07490227,0.89736694,-0.4348819,0.99007016,-0.014898777,0.1397824,9.7348175,-0.13406372,1.4365082,9.71431,-0.13900757,1.3344574,0.007461548,-0.028762817,0.0010681152,-24.595642,16.648865,-11.552429,0,0.0,0.0,0.0,0.0
1.3359375,0.11543881,-0.4454992,-0.88780874,0.07318683,0.8951694,-0.43967652,0.9906148,-0.01422017,0.13594197,0.11888946,-0.44111934,-0.8895386,0.074868195,0.897325,-0.43497422,0.9900808,-0.014884302,0.1397083,9.619888,-0.23461914,1.4077759,9.714462,-0.13945007,1.3331146,-0.010635376,-0.031967163,-0.004257202,-24.595642,16.648865,-11.552429,0,0.0,0.0,0.0,0.0
1.340332031,0.11515995,-0.44582337,-0.8876822,0.073187955,0.8950068,-0.44000727,0.99064714,-0.014296431,0.13569784,0.11882031,-0.44120705,-0.8895044,0.07483491,0.8972821,-0.43506843,0.9900916,-0.01487102,0.13963303,9.701294,-0.2106781,1.3215942,9.714767,-0.14019775,1.330719,-0.006378174,-0.038360596,-0.0010681152,-24.595642,16.648865,-11.552429,0,0.0,0.0,0.0,0.0
1.344726563,0.11648183,-0.42680296,-0.8968118,0.07066038,0.90423155,-0.4211564,0.9906761,-0.014311982,0.13548459,0.1187469,-0.44129947,-0.88946843,0.07480233,0.8972369,-0.43516737,0.99010295,-0.014859529,0.13955432,9.667786,-0.1484375,1.2928619,9.715057,-0.14035034,1.3286285,-0.006378174,-0.053268433,0.012786865,-25.312805,17.366028,-11.552429,0,0.0,0.0,0.0,0.0
1.349121094,0.11640374,-0.42689452,-0.8967783,0.07060641,0.90418863,-0.42125723,0.9906891,-0.014282381,0.13539243,0.11870259,-0.44101062,-0.8896175,0.07471859,0.89737904,-0.43488848,0.9901145,-0.014848579,0.1394729,9.758759,-0.07661438,1.5418549,9.71521,-0.14006042,1.3277283,0.0010681152,-0.046875,0.0,-25.312805,17.366028,-11.552429,0,0.0,0.0,0.0,0.0
1.353515625,0.116190374,-0.42714465,-0.8966868,0.07051341,0.904071,-0.4215252,0.99072075,-0.01425127,0.13516378,0.11865765,-0.44072935,-0.8897629,0.074635506,0.8975174,-0.4346171,0.9901262,-0.014837255,0.13939136,9.672562,-0.09576416,1.2401886,9.715515,-0.13975525,1.3254852,-0.007446289,-0.038360596,-0.003189087,-25.312805,17.366028,-11.552429,0,0.0,0.0,0.0,0.0
1.357910156,0.11157804,-0.4807388,-0.86973596,0.0772847,0.87674814,-0.47469985,0.9907459,-0.014251206,0.13497958,0.11860931,-0.44045863,-0.88990337,0.07455221,0.8976505,-0.4343565,0.9901383,-0.014825536,0.13930687,9.773117,-0.13885498,1.1396332,9.715805,-0.13975525,1.3236847,-0.0010681152,-0.043685913,-0.0021209717,-26.208496,15.753174,-12.069702,0,0.0,0.0,0.0,0.0
1.362304688,0.11139594,-0.48096412,-0.8696347,0.07729344,0.87662345,-0.47492844,0.9907657,-0.014311951,0.13482766,0.11846889,-0.4412734,-0.8895183,0.07461162,0.8972504,-0.43517214,0.99015063,-0.014814049,0.13922039,9.686935,-0.22505188,1.2162476,9.715958,-0.14035034,1.3221893,0.020233154,-0.02557373,0.0010681152,-26.208496,15.753174,-12.069702,0,0.0,0.0,0.0,0.0
1.366699219,0.11118569,-0.4812243,-0.8695177,0.07722409,0.8764807,-0.4752032,0.9907947,-0.01431192,0.1346142,0.11832761,-0.44207615,-0.8891385,0.07467001,0.89685535,-0.43597576,0.9901631,-0.014804007,0.13913257,9.672562,-0.15800476,1.1875153,9.716263,-0.14035034,1.3200989,0.01171875,-0.024505615,0.007461548,-26.208496,15.753174,-12.069702,0,0.0,0.0,0.0,0.0
1.37109375,0.107014716,-0.5260164,-0.8437148,0.08285533,0.8503543,-0.51964664,0.9907991,-0.014296424,0.13458368,0.118184924,-0.44286782,-0.8887634,0.074725874,0.8964649,-0.43676862,0.99017596,-0.014794164,0.13904232,9.686935,-0.12927246,1.2353973,9.716263,-0.14019775,1.3197937,0.012786865,-0.036224365,-0.0021209717,-26.38855,15.931702,-13.279724,0,0.0,0.0,0.0,0.0
1.375488281,0.10698681,-0.5260488,-0.84369814,0.08284423,0.85033435,-0.5196813,0.9908031,-0.014296481,0.13455465,0.11796702,-0.44457257,-0.8879409,0.074902296,0.89562076,-0.43846664,0.9901886,-0.01478421,0.13895322,9.749176,-0.14364624,1.2162476,9.716263,-0.14019775,1.3195038,-0.011703491,-0.008529663,0.009597778,-26.38855,15.931702,-13.279724,0,0.0,0.0,0.0,0.0
1.379882813,0.10693175,-0.52611256,-0.8436653,0.08284013,0.8502945,-0.51974684,0.9908093,-0.014311906,0.13450672,0.11775262,-0.4462424,-0.88713145,0.07507446,0.8947902,-0.44012997,0.9902011,-0.014774456,0.13886529,9.749176,-0.19152832,1.2210388,9.716415,-0.14035034,1.319046,-0.006378174,-0.0138549805,0.009597778,-26.38855,15.931702,-13.279724,0,0.0,0.0,0.0,0.0
1.384277344,0.11318563,-0.4557033,-0.88290626,0.07386851,0.890017,-0.4499037,0.9908242,-0.014296337,0.13439927,0.1175412,-0.44787863,-0.88633454,0.0752427,0.89397246,-0.44175994,0.99021345,-0.014765205,0.1387782,9.715668,-0.08618164,1.043869,9.716568,-0.14019775,1.3179932,0.010650635,0.0010681152,-0.0010681152,-26.208496,17.546082,-12.416077,0,0.0,0.0,0.0,0.0
1.388671875,0.11306578,-0.45584238,-0.8828498,0.07386562,0.88994515,-0.450046,0.990838,-0.014327453,0.13429342,0.11773011,-0.44840363,-0.8860439,0.07590207,0.8937021,-0.44219396,0.9901407,-0.015193021,0.13925041,9.811432,-0.20588684,1.0630188,9.716705,-0.14050293,1.3169556,0.0053253174,0.008514404,0.007461548,-26.208496,17.546082,-12.416077,0,0.0,0.0,0.0,0.0
1.393066406,0.11305071,-0.45585987,-0.8828428,0.073860936,0.88993627,-0.45006454,0.99084014,-0.014327484,0.13427815,0.117636435,-0.44855273,-0.8859809,0.07586208,0.8936275,-0.44235143,0.99015486,-0.0151757095,0.1391513,9.696503,-0.13885498,1.2593384,9.716705,-0.14050293,1.316803,0.007461548,0.008514404,0.008529663,-26.208496,17.546082,-12.416077,0,0.0,0.0,0.0,0.0
1.397460938,0.114783704,-0.43583903,-0.89267516,0.071299456,0.89991146,-0.4302041,0.99082845,-0.014266834,0.13437027,0.11754431,-0.44869918,-0.885919,0.07582276,0.8935543,-0.44250607,0.9901688,-0.015158746,0.13905382,9.672562,-0.10533142,1.2593384,9.716568,-0.13990784,1.3177032,0.0063934326,0.010650635,0.004272461,-27.28424,16.828918,-11.7248535,0,0.0,0.0,0.0,0.0
1.401855469,0.11479867,-0.43581995,-0.89268255,0.07126926,0.89992124,-0.43018878,0.99082893,-0.014235722,0.13437034,0.11749022,-0.44844288,-0.8860559,0.07573143,0.89368325,-0.44226122,0.9901822,-0.015140908,0.13896026,9.787491,-0.05744934,1.3024445,9.716568,-0.13960266,1.3177032,0.004257202,0.027679443,-0.0095825195,-27.28424,16.828918,-11.7248535,0,0.0,0.0,0.0,0.0
1.40625,0.114798315,-0.43582043,-0.89268243,0.071234934,0.8999215,-0.4301939,0.9908314,-0.014204637,0.13435511,0.11743751,-0.44819126,-0.8861902,0.07564137,0.8938098,-0.4420209,0.99019533,-0.015122804,0.13886859,9.662994,-0.07661438,1.2976532,9.716568,-0.13929749,1.3175507,0.0021362305,0.013824463,-0.0053253174,-27.28424,16.828918,-11.7248535,0,0.0,0.0,0.0,0.0
1.410644531,0.11759007,-0.39944288,-0.9091853,0.06654693,0.9166487,-0.39411494,0.99082994,-0.014159492,0.13437048,0.1173857,-0.44794467,-0.8863218,0.075552404,0.8939337,-0.44178548,0.9902083,-0.01510444,0.13877831,9.643829,-0.028717041,1.3263855,9.716568,-0.13885498,1.3177032,0.0021362305,0.0021209717,-0.0021209717,-26.92566,17.1875,-11.03363,0,0.0,0.0,0.0,0.0
1.415039063,0.117585815,-0.3994484,-0.9091835,0.066594705,0.91664565,-0.39411408,0.99082726,-0.014204578,0.13438568,0.117395975,-0.4469868,-0.88680387,0.0753706,0.89441335,-0.44084468,0.9902209,-0.015085543,0.13869019,9.787491,-0.24420166,1.3790588,9.716568,-0.13929749,1.3178558,0.0021362305,-0.0010681152,0.007461548,-26.92566,17.1875,-11.03363,0,0.0,0.0,0.0,0.0
1.419433594,0.117585815,-0.3994484,-0.9091835,0.066594705,0.91664565,-0.39411408,0.99082726,-0.014204578,0.13438568,0.1174056,-0.44604766,-0.8872753,0.075193405,0.8948823,-0.43992218,0.9902332,-0.015067923,0.13860404,9.662994,-0.12927246,1.316803,9.716568,-0.13929749,1.3178558,0.014907837,0.007446289,0.009597778,-26.92566,17.1875,-11.03363,0,0.0,0.0,0.0,0.0
1.423828125,0.11339587,-0.45376042,-0.8838794,0.073494196,0.8910112,-0.44799286,0.9908279,-0.014159463,0.13438576,0.11741484,-0.4451269,-0.8877363,0.075019844,0.89534104,-0.43901765,0.9902453,-0.015050656,0.13851967,9.691727,-0.04788208,1.3215942,9.716568,-0.13885498,1.3178558,-0.008514404,0.007446289,0.010650635,-26.567078,17.546082,-12.416077,0,0.0,0.0,0.0,0.0
1.428222656,0.11336565,-0.45379597,-0.88386506,0.07348496,0.8909932,-0.4480304,0.99083215,-0.014159524,0.1343552,0.11733403,-0.44529995,-0.8876602,0.07499002,0.8952552,-0.43919763,0.99025714,-0.0150328325,0.13843696,9.600739,-0.12449646,1.2114563,9.716568,-0.13885498,1.3175507,-0.0010681152,0.008514404,0.015975952,-26.567078,17.546082,-12.416077,0,0.0,0.0,0.0,0.0
1.432617188,0.11338077,-0.45377824,-0.8838723,0.07348958,0.8910021,-0.44801164,0.99082994,-0.014159492,0.13437048,0.117254265,-0.4454703,-0.8875853,0.074960604,0.8951708,-0.43937472,0.9902688,-0.0150153665,0.13835531,9.811432,-0.13406372,1.3551178,9.716568,-0.13885498,1.3177032,-0.0053100586,0.0010681152,0.015975952,-26.567078,17.546082,-12.416077,0,0.0,0.0,0.0,0.0
1.437011719,0.118541576,-0.3856061,-0.9150169,0.06473844,0.92255515,-0.38039595,0.99083644,-0.014144026,0.13432467,0.11717647,-0.44563684,-0.88751197,0.07493186,0.8950882,-0.4395479,0.9902802,-0.01499825,0.13827567,9.686935,-0.08139038,1.5227051,9.716568,-0.1387024,1.3172455,-0.0021362305,0.017028809,0.0032043457,-26.92566,17.904663,-11.03363,0,0.0,0.0,0.0,0.0
1.44140625,0.118639484,-0.38548303,-0.915056,0.06474282,0.9226067,-0.38026983,0.9908244,-0.014128294,0.13441484,0.11717647,-0.44563684,-0.88751197,0.07493186,0.8950882,-0.4395479,0.9902802,-0.01499825,0.13827567,9.686935,-0.08139038,1.5227051,9.716568,-0.1385498,1.3181458,-0.0021362305,0.017028809,0.0032043457,-26.92566,17.904663,-11.03363,0,0.0,0.0,0.0,0.0
1.445800781,0.11866494,-0.38545105,-0.91506624,0.06468319,0.9226211,-0.38024527,0.99082524,-0.014067623,0.13441496,0.11725034,-0.4432902,-0.88867664,0.07452649,0.8962533,-0.43723667,0.9903021,-0.0149638,0.13812286,9.682144,-0.0143585205,1.3311615,9.716568,-0.13795471,1.3181458,-0.015960693,0.0010681152,0.0032043457,-26.92566,17.904663,-11.03363,0,0.0,0.0,0.0,0.0
1.450195313,0.11838965,-0.39006642,-0.9131441,0.06528114,0.92067957,-0.3848216,0.990819,-0.014052195,0.1344629,0.117286295,-0.4421502,-0.8892396,0.07432875,0.8968165,-0.43611398,0.99031264,-0.014945877,0.13804875,9.715668,-0.08139038,1.4317322,9.716415,-0.13780212,1.3186035,0.0021362305,0.0053253174,-0.003189087,-25.671387,18.441772,-11.206055,0,0.0,0.0,0.0,0.0
1.454589844,0.11838308,-0.39007404,-0.9131416,0.06529632,0.92067593,-0.3848273,0.99081874,-0.014067751,0.13446286,0.11678781,-0.4410423,-0.88985515,0.07490341,0.89734614,-0.43492445,0.99032825,-0.015859313,0.13783468,9.7348175,-0.19631958,1.3503265,9.716415,-0.13795471,1.3186035,-0.003189087,-0.0021362305,0.0138549805,-25.671387,18.441772,-11.206055,0,0.0,0.0,0.0,0.0
1.458984375,0.11837229,-0.3900867,-0.9131377,0.06527685,0.920671,-0.3848429,0.9908214,-0.014052008,0.13444556,0.11682664,-0.4400361,-0.89034814,0.07471095,0.8978407,-0.43393594,0.99033827,-0.015823482,0.13776723,9.658203,-0.09576416,1.2593384,9.716568,-0.13780212,1.3184509,0.014907837,0.008514404,0.008529663,-25.671387,18.441772,-11.206055,0,0.0,0.0,0.0,0.0
