Time,Rot1,Rot2,Rot3,Rot4,Rot5,Rot6,Rot7,Rot8,Rot9,FRot1,FRot2,FRot3,FRot4,FRot5,FRot6,FRot7,FRot8,FRot9,AccX,AccY,AccZ,GravX,GravY,GravZ,GyroX,GyroY,GyroZ,MagX,MagY,MagZ,Imid
0.0,0.0,0.0,0.0,0.0,0.0,0.0,0.0,0.0,0.0,0.0,0.0,0.0,0.0,0.0,0.0,0.0,0.0,0.0,0.08857727,9.765945,0.5626373,0.11790466,9.790039,0.5567932,0.0,0.0,0.0,0.0,0.0,0.0,0,0.0,0.0,0.0,0.0
0.004425049,-0.9105828,0.033759236,-0.41194564,-0.41316605,-0.046565287,0.90946436,0.0115204565,0.99834466,0.05634972,1.0,0.0,0.0,0.0,1.0,0.0,0.0,0.0,1.0,0.03590393,9.780304,0.4046173,0.112976074,9.790329,0.55259705,0.0,0.0,0.0,-12.365723,-32.25708,24.690247,0,0.0,0.0,0.0,0.0
0.008850098,-0.9102917,0.033115625,-0.41264072,-0.41382203,-0.046380024,0.9091755,0.0109696295,0.99837476,0.055923328,0.9987217,0.050241604,-0.0055492315,-0.050386112,0.9982786,-0.03001912,0.00403147,0.030260349,0.99953395,-0.07421875,9.828186,0.3950348,0.10757446,9.790634,0.54841614,0.08308411,0.02130127,-0.10546875,-12.365723,-32.25708,24.690247,0,0.0,0.0,0.0,0.0
0.013244629,-0.9100055,0.032484755,-0.41332164,-0.41446522,-0.046222437,0.90889055,0.010420354,0.9984028,0.05552647,0.9949559,0.09936673,-0.013750133,-0.1000089,0.9932464,-0.058820836,0.0078124353,0.059899274,0.99817383,-0.03590393,9.895233,0.5051727,0.10218811,9.790924,0.54452515,0.08415222,0.018096924,-0.10758972,-12.365723,-32.25708,24.690247,0,0.0,0.0,0.0,0.0
0.017669678,-0.8951377,0.033436798,-0.44453394,-0.44568008,-0.04500842,0.8940602,0.00988674,0.9984269,0.05519085,0.9888107,0.14716823,-0.024390075,-0.14874436,0.98510784,-0.08624137,0.011334864,0.08890428,0.9959757,-0.08857727,9.828186,0.47164917,0.096954346,9.791077,0.54122925,0.08734131,0.010650635,-0.11291504,-13.082886,-31.181335,23.999023,0,0.0,0.0,0.0,0.0
0.022064209,-0.89485145,0.032839056,-0.44515452,-0.44626614,-0.044922978,0.89377207,0.009352966,0.9984506,0.05485435,0.9805327,0.19280311,-0.037181187,-0.19581227,0.97420526,-0.11216795,0.01459578,0.11726488,0.9929935,-0.19871521,9.909592,0.35194397,0.09172058,9.791382,0.53793335,0.06817627,0.009597778,-0.10652161,-13.082886,-31.181335,23.999023,0,0.0,0.0,0.0,0.0
0.026489258,-0.8945954,0.03230561,-0.44570804,-0.44678816,-0.04473934,0.89352053,0.008925038,0.9984762,0.05445736,0.97016615,0.23680831,-0.051955886,-0.24180175,0.96067905,-0.13648309,0.0175926,0.1449743,0.98927903,-0.23222351,9.923965,0.12210083,0.087524414,9.791672,0.53404236,0.059646606,0.0063934326,-0.09375,-13.082886,-31.181335,23.999023,0,0.0,0.0,0.0,0.0
0.030914307,-0.8974375,0.031542968,-0.44001243,-0.44106,-0.04497663,0.89634985,0.00848326,0.9984899,0.054276057,0.95783615,0.27901953,-0.06854202,-0.28659236,0.9447509,-0.15909329,0.020365002,0.17202893,0.98488134,-0.34236145,9.9048,0.2896881,0.08319092,9.791672,0.5322571,0.05432129,-0.020233154,-0.071380615,-13.082886,-32.61566,24.345398,0,0.0,0.0,0.0,0.0
0.035308838,-0.89726484,0.031192236,-0.4403895,-0.4414176,-0.04497505,0.896174,0.008147129,0.998501,0.054123327,0.94361407,0.31948078,-0.0867445,-0.330255,0.92658556,-0.17991926,0.02289546,0.19842215,0.9798492,-0.28489685,9.818619,0.15083313,0.07989502,9.791824,0.5307617,0.019165039,-0.030883789,-0.06391907,-13.082886,-32.61566,24.345398,0,0.0,0.0,0.0,0.0
0.039733887,-0.89710766,0.030873656,-0.44073182,-0.44174248,-0.045008376,0.896012,0.00782654,0.99850935,0.054015573,0.92766464,0.35794306,-0.1063725,-0.37256166,0.90643936,-0.19891068,0.025221528,0.22415271,0.97422767,-0.3663025,9.8138275,0.22744751,0.07675171,9.791977,0.52970886,0.0010528564,-0.06071472,-0.050064087,-13.082886,-32.61566,24.345398,0,0.0,0.0,0.0,0.0
0.044158936,-0.9003634,0.030359378,-0.4340783,-0.43507233,-0.04539017,0.8992506,0.007597801,0.9985079,0.054076176,0.91011244,0.39434406,-0.12723267,-0.41345793,0.8845234,-0.21603449,0.02734835,0.24922103,0.9680604,-0.2896881,9.847351,0.24180603,0.07450867,9.791977,0.53030396,-0.0021362305,-0.07350159,-0.038345337,-12.187195,-30.644226,23.135376,0,0.0,0.0,0.0,0.0
0.048553467,-0.9003317,0.030293418,-0.43414897,-0.4351406,-0.04555849,0.8992092,0.00746095,0.99850225,0.05419964,0.8910171,0.42875558,-0.14918834,-0.45302305,0.8609861,-0.23124228,0.029302657,0.2736266,0.9613895,-0.27053833,9.938324,0.4381256,0.07316589,9.791824,0.5315094,-0.039413452,-0.090545654,-0.022369385,-12.187195,-30.644226,23.135376,0,0.0,0.0,0.0,0.0
0.052978516,-0.9003145,0.030258074,-0.43418673,-0.43517768,-0.04572687,0.8991827,0.0073535386,0.9984957,0.05433621,0.8705678,0.46099046,-0.17204517,-0.49106365,0.8360965,-0.24453852,0.031116463,0.29737246,0.9542544,-0.16040039,9.856918,0.38545227,0.07211304,9.791824,0.5328522,-0.038345337,-0.09693909,-0.008529663,-12.187195,-30.644226,23.135376,0,0.0,0.0,0.0,0.0
0.057373047,-0.88675094,0.0317397,-0.46115652,-0.46218926,-0.04504297,0.8856367,0.007337983,0.99848074,0.054611646,0.848888,0.49103642,-0.19563332,-0.5275539,0.8100531,-0.25593126,0.03280181,0.3204641,0.9466926,-0.07421875,9.928741,0.57699585,0.07196045,9.791672,0.535553,-0.043670654,-0.09693909,-0.010650635,-13.082886,-31.898499,22.961426,0,0.0,0.0,0.0,0.0
0.061798096,-0.8867766,0.031788092,-0.461104,-0.46214065,-0.04520626,0.8856538,0.007308457,0.9984718,0.054778416,0.8264436,0.5184106,-0.2196391,-0.56196845,0.78336847,-0.26556605,0.034386054,0.3429056,0.9387403,-0.007171631,9.880859,0.4237671,0.07167053,9.791534,0.53718567,-0.05857849,-0.113983154,0.004257202,-13.082886,-31.898499,22.961426,0,0.0,0.0,0.0,0.0
0.066223145,-0.8868475,0.031922076,-0.46095824,-0.4620042,-0.045448296,0.88571244,0.007324019,0.99845654,0.05505384,0.800742,0.5447953,-0.24901894,-0.5974236,0.7565723,-0.26586354,0.04355961,0.3616579,0.9312927,0.08378601,9.852127,0.7302246,0.07182312,9.791382,0.5398865,-0.050064087,-0.12782288,-0.0063934326,-13.082886,-31.898499,22.961426,0,0.0,0.0,0.0,0.0
0.072723389,-0.88097864,0.032542057,-0.4720356,-0.4731,-0.04523971,0.8798464,0.0072772624,0.998446,0.05525087,0.7763251,0.5679783,-0.27334943,-0.62874293,0.7285445,-0.27185512,0.044739414,0.38291448,0.92269975,0.09336853,9.852127,0.97442627,0.07136536,9.791382,0.54182434,-0.047927856,-0.12037659,-0.0063934326,-13.441467,-30.822754,22.961426,0,0.0,0.0,0.0,0.0
0.079254151,-0.88102907,0.0326391,-0.47193485,-0.47300643,-0.045465887,0.8798851,0.0072617177,0.9984325,0.05549527,0.7763251,0.5679783,-0.27334943,-0.62874293,0.7285445,-0.27185512,0.044739414,0.38291448,0.92269975,0.09336853,9.852127,0.97442627,0.07121277,9.791229,0.54422,-0.047927856,-0.12037659,-0.0063934326,-13.441467,-30.822754,22.961426,0,0.0,0.0,0.0,0.0
0.085540772,-0.8810461,0.032672033,-0.4719006,-0.47297576,-0.045692436,0.8798899,0.0071855057,0.9984212,0.05571023,0.7763251,0.5679783,-0.27334943,-0.62874293,0.7285445,-0.27185512,0.044739414,0.38291448,0.92269975,0.09336853,9.852127,0.97442627,0.07046509,9.791077,0.5463257,-0.047927856,-0.12037659,-0.0063934326,-13.441467,-30.822754,22.961426,0,0.0,0.0,0.0,0.0
0.090759278,-0.88745636,0.031940337,-0.45978338,-0.46083683,-0.046136837,0.88628465,0.0070952815,0.99842435,0.055663727,0.6994582,0.6250656,-0.34648412,-0.7130851,0.6427043,-0.28007296,0.04762283,0.44297194,0.89526975,0.14604187,9.8138275,0.5626373,0.06958008,9.791077,0.5458679,-0.010650635,-0.07562256,-0.0234375,-13.082886,-32.974243,22.961426,0,0.0,0.0,0.0,0.0
0.094726563,-0.88743293,0.031897184,-0.45983195,-0.46088445,-0.04634761,0.8862491,0.0069567407,0.998416,0.05583131,0.67259467,0.6404562,-0.37071866,-0.7384254,0.6136406,-0.27959472,0.048419856,0.46180195,0.8856604,0.16519165,9.837769,0.7398071,0.068222046,9.791077,0.54751587,0.01171875,-0.07243347,-0.03302002,-13.082886,-32.974243,22.961426,0,0.0,0.0,0.0,0.0
0.098480225,-0.8873643,0.031771753,-0.459973,-0.46101943,-0.046515696,0.8861701,0.006759212,0.99841213,0.055923764,0.645327,0.65406,-0.3946627,-0.7623268,0.58459777,-0.27767503,0.049102783,0.4800531,0.8758641,0.04548645,9.770737,0.8164215,0.06628418,9.790924,0.54841614,-0.02130127,-0.053253174,-0.040481567,-13.082886,-32.974243,22.961426,0,0.0,0.0,0.0,0.0
0.102233887,-0.8871109,0.03164194,-0.46047047,-0.4615095,-0.046596527,0.8859107,0.0065756077,0.9984125,0.055939343,0.6177281,0.66595393,-0.41823125,-0.7848221,0.55566317,-0.2743952,0.049661156,0.49773875,0.86590415,0.011962891,9.789886,0.69670105,0.06448364,9.790924,0.5485687,0.0021209717,-0.07136536,-0.04899597,-13.441467,-32.61566,23.654175,0,0.0,0.0,0.0,0.0
0.105987549,-0.886999,0.03142887,-0.4607007,-0.46172786,-0.046652198,0.8857941,0.006346805,0.99841666,0.055892028,0.58988094,0.67619884,-0.44135648,-0.8059341,0.52693605,-0.2698308,0.050107382,0.5148723,0.8558012,-0.03111267,9.837769,0.51474,0.0622406,9.791077,0.54811096,0.0095825195,-0.064971924,-0.042617798,-13.441467,-32.61566,23.654175,0,0.0,0.0,0.0,0.0
0.109741211,-0.88688016,0.031203015,-0.46094456,-0.46195853,-0.046614066,0.8856756,0.006149251,0.9984255,0.055755597,0.58988094,0.67619884,-0.44135648,-0.8059341,0.52693605,-0.2698308,0.050107382,0.5148723,0.8558012,-0.03111267,9.837769,0.51474,0.060302734,9.791077,0.5467682,0.0095825195,-0.064971924,-0.042617798,-13.441467,-32.61566,23.654175,0,0.0,0.0,0.0,0.0
0.113494873,-0.91359854,0.028119307,-0.40564406,-0.4065735,-0.048497867,0.91233003,0.005981216,0.9984274,0.05574014,0.5336709,0.69208086,-0.48602405,-0.8441766,0.47034445,-0.25718078,0.05060883,0.54754007,0.83524764,-0.14125061,9.84256,0.47644043,0.058654785,9.791077,0.5466156,0.027694702,-0.050064087,-0.039413452,-11.64856,-32.25708,23.999023,0,0.0,0.0,0.0,0.0
0.117248535,-0.91351926,0.027949015,-0.4058344,-0.4067543,-0.04853919,0.91224724,0.005797535,0.99843013,0.05570986,0.5043949,0.6983747,-0.5077977,-0.8619807,0.4418096,-0.24858324,0.050745677,0.5630959,0.824832,-0.14125061,9.909592,0.6823425,0.056854248,9.791229,0.5463257,-0.0010681152,-0.038345337,-0.02557373,-11.64856,-32.25708,23.999023,0,0.0,0.0,0.0,0.0
0.121002197,-0.91342324,0.027743177,-0.4060645,-0.40697265,-0.048529204,0.91215044,0.0055999625,0.99843645,0.055618413,0.4750965,0.70324033,-0.52890104,-0.8784666,0.41375744,-0.23895864,0.0507914,0.57815033,0.8143478,-0.29447937,9.809036,0.60572815,0.05491638,9.791229,0.5454254,0.018096924,-0.04899597,-0.02557373,-11.64856,-32.25708,23.999023,0,0.0,0.0,0.0,0.0
0.12475586,-0.8839063,0.030801533,-0.4666486,-0.46763214,-0.046559423,0.88269603,0.005461503,0.9984405,0.05555795,0.44583228,0.7067565,-0.5492985,-0.89367676,0.38624063,-0.22838563,0.0507484,0.592717,0.8038104,-0.26574707,9.866501,0.44770813,0.05355835,9.791229,0.5448303,0.026626587,-0.039413452,-0.018112183,-12.724304,-32.974243,21.925354,0,0.0,0.0,0.0,0.0
0.128509522,-0.88382965,0.030669639,-0.46680248,-0.4677777,-0.046420142,0.88262624,0.005400792,0.998451,0.055374067,0.41788167,0.70851046,-0.56867206,-0.90708923,0.36027387,-0.21769688,0.050637163,0.60680777,0.79323405,-0.24659729,9.732422,0.37109375,0.052963257,9.791382,0.5430298,0.0053253174,-0.028762817,-0.004257202,-12.724304,-32.974243,21.925354,0,0.0,0.0,0.0,0.0
0.132476807,-0.88376516,0.030558767,-0.46693176,-0.4679004,-0.046356887,0.8825646,0.0053245835,0.99845743,0.055267062,0.38930884,0.70783263,-0.58941627,-0.9196041,0.33522195,-0.20482796,0.05260135,0.621771,0.78143066,-0.23701477,9.919174,0.52911377,0.052215576,9.791382,0.5419769,0.026626587,-0.03302002,0.010650635,-12.724304,-32.974243,21.925354,0,0.0,0.0,0.0,0.0
0.138458252,-0.89651144,0.029155321,-0.44205996,-0.44298893,-0.047104508,0.8952887,0.005279415,0.99846447,0.055145223,0.3616897,0.7074163,-0.607242,-0.9308286,0.31057483,-0.1926175,0.052333303,0.6349059,0.770815,-0.18434143,9.828186,0.32800293,0.05177307,9.791534,0.54078674,0.022369385,-0.05645752,0.0021362305,-12.724304,-32.61566,23.654175,0,0.0,0.0,0.0,0.0
0.14440918,-0.8965407,0.029212369,-0.44199705,-0.44292882,-0.04702481,0.89532274,0.005369672,0.9984665,0.055098657,0.33377653,0.706174,-0.6244289,-0.941215,0.2862283,-0.17940947,0.052034907,0.64760447,0.7601979,-0.07899475,9.967056,0.51953125,0.05265808,9.791534,0.540329,0.007446289,-0.08947754,0.007461548,-12.724304,-32.61566,23.654175,0,0.0,0.0,0.0,0.0
0.150390625,-0.89660084,0.02932989,-0.44186735,-0.44280544,-0.046967592,0.89538676,0.0055081495,0.9984657,0.05509861,0.30614048,0.70397604,-0.6408555,-0.95057917,0.26263922,-0.1655896,0.05174267,0.65987754,0.74958944,-0.22744751,9.957474,0.5051727,0.054016113,9.791534,0.540329,0.007446289,-0.08522034,0.025543213,-12.724304,-32.61566,23.654175,0,0.0,0.0,0.0,0.0
0.155914307,-0.89667684,0.029478548,-0.44170323,-0.44264928,-0.04687971,0.89546865,0.005690198,0.99846554,0.0550846,0.27881348,0.7008925,-0.6565156,-0.95896506,0.23983265,-0.15121572,0.051467918,0.67173654,0.7390001,-0.05984497,9.86171,0.5817871,0.05580139,9.791534,0.54019165,-0.0032043457,-0.08947754,0.05218506,-12.724304,-32.61566,23.654175,0,0.0,0.0,0.0,0.0
0.160186768,-0.8967923,0.029704787,-0.44145346,-0.44241193,-0.04681993,0.895589,0.0059344624,0.9984616,0.055129506,0.25182423,0.6969913,-0.6714072,-0.9664165,0.21782888,-0.1363439,0.05122136,0.6831937,0.72843856,0.002380371,9.837769,0.6009369,0.05819702,9.791534,0.54063416,0.006378174,-0.09161377,0.04472351,-12.724304,-32.61566,23.654175,0,0.0,0.0,0.0,0.0
0.164459229,-0.8968489,0.02981561,-0.4413311,-0.44229499,-0.046681378,0.895654,0.006102526,0.99846476,0.055053435,0.22519857,0.6923391,-0.6855305,-0.9729764,0.196646,-0.121026166,0.05101568,0.6942599,0.71791404,-0.007171631,9.847351,0.4524994,0.05984497,9.791534,0.5398865,-0.006378174,-0.08627319,0.05430603,-12.724304,-32.61566,23.654175,0,0.0,0.0,0.0,0.0
0.16873169,-0.89534986,0.03013665,-0.44434267,-0.4453187,-0.046431515,0.8941674,0.006315707,0.9984668,0.054992866,0.19895071,0.68700516,-0.69888663,-0.9786904,0.17627043,-0.10532814,0.050832067,0.70494866,0.7074344,-0.04069519,9.909592,0.52911377,0.061935425,9.791534,0.5392914,0.0095825195,-0.080947876,0.04046631,-12.904358,-32.078552,23.8266,0,0.0,0.0,0.0,0.0
0.173004151,-0.89542454,0.030286012,-0.44418207,-0.44516596,-0.04634114,0.89424825,0.0064993105,0.9984665,0.05497729,0.17317043,0.68103886,-0.711476,-0.9835871,0.15675858,-0.089348815,0.05067996,0.7152712,0.697007,0.026321411,9.799454,0.56741333,0.06373596,9.791534,0.5391388,0.012771606,-0.090545654,0.051116943,-12.904358,-32.078552,23.8266,0,0.0,0.0,0.0,0.0
0.177276612,-0.89555085,0.03053882,-0.4439101,-0.444908,-0.046302505,0.89437866,0.0067591183,0.9984606,0.055053208,0.1477977,0.67451686,-0.72331375,-0.98772496,0.1380464,-0.07309256,0.050548688,0.72523797,0.68664014,-0.05505371,9.900009,0.64881897,0.06628418,9.791534,0.5398865,0.0053253174,-0.07989502,0.041534424,-12.904358,-32.078552,23.8266,0,0.0,0.0,0.0,0.0
0.181549072,-0.9126413,0.028862938,-0.40774107,-0.4087016,-0.04738036,0.9114373,0.00698784,0.99845976,0.055037603,0.12284789,0.66749454,-0.73441094,-0.9911422,0.120139964,-0.05659903,0.05045256,0.73485875,0.676341,-0.007171631,9.962265,0.47644043,0.06852722,9.791534,0.5397339,-0.006378174,-0.061782837,0.06602478,-11.289978,-32.61566,22.961426,0,0.0,0.0,0.0,0.0
0.185821533,-0.91277355,0.029130567,-0.40742594,-0.40840116,-0.04731505,0.91157544,0.0072773285,0.9984551,0.05508488,0.09753816,0.66010714,-0.744812,-0.9939557,0.102498285,-0.039323688,0.050384104,0.7441456,0.6661147,0.10772705,9.847351,0.63446045,0.07136536,9.791382,0.54019165,-0.0053253174,-0.0745697,0.05430603,-11.289978,-32.61566,22.961426,0,0.0,0.0,0.0,0.0
0.190093994,-0.91289914,0.029385148,-0.4071261,-0.4081153,-0.047253005,0.9117066,0.007552704,0.99845064,0.05512976,0.07268269,0.65229523,-0.7544721,-0.9960832,0.08566782,-0.021892525,0.05035358,0.75310814,0.65596694,0.08378601,9.885651,0.44770813,0.07406616,9.791382,0.54063416,-0.0010681152,-0.064971924,0.05644226,-11.289978,-32.61566,22.961426,0,0.0,0.0,0.0,0.0
0.194366455,-0.8987264,0.0311555,-0.4374017,-0.43844086,-0.04614288,0.8975748,0.0077814185,0.9984489,0.055129662,0.0482875,0.6441103,-0.76340705,-0.9975634,0.06963024,-0.004349299,0.050354786,0.7617569,0.6459031,0.23701477,9.933533,0.62008667,0.076309204,9.791382,0.54063416,-0.019165039,-0.06604004,0.05857849,-13.262939,-33.51288,24.864197,0,0.0,0.0,0.0,0.0
0.198638916,-0.89886045,0.031427473,-0.43710667,-0.43816096,-0.04611576,0.89771277,0.008055336,0.9984416,0.05522192,0.0482875,0.6441103,-0.76340705,-0.9975634,0.06963024,-0.004349299,0.050354786,0.7617569,0.6459031,0.23701477,9.933533,0.62008667,0.07899475,9.791229,0.5415344,-0.019165039,-0.06604004,0.05857849,-13.262939,-33.51288,24.864197,0,0.0,0.0,0.0,0.0
0.202911377,-0.8989599,0.031629305,-0.43688768,-0.43795252,-0.046002246,0.8978205,0.008299617,0.9984405,0.0552063,5.7994574E-4,0.62632173,-0.77956444,-0.9984694,0.043476272,0.034187138,0.055304706,0.77835137,0.6253883,0.16519165,9.794678,0.51474,0.08139038,9.791229,0.54138184,-0.017028809,-0.08201599,0.04472351,-13.262939,-33.51288,24.864197,0,0.0,0.0,0.0,0.0
0.207183838,-0.9145913,0.030037114,-0.40326226,-0.40429166,-0.04715001,0.913414,0.008422503,0.99843615,0.055266745,-0.021784857,0.6173554,-0.7863827,-0.9982378,0.029995343,0.05120186,0.055197563,0.7861123,0.61561406,0.05984497,9.900009,0.58657837,0.082595825,9.791229,0.5419769,0.003189087,-0.08201599,0.041534424,-11.828613,-31.002808,24.517822,0,0.0,0.0,0.0,0.0
0.211456299,-0.91464865,0.030169548,-0.40312245,-0.40415886,-0.047092814,0.9134757,0.0085749775,0.9984348,0.055266667,-0.04443194,0.60821134,-0.79253066,-0.99749255,0.016733795,0.06876481,0.05508558,0.7935987,0.6059427,0.20350647,9.847351,0.47164917,0.08409119,9.791229,0.5419769,-0.011703491,-0.06285095,0.027679443,-11.828613,-31.002808,24.517822,0,0.0,0.0,0.0,0.0
0.21572876,-0.9146935,0.030273356,-0.4030128,-0.404055,-0.047081936,0.9135222,0.008680761,0.99843216,0.055297643,-0.06660385,0.5988902,-0.7980566,-0.99626374,0.0041537015,0.08626281,0.054976843,0.80082035,0.59637594,0.15560913,9.823395,0.4860077,0.085128784,9.791229,0.5422821,-0.006378174,-0.067108154,0.018096924,-11.828613,-31.002808,24.517822,0,0.0,0.0,0.0,0.0
0.220001221,-0.9347075,0.0278587,-0.35432446,-0.3553097,-0.048636068,0.9334825,0.008772663,0.998428,0.055358957,-0.08830361,0.5894248,-0.8029825,-0.99458176,-0.007775218,0.103666335,0.054860137,0.8077858,0.5869177,0.23701477,9.84256,0.50038147,0.08602905,9.791077,0.5428772,-0.010650635,-0.064971924,0.012786865,-10.752869,-31.36139,25.900269,0,0.0,0.0,0.0,0.0
0.224273682,-0.93473816,0.027941506,-0.35423693,-0.35522702,-0.048653547,0.93351305,0.008848879,0.9984248,0.055403907,-0.11057669,0.5798246,-0.8072027,-0.99235946,-0.019686185,0.121800005,0.054731894,0.81450343,0.5775713,0.21307373,9.876068,0.55784607,0.08677673,9.791077,0.5433197,-0.02130127,-0.038345337,0.0053253174,-10.752869,-31.36139,25.900269,0,0.0,0.0,0.0,0.0
0.228546143,-0.93476444,0.02801241,-0.354162,-0.35515633,-0.048677098,0.9335387,0.008911089,0.99842167,0.055450406,-0.1323549,0.5701144,-0.810834,-0.989698,-0.03095904,0.13978346,0.054589912,0.8209818,0.56833863,0.29927063,9.933533,0.509964,0.087387085,9.791077,0.54377747,-0.007446289,-0.03514099,0.0053253174,-10.752869,-31.36139,25.900269,0,0.0,0.0,0.0,0.0
0.232818604,-0.89860237,0.0323944,-0.4375666,-0.43867335,-0.046045236,0.8974663,0.008925024,0.998414,0.055586908,-0.15364043,0.5603214,-0.81390077,-0.98662645,-0.04161683,0.15759526,0.05443203,0.8272291,0.5592219,0.2896881,9.895233,0.5817871,0.087524414,9.791077,0.54512024,-0.015975952,-0.025558472,-0.007461548,-12.007141,-32.25708,22.270203,0,0.0,0.0,0.0,0.0
0.237091065,-0.8985815,0.03235523,-0.43761206,-0.4387173,-0.046132155,0.89744014,0.008848896,0.99841124,0.055648305,-0.1726472,0.55056447,-0.81674457,-0.98348874,-0.05068885,0.17372519,0.05424707,0.8332523,0.55022526,0.18913269,9.871292,0.6105194,0.08677673,9.790924,0.54571533,-0.025558472,-0.017044067,-0.015975952,-12.007141,-32.25708,22.270203,0,0.0,0.0,0.0,0.0
0.241363526,-0.8985436,0.032283723,-0.43769518,-0.43879735,-0.046250794,0.8973949,0.008727501,0.998408,0.05572437,-0.19122109,0.54080087,-0.81912696,-0.9800592,-0.059266876,0.189661,0.05402173,0.8390601,0.54134995,0.21307373,9.809036,0.50038147,0.08558655,9.790924,0.546463,-0.008514404,-0.0095825195,-0.026626587,-12.007141,-32.25708,22.270203,0,0.0,0.0,0.0,0.0
0.245635987,-0.8960444,0.03241453,-0.44277972,-0.44388267,-0.046251334,0.8948905,0.008528299,0.9984037,0.055831492,-0.20936716,0.5310463,-0.8210696,-0.9763587,-0.06737623,0.20538765,0.053749762,0.84465986,0.532598,0.09815979,9.794678,0.6248779,0.08363342,9.790924,0.54751587,-0.02130127,0.0063934326,-0.038345337,-13.262939,-31.71997,24.517822,0,0.0,0.0,0.0,0.0
0.249908447,-0.89597046,0.032259505,-0.4429403,-0.44403505,-0.04632655,0.8948109,0.008346262,0.99840534,0.05583158,-0.22698523,0.5213222,-0.8226183,-0.9724321,-0.07499033,0.22079936,0.053419176,0.8500586,0.5239721,0.06463623,9.837769,0.44770813,0.081848145,9.790924,0.54751587,-0.018096924,0.0053253174,-0.046875,-13.262939,-31.71997,24.517822,0,0.0,0.0,0.0,0.0
0.254180908,-0.8959024,0.032116435,-0.4430886,-0.44417572,-0.046396036,0.8947376,0.008178228,0.99840665,0.055831656,-0.24418749,0.5116341,-0.8237736,-0.96827644,-0.08217853,0.23598187,0.053039856,0.8552644,0.5154702,0.12689209,9.895233,0.375885,0.080200195,9.790924,0.54751587,-0.0095825195,-0.0063934326,-0.041549683,-13.262939,-31.71997,24.517822,0,0.0,0.0,0.0,0.0
0.258453369,-0.9171039,0.029598758,-0.39754793,-0.39856932,-0.048232198,0.9158691,0.007933978,0.9983975,0.056031093,-0.26097822,0.5019947,-0.82455546,-0.9639096,-0.08895393,0.25092918,0.05261767,0.860284,0.5070926,0.01675415,9.86171,0.67276,0.077804565,9.790787,0.549469,-0.014907837,-0.0021209717,-0.043670654,-10.752869,-31.71997,22.444153,0,0.0,0.0,0.0,0.0
0.26272583,-0.9170134,0.02941035,-0.39777085,-0.39878246,-0.048378102,0.91576856,0.007689676,0.9983959,0.05609169,-0.27833527,0.49231836,-0.8247134,-0.9590679,-0.09584734,0.26646227,0.05213769,0.8651219,0.49884441,0.02154541,9.866501,0.53868103,0.075408936,9.790787,0.5500641,-0.03302002,-0.017044067,-0.051132202,-10.752869,-31.71997,22.444153,0,0.0,0.0,0.0,0.0
0.266998291,-0.9169319,0.029241277,-0.3979707,-0.39897376,-0.04853281,0.915677,0.0074609276,0.9983935,0.056167793,-0.2965299,0.48262513,-0.82410127,-0.9537813,-0.10565889,0.28131375,0.048695456,0.86943036,0.49164984,-0.14604187,9.914383,0.7110748,0.07316589,9.790787,0.55081177,-0.015975952,0.0053253174,-0.04899597,-10.752869,-31.71997,22.444153,0,0.0,0.0,0.0,0.0
0.271270752,-0.90060675,0.030939393,-0.43353203,-0.43457475,-0.04753897,0.8993802,0.0072166147,0.9983902,0.05625941,-0.31298038,0.4730374,-0.82357687,-0.9485343,-0.111649714,0.2963392,0.048227407,0.87393934,0.4836364,-0.12689209,9.804245,0.57699585,0.07077026,9.790787,0.55171204,-0.004272461,0.0,-0.034088135,-12.904358,-32.078552,24.517822,0,0.0,0.0,0.0,0.0
0.275543213,-0.90049833,0.030711094,-0.43377364,-0.4348038,-0.047629956,0.89926475,0.0069567855,0.9983929,0.056244,-0.32828242,0.46362153,-0.8229738,-0.9433739,-0.11691459,0.31044602,0.04771182,0.8782859,0.47574946,-0.19871521,9.900009,0.63446045,0.068222046,9.790787,0.55155945,-0.015975952,0.0063934326,-0.03729248,-12.904358,-32.078552,24.517822,0,0.0,0.0,0.0,0.0
0.279815674,-0.900427,0.030560944,-0.43393257,-0.4349549,-0.047751162,0.89918536,0.0067591676,0.9983916,0.056289054,-0.3431995,0.45429903,-0.8220867,-0.9380783,-0.12184997,0.32428655,0.047151826,0.8824766,0.46798688,-0.04069519,9.832977,0.7733154,0.06628418,9.790787,0.55200195,0.008514404,0.007461548,-0.038345337,-12.904358,-32.078552,24.517822,0,0.0,0.0,0.0,0.0
0.284088135,-0.89539105,0.030948307,-0.44420376,-0.44523177,-0.047459077,0.89415663,0.006591135,0.9983936,0.056273606,-0.3577374,0.4450798,-0.82093114,-0.93266076,-0.12646148,0.3378629,0.046559792,0.88651645,0.4603485,-0.10293579,9.751572,0.7206421,0.06463623,9.790787,0.55184937,0.0095825195,0.025558472,-0.03302002,-12.904358,-31.36139,23.8266,0,0.0,0.0,0.0,0.0
0.288360596,-0.89528704,0.03073507,-0.4444281,-0.44544417,-0.04751319,0.89404804,0.0063624317,0.99839765,0.05622871,-0.37169236,0.43599996,-0.8196028,-0.9272184,-0.13065822,0.35099074,0.0459441,0.8904114,0.4528318,-0.17955017,9.909592,0.79725647,0.06239319,9.790787,0.55140686,0.018096924,0.031951904,-0.0234375,-12.904358,-31.36139,23.8266,0,0.0,0.0,0.0,0.0
0.292633057,-0.89521766,0.030592829,-0.44457775,-0.4455856,-0.047514427,0.89397746,0.0062254444,0.99840194,0.05616748,-0.385288,0.4270336,-0.81804365,-0.9216839,-0.13456579,0.36385545,0.04529783,0.8941668,0.4454366,-0.02154541,9.837769,0.8020477,0.061050415,9.790924,0.55081177,0.031951904,0.043670654,-0.028762817,-12.904358,-31.36139,23.8266,0,0.0,0.0,0.0,0.0
0.296905518,-0.87932163,0.032100055,-0.47514537,-0.47618857,-0.046353113,0.87812066,0.00616325,0.9984092,0.056044966,-0.3985293,0.41818947,-0.816267,-0.9160687,-0.13818327,0.37646186,0.044637945,0.8977878,0.43816036,0.08378601,9.809036,0.72543335,0.060440063,9.790924,0.5496063,0.036209106,0.05432129,-0.02130127,-14.15863,-32.61566,23.999023,0,0.0,0.0,0.0,0.0
0.301177979,-0.879268,0.031998776,-0.4752514,-0.47628775,-0.046182156,0.8780759,0.0061492193,0.9984204,0.055847112,-0.4107959,0.4095719,-0.8145536,-0.91066605,-0.14123048,0.38825414,0.043978203,0.9012795,0.43100014,0.11730957,9.818619,0.76852417,0.060302734,9.791077,0.54766846,0.04473877,0.030883789,-0.0138549805,-14.15863,-32.61566,23.999023,0,0.0,0.0,0.0,0.0
0.30545044,-0.8791745,0.031822097,-0.4754364,-0.4764613,-0.04596326,0.8779933,0.006086982,0.99843615,0.055571716,-0.42273974,0.4010911,-0.81266046,-0.90521485,-0.14401117,0.39980862,0.043327488,0.9046473,0.42395285,0.07421875,9.837769,0.74458313,0.059692383,9.791229,0.54496765,0.064971924,0.03727722,-0.0063934326,-14.15863,-32.61566,23.999023,0,0.0,0.0,0.0,0.0
0.309722901,-0.9111752,0.0282444,-0.41105017,-0.41197574,-0.04793523,0.90993315,0.0059967306,0.998451,0.055313386,-0.43436792,0.3927467,-0.81060135,-0.8997238,-0.14654247,0.41112328,0.04267977,0.9078961,0.4170169,0.19871521,9.837769,0.7110748,0.058807373,9.791382,0.5424347,0.07989502,0.012771606,-0.014907837,-11.64856,-31.539917,23.654175,0,0.0,0.0,0.0,0.0
0.313995362,-0.9110614,0.028001115,-0.41131854,-0.41222867,-0.04765773,0.90983295,0.0058738356,0.99847114,0.054961987,-0.44697967,0.3843241,-0.8077773,-0.89355606,-0.14939581,0.4233655,0.042031027,0.9110301,0.41019204,0.12210083,9.799454,0.69670105,0.05760193,9.791534,0.5389862,0.07350159,0.007461548,-0.03302002,-11.64856,-31.539917,23.654175,0,0.0,0.0,0.0,0.0
0.318267822,-0.9109287,0.027717113,-0.41163185,-0.41252476,-0.047431678,0.9097109,0.005690168,0.9984899,0.054640863,-0.4592481,0.37603542,-0.804791,-0.88734376,-0.15199462,0.43533736,0.041378375,0.91405416,0.40347594,0.03111267,9.914383,0.6536102,0.05580139,9.791824,0.5358429,0.09373474,0.011703491,-0.031951904,-11.64856,-31.539917,23.654175,0,0.0,0.0,0.0,0.0
0.322540283,-0.91947836,0.026355669,-0.39225626,-0.39310232,-0.04769501,0.918257,0.0054926085,0.99851424,0.054215003,-0.4711821,0.36787996,-0.80165565,-0.88109577,-0.15435943,0.44703838,0.04071336,0.9169719,0.3968689,-0.10293579,9.856918,0.52911377,0.053863525,9.791977,0.531662,0.08415222,-0.02130127,-0.041549683,-11.289978,-31.539917,24.345398,0,0.0,0.0,0.0,0.0
0.326812744,-0.9193332,0.026024189,-0.3926184,-0.39344412,-0.047335003,0.9181292,0.0053089745,0.99854004,0.053755704,-0.4831665,0.35978994,-0.79818624,-0.87461257,-0.15665606,0.45881546,0.040036473,0.91978806,0.39036778,-0.01675415,9.876068,0.37109375,0.05206299,9.792282,0.52716064,0.09480286,-0.031951904,-0.03515625,-11.289978,-31.539917,24.345398,0,0.0,0.0,0.0,0.0
0.331085205,-0.9191993,0.025718711,-0.39295205,-0.39375985,-0.047115363,0.9180051,0.0050958283,0.9985583,0.0534354,-0.4948179,0.3518346,-0.79458636,-0.86810523,-0.15872769,0.47031778,0.0393512,0.92250633,0.38397077,-0.09815979,9.895233,0.45729065,0.049972534,9.792419,0.52401733,0.09159851,-0.028762817,-0.03515625,-11.289978,-31.539917,24.345398,0,0.0,0.0,0.0,0.0
0.336517334,-0.88512516,0.029030863,-0.46444678,-0.4653274,-0.04471308,0.8840086,0.004896683,0.9985779,0.05308552,-0.50922257,0.3392584,-0.79094636,-0.85982156,-0.16059902,0.48468015,0.0374066,0.9268828,0.37348235,-0.05027771,9.9479065,0.29447937,0.04801941,9.792572,0.5205841,0.067108154,-0.04260254,-0.038345337,-13.082886,-31.539917,22.961426,0,0.0,0.0,0.0,0.0
0.341949463,-0.88495433,0.028708706,-0.46479198,-0.4656539,-0.044449136,0.8838499,0.004714586,0.99859905,0.05270378,-0.51879513,0.33193073,-0.7878283,-0.85410887,-0.16164634,0.4943363,0.036735848,0.92935055,0.36736634,-0.15083313,9.9526825,0.32800293,0.04623413,9.792877,0.5168457,0.05645752,-0.039413452,-0.040481567,-13.082886,-31.539917,22.961426,0,0.0,0.0,0.0,0.0
0.34741211,-0.8847901,0.028399209,-0.46512353,-0.46596798,-0.04428138,0.8836928,0.0044998657,0.9986154,0.052412853,-0.52810735,0.32473963,-0.7846316,-0.84841174,-0.16254006,0.5037641,0.036058106,0.9317322,0.36135152,-0.31362915,9.86171,0.25616455,0.044128418,9.79303,0.5139923,0.07029724,-0.03727722,-0.027694702,-13.082886,-31.539917,22.961426,0,0.0,0.0,0.0,0.0
0.352844238,-0.91691047,0.024848886,-0.39831856,-0.3990687,-0.046097793,0.91576153,0.004394046,0.99862784,0.052183963,-0.5371668,0.3176834,-0.7813636,-0.8427342,-0.16329387,0.5129661,0.035368916,0.9340302,0.35543874,-0.36151123,9.818619,0.23222351,0.04309082,9.793182,0.51174927,0.04473877,-0.030883789,-0.018112183,-11.289978,-31.898499,23.999023,0,0.0,0.0,0.0,0.0
0.358306885,-0.9168605,0.024739541,-0.39844042,-0.39918408,-0.045946784,0.91571885,0.004347409,0.99863756,0.05200242,-0.54722553,0.310524,-0.77725095,-0.8362663,-0.16436683,0.5231083,0.034683384,0.936247,0.34962645,-0.17955017,9.876068,0.2753296,0.042633057,9.793182,0.509964,0.025558472,-0.022369385,0.0095825195,-11.289978,-31.898499,23.999023,0,0.0,0.0,0.0,0.0
0.363006592,-0.91684467,0.024704853,-0.39847904,-0.39922047,-0.045861837,0.91570723,0.0043474296,0.99864227,0.051910862,-0.557002,0.3035117,-0.77306503,-0.8298146,-0.1652693,0.53300464,0.034009214,0.9383852,0.34391376,-0.22744751,9.885651,0.32800293,0.042633057,9.793182,0.5090637,0.020233154,-0.034088135,0.008514404,-11.289978,-31.898499,23.999023,0,0.0,0.0,0.0,0.0
0.367401123,-0.9168313,0.02467571,-0.3985115,-0.39925107,-0.045790646,0.91569746,0.0043473863,0.99864626,0.051834103,-0.56650436,0.2966496,-0.76881194,-0.82338357,-0.16600761,0.542661,0.033351537,0.940447,0.33830044,-0.20828247,9.818619,0.44770813,0.042633057,9.79332,0.50831604,0.0053253174,-0.026626587,0.020217896,-11.289978,-31.898499,23.999023,0,0.0,0.0,0.0,0.0
0.371795654,-0.9168466,0.024709083,-0.39847434,-0.399215,-0.045642585,0.9157205,0.0044392147,0.9986522,0.051711485,-0.5757401,0.28993714,-0.76449966,-0.81697816,-0.16659145,0.5520814,0.032709796,0.942435,0.3327857,-0.12210083,9.919174,0.4524994,0.043533325,9.79332,0.5071106,0.01171875,-0.041534424,0.020217896,-11.289978,-31.898499,23.999023,0,0.0,0.0,0.0,0.0
0.376190186,-0.916845,0.02470556,-0.39847827,-0.39921856,-0.04559502,0.91572136,0.004454785,0.9986544,0.05166648,-0.584716,0.28337854,-0.76013404,-0.8106029,-0.16701947,0.5612731,0.032095555,0.9443522,0.3273664,-0.24659729,9.928741,0.47164917,0.043685913,9.79332,0.5066681,0.023422241,-0.020233154,0.031936646,-11.289978,-31.898499,23.999023,0,0.0,0.0,0.0,0.0
0.380584717,-0.9112614,0.025540434,-0.41103584,-0.41180176,-0.045121845,0.9101557,0.004699077,0.99865496,0.051635385,-0.59344006,0.27696827,-0.7557231,-0.8042616,-0.16731015,0.5702373,0.03149748,0.9462008,0.3220435,-0.026321411,9.847351,0.5817871,0.046081543,9.79332,0.5063629,0.007446289,0.019165039,0.030883789,-11.470032,-31.36139,23.480225,0,0.0,0.0,0.0,0.0
0.384979248,-0.9113433,0.025714625,-0.41084316,-0.41161764,-0.04497779,0.9102461,0.004927817,0.998657,0.051574808,-0.60169595,0.270766,-0.75143045,-0.7981256,-0.16737404,0.57877576,0.030942848,0.94798297,0.31681356,-0.14604187,9.967056,0.4333496,0.048324585,9.79332,0.5057678,0.014907837,0.030883789,0.06390381,-11.470032,-31.36139,23.480225,0,0.0,0.0,0.0,0.0
0.389373779,-0.91144204,0.025924666,-0.41061088,-0.41139615,-0.04491835,0.91034913,0.005156533,0.99865425,0.051605783,-0.6097215,0.26472098,-0.7471028,-0.7920315,-0.1673024,0.58710814,0.03042776,0.94970137,0.31167522,-0.07899475,9.885651,0.50038147,0.050567627,9.79332,0.506073,0.004257202,0.03514099,0.069229126,-11.470032,-31.36139,23.480225,0,0.0,0.0,0.0,0.0
0.393768311,-0.9163615,0.025646655,-0.39952952,-0.40031433,-0.045044336,0.9152701,0.0054770736,0.9986557,0.05154362,-0.6175245,0.2588316,-0.7427447,-0.7859813,-0.16710633,0.59523857,0.029949186,0.9513578,0.30662903,0.06942749,9.847351,0.31362915,0.053710938,9.79332,0.50546265,-0.004272461,0.050064087,0.06602478,-11.828613,-29.927063,25.209045,0,0.0,0.0,0.0,0.0
0.398162842,-0.91644615,0.025854982,-0.39932188,-0.4001171,-0.04493942,0.91536146,0.00572136,0.998655,0.051529583,-0.6252951,0.25306112,-0.7382182,-0.7798299,-0.16684377,0.6033476,0.029516721,0.952955,0.30167124,0.06463623,9.785095,0.38545227,0.056106567,9.79332,0.5053253,-0.004272461,0.04899597,0.07348633,-11.828613,-29.927063,25.209045,0,0.0,0.0,0.0,0.0
0.402557373,-0.91656137,0.026138969,-0.3990388,-0.39984858,-0.044866458,0.9154824,0.0060263085,0.99865097,0.051574495,-0.6303669,0.24992396,-0.7349663,-0.7756448,-0.1639612,0.60950136,0.031823035,0.9542823,0.29720792,0.18913269,9.900009,0.51953125,0.05909729,9.79332,0.5057678,-0.0053253174,0.03302002,0.05430603,-11.828613,-29.927063,25.209045,0,0.0,0.0,0.0,0.0
0.406951904,-0.9186873,0.026144382,-0.39411938,-0.39493605,-0.04499966,0.9176059,0.006254999,0.9986448,0.05166598,-0.6377901,0.24440263,-0.73040473,-0.7695712,-0.16359368,0.6172498,0.03136787,0.95577425,0.29242367,0.32800293,9.876068,0.49079895,0.061340332,9.79332,0.5066681,-0.011703491,0.04046631,0.060699463,-11.64856,-31.898499,25.036621,0,0.0,0.0,0.0,0.0
0.411346436,-0.9187808,0.026360938,-0.39388698,-0.3947151,-0.04499181,0.91770136,0.006469779,0.9986395,0.051742673,-0.645085,0.2390114,-0.72576773,-0.763484,-0.16315112,0.6248791,0.030943422,0.9572122,0.2877277,0.2609558,9.919174,0.3663025,0.063446045,9.793182,0.5074158,-0.02130127,0.04473877,0.029815674,-11.64856,-31.898499,25.036621,0,0.0,0.0,0.0,0.0
0.415740967,-0.91887486,0.02657908,-0.3936528,-0.39449272,-0.04503158,0.91779494,0.0066673383,0.9986319,0.051863644,-0.6521774,0.23376366,-0.7211237,-0.75745076,-0.16261575,0.63231677,0.03054662,0.9585983,0.28311875,0.3950348,9.837769,0.51953125,0.06538391,9.793182,0.50860596,-0.029815674,0.050064087,0.03300476,-11.64856,-31.898499,25.036621,0,0.0,0.0,0.0,0.0
0.420135498,-0.89807576,0.028885039,-0.43889138,-0.43978938,-0.04370751,0.89703673,0.0067280903,0.99862665,0.051955983,-0.6590732,0.22865562,-0.716477,-0.75147337,-0.16199666,0.63956624,0.030173533,0.95993423,0.27859622,0.3040619,9.852127,0.46206665,0.065979004,9.79303,0.5095062,-0.026626587,0.04260254,0.017028809,-13.441467,-32.25708,25.38147,0,0.0,0.0,0.0,0.0
0.424530029,-0.8981181,0.0289755,-0.43879882,-0.4397025,-0.043833274,0.89707327,0.006759156,0.9986186,0.05210805,-0.6650327,0.22383747,-0.71248037,-0.7462191,-0.161087,0.64591646,0.029808974,0.961222,0.27415994,0.29447937,9.885651,0.6105194,0.06628418,9.79303,0.5110016,-0.022369385,0.031951904,-0.004257202,-13.441467,-32.25708,25.38147,0,0.0,0.0,0.0,0.0
0.428924561,-0.89813,0.029000888,-0.43877286,-0.43967828,-0.043888427,0.89708245,0.006759134,0.9986154,0.052168567,-0.67083275,0.21913949,-0.70849234,-0.74102384,-0.160133,0.6521052,0.029448994,0.96246314,0.26981002,0.25616455,9.856918,0.50038147,0.06628418,9.79303,0.5115967,-0.025558472,0.038345337,-0.010650635,-13.441467,-32.25708,25.38147,0,0.0,0.0,0.0,0.0
0.433319092,-0.9015113,0.028630033,-0.43180755,-0.43270445,-0.044297494,0.9004468,0.006651826,0.99860793,0.052323032,-0.676477,0.21455641,-0.70451707,-0.73588896,-0.15913843,0.65813553,0.029091462,0.96365994,0.2655432,0.16998291,9.852127,0.7014923,0.06523132,9.792877,0.5131073,-0.015975952,0.041534424,-0.017044067,-12.365723,-32.61566,23.654175,0,0.0,0.0,0.0,0.0
0.437713623,-0.9014739,0.028555693,-0.4318905,-0.4327847,-0.044484008,0.9003992,0.006499301,0.998602,0.052459642,-0.68208414,0.21005563,-0.7004554,-0.73070925,-0.1581496,0.66411793,0.028724968,0.96481365,0.26136094,0.07899475,9.828186,0.64881897,0.06373596,9.792877,0.5144501,-0.019165039,0.041534424,-0.030899048,-12.365723,-32.61566,23.654175,0,0.0,0.0,0.0,0.0
0.442108154,-0.901388,0.02838494,-0.43208104,-0.43296695,-0.044631712,0.90030414,0.0062705614,0.9986001,0.05252023,-0.6875402,0.20565769,-0.6964147,-0.7255929,-0.15713702,0.6699425,0.028346296,0.96592593,0.25726175,-0.02154541,9.909592,0.55784607,0.06149292,9.792877,0.51504517,-0.017028809,0.047927856,-0.03302002,-12.365723,-32.61566,23.654175,0,0.0,0.0,0.0,0.0
0.446502686,-0.86959016,0.03126146,-0.49278352,-0.49373642,-0.042716537,0.86856186,0.006102504,0.9985981,0.052580807,-0.6928485,0.20135574,-0.6923994,-0.7205413,-0.15610664,0.67561156,0.027950129,0.96699876,0.2532434,-0.17955017,9.900009,0.66319275,0.05984497,9.792877,0.51564026,-0.010650635,0.05432129,-0.042617798,-14.15863,-31.898499,22.961426,0,0.0,0.0,0.0,0.0
0.450897217,-0.8695081,0.03111391,-0.49293783,-0.49388373,-0.042869706,0.8684706,0.0058894167,0.99859613,0.052642204,-0.6928485,0.20135574,-0.6923994,-0.7205413,-0.15610664,0.67561156,0.027950129,0.96699876,0.2532434,-0.17955017,9.900009,0.66319275,0.057754517,9.792725,0.51623535,-0.010650635,0.05432129,-0.042617798,-14.15863,-31.898499,22.961426,0,0.0,0.0,0.0,0.0
0.455291748,-0.8693879,0.030898375,-0.4931632,-0.4940981,-0.042989593,0.8683426,0.0056294873,0.99859756,0.052641463,-0.70110875,0.1934456,-0.68631285,-0.712539,-0.15348169,0.6846397,0.027104072,0.9690316,0.24544491,-0.20828247,9.761154,0.6105194,0.0552063,9.792877,0.51623535,0.0,0.04046631,-0.026626587,-14.15863,-31.898499,22.961426,0,0.0,0.0,0.0,0.0
0.459686279,-0.9055224,0.02725258,-0.4234223,-0.42426386,-0.045417555,0.9043989,0.0054163975,0.9985963,0.052688897,-0.70507914,0.18962033,-0.68330634,-0.7086269,-0.15216534,0.68898016,0.026669102,0.9699948,0.24165869,-0.2753296,9.818619,0.67755127,0.053115845,9.792725,0.5166931,0.010650635,0.04899597,-0.030899048,-12.904358,-31.71997,25.55542,0,0.0,0.0,0.0,0.0
0.464080811,-0.90544266,0.027073497,-0.4236043,-0.4244369,-0.04555006,0.9043111,0.005187661,0.9985952,0.052733958,-0.7100573,0.1856391,-0.6792324,-0.70365536,-0.15114413,0.69427985,0.026223479,0.9709241,0.23794696,-0.31362915,9.895233,0.5817871,0.050872803,9.792725,0.5171356,0.004257202,0.03727722,-0.020248413,-12.904358,-31.71997,25.55542,0,0.0,0.0,0.0,0.0
0.468475342,-0.90540504,0.026989132,-0.42369002,-0.42451796,-0.045538493,0.90427345,0.0051113516,0.99859786,0.052688155,-0.71305376,0.18124326,-0.6772778,-0.7006965,-0.15107656,0.6972806,0.02405661,0.97176474,0.23472221,-0.22265625,9.866501,0.5530548,0.050125122,9.792877,0.5166931,-0.0053253174,0.045791626,-0.015975952,-12.904358,-31.71997,25.55542,0,0.0,0.0,0.0,0.0
0.472869873,-0.91128355,0.026384331,-0.41093317,-0.4117476,-0.045997582,0.91013634,0.005111407,0.9985931,0.052780528,-0.7178092,0.17745826,-0.6732448,-0.69583756,-0.14998396,0.7023638,0.023664335,0.97263217,0.231142,-0.18434143,9.852127,0.6392517,0.050125122,9.792725,0.5175934,0.01171875,0.031951904,0.0053253174,-11.828613,-32.078552,24.171448,0,0.0,0.0,0.0,0.0
0.477264404,-0.91128075,0.026378267,-0.41093984,-0.41175386,-0.045983255,0.9101342,0.0051114107,0.99859387,0.052765008,-0.7178092,0.17745826,-0.6732448,-0.69583756,-0.14998396,0.7023638,0.023664335,0.97263217,0.231142,-0.18434143,9.852127,0.6392517,0.050125122,9.792725,0.5174408,0.01171875,0.031951904,0.0053253174,-11.828613,-32.078552,24.171448,0,0.0,0.0,0.0,0.0
0.481658936,-0.9112676,0.026350053,-0.41097087,-0.41178265,-0.045845088,0.91012824,0.0051409313,0.998601,0.052627638,-0.7273205,0.17009312,-0.66488594,-0.6859157,-0.14782849,0.71250707,0.022903476,0.97427666,0.22418822,-0.16519165,9.847351,0.26574707,0.05041504,9.792877,0.516098,0.015975952,0.014907837,0.020217896,-11.828613,-32.078552,24.171448,0,0.0,0.0,0.0,0.0
0.486053467,-0.9101825,0.026591618,-0.41335306,-0.41417348,-0.04563702,0.90905315,0.0053089927,0.99860406,0.052551556,-0.73188233,0.16655187,-0.66076374,-0.68105817,-0.14671311,0.7173806,0.022538392,0.97505677,0.22080824,-0.13166809,9.976624,0.52911377,0.05206299,9.792877,0.51535034,0.008514404,-0.01171875,0.026611328,-12.187195,-30.644226,24.864197,0,0.0,0.0,0.0,0.0
0.490447998,-0.9102098,0.026654683,-0.4132887,-0.4141119,-0.04552518,0.9090867,0.0054163737,0.9986075,0.052475493,-0.73628396,0.16311772,-0.656718,-0.6763085,-0.14555882,0.7220937,0.02219519,0.97581005,0.21749055,-0.17955017,9.876068,0.56741333,0.053115845,9.792877,0.51460266,0.017044067,-0.0063934326,0.051116943,-12.187195,-30.644226,24.864197,0,0.0,0.0,0.0,0.0
0.494842529,-0.91024345,0.026732,-0.41320992,-0.41403624,-0.045337904,0.9091307,0.005568809,0.99861395,0.052336536,-0.7405669,0.15977663,-0.6527113,-0.6716267,-0.14438151,0.72668535,0.021867894,0.97653747,0.21423441,-0.13166809,9.871292,0.63446045,0.054611206,9.79303,0.5132446,0.023422241,-0.022369385,0.043655396,-12.187195,-30.644226,24.864197,0,0.0,0.0,0.0,0.0
0.499237061,-0.8906586,0.028849598,-0.45375648,-0.45463645,-0.043916814,0.88959366,0.0057368795,0.9986185,0.052230965,-0.74473447,0.15652822,-0.64874446,-0.66701245,-0.14318,0.73115915,0.021559821,0.9772402,0.21103735,-0.12210083,9.871292,0.5051727,0.056259155,9.79303,0.51220703,0.041534424,-0.026626587,0.048980713,-13.800049,-32.25708,25.036621,0,0.0,0.0,0.0,0.0
0.503631592,-0.8907048,0.028944453,-0.45365968,-0.45454296,-0.043612078,0.88965654,0.005965579,0.9986292,0.052001987,-0.7481915,0.15349936,-0.6454823,-0.6631418,-0.1418181,0.73493576,0.02127109,0.977919,0.20789894,0.01675415,9.923965,0.4668579,0.058502197,9.793182,0.509964,0.023422241,-0.029815674,0.05430603,-13.800049,-32.25708,25.036621,0,0.0,0.0,0.0,0.0
0.508026123,-0.89076394,0.029065859,-0.45353588,-0.4544245,-0.043430824,0.88972586,0.006163214,0.99863356,0.05189485,-0.7515591,0.15055694,-0.64225507,-0.6593312,-0.1404395,0.73861974,0.021006348,0.97857517,0.20481546,0.12210083,9.876068,0.62008667,0.060440063,9.793182,0.50891113,0.04473877,-0.02130127,0.053253174,-13.800049,-32.25708,25.036621,0,0.0,0.0,0.0,0.0
0.512420654,-0.90682995,0.027600894,-0.42059195,-0.4214472,-0.044095412,0.90578026,0.0064541707,0.99864596,0.051619362,-0.7548407,0.1476975,-0.63906264,-0.65557957,-0.13905035,0.7422132,0.020761149,0.97920907,0.2017883,-0.011962891,9.809036,0.39024353,0.06329346,9.79332,0.5062103,0.036209106,-0.018096924,0.038330078,-12.187195,-32.078552,24.171448,0,0.0,0.0,0.0,0.0
0.516815186,-0.9069103,0.027770482,-0.4204074,-0.42126986,-0.04383492,0.90587527,0.006728067,0.9986527,0.051453218,-0.7585142,0.14482217,-0.6353603,-0.6513326,-0.13775036,0.7461841,0.020542892,0.9798221,0.198813,0.026321411,9.981415,0.4955902,0.065979004,9.79332,0.50457764,0.050064087,-0.0095825195,0.0713501,-12.187195,-32.078552,24.171448,0,0.0,0.0,0.0,0.0
0.521209717,-0.9069869,0.02793208,-0.42023158,-0.42110112,-0.043626104,0.90596384,0.006972389,0.99865735,0.051330537,-0.7620918,0.1420327,-0.63169837,-0.6471491,-0.13643284,0.7500561,0.020348093,0.9804146,0.1958907,0.04548645,9.86171,0.59135437,0.068374634,9.79332,0.5033722,0.039413452,-0.0063934326,0.064971924,-12.187195,-32.078552,24.171448,0,0.0,0.0,0.0,0.0
0.525604248,-0.8793827,0.030681876,-0.47512582,-0.476061,-0.04156962,0.8784292,0.007201058,0.9986644,0.051162053,-0.76557636,0.13932534,-0.62807745,-0.64302874,-0.13510244,0.75383115,0.020172983,0.98098713,0.19302142,0.06942749,9.890442,0.3950348,0.070617676,9.793472,0.50172424,0.034088135,-0.020233154,0.05644226,-13.980103,-31.71997,23.8266,0,0.0,0.0,0.0,0.0
0.529998779,-0.8794571,0.030824896,-0.47497904,-0.47591993,-0.041338235,0.8785165,0.007445384,0.9986695,0.051025387,-0.7681814,0.13686192,-0.6254327,-0.6399192,-0.13359256,0.7567406,0.020015812,0.98154056,0.19020389,-0.14125061,9.900009,0.509964,0.073013306,9.793472,0.50038147,0.027694702,-0.022369385,0.048980713,-13.980103,-31.71997,23.8266,0,0.0,0.0,0.0,0.0
0.534393311,-0.8795114,0.030929618,-0.47487152,-0.47581628,-0.04112639,0.87858254,0.0076444736,0.99867505,0.05088795,-0.7702429,0.1367872,-0.62290853,-0.63727593,-0.12740524,0.7600311,0.02460073,0.98237324,0.18530418,-0.09336853,9.86171,0.4668579,0.07496643,9.793625,0.4990387,0.03302002,-0.004257202,0.07348633,-13.980103,-31.71997,23.8266,0,0.0,0.0,0.0,0.0
0.538787842,-0.9150811,0.02777324,-0.40231246,-0.4031913,-0.043305255,0.9140906,0.007965009,0.9986758,0.05082575,-0.7727434,0.1343804,-0.6203302,-0.6342528,-0.12605016,0.7627809,0.024310086,0.9828801,0.18263558,0.05027771,9.986206,0.4046173,0.07810974,9.793625,0.49842834,0.028762817,0.0032043457,0.061767578,-12.187195,-31.36139,25.55542,0,0.0,0.0,0.0,0.0
0.543182373,-0.91514415,0.027923027,-0.4021587,-0.40304306,-0.04302532,0.9141692,0.008223365,0.99868375,0.050628543,-0.7727434,0.1343804,-0.6203302,-0.6342528,-0.12605016,0.7627809,0.024310086,0.9828801,0.18263558,0.05027771,9.986206,0.4046173,0.0806427,9.793625,0.49649048,0.028762817,0.0032043457,0.061767578,-12.187195,-31.36139,25.55542,0,0.0,0.0,0.0,0.0
0.547576904,-0.91518855,0.028028717,-0.4020502,-0.40293738,-0.042712703,0.91423035,0.00845205,0.9986941,0.050383992,-0.77956736,0.12939645,-0.612806,-0.6258651,-0.123724595,0.7700552,0.02382323,0.98384386,0.17743638,0.007171631,9.866501,0.34236145,0.08288574,9.793777,0.49409485,0.03727722,0.0063934326,0.060699463,-12.187195,-31.36139,25.55542,0,0.0,0.0,0.0,0.0
0.551971436,-0.8918223,0.030425977,-0.45136148,-0.45230225,-0.040790297,0.89093137,0.0086962925,0.9987044,0.05013944,-0.7828445,0.12700784,-0.609117,-0.62176967,-0.12254962,0.7735529,0.023600219,0.9843021,0.17490692,-0.04069519,9.885651,0.3950348,0.08528137,9.79393,0.49169922,0.04046631,-0.004257202,0.059631348,-12.965393,-30.802917,23.54126,0,0.0,0.0,0.0,0.0
0.556365967,-0.8918958,0.030575503,-0.4512063,-0.452152,-0.04049512,0.8910211,0.008971765,0.9987117,0.0499422,-0.78535867,0.12482208,-0.6063261,-0.6185988,-0.12122588,0.7762988,0.023396816,0.9847455,0.17242058,0.16519165,9.818619,0.24180603,0.08798218,9.79393,0.48976135,0.04899597,0.0,0.06390381,-12.965393,-30.802917,23.54126,0,0.0,0.0,0.0,0.0
0.560760498,-0.8919849,0.030756962,-0.45101798,-0.4519716,-0.04033561,0.8911202,0.009216062,0.9987128,0.049880013,-0.7878105,0.12270104,-0.6035719,-0.6154801,-0.11989913,0.7789791,0.023213802,0.9851744,0.16997784,0.07899475,9.957474,0.38067627,0.09037781,9.79393,0.489151,0.020233154,-0.025558472,0.053253174,-12.965393,-30.802917,23.54126,0,0.0,0.0,0.0,0.0
0.565155029,-0.88468987,0.03157226,-0.46510965,-0.46608344,-0.039593518,0.88385445,0.009489954,0.998717,0.049743295,-0.79020274,0.12064165,-0.6008538,-0.6124121,-0.11857487,0.78159547,0.023046806,0.98558897,0.16758059,0.19392395,9.837769,0.34236145,0.093063354,9.79393,0.48780823,0.006378174,-0.036209106,0.05430603,-13.682556,-31.52008,23.886108,0,0.0,0.0,0.0,0.0
0.569549561,-0.8847637,0.031718396,-0.4649591,-0.4659384,-0.039398223,0.88393956,0.009718578,0.99872005,0.049636945,-0.79234076,0.1186809,-0.5984238,-0.60964894,-0.11721316,0.7839574,0.022897635,0.9859898,0.16522644,0.12689209,9.871292,0.38067627,0.0953064,9.794067,0.48677063,0.017044067,-0.04685974,0.053253174,-13.682556,-31.52008,23.886108,0,0.0,0.0,0.0,0.0
0.573944092,-0.8848778,0.03194403,-0.46472663,-0.46571565,-0.0392296,0.8840644,0.010009538,0.99871945,0.049590237,-0.79442775,0.116775826,-0.5960269,-0.60693204,-0.11585784,0.7862637,0.022762204,0.9863774,0.16291566,0.2609558,9.84256,0.33277893,0.09815979,9.794067,0.48631287,0.015975952,-0.043670654,0.04685974,-13.682556,-31.52008,23.886108,0,0.0,0.0,0.0,0.0
0.578338623,-0.8849796,0.03214578,-0.46451876,-0.46551746,-0.039179392,0.88417095,0.010222803,0.9987149,0.04963739,-0.79646593,0.11492763,-0.5936613,-0.6042594,-0.114508435,0.7885166,0.022643114,0.986752,0.16064817,0.28012085,9.852127,0.4955902,0.100250244,9.79393,0.48677063,-0.006378174,-0.020233154,0.04685974,-13.682556,-31.52008,23.886108,0,0.0,0.0,0.0,0.0
0.582733154,-0.8850805,0.032345828,-0.46431258,-0.46532017,-0.03905924,0.88428015,0.010467074,0.9987132,0.049621742,-0.7984567,0.1131316,-0.5913274,-0.60163033,-0.11317131,0.7907168,0.022533763,0.9871137,0.1584258,0.44770813,9.818619,0.41418457,0.102645874,9.79393,0.48661804,-0.007446289,-0.050064087,0.031936646,-13.682556,-31.52008,23.886108,0,0.0,0.0,0.0,0.0
0.587127686,-0.8851589,0.03250136,-0.46415222,-0.4651672,-0.039012857,0.8843627,0.010635085,0.99871,0.049651146,-0.8004012,0.11138723,-0.5890252,-0.5990446,-0.11184415,0.7928659,0.022436114,0.9874633,0.15624613,0.3184204,9.785095,0.509964,0.10429382,9.79393,0.48690796,-0.0053253174,-0.029815674,0.023422241,-13.682556,-31.52008,23.886108,0,0.0,0.0,0.0,0.0
0.591522217,-0.89539015,0.03163652,-0.44415712,-0.44515467,-0.039707843,0.89457285,0.010664654,0.9987104,0.04963716,-0.8023006,0.10968984,-0.5867555,-0.59650195,-0.110531546,0.7949643,0.022344513,0.9878011,0.15410972,0.26574707,9.775513,0.51474,0.10458374,9.79393,0.48677063,-0.0053253174,-0.026626587,0.018096924,-12.606812,-31.161499,23.194885,0,0.0,0.0,0.0,0.0
0.595916748,-0.8954166,0.031689767,-0.44409996,-0.44509992,-0.0396821,0.89460117,0.010726885,0.9987097,0.049637128,-0.80442107,0.10798281,-0.584163,-0.59364265,-0.10928618,0.79727346,0.022250876,0.98812765,0.15201531,0.2753296,9.923965,0.49079895,0.10519409,9.79393,0.48677063,0.008514404,-0.024490356,-0.010650635,-12.606812,-31.161499,23.194885,0,0.0,0.0,0.0,0.0
0.600311279,-0.8954294,0.031715512,-0.4440723,-0.44507417,-0.039737247,0.89461154,0.010726852,0.9987067,0.04969766,-0.80648994,0.10631794,-0.58161026,-0.59083253,-0.10805636,0.7995254,0.022157198,0.9884434,0.14996246,0.3663025,9.837769,0.5817871,0.10519409,9.79393,0.48736572,-0.0032043457,-0.008514404,-0.019180298,-12.606812,-31.161499,23.194885,0,0.0,0.0,0.0,0.0
0.604705811,-0.8917333,0.03192517,-0.4514338,-0.4524367,-0.039481577,0.8909222,0.010619528,0.9987102,0.049651157,-0.8091365,0.10349691,-0.57843465,-0.5872643,-0.1081412,0.8021385,0.020466236,0.9887335,0.14828102,0.25138855,9.876068,0.47644043,0.104141235,9.79393,0.48690796,-0.0053253174,-0.01171875,-0.026626587,-13.502502,-32.05719,24.404907,0,0.0,0.0,0.0,0.0
0.609100342,-0.8916534,0.03176265,-0.4516031,-0.45259738,-0.039443567,0.89084226,0.010482673,0.9987169,0.049545683,-0.8091365,0.10349691,-0.57843465,-0.5872643,-0.1081412,0.8021385,0.020466236,0.9887335,0.14828102,0.25138855,9.876068,0.47644043,0.10279846,9.79393,0.48587036,-0.0053253174,-0.01171875,-0.026626587,-13.502502,-32.05719,24.404907,0,0.0,0.0,0.0,0.0
0.613494873,-0.8915083,0.031467732,-0.45191017,-0.45288873,-0.039365932,0.89069754,0.010238366,0.9987292,0.049346432,-0.8127999,0.10044283,-0.5738185,-0.5821878,-0.105664104,0.806159,0.020340879,0.9893161,0.14436035,0.16040039,9.852127,0.38067627,0.10040283,9.794067,0.48391724,0.024490356,-0.0021209717,-0.043670654,-13.502502,-32.05719,24.404907,0,0.0,0.0,0.0,0.0
0.617889404,-0.88170004,0.032023314,-0.4707224,-0.47170454,-0.038697038,0.88090706,0.009994006,0.9987377,0.04922472,-0.81456256,0.0989564,-0.5715728,-0.5797218,-0.104458466,0.80809104,0.020260155,0.98959386,0.14245515,0.08378601,9.837769,0.41897583,0.0980072,9.79422,0.48272705,0.034088135,0.007461548,-0.06071472,-14.219666,-32.774353,24.404907,0,0.0,0.0,0.0,0.0
0.622283936,-0.88152814,0.031692427,-0.47106665,-0.4720334,-0.03881719,0.88072574,0.009626853,0.99874365,0.04917833,-0.81603837,0.09753658,-0.5697087,-0.5776459,-0.103236616,0.8097329,0.020163782,0.98986304,0.14058664,-0.05027771,9.866501,0.4333496,0.09440613,9.79422,0.4822693,0.022369385,0.022354126,-0.055389404,-14.219666,-32.774353,24.404907,0,0.0,0.0,0.0,0.0
0.626678467,-0.8813676,0.031383783,-0.4713876,-0.47234008,-0.038945366,0.8805556,0.009276802,0.99874836,0.049149,-0.8174764,0.096132934,-0.56788284,-0.57561326,-0.102046184,0.8113298,0.020045234,0.99012375,0.13875572,-0.14604187,9.8138275,0.5051727,0.0909729,9.79422,0.48197937,0.006378174,0.013839722,-0.0703125,-14.219666,-32.774353,24.404907,0,0.0,0.0,0.0,0.0
0.631072998,-0.89714634,0.02965236,-0.44073722,-0.4416431,-0.04001634,0.89629805,0.008940663,0.9987589,0.048996266,-0.8188777,0.09474645,-0.56609404,-0.5736227,-0.10088633,0.81288314,0.019906636,0.99037623,0.13696228,-0.03590393,9.809036,0.2753296,0.087677,9.794373,0.480484,0.01171875,0.027694702,-0.057525635,-12.606812,-31.52008,23.54126,0,0.0,0.0,0.0,0.0
0.635467529,-0.89698446,0.0293253,-0.44108847,-0.44197845,-0.040070843,0.89613026,0.008604502,0.9987664,0.04890407,-0.82064176,0.093307205,-0.56377393,-0.5711017,-0.09981808,0.8147879,0.01975075,0.9906211,0.13520278,-0.10772705,9.804245,0.4046173,0.0843811,9.794525,0.47958374,0.017044067,0.029815674,-0.06391907,-12.606812,-31.52008,23.54126,0,0.0,0.0,0.0,0.0
0.639862061,-0.8968746,0.02910379,-0.44132623,-0.44220555,-0.040110145,0.8960165,0.008375817,0.99877137,0.04884363,-0.82235956,0.09188804,-0.56149924,-0.5686313,-0.098773725,0.81664085,0.01957815,0.9908584,0.13347793,-0.20350647,9.943115,0.23701477,0.08213806,9.794525,0.47898865,0.01171875,0.023422241,-0.057525635,-12.606812,-31.52008,23.54126,0,0.0,0.0,0.0,0.0
0.644256592,-0.91589856,0.027042396,-0.40049773,-0.40132633,-0.041362405,0.9150006,0.008178263,0.99877816,0.0487366,-0.82403326,0.0904932,-0.5592675,-0.5662093,-0.09774996,0.81844485,0.019395314,0.9910883,0.13178732,-0.20828247,9.804245,0.3088379,0.080200195,9.794525,0.4779358,-0.0053253174,0.03302002,-0.02557373,-10.992432,-31.340027,23.02246,0,0.0,0.0,0.0,0.0
0.648651123,-0.91586566,0.026971927,-0.40057793,-0.40140384,-0.041458644,0.9149625,0.008070883,0.99877614,0.048797183,-0.8261753,0.08903518,-0.5563337,-0.56308585,-0.09682497,0.8207066,0.019204771,0.9913111,0.13012883,-0.026321411,9.938324,0.29447937,0.07914734,9.794525,0.47853088,0.0095825195,0.043670654,-0.019180298,-10.992432,-31.340027,23.02246,0,0.0,0.0,0.0,0.0
0.653045654,-0.9158429,0.026923262,-0.4006333,-0.4014573,-0.041530307,0.91493565,0.007994627,0.9987744,0.048843775,-0.82826203,0.08760947,-0.55344975,-0.5600184,-0.09591446,0.82290936,0.01901082,0.9915266,0.12850522,-0.10772705,9.909592,0.33277893,0.07839966,9.794525,0.47898865,-0.030883789,0.03514099,-0.014907837,-10.992432,-31.340027,23.02246,0,0.0,0.0,0.0,0.0
0.657440186,-0.8828906,0.029924532,-0.4686243,-0.46951225,-0.03946004,0.8820438,0.007902813,0.998773,0.048888832,-0.8302955,0.08621627,-0.5506144,-0.5570058,-0.09501703,0.82505536,0.01881545,0.9917351,0.12691517,-0.09336853,9.828186,0.29447937,0.07749939,9.794525,0.47943115,-0.023422241,0.051116943,0.003189087,-13.502502,-32.41577,23.368835,0,0.0,0.0,0.0,0.0
0.661834717,-0.882896,0.029934537,-0.46861356,-0.4695029,-0.039576128,0.8820435,0.0078576505,0.99876803,0.04899595,-0.83143854,0.08499629,-0.549077,-0.55530465,-0.09400462,0.826317,0.018618105,0.99193686,0.12535791,-0.10772705,10.01973,0.3040619,0.077056885,9.794525,0.480484,-0.025558472,0.024490356,-0.0053253174,-13.502502,-32.41577,23.368835,0,0.0,0.0,0.0,0.0
0.666229248,-0.8829578,0.030049613,-0.46848965,-0.46938613,-0.03974026,0.8820984,0.007888814,0.9987582,0.04919384,-0.8325554,0.0838033,-0.54756594,-0.5536353,-0.093012005,0.82754856,0.018421099,0.99213195,0.123834126,-0.002380371,9.84256,0.6009369,0.07736206,9.794373,0.48242188,-0.038345337,0.031951904,0.0063934326,-13.502502,-32.41577,23.368835,0,0.0,0.0,0.0,0.0
0.670623779,-0.92272043,0.02629597,-0.38457182,-0.3853888,-0.04247901,0.92177594,0.007902764,0.9987512,0.049330425,-0.83276266,0.08467523,-0.5471166,-0.5533037,-0.09335763,0.8277315,0.019010846,0.99202543,0.12459586,-0.002380371,9.990997,0.4093933,0.07749939,9.794373,0.48376465,-0.034072876,0.022354126,0.014892578,-10.992432,-33.850098,24.060059,0,0.0,0.0,0.0,0.0
0.675018311,-0.9227634,0.026387747,-0.38446233,-0.3852848,-0.042592186,0.9218142,0.007949509,0.998744,0.049469315,-0.8348756,0.08331992,-0.5440961,-0.55011755,-0.09253942,0.829944,0.018800532,0.9922168,0.123094656,-0.01675415,9.828186,0.32321167,0.07795715,9.79422,0.48512268,-0.041534424,-0.008514404,0.0095825195,-10.992432,-33.850098,24.060059,0,0.0,0.0,0.0,0.0
0.679412842,-0.9227936,0.026452217,-0.3843854,-0.38521188,-0.042680338,0.9218406,0.007979029,0.9987385,0.049574852,-0.8369354,0.08200106,-0.54112387,-0.54698575,-0.09173058,0.83210105,0.018595565,0.9924018,0.121625975,0.06942749,9.856918,0.42855835,0.07824707,9.79422,0.48616028,-0.04473877,-0.0063934326,0.019165039,-10.992432,-33.850098,24.060059,0,0.0,0.0,0.0,0.0
0.683807373,-0.91687226,0.027241882,-0.39825004,-0.39909968,-0.04246124,0.9159238,0.008041297,0.9987266,0.04980376,-0.8389431,0.08071679,-0.5382,-0.5439081,-0.090931065,0.83420354,0.018395135,0.99258065,0.120188504,0.07899475,9.866501,0.6009369,0.07885742,9.794067,0.48840332,-0.028747559,0.0,0.0063934326,-11.172485,-31.878662,23.54126,0,0.0,0.0,0.0,0.0
0.688201904,-0.91692996,0.027366463,-0.3981087,-0.3989656,-0.04257496,0.91597694,0.008117587,0.9987184,0.049956534,-0.84073615,0.07949558,-0.5355774,-0.541139,-0.09011839,0.83609045,0.018200113,0.9927533,0.11878395,0.07421875,9.933533,0.53868103,0.0796051,9.79393,0.48989868,-0.041534424,-0.008514404,0.012786865,-11.172485,-31.878662,23.54126,0,0.0,0.0,0.0,0.0
0.692596436,-0.91692203,0.027349329,-0.39812815,-0.39898476,-0.042649943,0.915965,0.008070885,0.9987156,0.050018635,-0.8424857,0.0783079,-0.53299683,-0.5384175,-0.08931629,0.8379315,0.018011346,0.99292016,0.11741004,-0.026321411,9.866501,0.4237671,0.07914734,9.79393,0.49050903,-0.030883789,-0.02130127,0.015960693,-11.172485,-31.878662,23.54126,0,0.0,0.0,0.0,0.0
0.696990967,-0.8811641,0.030801335,-0.47180635,-0.47274208,-0.040394455,0.8802746,0.008055272,0.99870896,0.05015523,-0.84419155,0.07714823,-0.53046095,-0.53574526,-0.08852661,0.8397262,0.01782348,0.9930817,0.11606521,-0.14604187,9.933533,0.42855835,0.07899475,9.79393,0.4918518,-0.019165039,-0.025558472,-0.004257202,-13.323975,-31.161499,22.850037,0,0.0,0.0,0.0,0.0
0.701385498,-0.88119984,0.030868867,-0.47173512,-0.47267485,-0.040462844,0.8803075,0.008086352,0.9987041,0.050246786,-0.84419155,0.07714823,-0.53046095,-0.53574526,-0.08852661,0.8397262,0.01782348,0.9930817,0.11606521,-0.14604187,9.933533,0.42855835,0.07929993,9.79393,0.49275208,-0.019165039,-0.025558472,-0.004257202,-13.323975,-31.161499,22.850037,0,0.0,0.0,0.0,0.0
0.705780029,-0.88123417,0.030933693,-0.47166663,-0.47260973,-0.0404631,0.8803424,0.008147145,0.9987021,0.050277032,-0.8457514,0.075199075,-0.5282515,-0.53329146,-0.08674062,0.8414726,0.017457103,0.9933887,0.11346403,-0.03111267,9.86171,0.36151123,0.07989502,9.793777,0.493042,-0.026626587,-0.047927856,0.025543213,-13.323975,-31.161499,22.850037,0,0.0,0.0,0.0,0.0
0.710174561,-0.8769417,0.03133285,-0.47957444,-0.48052758,-0.040216237,0.8760571,0.008162685,0.9986996,0.050323587,-0.8465059,0.074259266,-0.52717483,-0.5320988,-0.085869856,0.84231657,0.017281381,0.99353504,0.1122026,-0.14604187,9.794678,0.51474,0.08004761,9.793777,0.49349976,-0.018096924,-0.057525635,0.020217896,-13.861084,-30.264282,23.368835,0,0.0,0.0,0.0,0.0
0.714569092,-0.87703496,0.031516578,-0.47939184,-0.48035473,-0.040255465,0.8761501,0.00831511,0.9986922,0.05044458,-0.84714794,0.07335657,-0.526269,-0.5310815,-0.08500163,0.84304637,0.017109262,0.9936768,0.11096727,0.02154541,9.74678,0.44291687,0.08154297,9.793777,0.49468994,-0.0095825195,-0.047927856,0.020217896,-13.861084,-30.264282,23.368835,0,0.0,0.0,0.0,0.0
0.718963623,-0.8770944,0.03163406,-0.47927493,-0.48024365,-0.040227715,0.876212,0.00843801,0.99868965,0.05047557,-0.84777784,0.072479405,-0.5253756,-0.5300808,-0.08414762,0.84376156,0.016946228,0.9938138,0.10975842,0.026321411,9.852127,0.509964,0.08274841,9.793777,0.49499512,-0.031951904,-0.06390381,0.034072876,-13.861084,-30.264282,23.368835,0,0.0,0.0,0.0,0.0
0.723358154,-0.8891045,0.030715918,-0.45667237,-0.45762417,-0.040997427,0.88820004,0.008559486,0.998687,0.050507344,-0.8483949,0.071625605,-0.5244959,-0.5290976,-0.08330675,0.84446186,0.016791036,0.99394655,0.10857395,0.03111267,9.880859,0.45729065,0.0839386,9.793625,0.4953003,-0.006378174,-0.06071472,0.030883789,-12.965393,-30.444336,23.194885,0,0.0,0.0,0.0,0.0
0.727752686,-0.8891721,0.030851915,-0.45653164,-0.45749032,-0.040979512,0.8882699,0.008696383,0.99868363,0.050552294,-0.84926856,0.070752285,-0.5231987,-0.52769864,-0.08251493,0.84541434,0.016643293,0.9940751,0.107413225,0.09336853,9.770737,0.47164917,0.08528137,9.793625,0.4957428,-0.008514404,-0.04899597,0.029815674,-12.965393,-30.444336,23.194885,0,0.0,0.0,0.0,0.0
0.732147217,-0.8892438,0.030996379,-0.45638213,-0.45734853,-0.041009743,0.8883415,0.008819255,0.9986779,0.05064381,-0.8501239,0.06990341,-0.5219224,-0.5263242,-0.08173465,0.84634644,0.01650336,0.99419963,0.10627643,0.007171631,9.847351,0.41418457,0.08648682,9.793625,0.49664307,-0.012771606,-0.050064087,0.027679443,-12.965393,-30.444336,23.194885,0,0.0,0.0,0.0,0.0
0.736541748,-0.8859773,0.03141053,-0.46266356,-0.46364295,-0.040828187,0.885081,0.008911147,0.99867237,0.050736118,-0.8528278,0.0716575,-0.5172524,-0.5218594,-0.08159131,0.8491205,0.018642556,0.99408656,0.10697848,0.09336853,9.832977,0.39982605,0.087387085,9.793472,0.49754333,-0.028747559,-0.05857849,0.028747559,-12.785339,-31.698608,22.331238,0,0.0,0.0,0.0,0.0
0.740936279,-0.886033,0.03151294,-0.46255007,-0.4635343,-0.040775843,0.8851403,0.009032504,0.99867123,0.050736062,-0.8528278,0.0716575,-0.5172524,-0.5218594,-0.08159131,0.8491205,0.018642556,0.99408656,0.10697848,0.09336853,9.832977,0.39982605,0.08857727,9.793472,0.49754333,-0.028747559,-0.05857849,0.028747559,-12.785339,-31.698608,22.331238,0,0.0,0.0,0.0,0.0
0.745330811,-0.88614637,0.031721894,-0.46231836,-0.46331406,-0.04084074,0.8852526,0.009200465,0.998662,0.050888076,-0.85422295,0.069971435,-0.5151767,-0.5195856,-0.08007164,0.8506581,0.018270724,0.99433017,0.10475519,0.10293579,9.900009,0.52911377,0.09022522,9.793472,0.4990387,-0.010650635,-0.039413452,0.024490356,-12.785339,-31.698608,22.331238,0,0.0,0.0,0.0,0.0
0.749725342,-0.89542794,0.03105821,-0.4441219,-0.4451083,-0.04149535,0.89451486,0.009353038,0.99865586,0.05098036,-0.8548999,0.06916277,-0.51416206,-0.51847726,-0.07933117,0.8514035,0.018096339,0.9944461,0.10367953,0.18434143,9.962265,0.44291687,0.09172058,9.79332,0.49993896,-0.03302002,-0.05432129,0.03514099,-12.965393,-32.237244,23.886108,0,0.0,0.0,0.0,0.0
0.754119873,-0.89547306,0.031148558,-0.44402444,-0.44501707,-0.041654285,0.8945529,0.009368511,0.9986465,0.051161934,-0.85577285,0.06834529,-0.5128174,-0.5170409,-0.07862974,0.85234153,0.01793083,0.99455833,0.10262651,0.11730957,9.86171,0.4524994,0.09187317,9.79332,0.50172424,-0.026626587,-0.031951904,0.022354126,-12.965393,-32.237244,23.886108,0,0.0,0.0,0.0,0.0
0.758514404,-0.8955282,0.03125871,-0.4439057,-0.44490498,-0.041754164,0.8946039,0.009429253,0.99863875,0.05129918,-0.85662705,0.06754784,-0.51149535,-0.5156301,-0.07794327,0.8532587,0.017768167,0.9946669,0.10159802,0.14125061,9.856918,0.44291687,0.09246826,9.793182,0.503067,-0.043670654,-0.03302002,0.0021362305,-12.965393,-32.237244,23.886108,0,0.0,0.0,0.0,0.0
0.762908936,-0.8958721,0.031341027,-0.4432051,-0.44421083,-0.041908585,0.89494157,0.0094742915,0.9986298,0.051466763,-0.8574629,0.06677104,-0.5101951,-0.5142443,-0.07726971,0.85415584,0.017610244,0.99477184,0.10059254,0.14125061,9.765945,0.55784607,0.09291077,9.793182,0.50471497,-0.039413452,-0.031951904,0.007461548,-12.24823,-31.878662,22.503662,0,0.0,0.0,0.0,0.0
0.767303467,-0.8959336,0.031458214,-0.4430726,-0.44408527,-0.041989706,0.8950001,0.009550613,0.99862266,0.05159012,-0.85828775,0.06601326,-0.50890505,-0.5128717,-0.07661095,0.85504,0.01745628,0.99487334,0.09961057,0.20350647,9.847351,0.3471527,0.09365845,9.79303,0.5059204,-0.031951904,-0.030883789,0.004257202,-12.24823,-31.878662,22.503662,0,0.0,0.0,0.0,0.0
0.771697998,-0.89598787,0.03156169,-0.44295552,-0.44397548,-0.04217791,0.89504564,0.009566216,0.99861145,0.051803514,-0.8590952,0.065275796,-0.50763613,-0.51152307,-0.07596452,0.85590506,0.01730755,0.9949716,0.098650835,0.25616455,9.756363,0.509964,0.093811035,9.792877,0.50801086,-0.041534424,-0.030883789,0.003189087,-12.24823,-31.878662,22.503662,0,0.0,0.0,0.0,0.0
0.776092529,-0.908595,0.03041855,-0.416569,-0.41756788,-0.043236863,0.90761644,0.009597241,0.9986017,0.051986612,-0.8598857,0.06455671,-0.50638837,-0.51019824,-0.075333044,0.8567513,0.017161272,0.9950665,0.09771452,0.16998291,9.880859,0.4955902,0.09411621,9.792877,0.5098114,-0.047927856,-0.030883789,-0.01171875,-12.068176,-30.981445,24.060059,0,0.0,0.0,0.0,0.0
0.780487061,-0.90863025,0.03049631,-0.41648656,-0.41749164,-0.04345396,0.90764123,0.009581718,0.99858993,0.05221554,-0.8609559,0.063812144,-0.50466114,-0.5083947,-0.07475246,0.8578734,0.017018082,0.9951583,0.096800335,0.08378601,9.866501,0.4333496,0.09396362,9.792725,0.51205444,-0.045791626,-0.034088135,-0.0021362305,-12.068176,-30.981445,24.060059,0,0.0,0.0,0.0,0.0
0.784881592,-0.90861,0.030451536,-0.41653404,-0.4175382,-0.04360721,0.9076124,0.0094743045,0.99858457,0.052336626,-0.862002,0.063086,-0.5029639,-0.50662386,-0.07418583,0.85896957,0.016876161,0.995247,0.095909216,0.05027771,9.919174,0.47644043,0.09291077,9.792725,0.5132446,-0.057510376,-0.03514099,-0.004257202,-12.068176,-30.981445,24.060059,0,0.0,0.0,0.0,0.0
0.789276123,-0.90862423,0.030482916,-0.41650072,-0.41750893,-0.04386214,0.9076135,0.009398094,0.99857235,0.05258109,-0.863023,0.062374573,-0.5012989,-0.5048873,-0.073632605,0.86003894,0.016732618,0.99533296,0.095038764,0.10772705,9.847351,0.5434723,0.092163086,9.792572,0.51564026,-0.03302002,-0.041534424,-0.022369385,-12.068176,-30.981445,24.060059,0,0.0,0.0,0.0,0.0
0.793670654,-0.9086331,0.030502563,-0.41647992,-0.41749138,-0.044089884,0.90761065,0.009321897,0.9985618,0.052796077,-0.8640206,0.06167893,-0.49966395,-0.503183,-0.073093906,0.86108315,0.016588297,0.995416,0.09419044,0.026321411,9.866501,0.6152954,0.091415405,9.792419,0.517746,-0.051116943,-0.036209106,-0.0234375,-12.068176,-30.981445,24.060059,0,0.0,0.0,0.0,0.0
0.798065186,-0.9086154,0.030463593,-0.41652122,-0.41753238,-0.044290047,0.9075819,0.00920046,0.9985541,0.05296216,-0.86499524,0.060998958,-0.49805856,-0.50151056,-0.072569385,0.86210257,0.016443554,0.9954963,0.09336379,0.05505371,9.876068,0.47164917,0.09022522,9.792419,0.51937866,-0.04046631,-0.04473877,-0.0138549805,-12.068176,-30.981445,24.060059,0,0.0,0.0,0.0,0.0
0.802459717,-0.88685226,0.032599617,-0.4609015,-0.46196347,-0.042927887,0.88585943,0.009093154,0.99854624,0.053130534,-0.8659469,0.060332585,-0.49648356,-0.49987036,-0.07205847,0.8630974,0.016297054,0.995574,0.092557274,0.03111267,9.890442,0.5817871,0.08917236,9.792282,0.5210266,-0.043670654,-0.04685974,-0.02557373,-13.502502,-32.05719,23.713684,0,0.0,0.0,0.0,0.0
0.806854248,-0.8868413,0.03257823,-0.46092415,-0.46198723,-0.043180194,0.88583475,0.008956136,0.99853605,0.05334471,-0.8678214,0.059526738,-0.4932977,-0.49665117,-0.07404055,0.8647865,0.014953889,0.9954771,0.093817994,0.002380371,9.818619,0.67755127,0.08782959,9.792282,0.5231323,-0.031951904,-0.041534424,-0.022369385,-13.502502,-32.05719,23.713684,0,0.0,0.0,0.0,0.0
0.811248779,-0.88681316,0.032523565,-0.46098205,-0.4620444,-0.04343116,0.88579255,0.008788148,0.9985269,0.053542662,-0.86821645,0.058969535,-0.49266908,-0.49596366,-0.0734401,0.86523217,0.014840675,0.9955547,0.09300865,-0.011962891,9.828186,0.7206421,0.08618164,9.7921295,0.5250702,-0.036209106,-0.034088135,-0.02557373,-13.502502,-32.05719,23.713684,0,0.0,0.0,0.0,0.0
0.815643311,-0.8991719,0.031262122,-0.43647754,-0.4375098,-0.044470087,0.8981133,0.008666734,0.9985214,0.053663734,-0.8686026,0.05842127,-0.49205333,-0.4952906,-0.07285807,0.86566675,0.014723295,0.9956298,0.09222022,0.007171631,9.852127,0.74458313,0.084991455,9.7921295,0.5262604,-0.027694702,-0.015975952,-0.030899048,-11.889648,-32.595825,22.158813,0,0.0,0.0,0.0,0.0
0.820037842,-0.8991752,0.031268235,-0.43647027,-0.43750364,-0.044554386,0.89811224,0.0086357165,0.9985175,0.053742163,-0.8692522,0.05784239,-0.4909735,-0.4941533,-0.07232306,0.8663613,0.014603701,0.99570256,0.09144998,0.011962891,9.828186,0.7302246,0.08468628,9.791977,0.5270233,-0.0095825195,-0.031951904,-0.024505615,-11.889648,-32.595825,22.158813,0,0.0,0.0,0.0,0.0
0.824432373,-0.89912546,0.03117583,-0.43657947,-0.43760893,-0.044698328,0.89805377,0.008483199,0.99851394,0.053832218,-0.86988723,0.05727639,-0.4899138,-0.49303776,-0.07179967,0.86704004,0.0144852735,0.9957732,0.09069705,0.12210083,9.885651,0.60572815,0.08319092,9.791977,0.5279083,0.0021209717,-0.0063934326,-0.015975952,-11.889648,-32.595825,22.158813,0,0.0,0.0,0.0,0.0
0.828826904,-0.9128217,0.02962308,-0.40728238,-0.40827203,-0.045708835,0.91171515,0.008391409,0.9985155,0.053818297,-0.87050736,0.05671946,-0.4888762,-0.4919458,-0.071289465,0.8677023,0.014363879,0.99584174,0.0899609,0.06463623,9.871292,0.6871338,0.08229065,9.791977,0.527771,-0.012771606,0.0,-0.038345337,-10.992432,-31.698608,22.331238,0,0.0,0.0,0.0,0.0
0.833221436,-0.9127938,0.029566526,-0.40734893,-0.4083365,-0.04583207,0.91168016,0.00828557,0.99851155,0.05390833,-0.8714313,0.05612636,-0.4872959,-0.49031076,-0.070825696,0.8686651,0.014241937,0.9959084,0.08923908,-0.04069519,9.837769,0.5434723,0.08125305,9.791977,0.528656,0.017044067,-0.0021209717,-0.02130127,-10.992432,-31.698608,22.331238,0,0.0,0.0,0.0,0.0
0.837615967,-0.9127318,0.02944057,-0.40749717,-0.4084771,-0.04575447,0.9116211,0.008193826,0.99851876,0.053787354,-0.8723332,0.055545393,-0.48574644,-0.48870805,-0.07037317,0.86960465,0.014119014,0.99597305,0.08853433,-0.08378601,9.933533,0.52911377,0.08035278,9.791977,0.5274658,-0.018096924,0.015975952,-0.01171875,-10.992432,-31.698608,22.331238,0,0.0,0.0,0.0,0.0
0.842010498,-0.9037467,0.030324245,-0.4269922,-0.42799184,-0.045239344,0.90264964,0.00805532,0.9985158,0.053863436,-0.87321264,0.054974508,-0.48422888,-0.48713848,-0.06992673,0.8705207,0.013995907,0.9960362,0.0878411,-0.02154541,9.923965,0.7110748,0.07899475,9.791977,0.5282135,0.026626587,0.025558472,-0.007461548,-11.889648,-32.595825,22.850037,0,0.0,0.0,0.0,0.0
0.846405029,-0.9036976,0.030228835,-0.42710277,-0.42809713,-0.04523372,0.90260005,0.007965098,0.998519,0.053818483,-0.87386316,0.054443628,-0.483114,-0.48597413,-0.06946777,0.871208,0.013870871,0.99609745,0.087163515,-0.011962891,9.890442,0.4955902,0.07810974,9.791977,0.527771,-0.0010681152,0.04046631,-0.019180298,-11.889648,-32.595825,22.850037,0,0.0,0.0,0.0,0.0
0.850799561,-0.90362066,0.030079154,-0.42727625,-0.42826217,-0.045218002,0.9025225,0.007826534,0.9985242,0.053741682,-0.87449807,0.05392214,-0.4820223,-0.48483416,-0.06901713,0.8718786,0.013745767,0.9961571,0.08649865,-0.10772705,9.880859,0.3663025,0.07675171,9.7921295,0.5270233,0.007446289,0.050064087,-0.0095825195,-11.889648,-32.595825,22.850037,0,0.0,0.0,0.0,0.0
0.855194092,-0.9101684,0.029347098,-0.41319746,-0.41416466,-0.045657624,0.9090561,0.007812545,0.99852604,0.05371066,-0.8751172,0.053408563,-0.48095477,-0.4837194,-0.06857508,0.8725325,0.013619203,0.99621534,0.085845985,0.05505371,9.914383,0.45729065,0.07661438,9.7921295,0.52671814,0.004257202,0.04685974,-0.014907837,-12.426758,-32.05719,25.09613,0,0.0,0.0,0.0,0.0
0.859588623,-0.9101348,0.029271927,-0.41327688,-0.41424054,-0.045740563,0.90901726,0.0077051697,0.9985243,0.053755697,-0.8758724,0.05288468,-0.47963604,-0.48235402,-0.06815635,0.8733208,0.013495054,0.996272,0.0852054,-0.20350647,9.866501,0.66796875,0.07556152,9.7921295,0.52716064,0.0010528564,0.024490356,0.0010681152,-12.426758,-32.05719,25.09613,0,0.0,0.0,0.0,0.0
0.863983154,-0.91010875,0.02921391,-0.41333807,-0.41429862,-0.045751076,0.90899014,0.007644496,0.9985255,0.053741753,-0.8766097,0.052370504,-0.4783438,-0.48101634,-0.06774682,0.8740902,0.013370272,0.9963271,0.08457859,-0.10293579,9.823395,0.49079895,0.07496643,9.7921295,0.5270233,-0.0095825195,0.0021362305,-0.0032043457,-12.426758,-32.05719,25.09613,0,0.0,0.0,0.0,0.0
0.868377686,-0.9000774,0.030249715,-0.43467882,-0.43566385,-0.045081716,0.8989797,0.007597814,0.99852514,0.053755738,-0.8773295,0.05186666,-0.47707722,-0.47970548,-0.067344666,0.87484133,0.013246493,0.99638075,0.08396419,-0.07899475,10.024521,0.5051727,0.07450867,9.7921295,0.52716064,-0.010650635,0.007461548,0.012786865,-12.606812,-31.878662,23.886108,0,0.0,0.0,0.0,0.0
0.872772217,-0.90014,0.030378295,-0.43454027,-0.43553323,-0.04519057,0.89903766,0.0076741087,0.9985164,0.05390859,-0.8773295,0.05186666,-0.47707722,-0.47970548,-0.067344666,0.87484133,0.013246493,0.99638075,0.08396419,-0.07899475,10.024521,0.5051727,0.07525635,9.791977,0.528656,-0.010650635,0.007461548,0.012786865,-12.606812,-31.878662,23.886108,0,0.0,0.0,0.0,0.0
0.877166748,-0.90021574,0.030534102,-0.43437228,-0.43537432,-0.045252863,0.8991114,0.007796972,0.99850875,0.054031104,-0.87835443,0.05234311,-0.47513545,-0.4778036,-0.06693704,0.8759127,0.014043841,0.99638325,0.08380417,-0.03111267,9.818619,0.59135437,0.07646179,9.791977,0.52986145,-0.03727722,-0.0053253174,0.030883789,-12.606812,-31.878662,23.886108,0,0.0,0.0,0.0,0.0
0.881561279,-0.8896989,0.03166709,-0.4554482,-0.45648015,-0.044532675,0.8886184,0.007857632,0.99850583,0.054076068,-0.8788131,0.05187623,-0.4743379,-0.47696355,-0.06653195,0.8764013,0.013905769,0.9964348,0.08321222,-0.02154541,9.823395,0.51474,0.077056885,9.791977,0.53030396,-0.023422241,-0.0095825195,0.03514099,-13.323975,-30.802917,23.886108,0,0.0,0.0,0.0,0.0
0.885955811,-0.8897588,0.03179067,-0.45532236,-0.45636103,-0.044523712,0.8886799,0.007979093,0.9985023,0.054123398,-0.8790369,0.051452927,-0.473969,-0.4765547,-0.06610927,0.8766557,0.013772756,0.9964849,0.08263263,0.03590393,9.818619,0.6105194,0.07824707,9.791824,0.5307617,-0.010650635,-0.013839722,0.02128601,-13.323975,-30.802917,23.886108,0,0.0,0.0,0.0,0.0
0.890350342,-0.88981247,0.03190094,-0.45521003,-0.4562545,-0.04448394,0.8887367,0.008102003,0.9985006,0.05413731,-0.87925726,0.05104227,-0.4736047,-0.47615176,-0.0656935,0.87690586,0.013646515,0.9965335,0.08206535,0.026321411,9.828186,0.53868103,0.079452515,9.791824,0.53089905,-0.006378174,-0.004257202,0.030883789,-13.323975,-30.802917,23.886108,0,0.0,0.0,0.0,0.0
0.894744873,-0.89939344,0.030995077,-0.43603998,-0.4370637,-0.045098156,0.8982993,0.008178254,0.9985016,0.0541078,-0.879474,0.050643366,-0.47324497,-0.47575468,-0.065283544,0.8771519,0.013526818,0.9965808,0.081508994,0.08857727,9.785095,0.4668579,0.080200195,9.791824,0.53060913,-0.0021362305,-0.015975952,0.030883789,-12.965393,-30.444336,24.578857,0,0.0,0.0,0.0,0.0
0.899139404,-0.8994197,0.031053571,-0.4359814,-0.43700826,-0.04508753,0.89832664,0.008238926,0.9985002,0.054123282,-0.87988997,0.050227128,-0.47251552,-0.47498816,-0.06490132,0.87759566,0.013412227,0.99662685,0.08096331,0.01675415,9.885651,0.59614563,0.08079529,9.791824,0.5307617,0.0021209717,-0.024490356,0.015960693,-12.965393,-30.444336,24.578857,0,0.0,0.0,0.0,0.0
0.903533936,-0.8994669,0.031158056,-0.43587685,-0.4369088,-0.045003295,0.8983794,0.008375857,0.9985008,0.054092195,-0.88029754,0.049821336,-0.4717987,-0.47423545,-0.06452483,0.87803036,0.013301911,0.9966717,0.08042809,0.11730957,9.914383,0.83078,0.08213806,9.791824,0.53045654,0.0021209717,-0.027694702,0.019165039,-12.965393,-30.444336,24.578857,0,0.0,0.0,0.0,0.0
0.907928467,-0.8879523,0.03236349,-0.4587955,-0.45985726,-0.04407167,0.88689846,0.008483247,0.998504,0.05401613,-0.88069713,0.049427465,-0.47109395,-0.47349593,-0.064152345,0.87845665,0.013198103,0.9967153,0.079902485,0.12210083,9.933533,0.66319275,0.08319092,9.791824,0.52970886,0.03302002,-0.017044067,0.025543213,-13.682556,-31.878662,24.232483,0,0.0,0.0,0.0,0.0
0.912322998,-0.88796735,0.03239373,-0.45876417,-0.45982647,-0.043934833,0.88692117,0.00857496,0.99850905,0.053908195,-0.88084507,0.049077302,-0.47085387,-0.47322336,-0.06375868,0.8786322,0.013099878,0.99675786,0.07938605,0.23701477,9.919174,0.59614563,0.08409119,9.791977,0.528656,0.029815674,-0.018096924,0.019165039,-13.682556,-31.878662,24.232483,0,0.0,0.0,0.0,0.0
0.916717529,-0.88794005,0.032338742,-0.45882106,-0.4598785,-0.04372337,0.8869047,0.008620178,0.9985201,0.05369562,-0.8809903,0.048735738,-0.47061747,-0.4729554,-0.063369155,0.87880456,0.01300656,0.99679947,0.07887745,0.08857727,9.751572,0.5626373,0.08453369,9.791977,0.52656555,0.029815674,-0.014907837,0.004257202,-13.682556,-31.878662,24.232483,0,0.0,0.0,0.0,0.0
0.921112061,-0.8996209,0.03116273,-0.43555847,-0.43658555,-0.044359233,0.8985685,0.008680808,0.9985295,0.053511687,-0.881132,0.04840073,-0.47038683,-0.47269392,-0.062982485,0.8789731,0.012916809,0.9968403,0.07837462,0.10293579,9.938324,0.6392517,0.085128784,9.7921295,0.524765,0.050064087,0.0021362305,0.012786865,-12.606812,-30.085754,23.886108,0,0.0,0.0,0.0,0.0
0.925506592,-0.89961326,0.03114602,-0.4355755,-0.43659952,-0.04411274,0.89857394,0.008772575,0.998541,0.053282738,-0.8815167,0.04804004,-0.4697026,-0.47197855,-0.06262403,0.8793831,0.012830931,0.99688035,0.07787799,0.26574707,9.871292,0.63446045,0.08602905,9.792282,0.522522,0.05218506,0.012771606,0.0095825195,-12.606812,-30.085754,23.886108,0,0.0,0.0,0.0,0.0
0.929901123,-0.8995638,0.031038303,-0.4356851,-0.43670118,-0.043876775,0.8985359,0.008772573,0.9985547,0.05302443,-0.881893,0.047687314,-0.46903166,-0.47127718,-0.062266253,0.8797844,0.012749714,0.9969197,0.07738612,0.12689209,9.770737,0.47644043,0.08602905,9.792419,0.519989,0.06071472,0.022354126,0.0063934326,-12.606812,-30.085754,23.886108,0,0.0,0.0,0.0,0.0
0.934295654,-0.9078299,0.029978244,-0.4182657,-0.41924784,-0.044126824,0.9067989,0.008727501,0.9985761,0.052627966,-0.88226,0.047340382,-0.46837607,-0.4705919,-0.061910406,0.8801764,0.012670531,0.9969584,0.076899074,0.05505371,9.770737,0.44291687,0.08558655,9.792572,0.516098,0.05645752,0.029815674,-0.0032043457,-12.426758,-30.981445,24.751282,0,0.0,0.0,0.0,0.0
0.938690186,-0.90778434,0.029875215,-0.41837186,-0.419346,-0.043852836,0.9067666,0.008743056,0.9985911,0.052336972,-0.8820263,0.044098403,-0.4691321,-0.4710426,-0.05677138,0.8802817,0.012185742,0.9974128,0.07084607,0.16519165,9.8138275,0.375885,0.085739136,9.792725,0.5132446,0.08522034,0.025558472,-0.004257202,-12.426758,-30.981445,24.751282,0,0.0,0.0,0.0,0.0
0.943084717,-0.90766394,0.029602714,-0.41865245,-0.41960955,-0.043556284,0.9066591,0.008604622,0.99861234,0.051956046,-0.8825711,0.043797344,-0.46813473,-0.47002292,-0.056529243,0.8808422,0.0121152485,0.99743986,0.07047683,-0.05505371,9.866501,0.51953125,0.0843811,9.792877,0.5095062,0.053253174,0.02130127,-0.0032043457,-12.426758,-30.981445,24.751282,0,0.0,0.0,0.0,0.0
0.947479248,-0.8868521,0.031465147,-0.46098098,-0.46197426,-0.04190104,0.885903,0.008559484,0.9986261,0.051696107,-0.883101,0.043496475,-0.46716237,-0.46902838,-0.056285452,0.88138777,0.012042813,0.9974668,0.07010682,-0.08857727,9.818619,0.41897583,0.0839386,9.79303,0.506958,0.08627319,0.013839722,-0.018112183,-13.861084,-33.132935,24.404907,0,0.0,0.0,0.0,0.0
0.951873779,-0.88674957,0.03126724,-0.46119148,-0.46217287,-0.04172812,0.8858076,0.0084521035,0.99863964,0.051453266,-0.883101,0.043496475,-0.46716237,-0.46902838,-0.056285452,0.88138777,0.012042813,0.9974668,0.07010682,-0.08857727,9.818619,0.41897583,0.08288574,9.793182,0.50457764,0.08627319,0.013839722,-0.018112183,-13.861084,-33.132935,24.404907,0,0.0,0.0,0.0,0.0
0.956268311,-0.88664025,0.031056246,-0.46141583,-0.46238446,-0.041525282,0.88570666,0.008346305,0.99865466,0.05117791,-0.88324744,0.04300393,-0.46693105,-0.46875626,-0.055715848,0.8815687,0.011895459,0.99752015,0.06936925,-0.10772705,9.775513,0.52911377,0.081848145,9.79332,0.50187683,0.047927856,-0.0063934326,-0.01171875,-13.861084,-33.132935,24.404907,0,0.0,0.0,0.0,0.0
0.960662842,-0.8851342,0.030981738,-0.4643033,-0.46526262,-0.041222923,0.8842123,0.008254495,0.9986695,0.050902463,-0.8833163,0.042760696,-0.46682328,-0.46862853,-0.055435516,0.88165426,0.011821561,0.9975462,0.069005966,-0.12689209,9.933533,0.39024353,0.080947876,9.793472,0.49917603,0.06390381,0.0063934326,-0.007461548,-13.861084,-30.264282,24.404907,0,0.0,0.0,0.0,0.0
0.965057373,-0.885089,0.030886512,-0.46439573,-0.46534827,-0.040997654,0.8841776,0.008270028,0.9986818,0.050659563,-0.88335323,0.04252179,-0.46677512,-0.46856067,-0.05515437,0.88170797,0.0117471125,0.997572,0.06864482,0.07421875,9.938324,0.33277893,0.081100464,9.793625,0.49679565,0.05432129,-0.0063934326,-0.0010681152,-13.861084,-30.264282,24.404907,0,0.0,0.0,0.0,0.0
0.969451904,-0.8850541,0.030812975,-0.46446708,-0.46541566,-0.040983014,0.8841429,0.008207813,0.99868464,0.05061303,-0.88338846,0.04228602,-0.46672985,-0.46849602,-0.05487379,0.8817598,0.011674878,0.9975975,0.0682857,-0.06942749,9.866501,0.375885,0.08049011,9.793625,0.4963379,0.038345337,-0.019165039,0.0021362305,-13.861084,-30.264282,24.404907,0,0.0,0.0,0.0,0.0
0.973846436,-0.91808784,0.027523838,-0.39542025,-0.39629233,-0.043115385,0.9171115,0.008193733,0.9986909,0.050491195,-0.8834224,0.042053178,-0.46668673,-0.46843395,-0.05459845,0.88180983,0.011602534,0.99762243,0.06793263,-0.09815979,9.880859,0.24659729,0.08035278,9.793777,0.4951477,0.013839722,-0.014907837,0.008514404,-11.531067,-31.52008,24.578857,0,0.0,0.0,0.0,0.0
0.978240967,-0.91808546,0.0275185,-0.395426,-0.39629743,-0.043066923,0.9171115,0.008207755,0.99869317,0.05044463,-0.8841723,0.04174079,-0.46529245,-0.46701863,-0.05439097,0.882573,0.011531589,0.99764687,0.067584716,0.02154541,9.809036,0.3950348,0.08049011,9.793777,0.49468994,0.0053253174,-0.026626587,0.0095825195,-11.531067,-31.52008,24.578857,0,0.0,0.0,0.0,0.0
0.982635498,-0.9181117,0.027578807,-0.39536095,-0.3962354,-0.043058403,0.91713876,0.008269983,0.9986919,0.050460126,-0.8849051,0.04143545,-0.46392468,-0.46563035,-0.05418577,0.8833189,0.011462601,0.99767077,0.06724286,0.03590393,9.789886,0.375885,0.081100464,9.793777,0.49484253,0.0010528564,-0.026626587,0.0063934326,-11.531067,-31.52008,24.578857,0,0.0,0.0,0.0,0.0
0.987030029,-0.90714586,0.028756514,-0.41983268,-0.4207351,-0.042371683,0.9061935,0.008269951,0.998688,0.05053617,-0.88562167,0.04113851,-0.4625818,-0.4642676,-0.053983327,0.88404834,0.011396725,0.9976941,0.066908084,0.05984497,9.722839,0.67755127,0.081100464,9.793777,0.4955902,-0.011703491,-0.013839722,0.017028809,-12.24823,-32.595825,24.232483,0,0.0,0.0,0.0,0.0
0.991424561,-0.90714645,0.028757792,-0.41983128,-0.42073324,-0.042304385,0.9061975,0.008299538,0.99869084,0.05047563,-0.8860731,0.040877357,-0.46173957,-0.46340692,-0.053762995,0.8845132,0.011332058,0.99771667,0.066580795,0.18913269,9.809036,0.35194397,0.08139038,9.793777,0.49499512,0.0,-0.013839722,0.017028809,-12.24823,-32.595825,24.232483,0,0.0,0.0,0.0,0.0
0.995819092,-0.9071623,0.028790887,-0.4197948,-0.42069846,-0.042306494,0.9062136,0.008330648,0.9986898,0.050491136,-0.8865148,0.04062246,-0.4609136,-0.46256304,-0.053545564,0.8849679,0.011269695,0.9977388,0.066259384,0.15083313,9.847351,0.53868103,0.08169556,9.793777,0.4951477,-0.0021362305,0.004272461,0.014892578,-12.24823,-32.595825,24.232483,0,0.0,0.0,0.0,0.0
1.000213623,-0.9071752,0.028817765,-0.41976514,-0.42067006,-0.042294316,0.9062273,0.008361765,0.9986895,0.05049112,-0.8869471,0.040373914,-0.46010303,-0.461735,-0.05333188,0.88541317,0.011209434,0.9977603,0.065944605,0.16998291,9.933533,0.4955902,0.08200073,9.793777,0.4951477,-0.0010681152,0.010650635,0.019165039,-12.24823,-32.595825,24.232483,0,0.0,0.0,0.0,0.0
1.004608154,-0.90719324,0.028855536,-0.41972342,-0.42063043,-0.04231057,0.9062448,0.008391445,0.9986877,0.05052138,-0.88681865,0.040645674,-0.4603266,-0.46196222,-0.052146554,0.88536525,0.011981818,0.9978119,0.06502131,0.20828247,9.789886,0.4093933,0.08229065,9.793625,0.49543762,0.0095825195,0.017028809,0.013839722,-12.24823,-32.595825,24.232483,0,0.0,0.0,0.0,0.0
1.009002686,-0.9072253,0.02892259,-0.41964948,-0.42055947,-0.04224684,0.9062808,0.008483122,0.9986885,0.050491072,-0.88681865,0.040645674,-0.4603266,-0.46196222,-0.052146554,0.88536525,0.011981818,0.9978119,0.06502131,0.20828247,9.789886,0.4093933,0.08319092,9.793777,0.4951477,0.0095825195,0.017028809,0.013839722,-12.24823,-32.595825,24.232483,0,0.0,0.0,0.0,0.0
1.013397217,-0.8989005,0.02979012,-0.43713906,-0.43806994,-0.041685563,0.8979739,0.008528361,0.99868655,0.05052132,-0.8876637,0.04015623,-0.45873797,-0.46034005,-0.0517793,0.8862313,0.011834576,0.9978509,0.06444813,0.17955017,9.847351,0.6009369,0.08363342,9.793625,0.49543762,0.0,0.025558472,0.01171875,-12.426758,-32.05719,23.368835,0,0.0,0.0,0.0,0.0
1.017791748,-0.89893985,0.029868282,-0.4370528,-0.43798825,-0.0417502,0.89801073,0.008574998,0.9986815,0.05061287,-0.88789433,0.039940592,-0.4583103,-0.45989692,-0.051584627,0.8864727,0.011764478,0.9978696,0.064170256,0.05027771,9.880859,0.6105194,0.08409119,9.793625,0.4963379,-0.0021362305,0.007461548,-0.012786865,-12.426758,-32.05719,23.368835,0,0.0,0.0,0.0,0.0
1.022186279,-0.89892715,0.029843027,-0.43708065,-0.43801436,-0.0416949,0.8980006,0.008575025,0.99868464,0.050552346,-0.8881209,0.039731566,-0.45788944,-0.45946118,-0.051395006,0.88670963,0.011697129,0.99788773,0.06390008,0.07899475,9.789886,0.44291687,0.08409119,9.793625,0.4957428,-0.008514404,0.019165039,0.015960693,-12.426758,-32.05719,23.368835,0,0.0,0.0,0.0,0.0
1.026580811,-0.8913696,0.03059408,-0.45224354,-0.45319575,-0.041243583,0.8904563,0.00859055,0.9986806,0.050628386,-0.8883424,0.03952653,-0.45747727,-0.45903432,-0.051207803,0.88694143,0.011631313,0.9979055,0.063634105,0.12210083,9.919174,0.69670105,0.084243774,9.793625,0.49649048,0.010650635,0.039398193,0.0,-13.143921,-32.41577,23.713684,0,0.0,0.0,0.0,0.0
1.030975342,-0.89135885,0.030573113,-0.45226628,-0.45321682,-0.041168705,0.8904493,0.008604586,0.9986844,0.050552335,-0.8884036,0.039344337,-0.457374,-0.4589174,-0.051012114,0.8870132,0.011567332,0.9979227,0.06337515,0.06942749,9.871292,0.5051727,0.0843811,9.793625,0.4957428,-0.0021362305,0.04899597,0.004257202,-13.143921,-32.41577,23.713684,0,0.0,0.0,0.0,0.0
1.035369873,-0.89133924,0.030535046,-0.4523074,-0.45325553,-0.041119736,0.89043176,0.00859061,0.99868757,0.05049181,-0.8884634,0.039165482,-0.45727324,-0.4588032,-0.050818488,0.8870835,0.011505118,0.99793965,0.06311961,0.02154541,9.679749,0.67755127,0.084243774,9.793625,0.4951477,0.020233154,0.04685974,0.0053253174,-13.143921,-32.41577,23.713684,0,0.0,0.0,0.0,0.0
1.039764404,-0.8852369,0.031044792,-0.46410346,-0.4650621,-0.0407457,0.8843399,0.008543926,0.9986871,0.050507348,-0.8885216,0.03898951,-0.45717525,-0.45869213,-0.050627574,0.88715184,0.011443941,0.9979562,0.06286787,0.002380371,9.780304,0.6536102,0.08378601,9.793625,0.4953003,0.028762817,0.028747559,0.0021362305,-13.143921,-30.622864,23.02246,0,0.0,0.0,0.0,0.0
1.044158936,-0.8852063,0.030984834,-0.46416575,-0.46512085,-0.040688016,0.8843117,0.008514266,0.9986914,0.050428975,-0.8884566,0.0388299,-0.45731503,-0.45881942,-0.050431114,0.8870972,0.01138299,0.9979724,0.062621765,0.007171631,9.799454,0.533905,0.083496094,9.793777,0.49453735,0.013839722,0.027694702,-0.0021362305,-13.143921,-30.622864,23.02246,0,0.0,0.0,0.0,0.0
1.048553467,-0.8851686,0.030910948,-0.46424252,-0.46519285,-0.040571775,0.8842792,0.008498766,0.9986984,0.05029241,-0.8883924,0.03867185,-0.45745328,-0.45894533,-0.050236896,0.8870431,0.011322566,0.99798834,0.06237834,-0.002380371,9.852127,0.47164917,0.083343506,9.793777,0.49319458,0.019165039,0.030883789,0.003189087,-13.143921,-30.622864,23.02246,0,0.0,0.0,0.0,0.0
1.052947998,-0.88589567,0.030744407,-0.4628648,-0.463808,-0.040554006,0.8850072,0.008438001,0.9987043,0.050186113,-0.8883286,0.038515773,-0.45759022,-0.45907018,-0.05004446,0.8869894,0.011263225,0.9980041,0.06213737,-0.14125061,9.885651,0.67276,0.08274841,9.79393,0.49215698,0.028762817,0.031951904,0.003189087,-13.502502,-32.05719,23.713684,0,0.0,0.0,0.0,0.0
1.057342529,-0.88586324,0.030681977,-0.4629307,-0.46386936,-0.04039681,0.88498205,0.008452075,0.99871254,0.050018482,-0.88828045,0.03835875,-0.4576969,-0.4591648,-0.049855437,0.886951,0.011203655,0.9980196,0.0618986,-0.026321411,9.914383,0.375885,0.08288574,9.79393,0.49050903,0.041534424,0.024490356,0.0063934326,-13.502502,-32.05719,23.713684,0,0.0,0.0,0.0,0.0
1.061737061,-0.88583255,0.030622665,-0.4629934,-0.46392825,-0.04030634,0.8849553,0.008438117,0.99871796,0.04991139,-0.8882325,0.038203977,-0.45780268,-0.4592588,-0.049667086,0.8869129,0.011145874,0.9980349,0.061661437,-0.13645935,9.832977,0.5243225,0.08274841,9.79393,0.48945618,0.027694702,0.0053253174,0.014892578,-13.502502,-32.05719,23.713684,0,0.0,0.0,0.0,0.0
1.066131592,-0.9183765,0.02745386,-0.39475402,-0.39561692,-0.04235448,0.9174384,0.008467625,0.99872535,0.049758576,-0.8881851,0.03805126,-0.45790765,-0.45935214,-0.04948075,0.88687503,0.011089096,0.99805,0.061426986,-0.11251831,9.900009,0.51953125,0.08303833,9.794067,0.48796082,0.027694702,0.009597778,0.014892578,-10.992432,-31.698608,23.368835,0,0.0,0.0,0.0,0.0
1.070526123,-0.91839254,0.027488485,-0.39471462,-0.39557806,-0.042208135,0.917462,0.008559472,0.9987306,0.04963747,-0.88883287,0.037826344,-0.45666766,-0.45809877,-0.04935238,0.8875302,0.011034385,0.9980649,0.06119422,0.04069519,9.900009,0.47164917,0.0839386,9.794067,0.48677063,0.038345337,0.004272461,0.023422241,-10.992432,-31.698608,23.368835,0,0.0,0.0,0.0,0.0
1.074920654,-0.91842693,0.027563458,-0.3946291,-0.3954946,-0.042008534,0.9175071,0.008711879,0.99873704,0.049482975,-0.8898568,0.038146887,-0.45464227,-0.45606846,-0.047063198,0.8886994,0.012504198,0.9981632,0.059277102,-0.05027771,9.919174,0.39982605,0.08543396,9.79422,0.48526,0.025558472,-0.014907837,0.022354126,-10.992432,-31.698608,23.368835,0,0.0,0.0,0.0,0.0
1.079315186,-0.8837758,0.030879704,-0.46689057,-0.46782753,-0.039507173,0.8829364,0.008819286,0.9987421,0.04936186,-0.89046824,0.03792258,-0.45346242,-0.45487583,-0.046979103,0.8893149,0.012421856,0.99817574,0.059083465,0.007171631,9.718063,0.4093933,0.08648682,9.79422,0.48406982,0.025558472,-0.025558472,0.04685974,-13.682556,-30.444336,23.886108,0,0.0,0.0,0.0,0.0
1.083709717,-0.8838091,0.030947648,-0.46682307,-0.46776202,-0.039350763,0.88297796,0.008956247,0.99874604,0.049254693,-0.89033663,0.037779473,-0.45373264,-0.45513535,-0.0468319,0.88918984,0.012343963,0.9981881,0.05889093,0.04069519,9.871292,0.44291687,0.08782959,9.79422,0.48301697,0.02130127,-0.020233154,0.027679443,-13.682556,-30.444336,23.886108,0,0.0,0.0,0.0,0.0
1.088104248,-0.8838223,0.030974764,-0.46679607,-0.46773428,-0.039112814,0.8830033,0.00909311,0.9987547,0.049056742,-0.89020824,0.037641272,-0.45399603,-0.45538852,-0.046684243,0.889068,0.012271187,0.99820024,0.0587001,-0.05027771,9.799454,0.509964,0.08917236,9.794373,0.4810791,0.02130127,-0.026626587,0.03514099,-13.682556,-30.444336,23.886108,0,0.0,0.0,0.0,0.0
1.092498779,-0.9096431,0.028768232,-0.41439334,-0.41528642,-0.040628534,0.90878296,0.009307886,0.99876004,0.04890452,-0.89008266,0.03750658,-0.4542534,-0.4556358,-0.0465339,0.8889492,0.012203258,0.99821234,0.05850836,0.15560913,9.9048,0.38545227,0.091278076,9.794373,0.47958374,0.04685974,-0.024490356,0.04046631,-11.889648,-31.878662,23.886108,0,0.0,0.0,0.0,0.0
1.096893311,-0.9096968,0.028882587,-0.41426745,-0.41516495,-0.04049409,0.9088444,0.009474396,0.9987622,0.048828382,-0.8904918,0.037323415,-0.45346588,-0.45483726,-0.04642486,0.88936365,0.012141999,0.99822426,0.058317035,0.07899475,9.943115,0.4046173,0.09291077,9.794373,0.47883606,0.025558472,-0.022369385,0.043655396,-11.889648,-31.878662,23.886108,0,0.0,0.0,0.0,0.0
1.101287842,-0.9096915,0.028871426,-0.4142797,-0.4151743,-0.0402474,0.90885115,0.009566149,0.99877256,0.0485994,-0.8908931,0.037147153,-0.45269138,-0.4540521,-0.04631473,0.8897705,0.012086165,0.99823594,0.05812822,0.15560913,9.8138275,0.4046173,0.093811035,9.794525,0.47659302,0.012771606,-0.018096924,0.036209106,-11.889648,-31.878662,23.886108,0,0.0,0.0,0.0,0.0
1.105682373,-0.8918116,0.030512154,-0.45137691,-0.45230556,-0.03900269,0.89100987,0.009581715,0.99877316,0.048583865,-0.8912858,0.03697468,-0.451932,-0.4532823,-0.04620132,0.89016885,0.012033855,0.9982476,0.057938546,0.13166809,9.871292,0.42855835,0.09396362,9.794525,0.47644043,0.04473877,0.0,0.017028809,-12.606812,-30.444336,22.850037,0,0.0,0.0,0.0,0.0
1.110076904,-0.8917823,0.030453498,-0.45143884,-0.45236436,-0.038979523,0.890981,0.0095366165,0.99877584,0.048537318,-0.8912965,0.036843885,-0.45192146,-0.4532625,-0.04605877,0.8901863,0.011982975,0.99825907,0.057751976,-0.026321411,9.828186,0.36151123,0.09352112,9.794525,0.47598267,0.0053253174,-0.0095825195,-0.0032043457,-12.606812,-30.444336,22.850037,0,0.0,0.0,0.0,0.0
1.114471436,-0.8917983,0.03048562,-0.45140493,-0.45233104,-0.03887833,0.89100236,0.009612889,0.9987788,0.04846122,-0.8913064,0.036714256,-0.45191252,-0.45324445,-0.04591833,0.8902028,0.011932064,0.9982703,0.05756784,0.09336853,9.880859,0.47164917,0.0942688,9.794525,0.475235,0.003189087,0.0053253174,0.01171875,-12.606812,-30.444336,22.850037,0,0.0,0.0,0.0,0.0
1.118865967,-0.89419335,0.0303872,-0.4466485,-0.44757614,-0.03908795,0.89339113,0.009689081,0.9987736,0.04855277,-0.8913164,0.03658853,-0.45190305,-0.45322606,-0.045778878,0.89021933,0.011884204,0.9982813,0.057386342,0.18434143,9.923965,0.56741333,0.09501648,9.794525,0.47613525,0.014907837,0.030883789,0.017028809,-13.143921,-33.132935,24.060059,0,0.0,0.0,0.0,0.0
1.123260498,-0.89421314,0.030425739,-0.44660628,-0.44753563,-0.039069153,0.8934123,0.009734201,0.9987732,0.04855275,-0.89137447,0.03646278,-0.45179874,-0.45311302,-0.045646746,0.89028364,0.011839076,0.99829197,0.057210106,0.14125061,9.86171,0.47644043,0.095458984,9.794525,0.47613525,-0.010650635,0.030883789,0.0095825195,-13.143921,-33.132935,24.060059,0,0.0,0.0,0.0,0.0
1.127655029,-0.8941967,0.03039385,-0.4466412,-0.44756895,-0.03906734,0.89339554,0.009704647,0.9987742,0.048537236,-0.8914317,0.036340352,-0.45169562,-0.45300153,-0.045516532,0.890347,0.011795906,0.9983024,0.057037115,0.10293579,9.871292,0.39024353,0.09516907,9.794525,0.47598267,0.0,0.04473877,0.007461548,-13.143921,-33.132935,24.060059,0,0.0,0.0,0.0,0.0
1.132049561,-0.8916949,0.030541535,-0.4516053,-0.45253316,-0.038796175,0.89090323,0.009688996,0.9987803,0.048415415,-0.8914875,0.036219474,-0.45159525,-0.4528929,-0.045388572,0.8904089,0.011752877,0.9983126,0.056866884,0.07899475,9.852127,0.23222351,0.09501648,9.794678,0.47479248,-0.0053253174,0.045791626,-0.0032043457,-12.965393,-30.444336,23.54126,0,0.0,0.0,0.0,0.0
1.136444092,-0.89168197,0.03051495,-0.45163256,-0.45255923,-0.038809355,0.89088935,0.009657879,0.9987806,0.04841543,-0.8914918,0.036105037,-0.45159578,-0.4528854,-0.04525744,0.89041924,0.011710552,0.99832267,0.05669808,0.02154541,9.832977,0.47644043,0.0947113,9.794678,0.47479248,0.006378174,0.036209106,-0.0010681152,-12.965393,-30.444336,23.54126,0,0.0,0.0,0.0,0.0
1.140838623,-0.8916658,0.030481635,-0.45166677,-0.4525918,-0.038808465,0.8908729,0.00962677,0.9987817,0.04839992,-0.89082074,0.036241658,-0.4529071,-0.4541999,-0.045003347,0.8897624,0.011864132,0.9983292,0.05655087,-0.01675415,9.84256,0.4381256,0.09440613,9.794678,0.4746399,0.0,0.022354126,0.004257202,-12.965393,-30.444336,23.54126,0,0.0,0.0,0.0,0.0
1.145233154,-0.9082082,0.028841658,-0.41752377,-0.4184118,-0.04002147,0.9073753,0.009460289,0.99878246,0.048415516,-0.8908379,0.03612496,-0.45288283,-0.45416752,-0.044880796,0.8897852,0.011817712,0.998339,0.056388304,0.03590393,9.880859,0.42855835,0.09277344,9.794678,0.47479248,-0.0010681152,0.02130127,0.0095825195,-12.606812,-31.161499,25.27008,0,0.0,0.0,0.0,0.0
1.149627686,-0.9081969,0.028815676,-0.41755018,-0.41843674,-0.039998982,0.90736485,0.009444745,0.9987841,0.04838448,-0.89119935,0.035973087,-0.45218313,-0.45345914,-0.044789728,0.8901509,0.011768315,0.99834853,0.056228902,0.05027771,9.832977,0.4333496,0.09262085,9.794678,0.4744873,-0.004272461,0.027694702,-0.030899048,-12.606812,-31.161499,25.27008,0,0.0,0.0,0.0,0.0
1.154022217,-0.9081827,0.028782995,-0.41758338,-0.4184683,-0.039998293,0.9073503,0.009413634,0.9987851,0.04837052,-0.8915528,0.03582441,-0.45149773,-0.45276505,-0.044700433,0.89050865,0.011719807,0.9983579,0.056072835,0.002380371,9.914383,0.4237671,0.092315674,9.794678,0.47434998,0.006378174,0.011703491,-0.0053253174,-12.606812,-31.161499,25.27008,0,0.0,0.0,0.0,0.0
1.158416748,-0.8805156,0.031186122,-0.47299033,-0.4739244,-0.038164735,0.8797381,0.009384068,0.99878466,0.048384506,-0.8918984,0.035678055,-0.45082623,-0.45208517,-0.044612546,0.8908584,0.011671589,0.9983671,0.05591938,0.01675415,9.880859,0.51953125,0.09202576,9.794678,0.4744873,-0.014907837,0.0010681152,-0.0010681152,-13.861084,-31.698608,23.713684,0,0.0,0.0,0.0,0.0
1.162811279,-0.8805018,0.031159602,-0.47301772,-0.4739503,-0.0381452,0.879725,0.009368522,0.9987862,0.048355017,-0.89167625,0.035589524,-0.45127243,-0.45252442,-0.044482645,0.89064187,0.011623728,0.998376,0.055769246,0.06463623,9.837769,0.39024353,0.09187317,9.794678,0.4741974,-0.011703491,0.0032043457,0.0021362305,-13.861084,-31.698608,23.713684,0,0.0,0.0,0.0,0.0
1.167205811,-0.8804813,0.03112023,-0.47305837,-0.47398925,-0.03816593,0.87970316,0.009321848,0.99878675,0.048355043,-0.8914581,0.035502236,-0.45171016,-0.45295525,-0.044355094,0.89042926,0.011576584,0.99838483,0.05562163,-0.01675415,9.967056,0.50038147,0.091415405,9.794678,0.4741974,-0.0021362305,-0.0021209717,-0.0021362305,-13.861084,-31.698608,23.713684,0,0.0,0.0,0.0,0.0
1.171600342,-0.89715,0.029731467,-0.44072425,-0.4416269,-0.0392457,0.8963399,0.009352971,0.9987871,0.0483395,-0.8912437,0.03541543,-0.45213985,-0.4533782,-0.044230208,0.89022017,0.011529289,0.9983934,0.055476476,0.15560913,9.866501,0.4333496,0.09172058,9.794678,0.4740448,-0.013839722,-0.0095825195,-0.0095825195,-13.323975,-32.595825,24.923706,0,0.0,0.0,0.0,0.0
1.175994873,-0.89714944,0.029730348,-0.44072548,-0.44162872,-0.03931372,0.8963361,0.0093218265,0.9987845,0.048400056,-0.89136356,0.035299048,-0.4519126,-0.4531437,-0.044133406,0.8903443,0.011483862,0.9984018,0.05533445,0.03111267,9.943115,0.6248779,0.091415405,9.794678,0.4746399,-0.014907837,-0.012771606,0.003189087,-13.323975,-32.595825,24.923706,0,0.0,0.0,0.0,0.0
1.180389404,-0.89716554,0.029763622,-0.44069055,-0.44159546,-0.03931503,0.89635247,0.009352936,0.99878347,0.048415568,-0.8914808,0.035185028,-0.45169008,-0.452914,-0.044039868,0.89046586,0.011438695,0.99841,0.055196494,0.16998291,9.847351,0.52911377,0.09172058,9.794678,0.47479248,-0.011703491,-0.0021209717,-0.0010681152,-13.323975,-32.595825,24.923706,0,0.0,0.0,0.0,0.0
1.184783936,-0.9070394,0.02886887,-0.42005494,-0.4209419,-0.040014245,0.90620464,0.009352922,0.998782,0.048446614,-0.89159596,0.035074,-0.45147136,-0.45268834,-0.04394789,0.89058506,0.0113951685,0.998418,0.055061355,0.08378601,9.847351,0.55784607,0.09172058,9.794678,0.47509766,0.007446289,-0.01171875,-0.015975952,-12.24823,-32.237244,24.232483,0,0.0,0.0,0.0,0.0
1.189178467,-0.9070661,0.028925216,-0.4199935,-0.42088413,-0.04010597,0.90622747,0.009368579,0.99877673,0.048552923,-0.8919159,0.034945194,-0.45084906,-0.45205873,-0.043873858,0.89090854,0.011352483,0.9984257,0.05492907,0.12210083,9.957474,0.76852417,0.09187317,9.794525,0.47613525,-0.0010681152,-0.0053253174,-0.015975952,-12.24823,-32.237244,24.232483,0,0.0,0.0,0.0,0.0
1.193572998,-0.90703833,0.02886669,-0.42005733,-0.42094484,-0.040082805,0.9062003,0.009321924,0.99877936,0.048507925,-0.8922297,0.034820598,-0.4502375,-0.45144024,-0.043803252,0.8912256,0.011311141,0.9984332,0.054801982,0.15560913,9.832977,0.59135437,0.091415405,9.794525,0.47569275,0.0010528564,-0.0010528564,-0.0032043457,-12.24823,-32.237244,24.232483,0,0.0,0.0,0.0,0.0
1.197967529,-0.9030158,0.029244594,-0.42861092,-0.4295066,-0.03984059,0.9021845,0.009307907,0.998778,0.048537422,-0.89253604,0.034697443,-0.44963932,-0.4508352,-0.043733563,0.89153516,0.011269664,0.9984405,0.054676607,0.06463623,9.809036,0.52911377,0.091278076,9.794525,0.47598267,0.020233154,-0.0063934326,-0.015975952,-11.889648,-32.237244,22.850037,0,0.0,0.0,0.0,0.0
1.202362061,-0.90293974,0.029095862,-0.42878115,-0.4296687,-0.039757393,0.90211093,0.009200471,0.9987856,0.04840011,-0.89253604,0.034697443,-0.44963932,-0.4508352,-0.043733563,0.89153516,0.011269664,0.9984405,0.054676607,0.06463623,9.809036,0.52911377,0.09022522,9.794678,0.4746399,0.020233154,-0.0063934326,-0.015975952,-11.889648,-32.237244,22.850037,0,0.0,0.0,0.0,0.0
1.206756592,-0.9028707,0.02896092,-0.42893562,-0.42981574,-0.039668683,0.90204495,0.009108738,0.9987932,0.04826355,-0.89262956,0.03211903,-0.44964522,-0.45068717,-0.042183533,0.8916847,0.009672421,0.99859345,0.052129902,0.07899475,9.866501,0.6536102,0.08932495,9.794678,0.47329712,0.03514099,0.012771606,-0.022369385,-11.889648,-32.237244,22.850037,0,0.0,0.0,0.0,0.0
1.211151123,-0.90279454,0.028812176,-0.42910585,-0.42997786,-0.039585654,0.9019712,0.0090013165,0.99880075,0.048126314,-0.892839,0.032054972,-0.4492337,-0.4502722,-0.042134594,0.89189667,0.0096614435,0.9985976,0.052052878,0.09336853,9.871292,0.59135437,0.088272095,9.794815,0.47195435,0.045806885,-0.0095825195,-0.020248413,-11.889648,-32.237244,22.850037,0,0.0,0.0,0.0,0.0
1.215545654,-0.90273523,0.028696295,-0.42923847,-0.43010405,-0.039503627,0.90191466,0.008925132,0.9988073,0.048003707,-0.8930426,0.03198863,-0.44883347,-0.44986844,-0.0420844,0.8921027,0.009648256,0.99860185,0.05197384,0.11251831,9.876068,0.6152954,0.087524414,9.794815,0.4707489,0.043670654,-0.0095825195,-0.027694702,-11.889648,-32.237244,22.850037,0,0.0,0.0,0.0,0.0
1.219940186,-0.9026142,0.028460236,-0.42950854,-0.43036035,-0.03925825,0.90180296,0.008803773,0.99882364,0.047683213,-0.89324075,0.031921335,-0.4484439,-0.4494753,-0.042033713,0.8923033,0.009633751,0.99860615,0.051894084,0.03590393,9.876068,0.32321167,0.08633423,9.794968,0.4676056,0.039413452,0.004272461,-0.019180298,-11.889648,-32.237244,22.850037,0,0.0,0.0,0.0,0.0
1.224334717,-0.92273045,0.02635064,-0.38454407,-0.38534775,-0.04055658,0.92187977,0.008696327,0.9988297,0.047576953,-0.8934323,0.031850547,-0.44806722,-0.44909486,-0.041979242,0.8924973,0.0096170055,0.9986107,0.05180953,-0.04548645,9.933533,0.4812317,0.08528137,9.79512,0.466568,0.06071472,-0.014907837,-0.024505615,-10.63385,-31.340027,23.368835,0,0.0,0.0,0.0,0.0
1.228729248,-0.9226944,0.02626964,-0.3846363,-0.3854346,-0.040390998,0.92185074,0.008680845,0.99883854,0.04739377,-0.89406186,0.03173712,-0.44681782,-0.44784066,-0.041956596,0.89312845,0.009598371,0.99861526,0.051724963,0.05027771,9.866501,0.44291687,0.085128784,9.79512,0.46476746,0.025558472,-0.025558472,-0.01171875,-10.63385,-31.340027,23.368835,0,0.0,0.0,0.0,0.0
1.233123779,-0.922614,0.026089428,-0.3848414,-0.38562977,-0.040248156,0.92177546,0.008559435,0.9988491,0.047194365,-0.8946763,0.03162393,-0.44559422,-0.44661227,-0.0419305,0.89374447,0.009579726,0.9986199,0.05163786,-0.10772705,9.828186,0.32321167,0.0839386,9.795273,0.46281433,0.036209106,-0.030883789,-0.0053253174,-10.63385,-31.340027,23.368835,0,0.0,0.0,0.0,0.0
1.237518311,-0.893732,0.028695451,-0.44768256,-0.44852108,-0.03828699,0.89295185,0.008483239,0.9988547,0.047088824,-0.8952749,0.031509645,-0.44439837,-0.4454115,-0.041902706,0.8943448,0.009558995,0.9986247,0.051549204,-0.04548645,9.885651,0.4046173,0.08319092,9.795273,0.46177673,0.03514099,-0.04473877,-0.010650635,-12.965393,-31.161499,23.886108,0,0.0,0.0,0.0,0.0
1.241912842,-0.8936999,0.028629579,-0.44775105,-0.44858494,-0.03811357,0.8929273,0.008498739,0.9988633,0.046904888,-0.8952443,0.031453576,-0.44446415,-0.4454736,-0.04183093,0.8943174,0.009537132,0.9986295,0.05146064,0.007171631,9.919174,0.3184204,0.083343506,9.795425,0.4599762,0.019165039,-0.045806885,-0.010650635,-12.965393,-31.161499,23.886108,0,0.0,0.0,0.0,0.0
1.246307373,-0.8936613,0.028550835,-0.44783282,-0.4486621,-0.03801677,0.8928925,0.00846767,0.9988692,0.046783797,-0.8952135,0.0313968,-0.44453013,-0.44553596,-0.04175625,0.89428973,0.009515924,0.9986344,0.051369157,0.07421875,9.818619,0.4333496,0.08303833,9.795425,0.458786,0.026626587,-0.045806885,0.007461548,-12.965393,-31.161499,23.886108,0,0.0,0.0,0.0,0.0
1.250701904,-0.895793,0.028376611,-0.4435648,-0.44439,-0.03806322,0.8950244,0.008514257,0.9988723,0.046707045,-0.89518255,0.031339873,-0.44459644,-0.44559854,-0.04168153,0.8942621,0.009494598,0.9986393,0.05127758,0.02154541,9.832977,0.51953125,0.083496094,9.795563,0.45803833,0.024490356,-0.025558472,-0.007461548,-12.426758,-32.41577,23.02246,0,0.0,0.0,0.0,0.0
1.255096436,-0.89577913,0.02835024,-0.44359446,-0.4444179,-0.03800668,0.895013,0.008514281,0.9988752,0.046644945,-0.8951947,0.031280532,-0.44457608,-0.4455745,-0.041609675,0.89427733,0.0094748065,0.9986442,0.05118657,0.08378601,9.794678,0.28489685,0.083496094,9.795563,0.45742798,0.023422241,-0.027694702,0.012786865,-12.426758,-32.41577,23.02246,0,0.0,0.0,0.0,0.0
1.259490967,-0.89575213,0.028298806,-0.44365227,-0.44447234,-0.037896425,0.89499056,0.00851433,0.99888086,0.04652384,-0.8952065,0.031221556,-0.44455647,-0.44555122,-0.041537695,0.8942923,0.009455344,0.998649,0.051095616,0.07421875,9.919174,0.47644043,0.083496094,9.795563,0.4562378,0.019165039,-0.004257202,0.0063934326,-12.426758,-32.41577,23.02246,0,0.0,0.0,0.0,0.0
1.263885498,-0.89226806,0.028612997,-0.45059863,-0.45142588,-0.037715375,0.89151126,0.008514312,0.9988788,0.046568867,-0.8952175,0.031162947,-0.44453865,-0.4455297,-0.041465137,0.89430636,0.009436367,0.9986538,0.05100433,0.10293579,9.914383,0.60572815,0.083496094,9.795563,0.4566803,0.028762817,-0.01171875,0.0010681152,-13.143921,-30.981445,24.060059,0,0.0,0.0,0.0,0.0
1.268280029,-0.8922361,0.028547207,-0.45066592,-0.45148918,-0.037612256,0.8914835,0.008498801,0.99888456,0.04644777,-0.8951588,0.031112485,-0.44466013,-0.44564778,-0.04139018,0.89425105,0.009417805,0.99865854,0.050915994,0.02154541,9.86171,0.42855835,0.083343506,9.795563,0.4554901,0.01171875,0.008529663,0.012786865,-13.143921,-30.981445,24.060059,0,0.0,0.0,0.0,0.0
1.272674561,-0.8921915,0.028455133,-0.45076007,-0.4515785,-0.03755443,0.89144075,0.008438027,0.9988894,0.046355467,-0.8946641,0.03021884,-0.44571626,-0.4466416,-0.039623156,0.8938351,0.009349975,0.99875766,0.048946403,-0.05027771,9.823395,0.49079895,0.08274841,9.795715,0.45458984,0.028762817,0.014907837,0.0,-13.143921,-30.981445,24.060059,0,0.0,0.0,0.0,0.0
1.277069092,-0.88480824,0.02899229,-0.46505257,-0.46587905,-0.03697066,0.8840758,0.008438081,0.99889576,0.04621884,-0.8946149,0.030183215,-0.4458173,-0.44674048,-0.039581593,0.89378756,0.009331221,0.99876034,0.04889435,-0.05984497,9.828186,0.4668579,0.08274841,9.795715,0.45324707,0.022369385,0.031951904,0.0,-13.502502,-31.698608,23.713684,0,0.0,0.0,0.0,0.0
1.281463623,-0.8848033,0.028982695,-0.46506256,-0.46588752,-0.036854528,0.88407606,0.008483242,0.9989002,0.04611168,-0.8944228,0.03016028,-0.44620413,-0.44712532,-0.03952931,0.8935974,0.009313008,0.99876314,0.048841342,-0.01675415,9.775513,0.4046173,0.08319092,9.795715,0.4521942,0.031951904,0.018096924,0.013839722,-13.502502,-31.698608,23.713684,0,0.0,0.0,0.0,0.0
1.285858154,-0.88480526,0.028986562,-0.46505857,-0.46588266,-0.036732398,0.8840837,0.00854383,0.9989046,0.046005357,-0.8942343,0.03013732,-0.4465833,-0.44750255,-0.039475244,0.8934109,0.009296025,0.99876595,0.048786644,0.05027771,9.856918,0.45729065,0.08378601,9.795868,0.45115662,0.02130127,0.011703491,0.017028809,-13.502502,-31.698608,23.713684,0,0.0,0.0,0.0,0.0
1.290252686,-0.8899975,0.028604921,-0.45506728,-0.45588475,-0.037054908,0.889267,0.008574942,0.9989037,0.046019323,-0.8940494,0.030115355,-0.44695497,-0.44787222,-0.03942026,0.8932282,0.009280803,0.9987688,0.048731487,-0.11730957,9.804245,0.59614563,0.08409119,9.795868,0.45129395,0.026626587,0.022354126,0.018096924,-13.143921,-31.698608,23.713684,0,0.0,0.0,0.0,0.0
1.294647217,-0.8900071,0.028623737,-0.4550474,-0.45586526,-0.036994886,0.88927966,0.00862008,0.9989054,0.045974277,-0.893969,0.030085279,-0.44711775,-0.44803295,-0.039372656,0.8931496,0.009266443,0.9987716,0.048677135,-0.01675415,10.00058,0.5530548,0.08453369,9.795868,0.45085144,0.0095825195,0.014907837,0.023422241,-13.143921,-31.698608,23.713684,0,0.0,0.0,0.0,0.0
1.299041748,-0.8900401,0.028688878,-0.45497862,-0.45579866,-0.036894213,0.8893179,0.008727458,0.99890727,0.04591368,-0.8938905,0.030055976,-0.44727665,-0.4481898,-0.039324474,0.8930731,0.0092532635,0.99877435,0.04862256,0.05505371,9.909592,0.5817871,0.08558655,9.795868,0.45025635,0.017044067,0.02130127,0.022354126,-13.143921,-31.698608,23.713684,0,0.0,0.0,0.0,0.0
1.303436279,-0.90675306,0.027220575,-0.42078254,-0.42157108,-0.037794814,0.90600735,0.008758643,0.99891466,0.045745973,-0.89381415,0.03002912,-0.44743097,-0.44834226,-0.039275765,0.8929987,0.009242769,0.9987771,0.04856856,-0.03111267,9.990997,0.23701477,0.08589172,9.795868,0.4486084,0.024490356,0.02130127,0.025543213,-12.426758,-31.340027,24.751282,0,0.0,0.0,0.0,0.0
1.307830811,-0.90676945,0.027256936,-0.42074472,-0.4215335,-0.03762684,0.90603185,0.008864359,0.9989201,0.045608584,-0.8940808,0.02997189,-0.4469018,-0.4478106,-0.03924742,0.8932667,0.009233147,0.9987799,0.04851209,-0.05027771,9.785095,0.2753296,0.08692932,9.7960205,0.44726563,0.02130127,0.022354126,0.018096924,-12.426758,-31.340027,24.751282,0,0.0,0.0,0.0,0.0
1.312225342,-0.90679705,0.027317962,-0.4206813,-0.4214722,-0.037547756,0.9060636,0.0089561725,0.99892133,0.04556196,-0.89434206,0.029916879,-0.44638243,-0.44728872,-0.039216463,0.8935295,0.009226072,0.9987828,0.04845441,-0.02154541,9.847351,0.4237671,0.08782959,9.7960205,0.44680786,0.015975952,0.036209106,0.037261963,-12.426758,-31.340027,24.751282,0,0.0,0.0,0.0,0.0
1.316619873,-0.88772005,0.029063115,-0.45946527,-0.4602922,-0.03615186,0.887031,0.009169362,0.9989236,0.04547026,-0.8945984,0.0298637,-0.44587198,-0.4467758,-0.039183646,0.8937875,0.009220911,0.9987857,0.04839601,0.08857727,9.919174,0.3471527,0.089920044,9.7960205,0.4459076,0.007446289,0.019165039,0.031936646,-13.502502,-32.05719,24.060059,0,0.0,0.0,0.0,0.0
1.321014404,-0.8877494,0.029120738,-0.45940498,-0.46023288,-0.035968747,0.8870692,0.009307889,0.9989285,0.045333557,-0.89446276,0.029848896,-0.44614506,-0.44704735,-0.03912216,0.89365435,0.009220437,0.99878854,0.048337188,0.11251831,9.933533,0.28489685,0.091278076,9.7960205,0.44456482,0.013839722,0.024490356,0.048980713,-13.502502,-32.05719,24.060059,0,0.0,0.0,0.0,0.0
1.325408936,-0.8877917,0.029203821,-0.459318,-0.4601486,-0.035840977,0.8871183,0.0094448365,0.99893075,0.045257416,-0.8943304,0.02983574,-0.4464112,-0.44731206,-0.039058205,0.89352465,0.009222951,0.9987914,0.048276827,0.09336853,9.909592,0.19392395,0.09262085,9.7960205,0.44381714,0.015975952,0.020233154,0.030883789,-13.502502,-32.05719,24.060059,0,0.0,0.0,0.0,0.0
1.329803467,-0.9041859,0.028043818,-0.42621747,-0.42703086,-0.03689269,0.90348405,0.009612834,0.9989256,0.045333426,-0.89420146,0.029824952,-0.44667023,-0.44756967,-0.03899332,0.8933985,0.009228413,0.99879426,0.048216626,0.13645935,9.856918,0.4668579,0.0942688,9.7960205,0.44456482,-0.0053253174,0.0063934326,0.029815674,-12.24823,-31.878662,23.886108,0,0.0,0.0,0.0,0.0
1.334197998,-0.90424997,0.028176723,-0.42607296,-0.42689157,-0.036797233,0.90355384,0.009780877,0.9989254,0.045302298,-0.8944056,0.029789349,-0.4462634,-0.44716117,-0.038951598,0.89360476,0.009237233,0.99879694,0.04815917,0.11251831,9.837769,0.3088379,0.09591675,9.7960205,0.44425964,-0.014907837,0.0,0.03514099,-12.24823,-31.878662,23.886108,0,0.0,0.0,0.0,0.0
1.338592529,-0.90428865,0.028257124,-0.4259855,-0.42680678,-0.03669332,0.90359807,0.009902259,0.99892694,0.045241684,-0.89460707,0.029757336,-0.44586176,-0.44675797,-0.03890878,0.89380836,0.009249419,0.99879956,0.048102394,0.15083313,9.900009,0.3040619,0.09710693,9.7960205,0.44366455,-0.0021362305,-0.004257202,0.034072876,-12.24823,-31.878662,23.886108,0,0.0,0.0,0.0,0.0
1.342987061,-0.8866204,0.029739527,-0.46154076,-0.4623909,-0.035534833,0.8859638,0.009947371,0.9989258,0.045257192,-0.894912,0.031136652,-0.4451552,-0.4461099,-0.03808494,0.89416754,0.010887676,0.9987893,0.047973037,0.21307373,9.823395,0.49079895,0.09754944,9.7960205,0.44381714,0.0010528564,-0.0053253174,0.024490356,-13.323975,-31.878662,23.54126,0,0.0,0.0,0.0,0.0
1.347381592,-0.8867058,0.029904407,-0.46136585,-0.4622236,-0.035536796,0.88605094,0.010101362,0.9989208,0.04533321,-0.89474905,0.031108996,-0.4454844,-0.446437,-0.03803327,0.89400643,0.010868414,0.9987921,0.04791844,0.21307373,9.923965,0.375885,0.09906006,9.7960205,0.44456482,-0.0021362305,0.009597778,0.017028809,-13.323975,-31.878662,23.54126,0,0.0,0.0,0.0,0.0
1.351776123,-0.8867947,0.030075826,-0.46118402,-0.46205023,-0.035588827,0.88613933,0.0102383755,0.99891376,0.04545652,-0.8945909,0.031085754,-0.44580346,-0.4467541,-0.037983213,0.8938501,0.010852958,0.99879473,0.047867127,0.18434143,9.871292,0.46206665,0.10040283,9.795868,0.44577026,-0.024490356,-0.007446289,0.022354126,-13.323975,-31.878662,23.54126,0,0.0,0.0,0.0,0.0
1.356170654,-0.90914714,0.028305192,-0.41551206,-0.41634807,-0.03713563,0.9084466,0.010283452,0.9989093,0.04554656,-0.8944376,0.031066502,-0.44611236,-0.4470613,-0.037935264,0.8936986,0.010840696,0.9987972,0.04781936,0.09815979,9.789886,0.3950348,0.10084534,9.795868,0.44665527,-0.026626587,-0.0021209717,0.022354126,-12.24823,-32.595825,24.578857,0,0.0,0.0,0.0,0.0
1.360565186,-0.9091735,0.028361471,-0.41545054,-0.4162901,-0.03722842,0.9084694,0.01029896,0.9989042,0.045653693,-0.894742,0.031010315,-0.44550544,-0.44645214,-0.03792063,0.89400357,0.010829487,0.99879944,0.0477738,0.14604187,9.866501,0.47644043,0.100997925,9.795868,0.44770813,-0.023422241,-0.019165039,0.01171875,-12.24823,-32.595825,24.578857,0,0.0,0.0,0.0,0.0
1.364959717,-0.90921426,0.028448496,-0.4153555,-0.41620082,-0.037391994,0.90850365,0.010314592,0.9988957,0.04583762,-0.8950406,0.030956909,-0.4449091,-0.44585353,-0.037908614,0.89430285,0.010818965,0.9988016,0.04773199,0.15560913,9.84256,0.70628357,0.10115051,9.795715,0.44950867,-0.022369385,-0.015975952,-0.004257202,-12.24823,-32.595825,24.578857,0,0.0,0.0,0.0,0.0
1.369354248,-0.88237745,0.0307544,-0.46953624,-0.47042796,-0.035655346,0.8817178,0.010375225,0.9988908,0.045929197,-0.8953335,0.030905984,-0.44432274,-0.44526517,-0.03789945,0.8945963,0.010808793,0.9988035,0.04769401,0.25616455,9.943115,0.42855835,0.101745605,9.795715,0.45040894,-0.02130127,-0.017044067,-0.0021362305,-13.502502,-30.622864,23.368835,0,0.0,0.0,0.0,0.0
1.373748779,-0.88239396,0.030787112,-0.46950293,-0.47039616,-0.035654157,0.8817347,0.010406334,0.99888986,0.045943156,-0.89508134,0.03090411,-0.44483066,-0.44577205,-0.03785442,0.89434576,0.010800155,0.9988053,0.047658972,0.28489685,9.938324,0.19871521,0.10205078,9.795715,0.45054626,-0.02130127,-0.020233154,-0.0010681152,-13.502502,-30.622864,23.368835,0,0.0,0.0,0.0,0.0
1.378143311,-0.8823928,0.030784803,-0.46950525,-0.47039765,-0.035586745,0.8817367,0.010435924,0.9988923,0.045882586,-0.89483446,0.03090263,-0.44532734,-0.44626778,-0.037809968,0.8941004,0.0107922405,0.998807,0.047624506,0.18913269,9.880859,0.28012085,0.1023407,9.795715,0.44995117,-0.026626587,-0.007446289,-0.010650635,-13.502502,-30.622864,23.368835,0,0.0,0.0,0.0,0.0
1.382537842,-0.879008,0.031006172,-0.47579768,-0.47669363,-0.03540091,0.8783562,0.010390798,0.998892,0.045898136,-0.894592,0.030901225,-0.4458142,-0.44675368,-0.03776512,0.8938595,0.01078513,0.99880874,0.04758961,0.16519165,9.856918,0.29447937,0.10189819,9.795715,0.45010376,-0.0021362305,-0.012771606,-0.0053253174,-14.041138,-31.52008,23.886108,0,0.0,0.0,0.0,0.0
1.386932373,-0.87897545,0.03094284,-0.47586212,-0.4767559,-0.035469774,0.8783199,0.010298992,0.99889165,0.04592924,-0.8942902,0.030904673,-0.4464189,-0.44735754,-0.037717674,0.8935595,0.0107772825,0.9988104,0.04755599,-0.05505371,9.866501,0.18913269,0.100997925,9.795715,0.45040894,-0.020233154,-0.014907837,-0.017044067,-14.041138,-31.52008,23.886108,0,0.0,0.0,0.0,0.0
1.391326904,-0.87896717,0.03092682,-0.4758784,-0.47677273,-0.03559836,0.87830555,0.010222707,0.9988876,0.046034854,-0.89399356,0.030906755,-0.44701266,-0.44795042,-0.037672702,0.8932644,0.010767727,0.9988121,0.047523845,-0.18434143,9.852127,0.38067627,0.100250244,9.795715,0.45144653,-0.029815674,-0.025558472,-0.0063934326,-14.041138,-31.52008,23.886108,0,0.0,0.0,0.0,0.0
1.395721436,-0.87678355,0.031198347,-0.479872,-0.48077607,-0.03562439,0.8761193,0.010238329,0.9988781,0.046234302,-0.8937023,0.03090784,-0.44759464,-0.44853157,-0.037630677,0.8929745,0.010756622,0.9988136,0.047493763,-0.12689209,9.885651,0.38067627,0.10040283,9.795563,0.45339966,-0.027694702,-0.014907837,0.004257202,-14.219666,-29.54712,24.060059,0,0.0,0.0,0.0,0.0
1.400115967,-0.8768467,0.03132951,-0.47974822,-0.48066044,-0.03581506,0.8761751,0.0102679245,0.9988672,0.046463173,-0.8933754,0.030914476,-0.44824615,-0.4491824,-0.03759024,0.89264894,0.010746095,0.99881494,0.047468435,-0.12210083,10.058029,0.4812317,0.10069275,9.795425,0.4556427,-0.05218506,-0.03514099,0.022354126,-14.219666,-29.54712,24.060059,0,0.0,0.0,0.0,0.0
1.404510498,-0.8769679,0.031581953,-0.47950986,-0.4804364,-0.036045272,0.8762885,0.01039084,0.998851,0.046783675,-0.89305586,0.030923512,-0.44888204,-0.4498178,-0.03755459,0.8923305,0.0107364105,0.998816,0.04744829,-0.08857727,9.943115,0.62008667,0.10189819,9.795273,0.458786,-0.051116943,-0.05857849,0.022354126,-14.219666,-29.54712,24.060059,0,0.0,0.0,0.0,0.0
1.408905029,-0.89821357,0.030114586,-0.4385264,-0.43943268,-0.037589822,0.89748853,0.010543367,0.9988393,0.046997026,-0.8945955,0.035224836,-0.44548643,-0.44666564,-0.0398374,0.8938136,0.013737416,0.9985851,0.05137208,-0.007171631,9.933533,0.55784607,0.103393555,9.79512,0.46087646,-0.06071472,-0.06604004,0.04258728,-12.785339,-30.981445,24.060059,0,0.0,0.0,0.0,0.0
1.413299561,-0.89833325,0.030367926,-0.4382638,-0.43918335,-0.037688702,0.89760655,0.010740856,0.998828,0.0471941,-0.89466864,0.035119623,-0.44534776,-0.44652116,-0.03979628,0.89388764,0.013669812,0.99859047,0.051286142,0.04548645,9.737213,0.6009369,0.10533142,9.79512,0.46281433,-0.041534424,-0.06604004,0.039398193,-12.785339,-30.981445,24.060059,0,0.0,0.0,0.0,0.0
1.417694092,-0.89846915,0.030656016,-0.4379651,-0.43889996,-0.037823826,0.89773947,0.010955597,0.99881405,0.047438465,-0.8947427,0.035021782,-0.44520664,-0.44637465,-0.039757174,0.8939625,0.013608002,0.9985954,0.051205277,0.24659729,9.8138275,0.6584015,0.107437134,9.794968,0.46520996,-0.031951904,-0.09373474,0.04685974,-12.785339,-30.981445,24.060059,0,0.0,0.0,0.0,0.0
1.422088623,-0.8985556,0.03083946,-0.43777478,-0.43871912,-0.037874017,0.8978258,0.011108172,0.9988066,0.047561772,-0.8948179,0.03493261,-0.4450624,-0.44622546,-0.039721634,0.89403856,0.013552493,0.99859995,0.051131453,0.17477417,9.799454,0.70628357,0.108932495,9.794815,0.4664154,-0.038345337,-0.07136536,0.03300476,-12.785339,-30.981445,24.060059,0,0.0,0.0,0.0,0.0
1.426483154,-0.89863265,0.031003192,-0.43760493,-0.43855685,-0.037846427,0.8979061,0.0112761725,0.9988025,0.047606703,-0.89489347,0.034849267,-0.4449172,-0.44607562,-0.039687585,0.8941149,0.013501562,0.99860424,0.051061567,0.28012085,9.866501,0.6009369,0.110580444,9.794815,0.4668579,-0.0095825195,-0.05218506,0.024490356,-12.785339,-30.981445,24.060059,0,0.0,0.0,0.0,0.0
1.430877686,-0.89871895,0.031186534,-0.4374147,-0.43837494,-0.037794072,0.8979972,0.011473739,0.9987988,0.047637645,-0.8949689,0.034770746,-0.44477138,-0.4459255,-0.039652906,0.89419127,0.0134552205,0.99860835,0.050993282,0.34236145,9.761154,0.6584015,0.11251831,9.794815,0.4671631,0.003189087,-0.05857849,0.019165039,-12.785339,-30.981445,24.060059,0,0.0,0.0,0.0,0.0
1.435272217,-0.8816143,0.032634854,-0.47084078,-0.47182798,-0.036429644,0.88093776,0.011596713,0.9988033,0.047514938,-0.8950447,0.03469762,-0.44462466,-0.44577473,-0.03961743,0.89426804,0.013414087,0.9986123,0.050926693,0.3375702,9.828186,0.54826355,0.113723755,9.794815,0.46595764,0.0095825195,-0.043670654,0.022354126,-14.399719,-34.388733,24.578857,0,0.0,0.0,0.0,0.0
1.439666748,-0.88160205,0.032612093,-0.47086537,-0.47185016,-0.03632174,0.88093024,0.01162633,0.9988079,0.04740935,-0.8947836,0.034657236,-0.44515288,-0.44629952,-0.039553415,0.89400905,0.013376567,0.9986162,0.05085926,0.2609558,9.761154,0.56741333,0.11401367,9.794815,0.46492004,0.034088135,-0.055389404,0.0053253174,-14.399719,-34.388733,24.578857,0,0.0,0.0,0.0,0.0
1.444061279,-0.88157344,0.03255926,-0.47092253,-0.47190428,-0.0362797,0.88090295,0.011596624,0.9988111,0.047348082,-0.8945274,0.034617383,-0.44567084,-0.44681412,-0.039488625,0.89375484,0.013340525,0.9986202,0.05079119,0.2753296,9.876068,0.6248779,0.113723755,9.794968,0.46432495,0.034088135,-0.034088135,-0.0063934326,-14.399719,-34.388733,24.578857,0,0.0,0.0,0.0,0.0
1.448455811,-0.90310186,0.030678663,-0.42832902,-0.42926967,-0.037558764,0.90239507,0.011596765,0.9988234,0.047088813,-0.8942753,0.034576654,-0.44617945,-0.44731945,-0.039423637,0.893505,0.013304394,0.99862415,0.050722398,0.28012085,9.737213,0.4333496,0.113723755,9.794968,0.46177673,0.027694702,-0.013839722,-0.0234375,-12.24823,-31.878662,23.54126,0,0.0,0.0,0.0,0.0
