Time,Rot1,Rot2,Rot3,Rot4,Rot5,Rot6,Rot7,Rot8,Rot9,FRot1,FRot2,FRot3,FRot4,FRot5,FRot6,FRot7,FRot8,FRot9,AccX,AccY,AccZ,GravX,GravY,GravZ,GyroX,GyroY,GyroZ,MagX,MagY,MagZ,Imid
0.0,0.18681799,-0.42111126,-0.88756084,0.09219984,0.9069948,-0.4109252,0.9780584,-0.0050647496,0.20826936,1.0,0.0,0.0,0.0,1.0,0.0,0.0,0.0,1.0,9.619888,-0.08378601,1.8435211,9.591309,-0.04966736,2.042389,0.0,0.0,0.0,-25.671387,19.517517,-14.663696,0,0.0,0.0,0.0,0.0
0.004425049,0.18690409,-0.42101783,-0.88758713,0.092266336,0.90703803,-0.41081515,0.97803575,-0.005111384,0.20837487,0.99959177,-0.0086934045,-0.027216235,0.008692941,0.9999622,-1.3534904E-4,0.027216382,-1.01295336E-4,0.99962956,9.629471,-0.11730957,1.9632416,9.591171,-0.050125122,2.0434418,0.007446289,0.020217896,0.006378174,-25.671387,19.517517,-14.663696,0,0.0,0.0,0.0,0.0
0.00881958,0.18702973,-0.4208812,-0.88762546,0.09225638,0.9071016,-0.41067696,0.97801256,-0.005080306,0.20848393,0.9984001,-0.017210249,-0.053862333,0.017196113,0.9998519,-7.258868E-4,0.05386685,-2.0149746E-4,0.99854815,9.634262,-0.007171631,1.9105682,9.590866,-0.049819946,2.0444946,-0.011703491,0.03086853,0.0010528564,-25.671387,19.517517,-14.663696,0,0.0,0.0,0.0,0.0
0.013244629,0.1821694,-0.4670531,-0.86526054,0.10186033,0.8842146,-0.4558388,0.97797686,-0.005095842,0.208651,0.99647325,-0.025552535,-0.07992653,0.025494652,0.9996734,-0.0017447787,0.07994501,-2.99074E-4,0.99679923,9.60553,-0.04069519,1.9919739,9.590561,-0.049972534,2.0461426,-0.0063934326,0.04046631,-0.005340576,-26.208496,17.904663,-15.182495,0,0.0,0.0,0.0,0.0
0.01763916,0.18238488,-0.46681032,-0.8653462,0.10194343,0.88434273,-0.45557186,0.9779281,-0.0051269424,0.20887895,0.9938229,-0.034756437,-0.1053953,0.034604304,0.9993957,-0.0032723353,0.105445355,-3.950097E-4,0.99442506,9.600739,-0.07421875,2.087738,9.590118,-0.05027771,2.0483856,-0.009597778,0.04472351,0.0021209717,-26.208496,17.904663,-15.182495,0,0.0,0.0,0.0,0.0
0.022033692,0.18256426,-0.466608,-0.86541736,0.10199936,0.88444924,-0.45535213,0.9778887,-0.0051409844,0.20906256,0.99051327,-0.04376792,-0.13026041,0.04345819,0.9990416,-0.00522076,0.13036406,-4.896487E-4,0.99146605,9.696503,-0.007171631,2.0063324,9.589661,-0.05041504,2.050171,0.004257202,0.048980713,0.003189087,-26.208496,17.904663,-15.182495,0,0.0,0.0,0.0,0.0
0.02645874,0.18474007,-0.44912082,-0.8741633,0.098458946,0.89345646,-0.4382254,0.97784305,-0.0051114177,0.20927717,0.9865893,-0.052591156,-0.15451737,0.052048054,0.9986159,-0.0075610513,0.15470114,-5.8267574E-4,0.9879611,9.682144,-0.026321411,2.1068878,9.589218,-0.050125122,2.0522766,-0.0053253174,0.05218506,0.007446289,-25.312805,18.800354,-15.008545,0,0.0,0.0,0.0,0.0
0.030853272,0.18484946,-0.4490033,-0.8742006,0.09851536,0.8935153,-0.43809262,0.9778167,-0.005141007,0.20939955,0.98211765,-0.060841262,-0.17816629,0.059984565,0.9981472,-0.01019631,0.17845653,-6.7325094E-4,0.9839476,9.706085,-0.08378601,2.1068878,9.588913,-0.05041504,2.0534668,-0.008529663,0.045791626,-0.007461548,-25.312805,18.800354,-15.008545,0,0.0,0.0,0.0,0.0
0.035278321,0.18484905,-0.44900376,-0.87420046,0.09854931,0.89351493,-0.43808582,0.97781336,-0.0051721088,0.2094144,0.97712135,-0.06891971,-0.20120603,0.06765759,0.9976219,-0.013151394,0.20163393,-7.6260645E-4,0.97946066,9.533707,-0.12210083,2.0973206,9.588913,-0.050720215,2.0536194,0.017044067,0.027679443,0.007446289,-25.312805,18.800354,-15.008545,0,0.0,0.0,0.0,0.0
0.039672852,0.18809521,-0.4194664,-0.8880698,0.09243967,0.9077563,-0.40918612,0.97779095,-0.0051269415,0.20951997,0.9716389,-0.07683223,-0.22363949,0.07506589,0.99704367,-0.01640208,0.22423856,-8.507968E-4,0.9745339,9.60553,0.07899475,2.0063324,9.588776,-0.05027771,2.0546722,-0.009597778,0.018096924,0.0,-25.671387,18.800354,-14.317322,0,0.0,0.0,0.0,0.0
0.044067383,0.18810964,-0.41945028,-0.8880745,0.09240869,0.9077641,-0.40917617,0.9777911,-0.0050958223,0.20951998,0.96576166,-0.08392827,-0.24548,0.081573136,0.9964714,-0.019764973,0.24627262,-9.363201E-4,0.96920013,9.662994,0.002380371,2.0829468,9.588776,-0.049972534,2.0546722,0.0,0.028747559,-0.0010681152,-25.671387,18.800354,-14.317322,0,0.0,0.0,0.0,0.0
0.048492432,0.18813466,-0.41942218,-0.8880824,0.092429884,0.9077769,-0.4091428,0.9777843,-0.005111428,0.20955142,0.95980895,-0.0908452,-0.2655447,0.087710656,0.99586487,-0.02366481,0.26659647,-5.7740655E-4,0.96380806,9.634262,-0.06942749,2.1260376,9.588623,-0.050125122,2.0549622,0.0063934326,0.018096924,-0.0021362305,-25.671387,18.800354,-14.317322,0,0.0,0.0,0.0,0.0
0.052886963,0.18194686,-0.47648883,-0.8601475,0.104295895,0.87916565,-0.46496245,0.97776157,-0.0051113907,0.20965727,0.9531726,-0.09765162,-0.28622723,0.093718894,0.9952204,-0.02744184,0.28753892,-6.6808733E-4,0.9577687,9.548065,-0.04069519,1.8243713,9.58847,-0.050125122,2.056015,0.0,0.017028809,-0.0010681152,-23.698425,18.980408,-15.527344,0,0.0,0.0,0.0,0.0
0.057312012,0.18198124,-0.47645518,-0.8601589,0.10427081,0.8791841,-0.46493328,0.9777579,-0.0050803325,0.20967537,0.9531726,-0.09765162,-0.28622723,0.093718894,0.9952204,-0.02744184,0.28753892,-6.6808733E-4,0.9577687,9.548065,-0.04069519,1.8243713,9.588318,-0.049819946,2.0561676,0.0,0.017028809,-0.0010681152,-23.698425,18.980408,-15.527344,0,0.0,0.0,0.0,0.0
0.061706543,0.1820901,-0.47634864,-0.8601948,0.104352586,0.8792414,-0.46480623,0.9777288,-0.005126942,0.2098094,0.9386358,-0.11335646,-0.32575008,0.10736878,0.993554,-0.036364026,0.3277724,-8.428129E-4,0.9447563,9.524124,-0.09336853,2.0494232,9.588165,-0.05027771,2.0575104,-0.0010681152,0.025543213,-0.008529663,-23.698425,18.980408,-15.527344,0,0.0,0.0,0.0,0.0
0.066101074,0.18683766,-0.43349677,-0.8815738,0.0954248,0.9011408,-0.42289448,0.97774535,-0.0051113875,0.20973337,0.9309107,-0.12096176,-0.34463537,0.11376225,0.99265677,-0.041118875,0.34707844,-9.2849584E-4,0.93783563,9.519333,-0.011962891,1.8291626,9.588318,-0.050125122,2.0567627,-0.0063934326,0.03086853,0.0053253174,-25.132751,19.33899,-14.836121,0,0.0,0.0,0.0,0.0
0.070526123,0.18694755,-0.43338013,-0.8816078,0.09547947,0.90119654,-0.42276284,0.9777189,-0.005140967,0.2098554,0.9230333,-0.1274534,-0.3629947,0.11898448,0.991844,-0.04569562,0.36585817,-0.001012154,0.9306701,9.504974,-0.05984497,1.8339539,9.588028,-0.05041504,2.057953,-0.0010681152,0.024475098,-0.0032043457,-25.132751,19.33899,-14.836121,0,0.0,0.0,0.0,0.0
0.074920655,0.18707342,-0.4332464,-0.88164675,0.095505305,0.90126073,-0.4226199,0.97769225,-0.0051409905,0.20997928,0.9149254,-0.13380738,-0.38079792,0.123959064,0.99100673,-0.050396048,0.38411668,-0.0010947306,0.92328393,9.643829,0.03590393,1.8578949,9.587723,-0.05041504,2.0591583,-0.020233154,0.04685974,0.0010528564,-25.132751,19.33899,-14.836121,0,0.0,0.0,0.0,0.0
0.079345703,0.18721345,-0.4330977,-0.88169014,0.09560146,0.90133196,-0.42244646,0.97765607,-0.0052032033,0.21014623,0.9066118,-0.14002599,-0.39805493,0.12868963,0.9901471,-0.055205427,0.40186313,-0.0011756562,0.91569895,9.490601,-0.04069519,2.1260376,9.587418,-0.05102539,2.0608063,0.004257202,0.04685974,0.0095825195,-25.132751,19.33899,-14.836121,0,0.0,0.0,0.0,0.0
0.083740235,0.18746296,-0.43283266,-0.8817673,0.095684506,0.9014591,-0.42215633,0.97760016,-0.0052327923,0.21040556,0.9066118,-0.14002599,-0.39805493,0.12868963,0.9901471,-0.055205427,0.40186313,-0.0011756562,0.91569895,9.490601,-0.04069519,2.1260376,9.5868225,-0.051315308,2.0633392,0.004257202,0.04685974,0.0095825195,-25.132751,19.33899,-14.836121,0,0.0,0.0,0.0,0.0
0.088134766,0.1878724,-0.43239748,-0.8818936,0.09571876,0.90166813,-0.4217018,0.9775182,-0.0051876386,0.2107871,0.9066118,-0.14002599,-0.39805493,0.12868963,0.9901471,-0.055205427,0.40186313,-0.0011756562,0.91569895,9.490601,-0.04069519,2.1260376,9.586075,-0.050872803,2.067093,0.004257202,0.04685974,0.0095825195,-25.132751,19.33899,-14.836121,0,0.0,0.0,0.0,0.0
0.092559815,0.18358116,-0.47261155,-0.8619375,0.104207404,0.88125557,-0.4610091,0.97746545,-0.0051876805,0.21103154,0.88068354,-0.15785909,-0.44662845,0.1414356,0.9874606,-0.07012459,0.45209783,-0.0014115939,0.89196724,9.619888,-0.17477417,1.8387451,9.58548,-0.050872803,2.0694733,0.0063934326,0.07987976,-0.009597778,-25.312805,18.800354,-15.699768,0,0.0,0.0,0.0,0.0
0.096954346,0.18394335,-0.47223285,-0.8620679,0.104280844,0.8814587,-0.46060407,0.9773896,-0.0051721227,0.21138328,0.8716424,-0.16444653,-0.4617323,0.1460225,0.9863848,-0.075645916,0.46788546,-0.0014871159,0.8837878,9.643829,-0.07899475,2.0542145,9.584732,-0.050720215,2.0729218,-0.0021362305,0.07987976,-0.010665894,-25.312805,18.800354,-15.699768,0,0.0,0.0,0.0,0.0
0.101379395,0.18430267,-0.47185683,-0.862197,0.104387686,0.8816599,-0.46019453,0.9773105,-0.0051876674,0.21174832,0.8624985,-0.17088667,-0.476334,0.1503555,0.98528945,-0.081227526,0.48320758,-0.0015608164,0.87550443,9.557648,-0.05505371,2.1260376,9.583984,-0.050872803,2.0765076,0.0063934326,0.08413696,-0.005340576,-25.312805,18.800354,-15.699768,0,0.0,0.0,0.0,0.0
0.105773926,0.1856861,-0.4608239,-0.867849,0.10219736,0.8874761,-0.4493795,0.97728014,-0.005248355,0.21188697,0.8532699,-0.17718251,-0.49044555,0.15444182,0.98417664,-0.0868564,0.49807453,-0.0016333538,0.8671327,9.62468,-0.11730957,1.9345093,9.583679,-0.051467896,2.0778656,0.0010528564,0.08200073,0.0021209717,-24.415588,20.056152,-15.873718,0,0.0,0.0,0.0,0.0
0.110168457,0.18593684,-0.46057913,-0.8679253,0.10224413,0.8876032,-0.44911766,0.97722757,-0.0052327556,0.21212965,0.84400934,-0.18310018,-0.50410575,0.1580852,0.9830928,-0.092399456,0.5125011,-0.0017056541,0.8586849,9.610321,-0.05984497,2.226593,9.583237,-0.051315308,2.0802612,0.013839722,0.047912598,0.010650635,-24.415588,20.056152,-15.873718,0,0.0,0.0,0.0,0.0
0.114593506,0.1861056,-0.4604142,-0.86797655,0.10228711,0.8876887,-0.44893873,0.9771909,-0.005232809,0.21229832,0.83623284,-0.18896708,-0.5147875,0.16150199,0.9819828,-0.098116554,0.5240533,-0.0010909197,0.85168475,9.600739,-0.04548645,2.1499786,9.582779,-0.051315308,2.081894,0.0095825195,0.043655396,-0.004272461,-24.415588,20.056152,-15.873718,0,0.0,0.0,0.0,0.0
0.118988037,0.18883045,-0.43726063,-0.87928736,0.097465366,0.8993199,-0.42629153,0.97716105,-0.0052032433,0.21243674,0.8268892,-0.19462715,-0.527612,0.16471617,0.98087656,-0.103680715,0.53770137,-0.001173758,0.8431345,9.653412,-0.01675415,2.1452026,9.582489,-0.05102539,2.083252,-0.0021362305,0.034072876,-0.0010681152,-25.132751,18.980408,-14.836121,0,0.0,0.0,0.0,0.0
0.123413086,0.18885921,-0.43722966,-0.87929654,0.09747114,0.89933485,-0.42625841,0.97715485,-0.0052032103,0.21246494,0.817604,-0.19965997,-0.54005516,0.16730258,0.9798644,-0.10897485,0.5509388,-0.001254348,0.8345447,9.58638,-0.03111267,2.173935,9.582489,-0.05102539,2.0835419,-0.0032043457,0.029815674,-0.0032043457,-25.132751,18.980408,-14.836121,0,0.0,0.0,0.0,0.0
0.127807617,0.1889456,-0.43713692,-0.87932414,0.09743796,0.89938027,-0.42617032,0.9771415,-0.0051565426,0.21252766,0.80830276,-0.20458636,-0.55207884,0.16970918,0.97884756,-0.11426352,0.56377786,-0.0013333256,0.8259254,9.62468,0.04548645,2.2361755,9.582336,-0.050567627,2.0841522,-0.0063934326,0.018096924,0.0053253174,-25.132751,18.980408,-14.836121,0,0.0,0.0,0.0,0.0
0.132202149,0.19220072,-0.4060891,-0.8933927,0.0909586,0.9138187,-0.39580527,0.9771312,-0.0051876903,0.21257395,0.79899776,-0.20940717,-0.5636943,0.17194057,0.9778275,-0.11953991,0.57622826,-0.0014097902,0.81728756,9.60553,-0.10293579,2.245758,9.582184,-0.050872803,2.0845947,-0.0021362305,0.008514404,-0.0032043457,-25.312805,19.517517,-14.317322,0,0.0,0.0,0.0,0.0
0.136627197,0.19213127,-0.40616485,-0.89337325,0.090882145,0.9137855,-0.39589974,0.977152,-0.005126952,0.21247989,0.789818,-0.2134576,-0.5749985,0.17346463,0.9769511,-0.124404065,0.5883005,-0.0014853486,0.80864096,9.58638,-0.07421875,2.1452026,9.582489,-0.05027771,2.0836945,-0.007461548,-0.0032043457,0.008514404,-25.312805,19.517517,-14.317322,0,0.0,0.0,0.0,0.0
0.141021729,0.19198465,-0.4063248,-0.893332,0.09087281,0.91371423,-0.39606616,0.9771817,-0.005140957,0.21234299,0.7806526,-0.2174251,-0.58592486,0.17485155,0.97607577,-0.1292402,0.6000071,-0.001558181,0.79999316,9.581589,-0.05027771,2.1882935,9.582779,-0.05041504,2.0823517,-0.008529663,-0.027694702,-0.015991211,-25.312805,19.517517,-14.317322,0,0.0,0.0,0.0,0.0
0.145446778,0.18670498,-0.4545137,-0.8709526,0.10089555,0.89072496,-0.44320318,0.97722125,-0.0051269974,0.21216121,0.77150923,-0.22131315,-0.59648466,0.17610879,0.9752015,-0.13404422,0.61135846,-0.0016298369,0.79135215,9.548065,-0.10772705,2.178711,9.583084,-0.05027771,2.0805511,-0.019165039,-0.039413452,-0.0021362305,-25.491333,18.621826,-15.182495,0,0.0,0.0,0.0,0.0
0.149841309,0.18652025,-0.45471376,-0.8708879,0.10078667,0.89062333,-0.44343245,0.9772678,-0.005064765,0.21194835,0.76220673,-0.22616045,-0.6065413,0.1780525,0.9740886,-0.13945878,0.622365,-0.0016997802,0.78272533,9.557648,0.03111267,2.1499786,9.583527,-0.04966736,2.0784607,-0.012771606,-0.051132202,-0.012786865,-25.491333,18.621826,-15.182495,0,0.0,0.0,0.0,0.0
0.15423584,0.18638799,-0.45485696,-0.8708413,0.10074217,0.89055014,-0.4435892,0.97729754,-0.005050754,0.21181113,0.7529421,-0.23090975,-0.6162457,0.17984076,0.9729736,-0.14484382,0.6330367,-0.0017670802,0.7741198,9.509766,-0.04069519,2.178711,9.583832,-0.04953003,2.077118,0.0063934326,-0.053268433,-0.004272461,-25.491333,18.621826,-15.182495,0,0.0,0.0,0.0,0.0
0.158660889,0.17797577,-0.5217171,-0.83434755,0.11452244,0.8531041,-0.50901663,0.9773481,-0.0049588988,0.2115802,0.743724,-0.23556188,-0.62560797,0.18147942,0.97185767,-0.15019311,0.64338166,-0.0018327539,0.76554346,9.567215,-0.06942749,2.15477,9.584427,-0.04862976,2.0748749,-0.027694702,-0.042617798,-0.009597778,-22.981262,17.546082,-15.873718,0,0.0,0.0,0.0,0.0
0.16305542,0.17779817,-0.52188754,-0.8342789,0.11442788,0.8530001,-0.50921226,0.9773914,-0.0049277623,0.21138032,0.73427725,-0.2416036,-0.634401,0.1840966,0.9703732,-0.15647468,0.65341055,-0.001895277,0.75700134,9.768341,-0.04069519,2.063797,9.584885,-0.048324585,2.0729218,-0.0010681152,-0.057525635,-0.02557373,-22.981262,17.546082,-15.873718,0,0.0,0.0,0.0,0.0
0.167480469,0.17748958,-0.5221836,-0.8341593,0.114289775,0.8528191,-0.5095464,0.9774637,-0.0048967013,0.21104674,0.7248891,-0.2475193,-0.64286083,0.18652557,0.968881,-0.16272014,0.663132,-0.001955927,0.74849993,9.648621,0.04548645,2.015915,9.58548,-0.04801941,2.0696259,-0.0021362305,-0.042617798,-0.007461548,-22.981262,17.546082,-15.873718,0,0.0,0.0,0.0,0.0
0.171875,0.18322513,-0.47414005,-0.86117345,0.10414333,0.8804356,-0.46258757,0.9775391,-0.004927817,0.21069646,0.71556365,-0.2533145,-0.6509996,0.18877517,0.9673819,-0.16892669,0.67255676,-0.0020147425,0.7400428,9.552856,-0.10772705,2.087738,9.586227,-0.048324585,2.0661926,-0.019165039,-0.0703125,-0.004272461,-25.491333,18.980408,-15.873718,0,0.0,0.0,0.0,0.0
0.176300049,0.18292484,-0.47445276,-0.8610651,0.104049526,0.8802672,-0.46292895,0.9776053,-0.0049122064,0.21038932,0.7065189,-0.25791416,-0.65902305,0.19006513,0.9661656,-0.17435385,0.6816937,-0.0020730044,0.7316348,9.610321,-0.08378601,2.202652,9.586975,-0.048171997,2.063202,-0.0021362305,-0.08203125,0.0021209717,-25.491333,18.980408,-15.873718,0,0.0,0.0,0.0,0.0
0.18069458,0.18254392,-0.47484922,-0.8609274,0.103919335,0.88005364,-0.4633642,0.97769034,-0.004882687,0.20999444,0.6975478,-0.26242304,-0.66675425,0.1912257,0.96495056,-0.1797307,0.6905504,-0.0021297885,0.7232812,9.696503,0.007171631,2.0254822,9.587723,-0.04788208,2.059311,0.004257202,-0.08203125,-0.005340576,-25.491333,18.980408,-15.873718,0,0.0,0.0,0.0,0.0
0.185089112,0.18076803,-0.4869125,-0.8545403,0.10622071,0.8734372,-0.4752101,0.9777731,-0.0048670815,0.20960972,0.68491924,-0.2666046,-0.6780911,0.19102179,0.9638036,-0.18599264,0.70313317,-0.0021402233,0.711055,9.562439,-0.08857727,2.1020966,9.588623,-0.047729492,2.0555573,-0.0021362305,-0.08522034,-0.0032043457,-23.878479,18.08319,-15.354919,0,0.0,0.0,0.0,0.0
0.18951416,0.18034528,-0.48733974,-0.8543861,0.10606787,0.8731991,-0.47568166,0.9778677,-0.0048359763,0.20916842,0.6760902,-0.27120247,-0.68509215,0.1921192,0.9625198,-0.19143097,0.71133137,-0.0021947604,0.70285344,9.504974,0.03111267,2.0925293,9.589523,-0.047424316,2.0512238,-0.007461548,-0.09375,-0.010665894,-23.878479,18.08319,-15.354919,0,0.0,0.0,0.0,0.0
0.193908692,0.18001789,-0.48767042,-0.8542663,0.105840236,0.873015,-0.47606987,0.97795266,-0.004714652,0.20877351,0.6673465,-0.27571183,-0.6918321,0.19309683,0.9612377,-0.1968138,0.71927905,-0.002247585,0.6947177,9.567215,-0.007171631,1.929718,9.590271,-0.04623413,2.0473328,-0.015975952,-0.10333252,-0.0063934326,-23.878479,18.08319,-15.354919,0,0.0,0.0,0.0,0.0
0.19833374,0.17837481,-0.49780345,-0.8487487,0.10770112,0.8672771,-0.48603594,0.9780505,-0.004714614,0.20831434,0.65869284,-0.28013235,-0.69831914,0.19395733,0.9599587,-0.20213848,0.726983,-0.0022969265,0.68665165,9.667786,-0.05984497,1.6902924,9.591309,-0.04623413,2.0428467,0.003189087,-0.08415222,-0.0234375,-24.23706,18.08319,-15.699768,0,0.0,0.0,0.0,0.0
0.202728272,0.17818043,-0.49799958,-0.84867436,0.10760895,0.8671647,-0.486257,0.9780962,-0.0046834894,0.20810096,0.6500869,-0.284682,-0.7045163,0.19485375,0.9586192,-0.2075605,0.73445153,-0.0023452805,0.6786571,9.567215,-0.04069519,1.953659,9.591766,-0.045928955,2.0407562,0.003189087,-0.071380615,0.0,-24.23706,18.08319,-15.699768,0,0.0,0.0,0.0,0.0
0.207122803,0.17801058,-0.49817085,-0.84860945,0.107508145,0.86706644,-0.48645422,0.97813815,-0.004638425,0.20790444,0.64158,-0.28913873,-0.71047443,0.19563654,0.9572842,-0.21291612,0.74168825,-0.0023920448,0.6707405,9.60553,-0.011962891,1.8626862,9.592056,-0.04548645,2.038803,0.0063934326,-0.043685913,-0.0063934326,-24.23706,18.08319,-15.699768,0,0.0,0.0,0.0,0.0
0.211547852,0.17743133,-0.5020014,-0.84647083,0.108253,0.8648544,-0.49021256,0.9781613,-0.004653947,0.20779538,0.63317466,-0.29350406,-0.7162019,0.19631045,0.9559547,-0.21820351,0.74870026,-0.0024369727,0.66290426,9.629471,-0.05027771,1.7429657,9.592361,-0.045639038,2.0377502,-0.0010681152,-0.026641846,-0.007461548,-24.057007,18.263245,-15.873718,0,0.0,0.0,0.0,0.0
0.215942383,0.17735437,-0.50207746,-0.8464418,0.10817679,0.8648104,-0.49030682,0.9781836,-0.0046072993,0.20769101,0.6248576,-0.29786062,-0.72168696,0.1969347,0.9546061,-0.22348116,0.75549304,-0.0024813123,0.65515196,9.60553,0.02154541,1.8387451,9.592514,-0.045181274,2.0367126,-0.010650635,-0.0032043457,-0.0010681152,-24.057007,18.263245,-15.873718,0,0.0,0.0,0.0,0.0
0.220367432,0.17729388,-0.5021372,-0.8464189,0.10815833,0.8647756,-0.49037203,0.9781966,-0.0046072872,0.20762978,0.61664796,-0.30212572,-0.7269562,0.19745673,0.9532648,-0.22868569,0.7620736,-0.002523832,0.64748555,9.591171,-0.05984497,1.8818359,9.592667,-0.045181274,2.0361176,0.025558472,-0.0063934326,0.0021209717,-24.057007,18.263245,-15.873718,0,0.0,0.0,0.0,0.0
0.224761963,0.18208958,-0.4617543,-0.86811656,0.09987361,0.8869959,-0.45084757,0.9781966,-0.0046072872,0.20762978,0.608548,-0.30630094,-0.7320171,0.1978822,0.9519313,-0.23381506,0.7684478,-0.0025655013,0.63990736,9.58638,-0.03111267,2.0302734,9.592667,-0.045181274,2.0361176,0.0021209717,-0.004272461,-0.015991211,-23.878479,18.800354,-15.008545,0,0.0,0.0,0.0,0.0
0.229156494,0.18210189,-0.46174183,-0.8681206,0.09994359,0.8870021,-0.4508199,0.9781872,-0.0046679256,0.20767291,0.60074246,-0.30951044,-0.73709685,0.19766165,0.9508925,-0.23818767,0.7746214,-0.002606337,0.6324198,9.667786,0.007171631,1.9440765,9.592667,-0.045776367,2.03656,-0.0063934326,0.0095825195,-0.010665894,-23.878479,18.800354,-15.008545,0,0.0,0.0,0.0,0.0
0.233581543,0.18219614,-0.4616467,-0.8681514,0.099967495,0.88705164,-0.45071718,0.97816724,-0.0046679787,0.20776707,0.5930467,-0.31265205,-0.7419867,0.19737981,0.94986403,-0.24248613,0.78060025,-0.002647569,0.625025,9.730026,-0.03111267,1.9680328,9.592361,-0.045776367,2.0374603,-0.014907837,0.01914978,0.015960693,-23.878479,18.800354,-15.008545,0,0.0,0.0,0.0,0.0
0.237976074,0.18737406,-0.4129568,-0.89126736,0.090024754,0.9107383,-0.4030522,0.9781546,-0.004714598,0.20782508,0.5854629,-0.31572548,-0.7466931,0.19703853,0.94884676,-0.24670961,0.7863898,-0.0026879772,0.61772466,9.634262,-0.06463623,1.8483124,9.592361,-0.04623413,2.0380554,-0.0063934326,0.03086853,0.0,-24.23706,19.158936,-13.972473,0,0.0,0.0,0.0,0.0
0.242401123,0.18736593,-0.41296545,-0.89126515,0.09000654,0.91073453,-0.40306494,0.9781578,-0.0046990537,0.20781021,0.57820284,-0.31770748,-0.75149405,0.19601698,0.94818485,-0.25004563,0.7919967,-0.0027285095,0.6105193,9.615112,-0.01675415,1.9967499,9.592361,-0.046081543,2.0379028,0.007446289,0.034072876,0.008514404,-24.23706,19.158936,-13.972473,0,0.0,0.0,0.0,0.0
0.246795655,0.1875349,-0.41278633,-0.8913126,0.09000465,0.910816,-0.40288153,0.97812575,-0.0046679294,0.20796248,0.5710476,-0.31964868,-0.75612783,0.19497158,0.94753206,-0.25331604,0.79742754,-0.0027679207,0.60340834,9.485825,0.09336853,2.0590057,9.592056,-0.045776367,2.0393982,0.0053253174,0.023422241,-0.004272461,-24.23706,19.158936,-13.972473,0,0.0,0.0,0.0,0.0
0.251190186,0.18337253,-0.45223635,-0.87284404,0.09811665,0.8918859,-0.44148928,0.9781348,-0.0046835328,0.20791928,0.5655293,-0.32155988,-0.7594576,0.19464071,0.94688433,-0.25597867,0.80143094,-0.0030579288,0.59807944,9.552856,-0.08378601,1.9249268,9.592056,-0.045928955,2.0389557,-0.0021362305,0.031936646,0.003189087,-24.954224,19.517517,-15.354919,0,0.0,0.0,0.0,0.0
0.255615235,0.1834185,-0.4521892,-0.8728589,0.098194115,0.8919094,-0.4414244,0.97811836,-0.0047442047,0.20799501,0.55839497,-0.32424578,-0.7635834,0.19403392,0.9459678,-0.25979936,0.8065642,-0.003090441,0.59113836,9.639053,-0.07899475,1.9201355,9.591919,-0.046524048,2.0397034,0.007446289,0.017028809,-0.0010681152,-24.954224,19.517517,-15.354919,0,0.0,0.0,0.0,0.0
0.260009766,0.18352303,-0.45208204,-0.87289244,0.09825303,0.8919636,-0.44130185,0.97809285,-0.004775276,0.20811427,0.5513718,-0.32687443,-0.7675561,0.19338846,0.94506264,-0.26354805,0.8115356,-0.0031235162,0.5842946,9.691727,-0.08857727,1.9201355,9.591766,-0.046829224,2.0408936,0.004257202,0.03086853,0.010650635,-24.954224,19.517517,-15.354919,0,0.0,0.0,0.0,0.0
0.264434815,0.17727502,-0.50552815,-0.844402,0.10933311,0.86279666,-0.4935871,0.9780695,-0.004820437,0.20822327,0.54446054,-0.32944578,-0.7713807,0.192706,0.9441692,-0.2672244,0.8163498,-0.0031565514,0.57754904,9.533707,-0.06942749,1.9153595,9.591461,-0.04727173,2.0419464,-0.014907837,0.039398193,0.0021209717,-24.23706,17.72461,-15.699768,0,0.0,0.0,0.0,0.0
0.268829346,0.1774452,-0.50535536,-0.84446967,0.109315485,0.8628981,-0.49341345,0.9780406,-0.004759757,0.20836034,0.5374262,-0.33311194,-0.77473205,0.1926455,0.94288194,-0.27177465,0.82101214,-0.0031898294,0.5709019,9.581589,0.002380371,1.9105682,9.591171,-0.046676636,2.0432892,0.01171875,0.03514099,0.007446289,-24.23706,17.72461,-15.699768,0,0.0,0.0,0.0,0.0
0.273223877,0.17770302,-0.50509363,-0.8445721,0.109359294,0.86305153,-0.49313533,0.9779888,-0.0047301687,0.20860355,0.5305097,-0.33669612,-0.77794284,0.19252154,0.94160783,-0.27624285,0.825527,-0.003221228,0.5643534,9.639053,-0.06463623,1.9823914,9.5907135,-0.04638672,2.0456848,0.013839722,0.04685974,-0.004272461,-24.23706,17.72461,-15.699768,0,0.0,0.0,0.0,0.0
0.277648926,0.17383672,-0.53614783,-0.8260305,0.115876675,0.84411097,-0.52349716,0.97793317,-0.0047146333,0.20886448,0.5237129,-0.3401982,-0.7810186,0.19233783,0.9403481,-0.28062707,0.8298982,-0.0032514068,0.5579054,9.706085,-0.08378601,1.9776001,9.590118,-0.04623413,2.048233,0.0021209717,0.06390381,-0.010665894,-24.057007,17.1875,-16.218567,0,0.0,0.0,0.0,0.0
0.282043457,0.17404199,-0.5359443,-0.82611936,0.11598132,0.84424,-0.5232658,0.97788423,-0.004744186,0.20909272,0.51689386,-0.34430882,-0.7837552,0.1924775,0.93885076,-0.2855026,0.83413017,-0.0032806715,0.5515579,9.629471,-0.09815979,1.9345093,9.589661,-0.046524048,2.050476,-0.004272461,0.069229126,-0.009597778,-24.057007,17.1875,-16.218567,0,0.0,0.0,0.0,0.0
0.286468506,0.17435735,-0.53563154,-0.8262556,0.116055004,0.8444386,-0.5229289,0.9778194,-0.004714602,0.20939681,0.51019514,-0.34832633,-0.7863648,0.1925487,0.9373675,-0.2902881,0.8382278,-0.0033099419,0.54531014,9.538498,0.007171631,1.9967499,9.589066,-0.04623413,2.0534668,0.003189087,0.06390381,0.003189087,-24.057007,17.1875,-16.218567,0,0.0,0.0,0.0,0.0
0.290863037,0.17469476,-0.53529674,-0.8264013,0.116099946,0.8446512,-0.52257544,0.9777538,-0.00465397,0.20970406,0.503618,-0.35225034,-0.7888527,0.1925536,0.9358999,-0.29498228,0.8421948,-0.003338035,0.5391631,9.58638,0.05505371,1.9776001,9.588318,-0.045639038,2.0564575,0.0021209717,0.07455444,-0.0021362305,-24.057007,17.1875,-16.218567,0,0.0,0.0,0.0,0.0
0.295257569,0.17495644,-0.535037,-0.8265142,0.11617097,0.84481597,-0.5222934,0.9776986,-0.004638362,0.20996174,0.4971618,-0.35608244,-0.791224,0.19249532,0.9344485,-0.29958567,0.8460353,-0.003364354,0.5331163,9.643829,-0.03590393,1.9393005,9.587875,-0.04548645,2.0590057,0.0053253174,0.07987976,-0.005340576,-24.057007,17.1875,-16.218567,0,0.0,0.0,0.0,0.0
0.299682617,0.175217,-0.5347782,-0.8266264,0.116277464,0.84497964,-0.5220047,0.9776393,-0.004653929,0.21023746,0.49082416,-0.3598264,-0.79348385,0.19237886,0.93301314,-0.30410013,0.8497541,-0.003389834,0.52716833,9.562439,-0.09336853,1.953659,9.58728,-0.045639038,2.0617065,0.008514404,0.07241821,0.0,-24.057007,17.1875,-16.218567,0,0.0,0.0,0.0,0.0
0.304077149,0.18742144,-0.43674508,-0.87984484,0.0960341,0.8995734,-0.42608124,0.9775739,-0.004638354,0.21054174,0.48460403,-0.3634841,-0.79563695,0.19220835,0.93159413,-0.30852604,0.85335505,-0.0034151159,0.521319,9.60553,-0.08378601,2.0302734,9.58667,-0.04548645,2.0646973,0.003189087,0.0713501,0.0,-26.208496,19.33899,-15.182495,0,0.0,0.0,0.0,0.0
0.308502197,0.18757942,-0.43657193,-0.8798972,0.0960656,0.8996574,-0.42589664,0.97754043,-0.004638409,0.21069673,0.48460403,-0.3634841,-0.79563695,0.19220835,0.93159413,-0.30852604,0.85335505,-0.0034151159,0.521319,9.60553,-0.08378601,2.0302734,9.586227,-0.04548645,2.0661926,0.003189087,0.0713501,0.0,-26.208496,19.33899,-15.182495,0,0.0,0.0,0.0,0.0
0.312896729,0.18765695,-0.4364869,-0.8799227,0.09608101,0.8996987,-0.42580605,0.97752416,-0.0046384055,0.21077283,0.47335976,-0.36642548,-0.8010386,0.1896203,0.9304409,-0.3135662,0.86021775,-0.0034635582,0.509915,9.58638,-0.05984497,2.2744904,9.586075,-0.04548645,2.0669403,-0.008529663,0.041519165,-0.0063934326,-26.208496,19.33899,-15.182495,0,0.0,0.0,0.0,0.0
0.31729126,0.17845538,-0.5139343,-0.83906204,0.11225314,0.8578167,-0.50154734,0.9775239,-0.004683528,0.21077278,0.46882927,-0.36824888,-0.8028648,0.18922411,0.9297195,-0.31593657,0.86278236,-0.003801064,0.5055613,9.60553,-0.15083313,2.0733643,9.586075,-0.045928955,2.0669403,0.003189087,0.02128601,0.007446289,-23.519897,19.158936,-16.737366,0,0.0,0.0,0.0,0.0
0.321716309,0.1784741,-0.51391715,-0.8390687,0.11227709,0.8578271,-0.5015245,0.9775178,-0.004699059,0.21080102,0.4631019,-0.37127113,-0.8047946,0.18873468,0.9285167,-0.31974372,0.8659768,-0.0038187134,0.50006956,9.600739,-0.09336853,2.1308289,9.586075,-0.046081543,2.0672302,0.0053253174,0.007446289,-0.004272461,-23.519897,19.158936,-16.737366,0,0.0,0.0,0.0,0.0
0.32611084,0.17852329,-0.51387185,-0.83908594,0.11222435,0.8578545,-0.5014893,0.9775148,-0.0046383613,0.21081592,0.45747924,-0.3742288,-0.8066384,0.18821372,0.9273285,-0.3234772,0.8690733,-0.0038363205,0.4946685,9.706085,0.10772705,2.1404114,9.586075,-0.04548645,2.0673828,-0.009597778,-0.010650635,0.0010528564,-23.519897,19.158936,-16.737366,0,0.0,0.0,0.0,0.0
0.330535889,0.18510129,-0.458709,-0.86909354,0.100690246,0.8885743,-0.4475458,0.97754747,-0.004667932,0.21066378,0.4519605,-0.3771226,-0.8083998,0.1876619,0.9261553,-0.32713807,0.87207496,-0.003852361,0.4893572,9.619888,-0.13166809,2.0829468,9.58638,-0.045776367,2.0658875,-0.0063934326,-0.018112183,-0.0021362305,-23.878479,18.800354,-15.008545,0,0.0,0.0,0.0,0.0
0.33493042,0.18493389,-0.45887864,-0.86903965,0.10064925,0.8884866,-0.4477288,0.9775832,-0.004667962,0.21049707,0.44677675,-0.3787864,-0.81050074,0.18651806,0.925476,-0.3297046,0.8749866,-0.0038686725,0.48413163,9.648621,0.007171631,2.1260376,9.58667,-0.045776367,2.0642395,-0.007461548,-0.03515625,-0.0010681152,-23.878479,18.800354,-15.008545,0,0.0,0.0,0.0,0.0
0.339324951,0.18488036,-0.45893285,-0.86902237,0.1005865,0.88845897,-0.44779807,0.9776,-0.0046228436,0.21042107,0.441683,-0.38041928,-0.8125252,0.18537374,0.92480594,-0.33222058,0.8778113,-0.0038846582,0.4789908,9.610321,-0.011962891,2.2553253,9.5868225,-0.045333862,2.0634918,0.0010528564,-0.040481567,0.0021209717,-23.878479,18.800354,-15.008545,0,0.0,0.0,0.0,0.0
0.34375,0.18216746,-0.48061132,-0.85780406,0.104993716,0.87692165,-0.46902558,0.97764593,-0.0046228403,0.21020775,0.43668047,-0.38201946,-0.8144761,0.18422855,0.92414606,-0.33468482,0.8805509,-0.003899422,0.47393543,9.715668,-0.05027771,2.0733643,9.58728,-0.045333862,2.0614014,0.019165039,-0.03302002,-0.0032043457,-24.595642,18.08319,-15.354919,0,0.0,0.0,0.0,0.0
0.348144531,0.18198222,-0.48080465,-0.857735,0.10494517,0.87681556,-0.4692345,0.9776856,-0.0046228142,0.21002297,0.43167567,-0.38404006,-0.816192,0.18329474,0.92330813,-0.3374983,0.8832095,-0.0039138906,0.46896216,9.619888,0.007171631,2.1643524,9.587723,-0.045333862,2.0596008,-0.0063934326,-0.046875,-0.0010681152,-24.595642,18.08319,-15.354919,0,0.0,0.0,0.0,0.0
0.35256958,0.18170114,-0.48109794,-0.85763013,0.10492175,0.8766544,-0.46954066,0.9777403,-0.004667984,0.20976675,0.4267597,-0.38602254,-0.8178403,0.18235423,0.922481,-0.3402584,0.8857896,-0.0039280686,0.46407056,9.557648,0.04548645,2.15477,9.588165,-0.045776367,2.0570679,-0.0053253174,-0.04901123,0.0010528564,-24.595642,18.08319,-15.354919,0,0.0,0.0,0.0,0.0
0.356964112,0.18238755,-0.4730042,-0.8619756,0.103167266,0.8810476,-0.46164042,0.97779924,-0.0047302074,0.20949063,0.42192942,-0.38796982,-0.81942356,0.18140925,0.92166364,-0.34296766,0.88829404,-0.003942867,0.45925835,9.485825,-0.10772705,2.3032074,9.588776,-0.04638672,2.054367,-0.0063934326,-0.0703125,0.015960693,-25.671387,18.08319,-15.354919,0,0.0,0.0,0.0,0.0
0.361358643,0.18201101,-0.47341475,-0.8618297,0.10309173,0.88082683,-0.46207806,0.9778773,-0.00474422,0.20912535,0.4172176,-0.38970685,-0.8210103,0.18038127,0.92093045,-0.34547025,0.89072555,-0.0039586136,0.45452425,9.509766,-0.07421875,2.1499786,9.589523,-0.046524048,2.0507813,0.0021209717,-0.08628845,0.0095825195,-25.671387,18.08319,-15.354919,0,0.0,0.0,0.0,0.0
0.365783692,0.18150902,-0.47396198,-0.86163485,0.10298694,0.8805325,-0.4626622,0.9779817,-0.004759773,0.20863646,0.41258588,-0.39141634,-0.8225364,0.17935379,0.9202051,-0.34792927,0.8930874,-0.003974326,0.4498656,9.610321,-0.11251831,2.1835022,9.590561,-0.046676636,2.04599,-0.0063934326,-0.09161377,-0.0021362305,-25.671387,18.08319,-15.354919,0,0.0,0.0,0.0,0.0
0.370178223,0.18068226,-0.47699204,-0.86013514,0.103391185,0.8788946,-0.46567655,0.9780922,-0.004790908,0.20811743,0.40803027,-0.39310178,-0.8240038,0.17832789,0.9194863,-0.35034856,0.8953828,-0.0039900346,0.44527927,9.600739,-0.04069519,1.9009857,9.591614,-0.04698181,2.0408936,0.0010528564,-0.1257019,-0.0032043457,-25.312805,20.593262,-16.737366,0,0.0,0.0,0.0,0.0
0.374603272,0.18021832,-0.47743958,-0.8599842,0.103277534,0.87865144,-0.46616027,0.9781897,-0.00480642,0.20765787,0.4035393,-0.39481553,-0.8253949,0.17732699,0.91875166,-0.35277545,0.8976142,-0.0040060524,0.44076383,9.710876,-0.09815979,2.0350647,9.592667,-0.0471344,2.0364075,-0.012771606,-0.104400635,0.0053253174,-25.312805,20.593262,-16.737366,0,0.0,0.0,0.0,0.0
0.378997803,0.17979573,-0.477847,-0.85984635,0.103157766,0.8784299,-0.46660402,0.97828007,-0.0048064203,0.20723157,0.3991235,-0.396503,-0.82673204,0.17632712,0.9180246,-0.3551613,0.8997829,-0.00402206,0.43631938,9.581589,-0.05984497,1.8818359,9.593552,-0.0471344,2.0322266,0.003189087,-0.10333252,-0.0021362305,-25.312805,20.593262,-16.737366,0,0.0,0.0,0.0,0.0
0.383422852,0.18147835,-0.4614531,-0.8684046,0.099662334,0.8871518,-0.45058763,0.9783318,-0.004775326,0.20698835,0.39004713,-0.39819342,-0.8302441,0.17320678,0.917293,-0.35857072,0.9043576,-0.003944422,0.42675728,9.701294,0.01675415,1.8866272,9.594009,-0.046829224,2.029831,0.0010528564,-0.08735657,-0.0010681152,-25.671387,18.800354,-15.354919,0,0.0,0.0,0.0,0.0
0.387817383,0.18123806,-0.46171054,-0.86831796,0.09958802,0.88701785,-0.4508675,0.97838384,-0.004759724,0.20674223,0.38593695,-0.39947885,-0.83154637,0.1720932,0.91673386,-0.3605315,0.90633136,-0.00396104,0.422549,9.653412,-0.05027771,1.8243713,9.5946045,-0.046676636,2.0274353,-0.004272461,-0.040481567,-0.0021362305,-25.671387,18.800354,-15.354919,0,0.0,0.0,0.0,0.0
0.392211914,0.18112415,-0.4618325,-0.86827695,0.09954379,0.88695455,-0.451002,0.97840947,-0.004744213,0.20662144,0.38189945,-0.40074307,-0.8328011,0.17098756,0.9161818,-0.36245564,0.90824884,-0.0039770138,0.41841143,9.648621,0.002380371,1.7046661,9.594757,-0.046524048,2.0262299,-0.02130127,-0.03515625,-0.008529663,-25.671387,18.800354,-15.354919,0,0.0,0.0,0.0,0.0
0.396636963,0.17896537,-0.48037094,-0.8586124,0.10328072,0.87705284,-0.4691605,0.9784194,-0.0047146217,0.20657513,0.37793648,-0.40198383,-0.83401024,0.16989009,0.915638,-0.3643409,0.91011065,-0.0039923578,0.41434607,9.634262,0.04069519,1.8866272,9.59491,-0.04623413,2.0257874,-0.011703491,0.0010681152,0.0,-24.595642,19.517517,-16.046143,0,0.0,0.0,0.0,0.0
0.401031494,0.17892945,-0.48040614,-0.85860014,0.10321844,0.8770337,-0.46920976,0.97843254,-0.004667931,0.20651393,0.37397733,-0.40358368,-0.8350217,0.16895758,0.9149339,-0.36653674,0.9119179,-0.004006803,0.4103531,9.595947,0.04069519,1.8866272,9.595062,-0.045776367,2.0251923,-0.007461548,-0.008529663,-0.0010681152,-24.595642,19.517517,-16.046143,0,0.0,0.0,0.0,0.0
0.405456543,0.17895234,-0.48038372,-0.85860795,0.103242345,0.877046,-0.4691817,0.9784258,-0.0046835328,0.20654535,0.3700938,-0.40515107,-0.8359923,0.16802672,0.9142409,-0.36868763,0.91367257,-0.004020026,0.40643108,9.60553,-0.06942749,2.087738,9.59491,-0.045928955,2.0254822,0.0053253174,0.010650635,-0.005340576,-24.595642,19.517517,-16.046143,0,0.0,0.0,0.0,0.0
0.409851074,0.18376257,-0.43675488,-0.88061136,0.09431381,0.8995683,-0.42647588,0.97843564,-0.0046835053,0.20649903,0.36628604,-0.40668547,-0.83692384,0.16709937,0.9135594,-0.37079257,0.9153756,-0.0040332964,0.40258092,9.634262,-0.05027771,1.9393005,9.595062,-0.045928955,2.0250397,0.0010528564,0.012771606,0.010650635,-25.132751,19.33899,-14.836121,0,0.0,0.0,0.0,0.0
0.414245606,0.18377018,-0.43674684,-0.8806138,0.09433234,0.8995722,-0.42646372,0.9784324,-0.0046990495,0.2065139,0.36271438,-0.40729132,-0.8381838,0.1658193,0.91328937,-0.37203032,0.917029,-0.0040463004,0.39879996,9.667786,-0.07899475,2.0829468,9.595062,-0.046081543,2.0251923,-0.0021362305,0.0010681152,-0.0010681152,-25.132751,19.33899,-14.836121,0,0.0,0.0,0.0,0.0
0.418670655,0.18388654,-0.43662378,-0.8806505,0.094340414,0.899632,-0.42633575,0.97840977,-0.004683531,0.2066215,0.3592101,-0.40788472,-0.8394034,0.1645579,0.9130244,-0.37323868,0.9186342,-0.0040593552,0.39508826,9.643829,-0.09815979,2.0207062,9.594757,-0.045928955,2.0262299,0.010650635,0.0010681152,-0.005340576,-25.132751,19.33899,-14.836121,0,0.0,0.0,0.0,0.0
0.423065186,0.18528707,-0.4244516,-0.8862897,0.09193651,0.90543836,-0.4144019,0.97837436,-0.00469907,0.20678864,0.35577434,-0.4084636,-0.84058434,0.1633144,0.9127655,-0.3744162,0.9201918,-0.004071839,0.39144656,9.725235,-0.07899475,2.2122345,9.594452,-0.046081543,2.0278778,-0.017028809,0.027679443,-0.010665894,-24.595642,19.158936,-14.317322,0,0.0,0.0,0.0,0.0
0.427490235,0.18531463,-0.4244224,-0.886298,0.091990806,0.90545195,-0.41436046,0.97836405,-0.0047442187,0.20683642,0.35245004,-0.40878466,-0.8418278,0.16199565,0.91262174,-0.3753385,0.921703,-0.004084384,0.38787487,9.62468,-0.04548645,1.8243713,9.594299,-0.046524048,2.0283356,0.01171875,0.023422241,0.0010528564,-24.595642,19.158936,-14.317322,0,0.0,0.0,0.0,0.0
0.431884766,0.18539399,-0.42433822,-0.8863217,0.09192424,0.9054917,-0.4142881,0.97835517,-0.004667933,0.20687968,0.34918848,-0.40909863,-0.8430336,0.16069956,0.91248095,-0.3762368,0.9231701,-0.0040975804,0.38436982,9.591171,-0.026321411,1.8435211,9.594299,-0.045776367,2.028778,-0.0010681152,0.031936646,0.008514404,-24.595642,19.158936,-14.317322,0,0.0,0.0,0.0,0.0
0.436279297,0.18034507,-0.4718394,-0.863043,0.10169396,0.88167214,-0.46077386,0.9783323,-0.0046679648,0.20698844,0.34598985,-0.40940458,-0.84420305,0.15942346,0.9123436,-0.37711158,0.9245946,-0.0041089877,0.38093036,9.677353,0.007171631,1.905777,9.594009,-0.045776367,2.029831,-0.0032043457,0.026611328,-0.014923096,-26.38855,17.366028,-15.008545,0,0.0,0.0,0.0,0.0
0.440704346,0.18049571,-0.47166538,-0.86310667,0.10179706,0.88176495,-0.46057352,0.9782938,-0.0047301687,0.20716894,0.34268498,-0.41067374,-0.84493434,0.15853387,0.9117731,-0.37886265,0.9259774,-0.0041201673,0.37755665,9.58638,-0.02154541,2.0829468,9.593704,-0.04638672,2.0316162,0.008514404,0.039398193,0.004257202,-26.38855,17.366028,-15.008545,0,0.0,0.0,0.0,0.0
0.445098877,0.18070735,-0.4714209,-0.8631959,0.10182758,0.88189566,-0.46031624,0.97825146,-0.004714622,0.20736869,0.33944803,-0.41191313,-0.84563744,0.15765248,0.9112138,-0.3805722,0.9273191,-0.0041323677,0.37424883,9.600739,-0.10772705,2.0781555,9.593262,-0.04623413,2.0335693,0.007446289,0.039398193,0.018081665,-26.38855,17.366028,-15.008545,0,0.0,0.0,0.0,0.0
0.449523926,0.17897186,-0.4871015,-0.8548106,0.105119914,0.8733325,-0.47564694,0.97822225,-0.0047301915,0.20750603,0.3362791,-0.4131219,-0.84631354,0.15677802,0.91066635,-0.38224012,0.928621,-0.004144013,0.37100646,9.658203,-0.04548645,2.039856,9.592957,-0.04638672,2.034912,0.007446289,0.04258728,-0.008529663,-23.519897,19.517517,-16.046143,0,0.0,0.0,0.0,0.0
0.453918457,0.17907774,-0.4870022,-0.854845,0.10518496,0.8733877,-0.4755312,0.9781959,-0.004759771,0.20762964,0.33495724,-0.41420376,-0.84630895,0.15702032,0.9101731,-0.38331392,0.9290577,-0.004493927,0.3699075,9.490601,-0.01675415,2.015915,9.592667,-0.046676636,2.0361176,-0.008529663,0.034072876,0.0021209717,-23.519897,19.517517,-16.046143,0,0.0,0.0,0.0,0.0
0.458312989,0.17935368,-0.48674342,-0.85493463,0.10525047,0.8735321,-0.47525147,0.97813827,-0.0047441577,0.20790116,0.33182535,-0.4156884,-0.84681463,0.15626417,0.90949595,-0.3852254,0.9303082,-0.0044992436,0.36675102,9.600739,-0.08857727,2.2792664,9.592209,-0.046524048,2.038803,0.0021209717,0.026611328,0.010650635,-23.519897,19.517517,-16.046143,0,0.0,0.0,0.0,0.0
0.462738037,0.18004784,-0.4822608,-0.8573257,0.104366034,0.87601507,-0.4708559,0.97810555,-0.004699094,0.20805627,0.32876134,-0.41713688,-0.8472974,0.15551181,0.9088325,-0.38709113,0.9315214,-0.004504142,0.36365873,9.528915,0.01675415,2.0781555,9.591766,-0.046081543,2.0402985,0.007446289,0.043655396,-0.007461548,-24.057007,18.621826,-15.527344,0,0.0,0.0,0.0,0.0
0.467132569,0.1801668,-0.48214206,-0.85736746,0.104466915,0.8760801,-0.4707125,0.9780729,-0.0047597704,0.20820844,0.32577717,-0.4184623,-0.84779626,0.15473086,0.90822303,-0.38883078,0.9326991,-0.004508041,0.36062735,9.658203,-0.17477417,2.13562,9.591461,-0.046676636,2.0417938,0.004257202,0.03514099,-0.004272461,-24.057007,18.621826,-15.527344,0,0.0,0.0,0.0,0.0
0.471557617,0.180319,-0.48199007,-0.8574209,0.104476236,0.87616396,-0.4705545,0.9780439,-0.0047302092,0.20834549,0.32285488,-0.41975784,-0.84827363,0.15395717,0.9076249,-0.39053068,0.93384254,-0.0045130756,0.35765585,9.5767975,-0.03590393,1.9967499,9.591171,-0.04638672,2.0431366,0.003189087,0.028747559,0.0021209717,-24.057007,18.621826,-15.527344,0,0.0,0.0,0.0,0.0
0.475952149,0.18425561,-0.44933245,-0.8741569,0.0978864,0.8933519,-0.43856645,0.9779918,-0.0047597466,0.20858863,0.31999367,-0.42102355,-0.84873044,0.15318915,0.9070385,-0.39219168,0.93495303,-0.004517418,0.35474283,9.533707,-0.011962891,2.1068878,9.5907135,-0.046676636,2.0455322,0.0010528564,0.037261963,-0.007461548,-24.595642,18.441772,-14.663696,0,0.0,0.0,0.0,0.0
0.480682373,0.18441047,-0.44916734,-0.87420905,0.09788859,0.8934351,-0.4383965,0.97796243,-0.004730184,0.20872715,0.31730583,-0.42159387,-0.849456,0.15219587,0.90677345,-0.39318988,0.9360306,-0.0045222645,0.35188934,9.562439,-0.04069519,2.0590057,9.590424,-0.04638672,2.0468903,0.0063934326,0.050048828,0.0095825195,-24.595642,18.441772,-14.663696,0,0.0,0.0,0.0,0.0
0.48538208,0.1846041,-0.44896093,-0.87427425,0.097914696,0.89353895,-0.438179,0.9779233,-0.0047146603,0.20891081,0.31730583,-0.42159387,-0.849456,0.15219587,0.90677345,-0.39318988,0.9360306,-0.0045222645,0.35188934,9.562439,-0.04069519,2.0590057,9.589966,-0.04623413,2.0486755,0.0063934326,0.050048828,0.0095825195,-24.595642,18.441772,-14.663696,0,0.0,0.0,0.0,0.0
0.490112305,0.17874534,-0.49927995,-0.84780276,0.10835679,0.8664276,-0.48740306,0.9779104,-0.004744162,0.2089703,0.31210008,-0.42268524,-0.8508412,0.15025352,0.90626526,-0.39510402,0.93809247,-0.0045298836,0.3463554,9.615112,-0.09815979,1.9201355,9.589966,-0.046524048,2.049286,-0.0053253174,0.04046631,-0.007461548,-24.595642,18.441772,-16.046143,0,0.0,0.0,0.0,0.0
0.494812012,0.1787471,-0.49927822,-0.8478035,0.10832398,0.866429,-0.48740837,0.97791386,-0.004714615,0.20895547,0.30940285,-0.42424995,-0.8510475,0.14965989,0.9055338,-0.39700186,0.9390803,-0.0045341696,0.34366795,9.619888,0.007171631,2.0111237,9.589966,-0.04623413,2.0491333,-0.0063934326,0.026611328,0.0010528564,-24.595642,18.441772,-16.046143,0,0.0,0.0,0.0,0.0
0.499542237,0.17877367,-0.4992516,-0.8478135,0.10831435,0.86644435,-0.4873831,0.97791004,-0.004699112,0.20897356,0.30676,-0.4257821,-0.8512391,0.14906773,0.9048143,-0.39886063,0.940041,-0.0045377784,0.34103122,9.639053,0.007171631,2.1212616,9.589813,-0.046081543,2.049286,0.0,0.015960693,-0.0138549805,-24.595642,18.441772,-16.046143,0,0.0,0.0,0.0,0.0
0.504241944,0.17887107,-0.49915385,-0.84785056,0.108325556,0.86650074,-0.4872803,0.97789097,-0.0046835346,0.20906304,0.30417103,-0.42728192,-0.8514166,0.14847772,0.9041071,-0.40068045,0.9409752,-0.0045410045,0.338445,9.639053,-0.01675415,2.2744904,9.589661,-0.045928955,2.050171,-0.008529663,0.01914978,0.0010528564,-24.595642,18.441772,-16.046143,0,0.0,0.0,0.0,0.0
0.508972168,0.17885777,-0.49916717,-0.8478455,0.10832165,0.8664931,-0.48729485,0.9778939,-0.0046835486,0.20904966,0.30163625,-0.42874855,-0.85158104,0.14789025,0.90341246,-0.4024605,0.94188327,-0.0045438553,0.3359097,9.648621,-0.04548645,2.0494232,9.589661,-0.045928955,2.0500336,-0.0063934326,-0.008529663,0.004257202,-24.595642,18.441772,-16.046143,0,0.0,0.0,0.0,0.0
0.513671875,0.17873672,-0.49928865,-0.8477995,0.108252466,0.86642313,-0.4874343,0.9779236,-0.004653978,0.20891087,0.2991525,-0.43018502,-0.85173273,0.14730589,0.90272933,-0.40420392,0.9427666,-0.004546649,0.3334225,9.60553,0.007171631,2.0733643,9.589966,-0.045639038,2.0486755,0.0095825195,-0.012786865,0.0021209717,-24.595642,18.441772,-16.046143,0,0.0,0.0,0.0,0.0
0.5184021,0.18774518,-0.4177804,-0.8889383,0.09132538,0.9085362,-0.4077029,0.97796285,-0.004638383,0.20872724,0.29501557,-0.4314716,-0.85252464,0.14568052,0.902116,-0.40615767,0.9443215,-0.004373393,0.32899526,9.634262,-0.03590393,1.9776001,9.590424,-0.04548645,2.0468903,-0.0010681152,-0.031967163,-0.0032043457,-24.77417,19.69757,-14.489746,0,0.0,0.0,0.0,0.0
0.523132324,0.18772295,-0.41780376,-0.888932,0.09133785,0.90852535,-0.4077242,0.97796595,-0.0046539577,0.20871234,0.29292548,-0.4311987,-0.8533829,0.14458087,0.90224636,-0.40626085,0.9451408,-0.004378693,0.32663402,9.648621,-0.08857727,2.0111237,9.590424,-0.045639038,2.0467377,0.004257202,-0.036224365,-0.0032043457,-24.77417,19.69757,-14.489746,0,0.0,0.0,0.0,0.0
0.527832031,0.18770781,-0.41781965,-0.8889277,0.09133495,0.908518,-0.40774113,0.97796917,-0.004653973,0.20869747,0.29087433,-0.43093172,-0.8542189,0.14350387,0.9023739,-0.40635946,0.94593805,-0.004384198,0.32431778,9.758759,-0.04069519,2.0590057,9.590424,-0.045639038,2.046585,-0.012771606,-0.015975952,0.0,-24.77417,19.69757,-14.489746,0,0.0,0.0,0.0,0.0
0.532562256,0.18290487,-0.46237543,-0.8676143,0.10051314,0.88667196,-0.45134223,0.977979,-0.004653953,0.20865145,0.2888617,-0.43067032,-0.8550333,0.14244881,0.9024986,-0.40645364,0.9467139,-0.004389594,0.32204577,9.552856,-0.05984497,1.9201355,9.590561,-0.045639038,2.0461426,-0.0021362305,-0.018112183,-0.0063934326,-25.849915,18.263245,-15.182495,0,0.0,0.0,0.0,0.0
0.536956787,0.18284382,-0.46244273,-0.8675914,0.100464895,0.886637,-0.45142156,0.9779953,-0.004622837,0.20857537,0.28674573,-0.43130988,-0.8554231,0.14169946,0.9021932,-0.40739265,0.94746935,-0.004394881,0.31981638,9.5767975,0.05027771,1.8387451,9.5907135,-0.045333862,2.045395,-0.0021362305,-0.015975952,-0.004272461,-25.849915,18.263245,-15.182495,0,0.0,0.0,0.0,0.0
0.541320801,0.18289079,-0.46239102,-0.86760914,0.10047565,0.88666415,-0.4513662,0.97798544,-0.004622864,0.20862171,0.28467038,-0.43193778,-0.8557994,0.14096074,0.9018927,-0.4083132,0.94820505,-0.0043994403,0.3176284,9.615112,-0.05984497,2.173935,9.590561,-0.045333862,2.0458374,-0.0053253174,0.0053253174,-0.012786865,-25.849915,18.263245,-15.182495,0,0.0,0.0,0.0,0.0
0.545715332,0.18632783,-0.43086162,-0.8829724,0.09394006,0.9024064,-0.4205212,0.9779863,-0.004591675,0.20861857,0.2826373,-0.43255186,-0.85616297,0.14023346,0.9015983,-0.40921277,0.9489208,-0.0044039083,0.31548354,9.667786,-0.06463623,2.063797,9.5907135,-0.045028687,2.0458374,0.008514404,-0.0032043457,-0.0021362305,-24.77417,18.980408,-14.489746,0,0.0,0.0,0.0,0.0
0.550109864,0.18632044,-0.4308695,-0.8829701,0.09395541,0.9024025,-0.420526,0.9779862,-0.004607234,0.20861855,0.2826373,-0.43255186,-0.85616297,0.14023346,0.9015983,-0.40921277,0.9489208,-0.0044039083,0.31548354,9.667786,-0.06463623,2.063797,9.5907135,-0.045181274,2.0458374,0.008514404,-0.0032043457,-0.0021362305,-24.77417,18.980408,-14.489746,0,0.0,0.0,0.0,0.0
0.554504395,0.18629016,-0.43090177,-0.8829607,0.09394931,0.9023871,-0.42056045,0.9779926,-0.0046072644,0.2085888,0.2788848,-0.43248528,-0.8574263,0.13842286,0.9016302,-0.40975857,0.950296,-0.00441196,0.31131682,9.672562,-0.05984497,1.9823914,9.5907135,-0.045181274,2.0455322,0.0,0.007446289,0.004257202,-24.77417,18.980408,-14.489746,0,0.0,0.0,0.0,0.0
0.558898926,0.17822215,-0.5012183,-0.8467685,0.10850861,0.86530817,-0.4893541,0.9779891,-0.004667931,0.2086036,0.27706194,-0.4324536,-0.85803294,0.13754381,0.9016453,-0.41002113,0.9509565,-0.004415866,0.30929294,9.60553,-0.007171631,1.9105682,9.5907135,-0.045776367,2.0456848,0.0063934326,0.0053253174,0.0010528564,-24.057007,18.263245,-15.873718,0,0.0,0.0,0.0,0.0
0.56326294,0.17818731,-0.5012529,-0.84675545,0.108482316,0.8652883,-0.48939523,0.9779984,-0.004653971,0.20856047,0.27706194,-0.4324536,-0.85803294,0.13754381,0.9016453,-0.41002113,0.9509565,-0.004415866,0.30929294,9.60553,-0.007171631,1.9105682,9.5907135,-0.045639038,2.0452423,0.0063934326,0.0053253174,0.0010528564,-24.057007,18.263245,-15.873718,0,0.0,0.0,0.0,0.0
0.567657471,0.17815746,-0.50128245,-0.8467443,0.108438104,0.8652715,-0.48943508,0.9780088,-0.0046228273,0.2085127,0.27309006,-0.43523064,-0.85790217,0.1366988,0.90030813,-0.41322964,0.9522265,-0.004425295,0.3053607,9.634262,0.05027771,1.9440765,9.590866,-0.045333862,2.0447845,0.0,0.012771606,0.011703491,-24.057007,18.263245,-15.873718,0,0.0,0.0,0.0,0.0
0.572052002,0.17733136,-0.5076887,-0.84309304,0.10972956,0.8615282,-0.49571002,0.97801477,-0.0046072956,0.2084844,0.27116406,-0.43657678,-0.85782915,0.13627905,0.8996561,-0.41478544,0.9528369,-0.004429246,0.30345064,9.715668,-0.002380371,1.9728088,9.590866,-0.045181274,2.0444946,-0.0063934326,0.020217896,0.0010528564,-24.415588,18.980408,-16.564941,0,0.0,0.0,0.0,0.0
0.576446533,0.17742077,-0.5076025,-0.8431261,0.109757915,0.8615791,-0.49561554,0.97799546,-0.004607278,0.2085754,0.26925674,-0.43802842,-0.85768986,0.13590129,0.8989502,-0.41643655,0.95343155,-0.0044328067,0.301577,9.533707,-0.03111267,1.9680328,9.5907135,-0.045181274,2.045395,-0.009597778,0.022354126,-0.0021362305,-24.415588,18.980408,-16.564941,0,0.0,0.0,0.0,0.0
0.580841065,0.17744271,-0.5075813,-0.84313416,0.109747194,0.8615915,-0.495596,0.9779926,-0.0045917043,0.2085888,0.26739037,-0.43944815,-0.85754746,0.13552521,0.898257,-0.41805175,0.9540101,-0.0044362964,0.29974157,9.610321,0.011962891,2.1020966,9.5907135,-0.045028687,2.0455322,-0.0053253174,0.027679443,0.0010528564,-24.415588,18.980408,-16.564941,0,0.0,0.0,0.0,0.0
0.585205078,0.18557371,-0.43926248,-0.8789829,0.09565511,0.89834744,-0.4287447,0.97796345,-0.0045154635,0.20872736,0.26631922,-0.440766,-0.85720444,0.13497436,0.89761335,-0.41960955,0.9543877,-0.0039505223,0.2985438,9.677353,0.04548645,2.087738,9.590424,-0.044281006,2.0468903,0.0010528564,0.0095825195,-0.007461548,-24.954224,18.800354,-14.663696,0,0.0,0.0,0.0,0.0
0.58959961,0.18555106,-0.43928686,-0.8789756,0.09570117,0.8983353,-0.42875984,0.97796315,-0.0045621414,0.2087273,0.26472592,-0.44073597,-0.8577132,0.13419539,0.89762807,-0.41982794,0.9549407,-0.003961821,0.29677016,9.533707,-0.14125061,2.039856,9.590424,-0.04473877,2.0468903,-0.0032043457,0.03086853,-0.009597778,-24.954224,18.800354,-14.663696,0,0.0,0.0,0.0,0.0
0.593994141,0.1856434,-0.4391876,-0.87900555,0.09572054,0.8983838,-0.42865387,0.97794384,-0.0045621237,0.2088183,0.26316312,-0.440707,-0.8582089,0.1334326,0.89764225,-0.42004067,0.95547944,-0.0039738277,0.295031,9.643829,0.026321411,2.1020966,9.590271,-0.04473877,2.0477905,-0.007461548,0.012771606,0.004257202,-24.954224,18.800354,-14.663696,0,0.0,0.0,0.0,0.0
0.598388672,0.18228997,-0.4695905,-0.8638606,0.10202703,0.8828725,-0.45839575,0.97793704,-0.0045761685,0.20884974,0.26163253,-0.44067663,-0.85869235,0.13268495,0.8976571,-0.4202457,0.9560037,-0.003985593,0.29332748,9.648621,-0.07421875,2.111679,9.590118,-0.0448761,2.0480804,-0.019165039,0.020217896,0.003189087,-26.38855,17.366028,-15.008545,0,0.0,0.0,0.0,0.0
0.602783203,0.18228997,-0.4695905,-0.8638606,0.10202703,0.8828725,-0.45839575,0.97793704,-0.0045761685,0.20884974,0.26004207,-0.4412596,-0.8588761,0.13213006,0.89737064,-0.42103165,0.9565144,-0.0039974046,0.29165778,9.658203,-0.05984497,2.0973206,9.590118,-0.0448761,2.0480804,-0.0010681152,0.003189087,-0.01171875,-26.38855,17.366028,-15.008545,0,0.0,0.0,0.0,0.0
0.607177735,0.18227346,-0.4696096,-0.8638537,0.10205785,0.8828622,-0.45840874,0.9779369,-0.0046072877,0.20884971,0.25848344,-0.4418307,-0.85905296,0.13158393,0.8970895,-0.421801,0.957012,-0.0040089795,0.2900206,9.706085,-0.13166809,2.063797,9.590118,-0.045181274,2.0480804,-0.009597778,0.007446289,-0.0032043457,-26.38855,17.366028,-15.008545,0,0.0,0.0,0.0,0.0
0.611541748,0.1801889,-0.4868346,-0.854707,0.10560386,0.873482,-0.47526532,0.97794676,-0.0046228208,0.20880337,0.2569557,-0.4423906,-0.8592231,0.13104713,0.89681345,-0.42255446,0.95749694,-0.0040209456,0.28841537,9.528915,-0.05984497,1.9153595,9.590271,-0.045333862,2.047638,0.0053253174,-0.008529663,-0.004272461,-23.339844,18.621826,-15.527344,0,0.0,0.0,0.0,0.0
0.61593628,0.18019727,-0.4868264,-0.8547098,0.10558886,0.87348646,-0.47526008,0.97794676,-0.0046072607,0.20880337,0.25540635,-0.4432908,-0.8592211,0.13061896,0.8963688,-0.4236292,0.9579699,-0.004032983,0.28684047,9.634262,-0.026321411,2.0302734,9.590271,-0.045181274,2.047638,-0.0032043457,-0.009597778,0.0021209717,-23.339844,18.621826,-15.527344,0,0.0,0.0,0.0,0.0
0.620330811,0.1800813,-0.48693883,-0.8546703,0.10557249,0.8734238,-0.47537908,0.97796994,-0.0046227905,0.20869465,0.25540635,-0.4432908,-0.8592211,0.13061896,0.8963688,-0.4236292,0.9579699,-0.004032983,0.28684047,9.634262,-0.026321411,2.0302734,9.590561,-0.045333862,2.046585,-0.0032043457,-0.009597778,0.0021209717,-23.339844,18.621826,-15.527344,0,0.0,0.0,0.0,0.0
0.624725342,0.18328398,-0.45960638,-0.86900455,0.099907584,0.8881109,-0.44863972,0.9779701,-0.0045916717,0.20869468,0.25239682,-0.44504046,-0.85920596,0.12977797,0.89550126,-0.42571723,0.95888144,-0.004056339,0.28377813,9.682144,0.002380371,2.0685883,9.590561,-0.045028687,2.046585,0.0063934326,-0.022369385,0.0053253174,-24.595642,19.876099,-15.699768,0,0.0,0.0,0.0,0.0
0.629119873,0.18318844,-0.45970106,-0.8689746,0.09979938,0.88806224,-0.44876,0.97799903,-0.004515491,0.2085606,0.2510181,-0.44533294,-0.8594582,0.12920924,0.8953558,-0.42619592,0.95932,-0.0040670456,0.28229165,9.643829,-0.03590393,2.0925293,9.5907135,-0.044281006,2.0452423,0.01171875,0.004257202,-0.0032043457,-24.595642,19.876099,-15.699768,0,0.0,0.0,0.0,0.0
0.633483887,0.18309432,-0.45979422,-0.8689452,0.099775344,0.888014,-0.4488608,0.9780191,-0.00451544,0.20846646,0.24966483,-0.44562143,-0.8597029,0.12864876,0.8952123,-0.4266668,0.95974845,-0.0040760143,0.28083163,9.686935,-0.03590393,2.178711,9.591019,-0.044281006,2.044342,-0.004272461,-0.030899048,-0.019180298,-24.595642,19.876099,-15.699768,0,0.0,0.0,0.0,0.0
0.637878418,0.18132392,-0.47413775,-0.8615771,0.10268065,0.88043904,-0.462908,0.9780482,-0.0045309975,0.20832942,0.2483364,-0.44590595,-0.85994005,0.12809804,0.8950705,-0.4271296,0.96016663,-0.0040848027,0.2793983,9.538498,-0.03111267,1.9680328,9.591309,-0.044433594,2.0429993,0.0021209717,-0.030899048,0.0010528564,-22.981262,20.056152,-15.873718,0,0.0,0.0,0.0,0.0
0.642272949,0.18119606,-0.4742546,-0.86153966,0.10269349,0.88037586,-0.46302527,0.97807056,-0.0045761527,0.2082235,0.2469905,-0.4464751,-0.8600324,0.1276365,0.89478666,-0.4278618,0.96057516,-0.004093726,0.27799034,9.686935,-0.03111267,2.1499786,9.591461,-0.0448761,2.0419464,0.0010528564,-0.026641846,0.0021209717,-22.981262,20.056152,-15.873718,0,0.0,0.0,0.0,0.0
0.646667481,0.18120332,-0.47424793,-0.86154175,0.10268006,0.8803795,-0.46302128,0.9780706,-0.0045621493,0.20822352,0.24566911,-0.4470351,-0.86012,0.12718284,0.89450705,-0.4285811,0.96097416,-0.0041033747,0.27660793,9.610321,-0.03590393,2.0111237,9.591461,-0.04473877,2.0419464,-0.0032043457,-0.028762817,0.010650635,-22.981262,20.056152,-15.873718,0,0.0,0.0,0.0,0.0
0.651062012,0.18315944,-0.45685735,-0.8704791,0.09908612,0.8895283,-0.44600606,0.978077,-0.0045621786,0.20819375,0.24437436,-0.44758356,-0.8602035,0.12673613,0.89423263,-0.42928535,0.96136314,-0.00411255,0.27525255,9.653412,-0.03111267,1.9919739,9.591461,-0.04473877,2.0416412,0.0010528564,-0.015975952,0.004257202,-25.849915,17.904663,-14.836121,0,0.0,0.0,0.0,0.0
0.655456543,0.18315057,-0.45686734,-0.8704758,0.09906704,0.8895233,-0.4460204,0.97808063,-0.004546563,0.20817721,0.24240935,-0.44722766,-0.8609444,0.12528121,0.8944122,-0.42933846,0.96205115,-0.0037845057,0.2728431,9.672562,0.007171631,2.015915,9.591614,-0.04458618,2.041504,-0.007461548,-0.017044067,-0.007461548,-25.849915,17.904663,-14.836121,0,0.0,0.0,0.0,0.0
0.659820557,0.18314263,-0.4568763,-0.8704727,0.099082425,0.8895185,-0.44602627,0.97808045,-0.0045621223,0.20817718,0.24122815,-0.44742095,-0.8611756,0.12477415,0.8943154,-0.42968747,0.96241385,-0.003799747,0.2715606,9.610321,-0.08857727,2.039856,9.591614,-0.04473877,2.041504,-0.0063934326,-0.021316528,-0.005340576,-25.849915,17.904663,-14.836121,0,0.0,0.0,0.0,0.0
0.664215088,0.18461056,-0.4428248,-0.87739676,0.096155114,0.89659655,-0.43228328,0.9780967,-0.0045621255,0.20810108,0.2400703,-0.4476106,-0.8614006,0.12427691,0.8942205,-0.4300291,0.96276766,-0.0038149944,0.27030343,9.552856,-0.05027771,1.8387451,9.591766,-0.04473877,2.0407562,-0.004272461,-0.004272461,0.0053253174,-24.595642,18.800354,-14.663696,0,0.0,0.0,0.0,0.0
0.668609619,0.18466504,-0.44276732,-0.87741435,0.096150115,0.896625,-0.4322253,0.9780868,-0.004546592,0.2081474,0.23897299,-0.44751498,-0.86175525,0.123713054,0.8942682,-0.4300923,0.9631132,-0.0038299372,0.2690694,9.519333,-0.01675415,1.9345093,9.591614,-0.04458618,2.0411987,0.004257202,0.0010681152,0.0,-24.595642,18.800354,-14.663696,0,0.0,0.0,0.0,0.0
0.673004151,0.18467265,-0.44275934,-0.8774168,0.09613483,0.89662904,-0.43222037,0.97808695,-0.004531033,0.20814744,0.23789825,-0.44742015,-0.8621019,0.123160355,0.8943156,-0.43015242,0.9634501,-0.00384427,0.26786056,9.557648,-0.002380371,2.0302734,9.591614,-0.044433594,2.0411987,-0.020233154,0.01914978,-0.005340576,-24.595642,18.800354,-14.663696,0,0.0,0.0,0.0,0.0
0.677398682,0.18529728,-0.4370142,-0.8801611,0.094957925,0.8994432,-0.4265969,0.9780838,-0.0045310184,0.20816234,0.23684463,-0.44732705,-0.86244017,0.122618414,0.8943621,-0.4302105,0.9637787,-0.0038580054,0.26667538,9.615112,-0.04548645,2.0925293,9.591614,-0.044433594,2.0413513,-0.0032043457,0.015960693,-0.007461548,-25.312805,18.800354,-14.663696,0,0.0,0.0,0.0,0.0
0.681762696,0.18531995,-0.43698952,-0.88016856,0.09494561,0.89945525,-0.42657423,0.9780807,-0.004515444,0.20817722,0.2358276,-0.44712138,-0.86282545,0.122057386,0.89446485,-0.43015638,0.9640992,-0.0038714653,0.265514,9.715668,-0.04548645,2.0542145,9.591614,-0.044281006,2.041504,0.004257202,0.010650635,0.0053253174,-25.312805,18.800354,-14.663696,0,0.0,0.0,0.0,0.0
0.686157227,0.18531995,-0.43698952,-0.88016856,0.09494561,0.89945525,-0.42657423,0.9780807,-0.004515444,0.20817722,0.2358276,-0.44712138,-0.86282545,0.122057386,0.89446485,-0.43015638,0.9640992,-0.0038714653,0.265514,9.715668,-0.04548645,2.0542145,9.591614,-0.044281006,2.041504,0.004257202,0.010650635,0.0053253174,-25.312805,18.800354,-14.663696,0,0.0,0.0,0.0,0.0
0.690551758,0.18494442,-0.44046718,-0.8785124,0.09564191,0.89775735,-0.42998165,0.97808397,-0.0044998997,0.20816237,0.23385325,-0.4467213,-0.8635698,0.120969,0.8946647,-0.43004835,0.96471715,-0.0038969673,0.26325968,9.595947,-0.002380371,1.9967499,9.591614,-0.044128418,2.0413513,-0.015975952,0.0095825195,0.0021209717,-24.415588,19.33899,-14.836121,0,0.0,0.0,0.0,0.0
0.694946289,0.18498358,-0.44042692,-0.8785244,0.095701545,0.8977769,-0.4299276,0.9780707,-0.0045465897,0.20822354,0.2328854,-0.4465964,-0.8638959,0.120459154,0.894727,-0.43006188,0.965015,-0.0039090263,0.2621655,9.538498,-0.05027771,2.0254822,9.591461,-0.04458618,2.0419464,0.0010528564,-0.0010681152,-0.0138549805,-24.415588,19.33899,-14.836121,0,0.0,0.0,0.0,0.0
0.699340821,0.18500614,-0.44040376,-0.87853134,0.095689625,0.89778847,-0.4299064,0.97806764,-0.0045310156,0.20823844,0.23193721,-0.4464732,-0.86421454,0.11996072,0.89478844,-0.43007338,0.9653054,-0.0039217775,0.26109397,9.648621,-0.007171631,2.087738,9.591461,-0.044433594,2.042099,-0.014907837,0.018096924,0.006378174,-24.415588,19.33899,-14.836121,0,0.0,0.0,0.0,0.0
0.703735352,0.18174629,-0.4698025,-0.8638599,0.1017451,0.88276,-0.45867512,0.97806764,-0.0045310156,0.20823844,0.231008,-0.446352,-0.864526,0.1194721,0.8948488,-0.43008372,0.96558875,-0.0039339624,0.26004383,9.615112,-0.07899475,2.0350647,9.591461,-0.044433594,2.042099,-0.019165039,0.0095825195,0.0095825195,-25.312805,18.441772,-15.354919,0,0.0,0.0,0.0,0.0
0.708099365,0.18169999,-0.4698518,-0.86384284,0.101768196,0.8827336,-0.4587208,0.97807384,-0.004562164,0.20820864,0.23001844,-0.4468241,-0.86454594,0.119145356,0.8946131,-0.4306643,0.9658653,-0.003945904,0.25901452,9.610321,-0.09336853,1.9680328,9.591461,-0.04473877,2.0417938,0.0053253174,0.01171875,-0.0032043457,-25.312805,18.441772,-15.354919,0,0.0,0.0,0.0,0.0
0.712493897,0.18166836,-0.46988556,-0.86383116,0.10176035,0.8827156,-0.45875707,0.97808045,-0.0045621223,0.20817718,0.2290479,-0.44728768,-0.86456394,0.118824564,0.8943814,-0.43123388,0.9661355,-0.003958229,0.25800493,9.672562,-0.05984497,2.0015411,9.591614,-0.04473877,2.041504,-0.004272461,0.008514404,0.003189087,-25.312805,18.441772,-15.354919,0,0.0,0.0,0.0,0.0
0.716888428,0.18168184,-0.46987113,-0.8638361,0.10176366,0.8827232,-0.45874158,0.9780776,-0.0045621092,0.20819058,0.22809616,-0.44774252,-0.8645801,0.11850899,0.8941537,-0.43179247,0.9663994,-0.003970307,0.25701454,9.528915,-0.05027771,2.039856,9.591614,-0.04473877,2.0416412,-0.012771606,0.012771606,0.0053253174,-25.312805,18.441772,-15.354919,0,0.0,0.0,0.0,0.0
0.721282959,0.18169999,-0.4698518,-0.86384284,0.101768196,0.8827336,-0.4587208,0.97807384,-0.004562164,0.20820864,0.2271624,-0.44870365,-0.86432767,0.11835335,0.8936718,-0.43283165,0.9666384,-0.003973005,0.2561142,9.552856,-0.026321411,2.0973206,9.591461,-0.04473877,2.0417938,0.008514404,0.0010681152,0.0021209717,-25.312805,18.441772,-15.354919,0,0.0,0.0,0.0,0.0
0.72567749,0.18169263,-0.46985957,-0.86384004,0.10178189,0.8827293,-0.45872587,0.9780738,-0.0045761676,0.20820862,0.2262495,-0.44912916,-0.8643461,0.11804483,0.89345795,-0.433357,0.96689016,-0.0039847875,0.2551618,9.581589,-0.08857727,2.0542145,9.591461,-0.0448761,2.0417938,0.003189087,0.003189087,0.0,-25.312805,18.441772,-15.354919,0,0.0,0.0,0.0,0.0
0.730041504,0.18631938,-0.42742684,-0.88464195,0.093042225,0.9040384,-0.41720238,0.9780738,-0.0045761676,0.20820862,0.22535494,-0.44954622,-0.864363,0.11774189,0.89324814,-0.43387166,0.96713597,-0.0039966153,0.2542283,9.600739,-0.05505371,2.0207062,9.591461,-0.0448761,2.0417938,-0.007461548,0.0,-0.005340576,-25.671387,19.158936,-14.663696,0,0.0,0.0,0.0,0.0
0.734436035,0.18634851,-0.4273949,-0.8846512,0.09301582,0.9040535,-0.41717517,0.9780707,-0.0045465897,0.20822354,0.22458978,-0.44910645,-0.8647906,0.117230855,0.8934692,-0.43355462,0.967376,-0.004008206,0.2533132,9.595947,0.03111267,2.0781555,9.591461,-0.04458618,2.0419464,-0.0021362305,0.003189087,-0.0021362305,-25.671387,19.158936,-14.663696,0,0.0,0.0,0.0,0.0
0.738830567,0.1863108,-0.42743626,-0.8846392,0.09302544,0.904034,-0.4172156,0.978077,-0.0045621786,0.20819375,0.22383979,-0.4486748,-0.865209,0.1167301,0.89368606,-0.43324277,0.96761036,-0.004018974,0.25241637,9.581589,-0.08378601,1.9871826,9.591461,-0.04473877,2.0416412,-0.0021362305,-0.0021362305,-0.004272461,-25.671387,19.158936,-14.663696,0,0.0,0.0,0.0,0.0
0.743225098,0.1782056,-0.49892718,-0.8481241,0.10770812,0.8666321,-0.48718354,0.97808063,-0.0045310035,0.20817721,0.22310346,-0.44825247,-0.865618,0.11624025,0.8938979,-0.43293732,0.96783936,-0.0040298384,0.25153673,9.60553,0.02154541,2.0015411,9.591614,-0.044433594,2.041504,0.0010528564,0.004257202,-0.005340576,-24.77417,17.546082,-15.527344,0,0.0,0.0,0.0,0.0
0.747619629,0.17819339,-0.49894005,-0.8481191,0.10766957,0.86662483,-0.48720497,0.9780871,-0.004499914,0.20814747,0.22219408,-0.4492811,-0.8653186,0.11611888,0.89338136,-0.43403482,0.9680631,-0.0040398613,0.25067404,9.60553,0.01675415,2.039856,9.591614,-0.044128418,2.0411987,-0.007461548,0.01171875,-0.009597778,-24.77417,17.546082,-15.527344,0,0.0,0.0,0.0,0.0
0.75201416,0.17820126,-0.49893183,-0.8481223,0.107655995,0.86662966,-0.4871994,0.9780871,-0.0044859103,0.20814747,0.22219408,-0.4492811,-0.8653186,0.11611888,0.89338136,-0.43403482,0.9680631,-0.0040398613,0.25067404,9.60553,0.01675415,2.039856,9.591614,-0.04399109,2.0411987,-0.007461548,0.01171875,-0.009597778,-24.77417,17.546082,-15.527344,0,0.0,0.0,0.0,0.0
0.756378174,0.18552698,-0.4348871,-0.8811657,0.09447348,0.9004738,-0.42452523,0.9780871,-0.0044859103,0.20814747,0.22043039,-0.45127547,-0.86473167,0.11587559,0.89237547,-0.4361638,0.96849537,-0.004057525,0.2489985,9.639053,-0.05505371,2.0494232,9.591614,-0.04399109,2.0411987,0.008514404,-0.015975952,-0.007461548,-25.132751,19.33899,-14.836121,0,0.0,0.0,0.0,0.0
0.760772705,0.18554209,-0.43487108,-0.8811704,0.09447663,0.90048146,-0.42450812,0.97808397,-0.004485896,0.20816237,0.21974297,-0.45094916,-0.8650768,0.11543651,0.89254034,-0.43594277,0.968704,-0.004066093,0.24818547,9.643829,-0.03590393,2.1020966,9.591614,-0.04399109,2.0413513,0.003189087,-0.010650635,-0.01171875,-25.132751,19.33899,-14.836121,0,0.0,0.0,0.0,0.0
0.765167237,0.18536599,-0.4350577,-0.8811153,0.094454885,0.90039134,-0.42470428,0.9781195,-0.0044999197,0.20799527,0.21906924,-0.45062906,-0.8654145,0.11500676,0.89270204,-0.43572536,0.9689077,-0.0040744888,0.24738893,9.672562,-0.10293579,1.9153595,9.591919,-0.044128418,2.0397034,0.0063934326,0.0010681152,-0.0010681152,-25.132751,19.33899,-14.836121,0,0.0,0.0,0.0,0.0
0.769561768,0.18402013,-0.44704112,-0.8753803,0.09692156,0.89450175,-0.43643153,0.97813225,-0.004531034,0.2079343,0.21840498,-0.45031893,-0.8657437,0.11458564,0.89285845,-0.43551573,0.9691075,-0.004082998,0.2466048,9.548065,-0.12210083,1.8818359,9.592056,-0.044433594,2.0391083,-0.0010681152,-0.026641846,-0.0010681152,-24.954224,18.441772,-14.663696,0,0.0,0.0,0.0,0.0
0.773956299,0.18400505,-0.44705752,-0.8753752,0.0969183,0.89449364,-0.43644902,0.97813535,-0.0045310482,0.2079194,0.21772182,-0.45025343,-0.8659498,0.11423151,0.89289147,-0.4355411,0.9693031,-0.004091958,0.24583508,9.591171,-0.03111267,1.9776001,9.592056,-0.044433594,2.0389557,0.0010528564,-0.004272461,0.0053253174,-24.954224,18.441772,-14.663696,0,0.0,0.0,0.0,0.0
0.778320313,0.18400505,-0.44705752,-0.8753752,0.0969183,0.89449364,-0.43644902,0.97813535,-0.0045310482,0.2079194,0.21705177,-0.45018956,-0.8661512,0.11388443,0.8929236,-0.43556607,0.9694941,-0.00410074,0.24508023,9.595947,-0.04069519,2.0685883,9.592056,-0.044433594,2.0389557,-0.0063934326,-0.0063934326,-0.0010681152,-24.954224,18.441772,-14.663696,0,0.0,0.0,0.0,0.0
0.782714844,0.18378614,-0.44901302,-0.8744198,0.097300306,0.89351386,-0.43836716,0.97813874,-0.004515504,0.20790456,0.21639498,-0.45012698,-0.866348,0.113544315,0.89295506,-0.43559027,0.9696808,-0.0041093463,0.24434036,9.634262,-0.026321411,2.0111237,9.592056,-0.044281006,2.038803,-0.0010681152,-0.004272461,-0.005340576,-23.339844,19.33899,-14.836121,0,0.0,0.0,0.0,0.0
0.787109375,0.18383664,-0.44896343,-0.8744346,0.097329676,0.8935386,-0.43830997,0.9781263,-0.0045310063,0.2079626,0.21638961,-0.45069614,-0.86605346,0.11315009,0.8926703,-0.43627623,0.9697281,-0.0035883824,0.24416088,9.5767975,-0.05984497,2.1930847,9.592056,-0.044433594,2.0393982,0.01171875,0.008514404,-0.005340576,-23.339844,19.33899,-14.836121,0,0.0,0.0,0.0,0.0
0.791503906,0.18383664,-0.44896343,-0.8744346,0.097329676,0.8935386,-0.43830997,0.9781263,-0.0045310063,0.2079626,0.21574208,-0.45066148,-0.866233,0.11283379,0.8926877,-0.43632248,0.9699092,-0.0036072347,0.24344014,9.658203,-0.07421875,2.0302734,9.592056,-0.044433594,2.0393982,0.0021209717,0.003189087,-0.009597778,-23.339844,19.33899,-14.836121,0,0.0,0.0,0.0,0.0
0.795898438,0.17902693,-0.4903557,-0.85293645,0.105832435,0.87151045,-0.4788203,0.97813535,-0.0045466083,0.2079194,0.21510728,-0.4506275,-0.8664085,0.11252378,0.8927047,-0.43636763,0.9700862,-0.0036257103,0.2427336,9.653412,-0.07421875,1.953659,9.592056,-0.04458618,2.0389557,-0.010650635,0.01171875,0.0053253174,-24.954224,18.800354,-16.046143,0,0.0,0.0,0.0,0.0
0.800292969,0.17906137,-0.49032092,-0.85294926,0.10585966,0.87153006,-0.4787788,0.97812617,-0.004562125,0.20796257,0.21437882,-0.45143133,-0.8661706,0.112420976,0.89229846,-0.43722424,0.97025937,-0.003644128,0.24204025,9.509766,-0.06942749,2.1212616,9.592056,-0.04473877,2.0393982,-0.0063934326,0.0010681152,-0.008529663,-24.954224,18.800354,-16.046143,0,0.0,0.0,0.0,0.0
0.804656983,0.17904174,-0.4903407,-0.85294193,0.10583664,0.87151897,-0.47880405,0.97813225,-0.0045465934,0.2079343,0.21366586,-0.45221794,-0.8659364,0.11231946,0.8918999,-0.4380626,0.97042835,-0.0036624882,0.24136144,9.672562,-0.03111267,2.0111237,9.592056,-0.04458618,2.0391083,-0.012771606,-0.008529663,0.003189087,-24.954224,18.800354,-16.046143,0,0.0,0.0,0.0,0.0
0.809051514,0.18821818,-0.4059578,-0.8942997,0.08845862,0.91388035,-0.39622885,0.97813535,-0.0045310482,0.2079194,0.21296702,-0.45298892,-0.86570555,0.11221839,0.8915085,-0.43888444,0.97059363,-0.00368017,0.2406956,9.629471,-0.03111267,2.063797,9.592056,-0.044433594,2.0389557,-0.008529663,-0.008529663,-0.004272461,-26.029968,20.23468,-14.663696,0,0.0,0.0,0.0,0.0
0.813446045,0.18821818,-0.4059578,-0.8942997,0.08845862,0.91388035,-0.39622885,0.97813535,-0.0045310482,0.2079194,0.21296702,-0.45298892,-0.86570555,0.11221839,0.8915085,-0.43888444,0.97059363,-0.00368017,0.2406956,9.629471,-0.03111267,2.063797,9.592056,-0.044433594,2.0389557,-0.008529663,-0.008529663,-0.004272461,-26.029968,20.23468,-14.663696,0,0.0,0.0,0.0,0.0
0.817840576,0.18815565,-0.40602556,-0.8942822,0.08844777,0.91385055,-0.39630073,0.9781485,-0.004531037,0.2078582,0.21202883,-0.45114905,-0.8668958,0.1112258,0.89244086,-0.43723917,0.97091323,-0.0037138648,0.2394026,9.615112,-0.04069519,1.8531036,9.592209,-0.044433594,2.0383606,-0.010650635,-0.018112183,-0.005340576,-26.029968,20.23468,-14.663696,0,0.0,0.0,0.0,0.0
0.822235108,0.18401352,-0.44634977,-0.87573445,0.096738815,0.89484704,-0.43576398,0.9781516,-0.0045310515,0.20784332,0.21157123,-0.4502572,-0.86747104,0.110745594,0.8928911,-0.43644118,0.97106797,-0.0037302084,0.23877406,9.686935,-0.06463623,2.015915,9.592209,-0.044433594,2.038208,-0.0032043457,0.0063934326,-0.0032043457,-24.954224,19.158936,-15.008545,0,0.0,0.0,0.0,0.0
0.826599121,0.18396524,-0.44640037,-0.87571883,0.096727885,0.8948218,-0.43581823,0.97816175,-0.0045310264,0.20779549,0.21102329,-0.45017916,-0.867645,0.11046402,0.8929304,-0.43643215,0.97121924,-0.003746225,0.2381577,9.5767975,-0.03111267,1.9249268,9.592361,-0.044433594,2.0377502,-0.0053253174,0.014892578,0.0095825195,-24.954224,19.158936,-15.008545,0,0.0,0.0,0.0,0.0
0.830993653,0.18410207,-0.44625694,-0.8757632,0.0966924,0.89489377,-0.4356786,0.97813964,-0.004470313,0.20790145,0.21048516,-0.45010367,-0.8678149,0.11018794,0.89296836,-0.4364242,0.97136736,-0.003761921,0.23755258,9.662994,-0.01675415,2.0350647,9.592209,-0.0438385,2.038803,0.0063934326,0.014892578,-0.0021362305,-24.954224,19.158936,-15.008545,0,0.0,0.0,0.0,0.0
0.835388184,0.17962193,-0.48554853,-0.8555575,0.10475032,0.8741984,-0.47413564,0.9781428,-0.0044547673,0.20788656,0.20996045,-0.4500268,-0.8679818,0.10991666,0.89300704,-0.43641347,0.9715116,-0.0037760888,0.2369616,9.62468,0.007171631,2.0063324,9.592209,-0.043685913,2.0386505,-0.004272461,0.026611328,-0.012786865,-25.312805,19.517517,-16.390991,0,0.0,0.0,0.0,0.0
0.839782715,0.17961553,-0.48555487,-0.8555552,0.10473111,0.8741949,-0.47414625,0.9781461,-0.0044392226,0.20787169,0.20934857,-0.4507446,-0.86775714,0.10983648,0.89264494,-0.43717387,0.9716528,-0.0037896626,0.23638216,9.672562,-0.026321411,2.0063324,9.592209,-0.043533325,2.038498,0.0053253174,-0.0063934326,-0.007461548,-25.312805,19.517517,-16.390991,0,0.0,0.0,0.0,0.0
0.844177246,0.1797219,-0.4854487,-0.8555931,0.104728095,0.87425405,-0.47403792,0.9781269,-0.0044096424,0.20796272,0.20874894,-0.45144784,-0.86753607,0.10975659,0.89228946,-0.43791905,0.9717908,-0.0038026539,0.23581384,9.581589,-0.02154541,1.9776001,9.592056,-0.04324341,2.0393982,-0.009597778,0.010650635,0.0053253174,-25.312805,19.517517,-16.390991,0,0.0,0.0,0.0,0.0
0.848571778,0.1793516,-0.48869696,-0.85381985,0.105389774,0.87244254,-0.477218,0.9781237,-0.004394069,0.20797762,0.20816363,-0.45213455,-0.86731905,0.1096772,0.8919416,-0.4386469,0.9719253,-0.0038147934,0.23525864,9.548065,0.002380371,2.0685883,9.592056,-0.04309082,2.0395508,-0.0053253174,0.028747559,-0.008529663,-25.132751,17.904663,-15.527344,0,0.0,0.0,0.0,0.0
0.852935791,0.17936227,-0.4886856,-0.8538241,0.10534033,0.87244916,-0.47721693,0.9781272,-0.0043474045,0.20796278,0.20830242,-0.45338547,-0.8666324,0.11044899,0.891305,-0.4397458,0.9718082,-0.0041185548,0.23573697,9.629471,0.05027771,2.0302734,9.592056,-0.042633057,2.0393982,0.007446289,0.015960693,0.006378174,-25.132751,17.904663,-15.527344,0,0.0,0.0,0.0,0.0
0.857330322,0.17943916,-0.48860422,-0.8538546,0.10539598,0.87249464,-0.4771215,0.978107,-0.004378566,0.20805658,0.20771837,-0.45409873,-0.86639905,0.11036871,0.8909418,-0.44050133,0.97194225,-0.0041231317,0.23518327,9.581589,-0.11251831,2.269699,9.591766,-0.042938232,2.0402985,0.0053253174,0.0053253174,0.0010528564,-25.132751,17.904663,-15.527344,0,0.0,0.0,0.0,0.0
0.861724854,0.18859957,-0.40369487,-0.89524335,0.087884605,0.9148833,-0.39403668,0.9781138,-0.0043629673,0.20802516,0.20714782,-0.45479584,-0.86617005,0.11029019,0.8905862,-0.4412396,0.97207296,-0.0041282405,0.2346425,9.62468,0.007171631,1.9584503,9.591919,-0.042785645,2.0400085,0.0053253174,0.013824463,0.011703491,-25.849915,20.056152,-14.489746,0,0.0,0.0,0.0,0.0
0.866119385,0.18858904,-0.40370634,-0.89524037,0.087834604,0.9148783,-0.39405903,0.9781202,-0.004317872,0.20799541,0.20679723,-0.45378754,-0.8667824,0.10981934,0.89110035,-0.440318,0.97220093,-0.004132935,0.23411173,9.76355,0.06942749,1.9967499,9.591919,-0.04234314,2.0397034,-0.004272461,0.014892578,-0.0021362305,-25.849915,20.056152,-14.489746,0,0.0,0.0,0.0,0.0
0.870513916,0.18861112,-0.40368232,-0.89524657,0.08782171,0.91488916,-0.3940372,0.9781172,-0.004302299,0.20801033,0.20645271,-0.45279905,-0.8673813,0.109357804,0.891603,-0.43941432,0.9723261,-0.0041366336,0.23359096,9.615112,-0.01675415,2.087738,9.591919,-0.04219055,2.039856,0.0063934326,0.0053253174,0.003189087,-25.849915,20.056152,-14.489746,0,0.0,0.0,0.0,0.0
0.87487793,0.18062678,-0.47917038,-0.85893524,0.10340424,0.87771136,-0.46789992,0.97810096,-0.004302296,0.20808642,0.20611481,-0.45182934,-0.8679671,0.10890614,0.8920948,-0.43852746,0.9724485,-0.0041399472,0.23308094,9.615112,-0.04548645,2.2553253,9.591766,-0.04219055,2.0406036,-0.004272461,0.008514404,0.0010528564,-25.132751,18.980408,-15.873718,0,0.0,0.0,0.0,0.0
0.879272461,0.18063098,-0.47916603,-0.8589367,0.10345562,0.8777135,-0.46788454,0.9780948,-0.0043473924,0.20811468,0.20560133,-0.45238048,-0.86780185,0.108811274,0.8918154,-0.43911883,0.97256786,-0.0041431943,0.23258254,9.567215,-0.17477417,2.1020966,9.591766,-0.042633057,2.0408936,0.0021209717,0.003189087,-0.0032043457,-25.132751,18.980408,-15.873718,0,0.0,0.0,0.0,0.0
0.883666992,0.18064897,-0.47914764,-0.8589432,0.10346051,0.8777236,-0.46786463,0.97809094,-0.0043474445,0.20813273,0.2050984,-0.45292035,-0.8676392,0.108718716,0.89154136,-0.43969792,0.9726844,-0.0041472777,0.23209463,9.543274,-0.011962891,2.0781555,9.591614,-0.042633057,2.0410461,-0.008529663,-0.01171875,0.0021209717,-25.132751,18.980408,-15.873718,0,0.0,0.0,0.0,0.0
0.888061524,0.17784548,-0.5024645,-0.8461091,0.108206384,0.8645873,-0.49069366,0.9780911,-0.0042867614,0.20813276,0.20460603,-0.45344883,-0.8674794,0.108627506,0.8912726,-0.44026488,0.9727982,-0.004151281,0.23161677,9.533707,0.09815979,2.0590057,9.591614,-0.042037964,2.0410461,-0.015975952,-0.008529663,-0.005340576,-24.23706,18.441772,-16.046143,0,0.0,0.0,0.0,0.0
0.892456055,0.177791,-0.5025182,-0.8460885,0.10820733,0.8645559,-0.4907486,0.97810096,-0.004302296,0.20808642,0.20406595,-0.4544435,-0.867086,0.10864573,0.89076585,-0.4412848,0.9729096,-0.00415399,0.23114833,9.658203,-0.09336853,1.8961945,9.591766,-0.04219055,2.0406036,-0.012771606,-0.015975952,0.0010528564,-24.23706,18.441772,-16.046143,0,0.0,0.0,0.0,0.0
0.896850586,0.17776726,-0.5025416,-0.8460796,0.10818244,0.86454237,-0.49077794,0.97810805,-0.0042866995,0.20805351,0.2035358,-0.45541885,-0.8666988,0.10866265,0.8902676,-0.44228503,0.9730188,-0.0041569564,0.23068833,9.686935,-0.007171631,1.9919739,9.591919,-0.042037964,2.0402985,-0.014907837,-0.015975952,-0.0010681152,-24.23706,18.441772,-16.046143,0,0.0,0.0,0.0,0.0
0.9012146,0.17850672,-0.49664828,-0.8493973,0.106957324,0.8679414,-0.4850133,0.97810817,-0.00427114,0.20805353,0.2030158,-0.45637465,-0.8663179,0.10867771,0.889778,-0.44326544,0.97312576,-0.0041595516,0.23023674,9.552856,0.02154541,2.0207062,9.591919,-0.041885376,2.0402985,-0.0032043457,-0.010650635,-0.005340576,-26.38855,17.366028,-15.699768,0,0.0,0.0,0.0,0.0
0.905609131,0.17847821,-0.49668014,-0.84938467,0.106949866,0.86792314,-0.48504755,0.9781141,-0.004271166,0.20802523,0.20252131,-0.45718977,-0.8660038,0.10866366,0.8893594,-0.4441081,0.97323036,-0.004161783,0.22979417,9.595947,-0.06942749,1.9871826,9.591919,-0.041885376,2.0400085,0.0021209717,0.0021209717,0.003189087,-26.38855,17.366028,-15.699768,0,0.0,0.0,0.0,0.0
0.910003662,0.17843942,-0.49672347,-0.84936744,0.10695725,0.86789817,-0.4850904,0.9781204,-0.004286753,0.20799544,0.20203635,-0.4579889,-0.8656949,0.108649,0.8889482,-0.4449343,0.9733328,-0.0041639707,0.22935988,9.572006,-0.08378601,1.9440765,9.591919,-0.042037964,2.0397034,-0.008529663,0.0010681152,-0.007461548,-26.38855,17.366028,-15.699768,0,0.0,0.0,0.0,0.0
0.914398194,0.1845037,-0.44423604,-0.8767056,0.096184134,0.8958995,-0.43371972,0.97811407,-0.0043022856,0.20802522,0.20156048,-0.4587725,-0.8653908,0.10863406,0.88854396,-0.44574454,0.9734331,-0.004166426,0.22893366,9.653412,-0.07421875,2.1260376,9.591919,-0.04219055,2.0400085,-0.0053253174,-0.007461548,0.0053253174,-25.491333,20.056152,-15.527344,0,0.0,0.0,0.0,0.0
0.918792725,0.18448126,-0.44425908,-0.8766986,0.09616206,0.89588803,-0.43374804,0.9781204,-0.004286753,0.20799544,0.20122372,-0.45848298,-0.8656225,0.108379826,0.8886934,-0.44550854,0.9735311,-0.0041691433,0.22851649,9.730026,0.011962891,1.9823914,9.591919,-0.042037964,2.0397034,0.0095825195,0.008514404,-0.009597778,-25.491333,20.056152,-15.527344,0,0.0,0.0,0.0,0.0
0.923156739,0.18447788,-0.44426256,-0.87669766,0.09612895,0.8958866,-0.43375868,0.9781243,-0.0042571453,0.20797774,0.20111023,-0.45785397,-0.86598176,0.108005285,0.88901824,-0.44495106,0.9735962,-0.004046395,0.22824131,9.634262,0.02154541,2.0063324,9.592056,-0.041748047,2.0395508,-0.0053253174,0.0021209717,-0.0032043457,-25.491333,20.056152,-15.527344,0,0.0,0.0,0.0,0.0
0.92755127,0.18441935,-0.44432285,-0.8766794,0.09611566,0.89585674,-0.43382335,0.97813666,-0.0042571994,0.20791969,0.20078151,-0.45758316,-0.86620116,0.107762985,0.8891576,-0.44473124,0.97369087,-0.0040506097,0.22783692,9.615112,-0.04069519,1.8961945,9.592056,-0.041748047,2.0389557,0.0021209717,0.008514404,-0.0063934326,-25.491333,20.056152,-15.527344,0,0.0,0.0,0.0,0.0
0.931945801,0.18444252,-0.44429898,-0.8766866,0.096136205,0.8958683,-0.43379447,0.9781302,-0.0042711752,0.20794943,0.20045805,-0.45731893,-0.8664156,0.10752547,0.8892935,-0.44451696,0.9737838,-0.0040547415,0.22743946,9.629471,-0.09815979,2.1308289,9.592056,-0.041885376,2.0392609,-0.0053253174,0.014892578,-0.0021362305,-25.491333,20.056152,-15.527344,0,0.0,0.0,0.0,0.0
0.936340332,0.18449572,-0.44424418,-0.8767031,0.096133076,0.8958955,-0.4337389,0.9781205,-0.00425719,0.20799547,0.20014131,-0.45705947,-0.86662567,0.10729325,0.8894269,-0.4443062,0.97387457,-0.0040590703,0.22705045,9.619888,0.05027771,1.9105682,9.591919,-0.041748047,2.0397034,0.007446289,0.013824463,-0.01171875,-25.491333,20.056152,-15.527344,0,0.0,0.0,0.0,0.0
0.940734864,0.18559845,-0.43375668,-0.88170767,0.09395288,0.9010201,-0.4234805,0.9781238,-0.0042416444,0.20798062,0.19983181,-0.4568041,-0.8668318,0.10706579,0.8895581,-0.4440984,0.9739632,-0.0040630326,0.2266701,9.701294,-0.01675415,2.039856,9.591919,-0.04159546,2.0395508,-0.014907837,0.023422241,-0.0021362305,-24.415588,20.414734,-15.182495,0,0.0,0.0,0.0,0.0
0.945129395,0.18556717,-0.4337877,-0.881699,0.09394574,0.90100515,-0.4235138,0.97813034,-0.0042416123,0.20794946,0.19955331,-0.45634606,-0.8671371,0.106796116,0.88979304,-0.4436923,0.9740498,-0.004066605,0.22629714,9.60553,-0.03590393,1.9345093,9.592056,-0.04159546,2.0392609,0.004257202,0.013824463,0.003189087,-24.415588,20.414734,-15.182495,0,0.0,0.0,0.0,0.0
0.949493408,0.18574195,-0.43361452,-0.88174725,0.093934655,0.90108854,-0.4233384,0.9780982,-0.0041949213,0.2081014,0.19927943,-0.45589772,-0.86743593,0.10653194,0.8900229,-0.4432948,0.97413486,-0.004070105,0.2259309,9.504974,-0.06942749,2.0063324,9.591766,-0.041137695,2.0407562,-0.012771606,0.013824463,-0.010665894,-24.415588,20.414734,-15.182495,0,0.0,0.0,0.0,0.0
0.95388794,0.18189704,-0.4692533,-0.8641265,0.10127345,0.8830536,-0.45821357,0.97808844,-0.0041653826,0.20814776,0.19901426,-0.45545477,-0.8677294,0.10627311,0.8902496,-0.44290143,0.97421736,-0.0040726014,0.22557497,9.615112,-0.08857727,1.8722534,9.591614,-0.04084778,2.0411987,-0.004272461,0.038330078,-0.0138549805,-23.519897,19.158936,-15.354919,0,0.0,0.0,0.0,0.0
0.958282471,0.18203449,-0.46911952,-0.86417025,0.10124167,0.8831252,-0.45808306,0.97806627,-0.0041031153,0.20825371,0.19867058,-0.45573184,-0.8676627,0.10617842,0.8901078,-0.44320905,0.9742978,-0.004074457,0.22522712,9.667786,0.002380371,1.9967499,9.591461,-0.040237427,2.0422516,-0.011703491,0.028747559,-0.015991211,-23.519897,19.158936,-15.354919,0,0.0,0.0,0.0,0.0
0.962677002,0.18217798,-0.46897995,-0.8642158,0.10126496,0.8831994,-0.4579349,0.9780372,-0.0040891133,0.20839074,0.19833657,-0.45600063,-0.8675979,0.1060847,0.8899701,-0.44350785,0.9743761,-0.0040750303,0.22488831,9.619888,0.002380371,2.0494232,9.591171,-0.040100098,2.0435944,0.012771606,0.027679443,-0.0063934326,-23.519897,19.158936,-15.354919,0,0.0,0.0,0.0,0.0
0.967071533,0.18623972,-0.4323716,-0.88225263,0.09375511,0.90168625,-0.42210427,0.97802085,-0.004103114,0.20846681,0.19801219,-0.4562612,-0.86753494,0.105993025,0.88983655,-0.44379765,0.974452,-0.0040753116,0.224559,9.667786,-0.08857727,1.9919739,9.591019,-0.040237427,2.044342,-0.0063934326,0.03514099,-0.0032043457,-24.954224,19.876099,-15.008545,0,0.0,0.0,0.0,0.0
0.971435547,0.18623869,-0.4323727,-0.88225234,0.09372285,0.9016859,-0.4221123,0.9780241,-0.004073564,0.20845196,0.19778241,-0.4557865,-0.86783683,0.10574174,0.8900798,-0.44336963,0.974526,-0.0040758676,0.22423778,9.653412,0.05984497,2.039856,9.591019,-0.03994751,2.0441895,-0.028747559,0.023422241,-0.005340576,-24.954224,19.876099,-15.008545,0,0.0,0.0,0.0,0.0
0.975830078,0.18643345,-0.43217152,-0.88230973,0.09378133,0.9017822,-0.42189336,0.9779814,-0.0040891403,0.20865196,0.19755691,-0.45532122,-0.8681324,0.105495065,0.8903179,-0.44295013,0.97459847,-0.004075822,0.2239226,9.643829,-0.07899475,2.1020966,9.590561,-0.040100098,2.0461426,-0.0021362305,0.01914978,0.012756348,-24.954224,19.876099,-15.008545,0,0.0,0.0,0.0,0.0
0.98022461,0.18322285,-0.46210524,-0.8676912,0.09999934,0.88681555,-0.45117426,0.97797215,-0.0041031055,0.20869511,0.19733962,-0.45486116,-0.8684229,0.105254784,0.89055306,-0.44253442,0.97466844,-0.0040760883,0.22361773,9.615112,-0.06942749,2.173935,9.590561,-0.040237427,2.046585,-0.008529663,0.041519165,0.0,-26.567078,18.621826,-15.527344,0,0.0,0.0,0.0,0.0
0.984619141,0.1831997,-0.46213096,-0.86768246,0.1000113,0.88680214,-0.4511981,0.97797525,-0.004118678,0.20868021,0.19705682,-0.45500636,-0.8684111,0.105152115,0.8904789,-0.44270805,0.97473675,-0.0040766285,0.22331981,9.591171,-0.08378601,2.015915,9.590561,-0.040390015,2.0464325,-0.009597778,0.02128601,-0.0021362305,-26.567078,18.621826,-15.527344,0,0.0,0.0,0.0,0.0
0.989013672,0.18326317,-0.4620605,-0.8677066,0.09999301,0.886839,-0.4511297,0.9779652,-0.004089131,0.20872773,0.1978648,-0.45486692,-0.86830044,0.10607597,0.89054763,-0.44234917,0.9744729,-0.0045804805,0.22445849,9.615112,0.04069519,2.1643524,9.590424,-0.040100098,2.0468903,-0.0063934326,0.022354126,0.006378174,-26.567078,18.621826,-15.527344,0,0.0,0.0,0.0,0.0
0.993408203,0.18315421,-0.4631309,-0.86715883,0.10022038,0.8862804,-0.45217562,0.9779623,-0.004089119,0.20874113,0.19757222,-0.4550111,-0.8682915,0.10595688,0.890474,-0.44252583,0.9745452,-0.004570653,0.22414449,9.634262,-0.02154541,2.0973206,9.590424,-0.040100098,2.0470276,0.0010528564,0.01171875,-0.005340576,-23.519897,18.800354,-15.008545,0,0.0,0.0,0.0,0.0
0.997772217,0.18320991,-0.46307537,-0.8671766,0.100217536,0.8863095,-0.45211926,0.9779522,-0.0040735817,0.20878896,0.19728315,-0.45517388,-0.86827195,0.10584495,0.8903909,-0.4427199,0.9746159,-0.0045610224,0.22383696,9.682144,-0.002380371,2.2122345,9.590271,-0.03994751,2.0474854,-0.007461548,0.013824463,0.003189087,-23.519897,18.800354,-15.008545,0,0.0,0.0,0.0,0.0
1.002166748,0.18325306,-0.46303245,-0.8671904,0.1002286,0.88633204,-0.45207292,0.9779431,-0.004073544,0.20883214,0.19700098,-0.45533228,-0.86825293,0.10573504,0.89030993,-0.44290888,0.9746849,-0.0045512733,0.2235365,9.591171,-0.06463623,2.1643524,9.590271,-0.03994751,2.0479279,0.0063934326,0.0063934326,-0.005340576,-23.519897,18.800354,-15.008545,0,0.0,0.0,0.0,0.0
1.00656128,0.18612486,-0.43655598,-0.88021386,0.09476036,0.8996678,-0.426167,0.9779458,-0.004089115,0.20881873,0.19672546,-0.45548663,-0.8682344,0.105627485,0.890231,-0.44309318,0.97475225,-0.004541719,0.22324303,9.5767975,-0.06942749,2.015915,9.590271,-0.040100098,2.0477905,0.003189087,-0.0138549805,-0.0010681152,-24.057007,18.263245,-14.144897,0,0.0,0.0,0.0,0.0
1.010955811,0.18612461,-0.43655622,-0.88021374,0.09469267,0.899668,-0.4261817,0.9779524,-0.004026903,0.208789,0.1965175,-0.45510998,-0.868479,0.10540556,0.8904237,-0.44275877,0.9748182,-0.004532667,0.22295497,9.686935,0.011962891,2.2170258,9.590271,-0.039489746,2.0474854,0.004257202,-0.014923096,0.012756348,-24.057007,18.263245,-14.144897,0,0.0,0.0,0.0,0.0
1.015350342,0.18597056,-0.436721,-0.8801645,0.094660565,0.89958787,-0.42635763,0.9779848,-0.004026915,0.20863713,0.1963136,-0.4547408,-0.86871845,0.10518692,0.89061236,-0.44243118,0.97488284,-0.0045225513,0.2226721,9.557648,-0.01675415,1.9201355,9.590561,-0.039489746,2.04599,-0.020233154,-0.019180298,-0.014923096,-24.057007,18.263245,-14.144897,0,0.0,0.0,0.0,0.0
1.019714356,0.18573585,-0.43697208,-0.8800895,0.09461145,0.89946604,-0.42662573,0.9780342,-0.004026862,0.20840566,0.1963136,-0.4547408,-0.86871845,0.10518692,0.89061236,-0.44243118,0.97488284,-0.0045225513,0.2226721,9.557648,-0.01675415,1.9201355,9.591171,-0.039489746,2.043747,-0.020233154,-0.019180298,-0.014923096,-24.057007,18.263245,-14.144897,0,0.0,0.0,0.0,0.0
1.024108887,0.184621,-0.4464839,-0.8755382,0.096541956,0.8947824,-0.4359402,0.97805655,-0.0040424564,0.20830008,0.19590193,-0.45404056,-0.8691776,0.10475982,0.8909697,-0.4418127,0.9750117,-0.004502922,0.22210787,9.615112,-0.12210083,2.1020966,9.591309,-0.039642334,2.042694,0.0021209717,-0.041549683,0.0010528564,-25.132751,20.056152,-15.527344,0,0.0,0.0,0.0,0.0
1.028503418,0.18462072,-0.4464842,-0.8755381,0.096575886,0.8947821,-0.4359333,0.9780533,-0.004073562,0.20831494,0.19567782,-0.45388976,-0.86930674,0.10459371,0.8910465,-0.441697,0.9750745,-0.0044937134,0.22183207,9.538498,-0.08378601,2.0925293,9.591309,-0.03994751,2.0428467,0.0,-0.030899048,-0.0032043457,-25.132751,20.056152,-15.527344,0,0.0,0.0,0.0,0.0
1.032897949,0.17844157,-0.49906492,-0.84799343,0.10729706,0.8665552,-0.48741072,0.9780827,-0.004012872,0.20817767,0.19545823,-0.45374197,-0.86943334,0.10443172,0.8911218,-0.4415834,0.9751359,-0.00448531,0.22156215,9.653412,0.026321411,2.0254822,9.591614,-0.039352417,2.041504,-0.0053253174,-0.017044067,-0.004272461,-25.312805,18.800354,-16.390991,0,0.0,0.0,0.0,0.0
1.037292481,0.17841898,-0.49908775,-0.84798473,0.107306235,0.8665421,-0.4874322,0.9780859,-0.004026889,0.20816277,0.19511637,-0.45466065,-0.8690301,0.1045037,0.8906535,-0.44251025,0.97519666,-0.0044758613,0.22129479,9.610321,-0.07899475,2.0111237,9.591614,-0.039489746,2.0413513,-0.007461548,-0.027694702,-0.009597778,-25.312805,18.800354,-16.390991,0,0.0,0.0,0.0,0.0
1.041656494,0.17841898,-0.49908775,-0.84798473,0.107306235,0.8665421,-0.4874322,0.9780859,-0.004026889,0.20816277,0.19478099,-0.45556095,-0.86863375,0.10457386,0.8901934,-0.44341856,0.9752562,-0.004466882,0.22103252,9.701294,-0.05505371,2.0542145,9.591614,-0.039489746,2.0413513,-0.008529663,-0.012786865,-0.0010681152,-25.312805,18.800354,-16.390991,0,0.0,0.0,0.0,0.0
1.046051026,0.17968932,-0.48870006,-0.853747,0.10513462,0.8724428,-0.47727403,0.9780893,-0.003997339,0.20814793,0.19445235,-0.45644277,-0.8682443,0.10464206,0.88974154,-0.44430834,0.97531444,-0.004458082,0.22077547,9.662994,0.03111267,2.0350647,9.591614,-0.03919983,2.0411987,-0.0063934326,-0.015975952,-0.0010681152,-24.77417,18.621826,-15.873718,0,0.0,0.0,0.0,0.0
1.050445557,0.17961363,-0.4887769,-0.85371906,0.1051133,0.87239975,-0.47735733,0.97810537,-0.0039973413,0.20807181,0.19415538,-0.45709407,-0.86796814,0.10466137,0.8894072,-0.4449728,0.97537154,-0.004448867,0.2205233,9.552856,-0.04548645,2.0446472,9.591766,-0.03919983,2.040451,0.0063934326,-0.004272461,-0.007461548,-24.77417,18.621826,-15.873718,0,0.0,0.0,0.0,0.0
1.054840088,0.17951767,-0.48887426,-0.85368353,0.10503387,0.8723454,-0.47747412,0.97813153,-0.0039506475,0.20794971,0.1929284,-0.45687562,-0.8683566,0.10380567,0.88952017,-0.4449474,0.9757064,-0.0042973505,0.21903999,9.519333,0.02154541,2.015915,9.592056,-0.038742065,2.0392609,-0.013839722,-0.019180298,-0.005340576,-24.77417,18.621826,-15.873718,0,0.0,0.0,0.0,0.0
1.059234619,0.18050833,-0.48051885,-0.8582065,0.103381194,0.87697524,-0.46928328,0.9781253,-0.0040128618,0.20797795,0.19265892,-0.45752165,-0.8680763,0.10383857,0.8891882,-0.44560298,0.9757562,-0.0042904164,0.21881843,9.62468,-0.06942749,2.0302734,9.592056,-0.039352417,2.0395508,-0.009597778,-0.026641846,-0.0063934326,-24.595642,18.800354,-15.699768,0,0.0,0.0,0.0,0.0
1.063629151,0.18050833,-0.48051885,-0.8582065,0.103381194,0.87697524,-0.46928328,0.9781253,-0.0040128618,0.20797795,0.19265892,-0.45752165,-0.8680763,0.10383857,0.8891882,-0.44560298,0.9757562,-0.0042904164,0.21881843,9.62468,-0.06942749,2.0302734,9.592056,-0.039352417,2.0395508,-0.009597778,-0.026641846,-0.0063934326,-24.595642,18.800354,-15.699768,0,0.0,0.0,0.0,0.0
1.067993164,0.18042776,-0.48060027,-0.85817784,0.103307106,0.87693083,-0.46938258,0.978148,-0.0039662113,0.20787211,0.1921753,-0.4584383,-0.86769986,0.10383139,0.8887159,-0.4465457,0.9758523,-0.004279425,0.21838953,9.60553,-0.03111267,2.039856,9.592209,-0.038894653,2.038498,0.0021209717,-0.007461548,-0.0010681152,-24.595642,18.800354,-15.699768,0,0.0,0.0,0.0,0.0
1.072387696,0.18292776,-0.45859343,-0.8696146,0.09878525,0.8886373,-0.44784516,0.9781508,-0.0039817826,0.2078587,0.19193919,-0.45888445,-0.8675162,0.103826195,0.88848567,-0.44700482,0.97589934,-0.004273161,0.21817945,9.572006,-0.10293579,1.9776001,9.592209,-0.03904724,2.0383606,-0.0010681152,-0.022369385,-0.012786865,-25.491333,18.621826,-15.182495,0,0.0,0.0,0.0,0.0
1.076782227,0.1829048,-0.4586182,-0.86960644,0.09879708,0.88862455,-0.44786805,0.97815394,-0.0039973552,0.20784381,0.19175923,-0.45887864,-0.86755913,0.103725456,0.8884887,-0.4470222,0.9759454,-0.0042673335,0.2179733,9.490601,-0.07421875,2.0063324,9.592209,-0.03919983,2.038208,-0.017028809,-0.0053253174,-0.0021362305,-25.491333,18.621826,-15.182495,0,0.0,0.0,0.0,0.0
1.081176758,0.18301177,-0.45850295,-0.86964464,0.0988218,0.8886839,-0.44774455,0.97813135,-0.003997327,0.20794968,0.1915824,-0.45887345,-0.8676009,0.10362698,0.88849145,-0.44703963,0.97599065,-0.0042619337,0.217771,9.648621,-0.05505371,1.9153595,9.592056,-0.03919983,2.0392609,0.003189087,0.018096924,0.0,-25.491333,18.621826,-15.182495,0,0.0,0.0,0.0,0.0
1.085571289,0.18013921,-0.48473227,-0.85591155,0.104268275,0.87465364,-0.47340176,0.97809917,-0.0039661964,0.2081016,0.19141115,-0.45886606,-0.86764264,0.10353089,0.88849527,-0.44705427,0.9760344,-0.0042566415,0.21757472,9.648621,0.05027771,2.0350647,9.591766,-0.038894653,2.0407562,-0.004272461,0.036193848,-0.005340576,-24.057007,19.69757,-16.218567,0,0.0,0.0,0.0,0.0
1.089935303,0.18022268,-0.48465288,-0.8559389,0.104275435,0.8746976,-0.47331873,0.978083,-0.003950634,0.20817773,0.19118473,-0.45938733,-0.8674167,0.10355134,0.88822585,-0.44758457,0.9760766,-0.004250833,0.2173854,9.691727,-0.05505371,1.8339539,9.591614,-0.038742065,2.041504,-0.0053253174,0.037261963,0.0021209717,-24.057007,19.69757,-16.218567,0,0.0,0.0,0.0,0.0
1.094329834,0.18042582,-0.4844596,-0.8560055,0.104319535,0.87480485,-0.4731111,0.978041,-0.003936643,0.20837599,0.19096462,-0.45989642,-0.8671954,0.103571266,0.88796246,-0.44810236,0.9761176,-0.004244829,0.21720146,9.629471,0.09815979,2.0015411,9.591171,-0.038604736,2.0434418,0.010650635,0.039398193,-0.0032043457,-24.057007,19.69757,-16.218567,0,0.0,0.0,0.0,0.0
1.098724365,0.18397735,-0.45486215,-0.87135124,0.098307475,0.8905533,-0.44412932,0.9780021,-0.003950615,0.20855793,0.19075294,-0.4603912,-0.8669793,0.103591256,0.887706,-0.44860548,0.97615683,-0.0042386656,0.21702504,9.519333,-0.03590393,2.0254822,9.590866,-0.038742065,2.0452423,-0.015975952,0.050048828,0.004257202,-23.339844,18.980408,-14.836121,0,0.0,0.0,0.0,0.0
1.103118897,0.18423821,-0.45460358,-0.8714309,0.09834,0.89068514,-0.44385698,0.9779496,-0.0039210846,0.20880398,0.19061823,-0.4602808,-0.8670677,0.103484854,0.8877633,-0.4485167,0.9761945,-0.0042329044,0.21685597,9.667786,0.08378601,2.1595612,9.590271,-0.03845215,2.047638,0.0053253174,0.04472351,0.003189087,-23.339844,18.980408,-14.836121,0,0.0,0.0,0.0,0.0
1.107513428,0.18441433,-0.4544291,-0.8714847,0.09843331,0.89077413,-0.443658,0.9779071,-0.0039662253,0.20900248,0.1904914,-0.4601674,-0.8671557,0.103381224,0.8878221,-0.4484242,0.9762302,-0.0042266683,0.21669514,9.572006,-0.007171631,2.1212616,9.589813,-0.038894653,2.0495758,0.0021209717,0.047912598,0.0053253174,-23.339844,18.980408,-14.836121,0,0.0,0.0,0.0,0.0
1.111907959,0.18562794,-0.44428918,-0.8764413,0.0963873,0.8958746,-0.4337258,0.9778812,-0.0039661834,0.2091232,0.1903705,-0.46005288,-0.867243,0.10328153,0.8878815,-0.44832954,0.97626436,-0.0042214594,0.21654142,9.643829,0.04548645,2.0590057,9.589661,-0.038894653,2.0507813,0.010650635,0.04046631,0.011703491,-24.23706,18.800354,-14.663696,0,0.0,0.0,0.0,0.0
1.116271973,0.18566695,-0.44424847,-0.87645364,0.09637907,0.8958949,-0.4336858,0.97787464,-0.0039506536,0.20915435,0.19027767,-0.459739,-0.86742985,0.10314181,0.8880441,-0.4480396,0.9762972,-0.004216354,0.21639326,9.62468,-0.011962891,2.1452026,9.589523,-0.038742065,2.0510712,-0.008529663,0.029815674,0.0053253174,-24.23706,18.800354,-14.663696,0,0.0,0.0,0.0,0.0
1.120666504,0.18566675,-0.4442487,-0.87645364,0.09641298,0.89589465,-0.4336788,0.97787136,-0.00398176,0.20916921,0.1901873,-0.45943052,-0.867613,0.10300476,0.88820374,-0.4477546,0.97632927,-0.00421104,0.2162486,9.5767975,-0.13166809,2.1068878,9.589523,-0.03904724,2.0512238,0.0053253174,0.01171875,-0.0010681152,-24.23706,18.800354,-14.663696,0,0.0,0.0,0.0,0.0
1.125061035,0.18847264,-0.4178929,-0.8887314,0.090980835,0.90848756,-0.40788823,0.9778551,-0.003981757,0.2092453,0.19057049,-0.45925087,-0.8676241,0.1024043,0.8882996,-0.4477021,0.97631764,-0.0035296206,0.21631294,9.595947,-0.01675415,2.269699,9.589371,-0.03904724,2.0519714,0.004257202,0.003189087,-0.009597778,-24.23706,19.517517,-14.317322,0,0.0,0.0,0.0,0.0
1.129455567,0.18847354,-0.41789195,-0.8887317,0.09101449,0.90848786,-0.40788004,0.97785175,-0.0040128627,0.20926014,0.19053511,-0.45843297,-0.86806434,0.10217205,0.888722,-0.4469163,0.97634894,-0.0035386633,0.21617176,9.562439,-0.12210083,2.0733643,9.589371,-0.039352417,2.052124,-0.008529663,0.0010681152,0.0010528564,-24.23706,19.517517,-14.317322,0,0.0,0.0,0.0,0.0
1.133850098,0.18840966,-0.41795835,-0.8887141,0.09093502,0.90845764,-0.4079652,0.9778715,-0.0039506406,0.20916924,0.19050008,-0.457631,-0.86849505,0.10194522,0.8891351,-0.4461456,0.9763795,-0.0035481474,0.2160336,9.500183,0.02154541,2.0925293,9.589523,-0.038742065,2.0512238,-0.009597778,-0.018112183,-0.009597778,-24.23706,19.517517,-14.317322,0,0.0,0.0,0.0,0.0
1.138214112,0.1883257,-0.41804555,-0.88869077,0.09093532,0.90841734,-0.40805462,0.9778876,-0.003966209,0.20909344,0.19046426,-0.456846,-0.86891603,0.10172142,0.8895387,-0.4453916,0.9764098,-0.0035561973,0.21589635,9.60553,-0.12689209,2.1212616,9.589661,-0.038894653,2.050476,0.010650635,-0.024505615,-0.0063934326,-24.23706,19.517517,-14.317322,0,0.0,0.0,0.0,0.0
1.142608643,0.18821415,-0.41816142,-0.8886599,0.090848096,0.9083643,-0.40819216,0.9779172,-0.0039055196,0.20895618,0.1904273,-0.45607808,-0.8693275,0.101502225,0.88993263,-0.44465408,0.97643983,-0.0035643976,0.21576041,9.610321,0.07899475,2.0063324,9.589966,-0.03829956,2.0491333,0.012771606,-0.0234375,0.0,-24.23706,19.517517,-14.317322,0,0.0,0.0,0.0,0.0
1.147003174,0.18802412,-0.4183587,-0.88860726,0.09085931,0.9082732,-0.4083922,0.97795266,-0.0039506606,0.20878907,0.1903887,-0.45532748,-0.86972934,0.101285726,0.8903169,-0.4439336,0.9764699,-0.0035712197,0.21562445,9.691727,0.007171631,2.0973206,9.590271,-0.038742065,2.0474854,-0.0010681152,-0.026641846,-0.0063934326,-24.23706,19.517517,-14.317322,0,0.0,0.0,0.0,0.0
1.151397705,0.18787013,-0.41851866,-0.8885646,0.09082899,0.9081996,-0.40856278,0.9779851,-0.003950672,0.2086372,0.1903887,-0.45532748,-0.86972934,0.101285726,0.8903169,-0.4439336,0.9764699,-0.0035712197,0.21562445,9.691727,0.007171631,2.0973206,9.590561,-0.038742065,2.04599,-0.0010681152,-0.026641846,-0.0063934326,-24.23706,19.517517,-14.317322,0,0.0,0.0,0.0,0.0
1.155792237,0.17643557,-0.5170152,-0.83759516,0.11117049,0.85596675,-0.5049377,0.9780142,-0.0040269075,0.20849982,0.19029939,-0.45388392,-0.87050307,0.10086476,0.8910536,-0.44254917,0.97653085,-0.0035862462,0.21534784,9.581589,-0.08857727,2.0494232,9.590866,-0.039489746,2.0446472,0.0010528564,-0.03515625,0.004257202,-24.23706,17.72461,-16.046143,0,0.0,0.0,0.0,0.0
1.160186768,0.17630458,-0.51714617,-0.837542,0.11114652,0.8558876,-0.5050772,0.97804046,-0.0040424475,0.20837589,0.1900277,-0.4551709,-0.8698902,0.10108511,0.8903969,-0.44381896,0.976561,-0.0035950593,0.21521106,9.562439,-0.05027771,2.1452026,9.591171,-0.039642334,2.0434418,-0.015975952,-0.03302002,0.008514404,-24.23706,17.72461,-16.046143,0,0.0,0.0,0.0,0.0
1.164550781,0.18276687,-0.46250263,-0.86757565,0.099750705,0.88660884,-0.45163533,0.9780829,-0.003997313,0.2081777,0.18975839,-0.4564339,-0.86928695,0.10130015,0.88975,-0.44506535,0.97659105,-0.0036040067,0.21507436,9.62468,-0.05984497,1.9009857,9.591614,-0.03919983,2.041504,-0.008529663,-0.03515625,0.0010528564,-25.312805,18.800354,-15.354919,0,0.0,0.0,0.0,0.0
1.168945313,0.18269122,-0.4625826,-0.86754894,0.09969817,0.88656723,-0.45172852,0.9781023,-0.003966209,0.20808671,0.18961838,-0.4565555,-0.86925375,0.10127009,0.88968766,-0.44519696,0.9766214,-0.003611873,0.21493652,9.653412,0.026321411,2.1068878,9.591766,-0.038894653,2.0406036,0.0053253174,-0.03515625,-0.01171875,-25.312805,18.800354,-15.354919,0,0.0,0.0,0.0,0.0
1.173339844,0.18249835,-0.46278656,-0.86748075,0.0996019,0.8864611,-0.45195827,0.9781482,-0.0039210888,0.20787215,0.18947962,-0.45667624,-0.8692205,0.101239555,0.8896256,-0.44532776,0.97665143,-0.0036189596,0.2147996,9.658203,0.08857727,1.9919739,9.592209,-0.03845215,2.038498,0.007446289,-0.0234375,0.0010528564,-25.312805,18.800354,-15.354919,0,0.0,0.0,0.0,0.0
1.177734375,0.18444705,-0.44350612,-0.87708706,0.09561739,0.8962626,-0.43309453,0.9781803,-0.003981776,0.20771986,0.18933979,-0.4567987,-0.86918664,0.10120775,0.8895627,-0.44546062,0.9766819,-0.0036250022,0.21466118,9.706085,-0.07421875,2.0829468,9.592514,-0.03904724,2.0370026,-0.0032043457,-0.043685913,0.0,-25.849915,17.904663,-14.489746,0,0.0,0.0,0.0,0.0
1.182128906,0.18433326,-0.44363636,-0.877045,0.09564414,0.89619774,-0.43322238,0.97819906,-0.0040269126,0.2076303,0.1892433,-0.45653382,-0.8693468,0.101094365,0.8896986,-0.44521484,0.9767123,-0.0036321378,0.2145225,9.5767975,-0.14604187,2.111679,9.592667,-0.039489746,2.0361176,0.007446289,-0.03515625,0.010650635,-25.849915,17.904663,-14.489746,0,0.0,0.0,0.0,0.0
1.18649292,0.18426955,-0.44370937,-0.87702143,0.09563151,0.8961616,-0.43329996,0.97821236,-0.00402691,0.2075679,0.18914635,-0.4562768,-0.86950284,0.100983806,0.88983047,-0.44497645,0.97674257,-0.003640033,0.21438475,9.672562,-0.03111267,1.9009857,9.592804,-0.039489746,2.0355072,-0.0021362305,-0.026641846,-0.0010681152,-25.849915,17.904663,-14.489746,0,0.0,0.0,0.0,0.0
1.190887451,0.17931418,-0.4864952,-0.85508406,0.10432482,0.87367404,-0.47519457,0.9782447,-0.003997351,0.2074157,0.18764284,-0.4562004,-0.86986864,0.10046995,0.88986856,-0.44501656,0.9770855,-0.0038914834,0.2128119,9.682144,0.04069519,1.9201355,9.593109,-0.03919983,2.0340118,0.0021209717,-0.022369385,0.004257202,-24.23706,19.876099,-16.390991,0,0.0,0.0,0.0,0.0
1.195281983,0.17917047,-0.48663142,-0.8550367,0.10429932,0.87359816,-0.4753398,0.9782738,-0.0040129027,0.20727833,0.18747684,-0.4568117,-0.86958355,0.1005515,0.8895549,-0.44562483,0.97710896,-0.0038936008,0.21270405,9.662994,0.002380371,1.8770447,9.593414,-0.039352417,2.032669,0.0021209717,-0.0234375,0.0021209717,-24.23706,19.876099,-16.390991,0,0.0,0.0,0.0,0.0
1.199676514,0.17912513,-0.48667434,-0.8550218,0.10428575,0.87357426,-0.47538668,0.9782835,-0.004012885,0.2072323,0.18731123,-0.45741332,-0.8693029,0.10063085,0.8892457,-0.44622368,0.97713256,-0.0038959868,0.2125956,9.581589,-0.05984497,1.9153595,9.593552,-0.039352417,2.0322266,0.017044067,-0.017044067,0.008514404,-24.23706,19.876099,-16.390991,0,0.0,0.0,0.0,0.0
1.204071045,0.1845686,-0.43709898,-0.8802721,0.09407808,0.89940447,-0.42687356,0.9783066,-0.004026856,0.20712323,0.18714792,-0.4580036,-0.86902726,0.10070816,0.8889418,-0.44681132,0.97715586,-0.003898325,0.21248831,9.615112,-0.04069519,2.0590057,9.593857,-0.039489746,2.0311737,-0.0032043457,0.0010681152,0.010650635,-25.312805,20.23468,-15.354919,0,0.0,0.0,0.0,0.0
1.208465576,0.18455356,-0.43711436,-0.88026756,0.094074756,0.89939696,-0.42689005,0.97830975,-0.004026869,0.20710835,0.1870985,-0.4575879,-0.86925685,0.10057392,0.8891558,-0.44641548,0.9771791,-0.0039008956,0.21238112,9.610321,-0.03590393,2.0015411,9.593857,-0.039489746,2.031021,0.004257202,-0.026641846,0.003189087,-25.312805,20.23468,-15.354919,0,0.0,0.0,0.0,0.0
1.21282959,0.18459432,-0.43707272,-0.8802798,0.09410079,0.89941716,-0.42684183,0.97829956,-0.004042451,0.20715615,0.1870496,-0.45718077,-0.86948156,0.10044231,0.8893652,-0.44602782,0.977202,-0.0039034148,0.2122757,9.58638,-0.07421875,2.1595612,9.593704,-0.039642334,2.031479,0.0021209717,-0.0010681152,0.006378174,-25.312805,20.23468,-15.354919,0,0.0,0.0,0.0,0.0
1.217224121,0.1791314,-0.48551935,-0.8556769,0.10394126,0.8742168,-0.47427955,0.978319,-0.003981783,0.20706517,0.18700238,-0.45678088,-0.86970186,0.10031394,0.88957065,-0.44564688,0.97722423,-0.0039061958,0.21217331,9.667786,0.09336853,1.795639,9.593857,-0.03904724,2.0305786,0.004257202,-0.014923096,0.010650635,-23.698425,18.621826,-15.527344,0,0.0,0.0,0.0,0.0
1.221618653,0.17914614,-0.48550484,-0.855682,0.1039455,0.87422484,-0.47426376,0.97831583,-0.0039817705,0.20708007,0.1868455,-0.4573605,-0.86943096,0.1003905,0.8892728,-0.44622377,0.9772464,-0.003907708,0.21207125,9.662994,-0.011962891,2.0781555,9.593857,-0.03904724,2.0307312,-0.004272461,-0.020248413,0.0053253174,-23.698425,18.621826,-15.527344,0,0.0,0.0,0.0,0.0
1.226013184,0.17895357,-0.48569405,-0.85561496,0.10394043,0.87411964,-0.47445896,0.97835165,-0.004026856,0.20691006,0.18669203,-0.45792806,-0.8691651,0.10046545,0.8889807,-0.44678864,0.97726804,-0.0039091893,0.21197154,9.62468,-0.08857727,1.9105682,9.594299,-0.039489746,2.0290833,-0.0010681152,-0.020248413,-0.004272461,-23.698425,18.621826,-15.527344,0,0.0,0.0,0.0,0.0
1.230407715,0.1752173,-0.5159577,-0.8385025,0.11012164,0.85660464,-0.504085,0.9783517,-0.0040128524,0.20691007,0.18653774,-0.45848796,-0.86890304,0.10053878,0.888692,-0.447346,0.97729,-0.0039115427,0.21187043,9.619888,0.026321411,2.0302734,9.594299,-0.039352417,2.0290833,-0.008529663,-0.027694702,0.006378174,-24.595642,17.72461,-16.046143,0,0.0,0.0,0.0,0.0
1.234771729,0.17520286,-0.5159723,-0.83849657,0.1101509,0.85659564,-0.5040937,0.97835094,-0.0040424704,0.20691286,0.18631619,-0.45965767,-0.8683323,0.10074057,0.8880876,-0.44849953,0.97731143,-0.003913569,0.21177128,9.562439,-0.14125061,2.039856,9.594162,-0.039642334,2.0290833,-0.0021362305,0.003189087,0.0010528564,-24.595642,17.72461,-16.046143,0,0.0,0.0,0.0,0.0
1.23916626,0.17518482,-0.5159906,-0.8384891,0.11018074,0.85658455,-0.5041062,0.9783509,-0.00407359,0.20691285,0.18609858,-0.4608035,-0.86777157,0.10093849,0.88749355,-0.44962946,0.9773325,-0.0039161467,0.2116741,9.696503,-0.10293579,2.0446472,9.594162,-0.03994751,2.0290833,0.0,-0.0138549805,-0.005340576,-24.595642,17.72461,-16.046143,0,0.0,0.0,0.0,0.0
1.243560791,0.18578123,-0.4229449,-0.8869064,0.0911118,0.90614617,-0.41303462,0.97835773,-0.0040735602,0.20688021,0.18588483,-0.46192607,-0.86722034,0.101132706,0.8869098,-0.4507363,0.97735304,-0.003919295,0.2115789,9.60553,-0.05505371,1.9584503,9.594299,-0.03994751,2.028778,0.013839722,-0.004272461,-0.008529663,-25.132751,18.621826,-14.144897,0,0.0,0.0,0.0,0.0
1.247955322,0.18571152,-0.42302215,-0.8868842,0.09111558,0.90611017,-0.41311306,0.97837067,-0.004089109,0.20681898,0.18588795,-0.46115476,-0.86763006,0.10093049,0.8873111,-0.44999126,0.97737336,-0.0039223805,0.211485,9.672562,-0.09336853,1.8914185,9.594452,-0.040100098,2.028183,-0.0063934326,-0.018112183,0.010650635,-25.132751,18.621826,-14.144897,0,0.0,0.0,0.0,0.0
1.252349854,0.18575224,-0.42297697,-0.88689715,0.09113832,0.9061311,-0.41306195,0.97836083,-0.0041031367,0.20686531,0.18588932,-0.46040002,-0.86803055,0.100732364,0.8877029,-0.44926226,0.97739357,-0.003925715,0.21139167,9.600739,-0.07421875,2.13562,9.594299,-0.040237427,2.0286255,-0.014907837,-0.0032043457,-0.004272461,-25.132751,18.621826,-14.144897,0,0.0,0.0,0.0,0.0
1.256744385,0.18199041,-0.4582381,-0.86999846,0.09837741,0.8888199,-0.4475725,0.9783667,-0.004134281,0.20683698,0.18481012,-0.4598362,-0.86855966,0.10068961,0.8879922,-0.44869974,0.9776026,-0.004530682,0.21041067,9.595947,-0.09336853,1.9632416,9.594299,-0.040542603,2.0283356,0.0010528564,-0.0138549805,0.0095825195,-25.312805,18.441772,-15.008545,0,0.0,0.0,0.0,0.0
1.261108399,0.18199605,-0.45823202,-0.8700005,0.09839581,0.88882285,-0.44756234,0.97836375,-0.0041498286,0.20685036,0.18475373,-0.45980424,-0.86858857,0.10064323,0.8880088,-0.44867733,0.977618,-0.004522754,0.21033911,9.610321,-0.07899475,2.0733643,9.594299,-0.04069519,2.028473,0.010650635,-0.015975952,-0.0021362305,-25.312805,18.441772,-15.008545,0,0.0,0.0,0.0,0.0
1.26550293,0.18198016,-0.45824918,-0.86999476,0.09835785,0.8888142,-0.447588,0.9783706,-0.004118672,0.20681897,0.18469873,-0.45977283,-0.86861694,0.10059824,0.8880251,-0.44865513,0.97763306,-0.0045152954,0.21026944,9.615112,0.02154541,1.9584503,9.594452,-0.040390015,2.028183,-0.010650635,-0.014923096,-0.004272461,-25.312805,18.441772,-15.008545,0,0.0,0.0,0.0,0.0
1.269897461,0.18739994,-0.4050196,-0.8948968,0.087455876,0.9142986,-0.3954865,0.97838277,-0.0041498435,0.20676084,0.18464445,-0.45974237,-0.86864454,0.10055335,0.8880409,-0.4486339,0.97764796,-0.004507363,0.21020046,9.552856,-0.10772705,1.8531036,9.594452,-0.04069519,2.027588,-0.013839722,-0.01171875,0.004257202,-24.77417,18.263245,-13.453674,0,0.0,0.0,0.0,0.0
1.274291992,0.18729642,-0.40513685,-0.8948654,0.08745571,0.9142465,-0.39560676,0.97840255,-0.004165355,0.20666666,0.18470846,-0.45866385,-0.86920094,0.1002914,0.88859844,-0.44758734,0.97766274,-0.0045002126,0.21013169,9.677353,-0.08857727,1.7812805,9.594757,-0.04084778,2.0266876,0.0021209717,-0.015975952,-0.009597778,-24.77417,18.263245,-13.453674,0,0.0,0.0,0.0,0.0
1.278686524,0.18710275,-0.40535623,-0.8948066,0.08744095,0.9141493,-0.39583486,0.978441,-0.004180946,0.20648459,0.18476872,-0.45760855,-0.8697442,0.10003454,0.88914245,-0.4465634,0.9776777,-0.004493516,0.21006237,9.58638,-0.03111267,1.9728088,9.595062,-0.041000366,2.024887,0.01171875,-0.014923096,-0.005340576,-24.77417,18.263245,-13.453674,0,0.0,0.0,0.0,0.0
1.283050537,0.18625836,-0.41390157,-0.89106303,0.08914854,0.91031224,-0.4042082,0.978448,-0.0041497964,0.206452,0.1848236,-0.456578,-0.87027395,0.099782325,0.8896721,-0.44556376,0.9776931,-0.004487265,0.2099908,9.667786,0.05027771,1.9345093,9.5952,-0.04069519,2.024582,0.0,-0.036224365,0.004257202,-25.491333,18.980408,-14.144897,0,0.0,0.0,0.0,0.0
1.287445069,0.18609564,-0.41408274,-0.89101285,0.089136526,0.9102296,-0.40439647,0.9784799,-0.0041653602,0.20629969,0.18485813,-0.4557342,-0.8707089,0.09956897,0.89010465,-0.44474682,0.97770834,-0.0044805156,0.20992006,9.639053,0.002380371,1.9105682,9.595505,-0.04084778,2.0230865,-0.0021362305,-0.019180298,-0.012786865,-25.491333,18.980408,-14.144897,0,0.0,0.0,0.0,0.0
1.2918396,0.18608858,-0.41409063,-0.8910107,0.089152016,0.9102261,-0.40440136,0.9784799,-0.00418092,0.20629969,0.1848885,-0.45491043,-0.871133,0.099359535,0.89052594,-0.44394955,0.97772384,-0.0044742124,0.20984769,9.710876,-0.06463623,2.0542145,9.595505,-0.041000366,2.0230865,-0.009597778,-0.021316528,0.006378174,-25.491333,18.980408,-14.144897,0,0.0,0.0,0.0,0.0
1.296234131,0.17948715,-0.4757439,-0.86107624,0.10176498,0.87957394,-0.46475142,0.97848266,-0.0042104954,0.20628625,0.18491782,-0.45410293,-0.871548,0.09915459,0.89093804,-0.4431679,0.97773916,-0.0044683465,0.20977671,9.662994,-0.15560913,1.9919739,9.595505,-0.041290283,2.0229492,0.0021209717,-0.0053253174,-0.0063934326,-25.132751,18.621826,-15.527344,0,0.0,0.0,0.0,0.0
1.300628662,0.17960735,-0.47561848,-0.8611204,0.1017635,0.8796418,-0.46462306,0.9784607,-0.0041809045,0.20639072,0.1848094,-0.45453843,-0.871344,0.09920882,0.89071596,-0.44360197,0.9777541,-0.0044631897,0.2097069,9.648621,0.04548645,2.0350647,9.595352,-0.041000366,2.0239868,-0.008529663,0.003189087,-0.0032043457,-25.132751,18.621826,-15.527344,0,0.0,0.0,0.0,0.0
1.305023194,0.17966247,-0.475561,-0.86114055,0.101828165,0.8796726,-0.4645505,0.9784439,-0.0042260825,0.20646966,0.18470554,-0.45496258,-0.8711446,0.09926178,0.89049935,-0.4440247,0.97776836,-0.004457544,0.20964058,9.854523,-0.04548645,2.0542145,9.595062,-0.04144287,2.0247345,-0.0053253174,0.024475098,-0.004272461,-25.132751,18.621826,-15.527344,0,0.0,0.0,0.0,0.0
1.309387207,0.17987376,-0.47383505,-0.8620475,0.10144743,0.88060373,-0.4628668,0.97844464,-0.0041949055,0.20646684,0.18460491,-0.455377,-0.8709494,0.09931489,0.8902876,-0.44443738,0.977782,-0.0044529145,0.20957719,9.792282,0.026321411,2.0590057,9.5952,-0.041137695,2.0247345,-0.0063934326,0.022354126,0.008514404,-24.415588,18.980408,-15.527344,0,0.0,0.0,0.0,0.0
1.313781739,0.17998067,-0.47372764,-0.86208415,0.101510815,0.88066125,-0.46274322,0.9784184,-0.0042260396,0.20659047,0.18451038,-0.4557481,-0.8707753,0.099359035,0.8900977,-0.44480774,0.97779536,-0.0044477545,0.20951495,9.5767975,-0.03590393,2.063797,9.59491,-0.04144287,2.02594,-0.0021362305,0.017028809,-0.0063934326,-24.415588,18.980408,-15.527344,0,0.0,0.0,0.0,0.0
1.31817627,0.18000887,-0.47369927,-0.86209387,0.101518385,0.88067657,-0.4627125,0.9784124,-0.0042260136,0.20661877,0.18441987,-0.45610958,-0.8706052,0.09940346,0.8899125,-0.4451681,0.9778079,-0.00444332,0.20945643,9.600739,-0.06942749,2.0925293,9.59491,-0.04144287,2.0262299,0.0095825195,0.025543213,0.008514404,-24.415588,18.980408,-15.527344,0,0.0,0.0,0.0,0.0
1.322570801,0.18149441,-0.46030632,-0.8690096,0.09874701,0.88775015,-0.44960946,0.9784216,-0.0042104935,0.20657559,0.18529074,-0.45671237,-0.8701041,0.099228986,0.8896066,-0.44581804,0.97766095,-0.0037335858,0.21015498,9.62468,0.007171631,1.9153595,9.59491,-0.041290283,2.0257874,0.0063934326,0.01171875,-0.009597778,-25.671387,19.517517,-15.699768,0,0.0,0.0,0.0,0.0
1.326965332,0.18154095,-0.46025795,-0.8690256,0.09875844,0.88777524,-0.44955745,0.97841185,-0.0042105187,0.20662194,0.18521477,-0.45678428,-0.87008244,0.09921962,0.8895696,-0.44589388,0.9776763,-0.0037431237,0.2100834,9.615112,-0.05027771,2.1643524,9.594757,-0.041290283,2.0262299,-0.013839722,-0.0010681152,0.0021209717,-25.671387,19.517517,-15.699768,0,0.0,0.0,0.0,0.0
1.331329346,0.1815709,-0.4602268,-0.8690358,0.09876574,0.8877914,-0.44952396,0.97840554,-0.0042104917,0.20665173,0.18514134,-0.45685384,-0.87006164,0.09921072,0.8895339,-0.4459672,0.9776912,-0.0037524719,0.21001428,9.648621,-0.04548645,2.1068878,9.594757,-0.041290283,2.026535,-0.007461548,0.0010681152,-0.010665894,-25.671387,19.517517,-15.699768,0,0.0,0.0,0.0,0.0
1.335723877,0.18087952,-0.46657026,-0.8657914,0.100056425,0.88447416,-0.4557347,0.97840244,-0.004194918,0.20666662,0.18506996,-0.45692134,-0.8700414,0.099202104,0.8894991,-0.44603834,0.9777055,-0.0037616324,0.20994714,9.5767975,0.01675415,2.0590057,9.594757,-0.041137695,2.0266876,0.0010528564,-0.0010681152,-0.0032043457,-23.878479,19.876099,-15.699768,0,0.0,0.0,0.0,0.0
1.340118408,0.18087189,-0.46657753,-0.86578906,0.10003886,0.8844704,-0.45574588,0.97840565,-0.004180928,0.20665175,0.18498613,-0.45711485,-0.8699576,0.099219956,0.8893997,-0.44623268,0.9777196,-0.003770298,0.20988151,9.538498,-0.011962891,1.9967499,9.594757,-0.041000366,2.026535,-0.010650635,-0.0053253174,-0.005340576,-23.878479,19.876099,-15.699768,0,0.0,0.0,0.0,0.0
1.34451294,0.18084995,-0.46659863,-0.8657824,0.10004838,0.88445926,-0.45576552,0.9784087,-0.004194945,0.20663683,0.18490383,-0.45730457,-0.8698753,0.09923708,0.8893021,-0.4464233,0.9777334,-0.0037785105,0.20981693,9.62468,-0.08857727,1.9776001,9.594757,-0.041137695,2.0263824,0.0095825195,-0.0053253174,-0.0138549805,-23.878479,19.876099,-15.699768,0,0.0,0.0,0.0,0.0
1.348907471,0.18087189,-0.46657753,-0.86578906,0.10003886,0.8844704,-0.45574588,0.97840565,-0.004180928,0.20665175,0.1848227,-0.45749098,-0.8697946,0.09925401,0.88920623,-0.4466105,0.977747,-0.0037868393,0.20975329,9.615112,0.011962891,2.0733643,9.594757,-0.041000366,2.026535,-0.011703491,-0.014923096,0.003189087,-23.878479,19.876099,-15.699768,0,0.0,0.0,0.0,0.0
1.353302002,0.18079865,-0.46664777,-0.86576647,0.09995002,0.88443357,-0.45583668,0.97842824,-0.0041187187,0.20654587,0.18474366,-0.45767316,-0.8697155,0.0992704,0.88911235,-0.44679362,0.9777603,-0.0037947213,0.20969129,9.662994,-0.007171631,1.9632416,9.59491,-0.040390015,2.0254822,-0.010650635,-0.0053253174,-0.007461548,-23.878479,19.876099,-15.699768,0,0.0,0.0,0.0,0.0
1.357666016,0.18073674,-0.4667071,-0.8657474,0.09996748,0.8844021,-0.4558939,0.9784379,-0.004149813,0.2064995,0.1846648,-0.45785314,-0.86963755,0.099284716,0.8890197,-0.4469748,0.9777738,-0.0038012012,0.20962846,9.567215,-0.10293579,1.8914185,9.595062,-0.04069519,2.0250397,0.019165039,-0.014923096,-0.0063934326,-23.878479,19.876099,-15.699768,0,0.0,0.0,0.0,0.0
1.362060547,0.1812968,-0.46160108,-0.868364,0.098917075,0.887078,-0.4508971,0.97844106,-0.0041498267,0.2064846,0.18458626,-0.45803064,-0.8695607,0.09929908,0.88892823,-0.4471535,0.9777871,-0.0038081734,0.20956597,9.591171,-0.04548645,1.9823914,9.595062,-0.04069519,2.024887,0.010650635,0.007446289,-0.01171875,-25.132751,19.33899,-15.527344,0,0.0,0.0,0.0,0.0
1.366455078,0.18127905,-0.46161935,-0.868358,0.098912604,0.8870685,-0.4509168,0.9784448,-0.0041497834,0.20646688,0.18452048,-0.4581021,-0.86953706,0.09929171,0.8888914,-0.44722843,0.9778003,-0.0038150065,0.20950443,9.629471,-0.05984497,1.9823914,9.5952,-0.04069519,2.0247345,-0.0053253174,0.0095825195,-0.0010681152,-25.132751,19.33899,-15.527344,0,0.0,0.0,0.0,0.0
1.37084961,0.18127203,-0.4616265,-0.8683556,0.09889371,0.88706475,-0.45092812,0.97844803,-0.0041342373,0.20645201,0.18445563,-0.45817247,-0.86951375,0.09928435,0.8888551,-0.44730222,0.97781324,-0.003821702,0.20944367,9.619888,-0.007171631,2.0111237,9.5952,-0.040542603,2.024582,0.007446289,-0.004272461,0.0,-25.132751,19.33899,-15.527344,0,0.0,0.0,0.0,0.0
1.375244141,0.17932835,-0.47827074,-0.8597083,0.10232079,0.8782025,-0.46721607,0.9784538,-0.0041809413,0.20642367,0.18439183,-0.4582416,-0.8694908,0.09927673,0.88881946,-0.44737476,0.97782606,-0.0038279528,0.20938376,9.662994,-0.14125061,1.9345093,9.5952,-0.041000366,2.024292,-0.0032043457,-0.0021362305,0.0021209717,-24.77417,18.621826,-15.527344,0,0.0,0.0,0.0,0.0
1.379608155,0.17931262,-0.4782869,-0.8597026,0.1023495,0.8781935,-0.46722656,0.97845364,-0.0042105042,0.20642363,0.1842911,-0.4586445,-0.8692997,0.09933937,0.8886116,-0.44777358,0.9778387,-0.0038350127,0.20932466,9.710876,-0.11730957,2.0542145,9.5952,-0.041290283,2.024292,-0.011703491,-0.0063934326,0.004257202,-24.77417,18.621826,-15.527344,0,0.0,0.0,0.0,0.0
1.384002686,0.1792955,-0.4783045,-0.8596964,0.102311924,0.8781841,-0.46725255,0.9784607,-0.0041809045,0.20639072,0.18419205,-0.4590396,-0.8691122,0.099401295,0.8884075,-0.44816458,0.97785103,-0.0038425222,0.2092667,9.600739,0.026321411,1.9632416,9.595352,-0.041000366,2.0239868,0.004257202,-0.004272461,0.0,-24.77417,18.621826,-15.527344,0,0.0,0.0,0.0,0.0
1.388397217,0.17911446,-0.4800922,-0.85873723,0.10265729,0.8772083,-0.46900663,0.9784577,-0.0041497718,0.20640562,0.18409456,-0.45942706,-0.8689281,0.09946114,0.8882072,-0.44854826,0.9778634,-0.0038492898,0.20920925,9.639053,0.03111267,2.0350647,9.595352,-0.04069519,2.0241394,-0.022354126,0.004257202,0.003189087,-25.491333,18.263245,-15.527344,0,0.0,0.0,0.0,0.0
1.392791748,0.17914087,-0.48006403,-0.8587474,0.10264689,0.8772238,-0.46897998,0.97845405,-0.0041342624,0.20642371,0.18430676,-0.4593647,-0.86891603,0.099371366,0.8882401,-0.4485029,0.9778325,-0.003683254,0.20935637,9.514557,-0.011962891,2.0829468,9.5952,-0.040542603,2.024292,-0.007461548,0.003189087,-0.004272461,-25.491333,18.263245,-15.527344,0,0.0,0.0,0.0,0.0
1.39718628,0.17906451,-0.48014536,-0.8587178,0.10262699,0.87717915,-0.46906757,0.97847,-0.0041342643,0.20634755,0.184204,-0.4597812,-0.86871743,0.0994387,0.88802457,-0.4489146,0.977845,-0.003692274,0.20929773,9.533707,-0.007171631,1.795639,9.595352,-0.040542603,2.0235443,-0.013839722,0.0053253174,0.0010528564,-25.491333,18.263245,-15.527344,0,0.0,0.0,0.0,0.0
1.401580811,0.1792296,-0.47890657,-0.8593749,0.10236784,0.87785614,-0.46785602,0.97846687,-0.004118691,0.20636246,0.18410183,-0.46019092,-0.8685222,0.09950432,0.88781226,-0.4493198,0.9778576,-0.0037011139,0.20923886,9.615112,-0.03590393,2.0733643,9.595352,-0.040390015,2.023697,0.004257202,0.0063934326,-0.0032043457,-25.132751,19.69757,-16.218567,0,0.0,0.0,0.0,0.0
1.405944824,0.1792296,-0.47890657,-0.8593749,0.10236784,0.87785614,-0.46785602,0.97846687,-0.004118691,0.20636246,0.18400483,-0.4605673,-0.86834323,0.09956318,0.88761705,-0.44969228,0.97786987,-0.0037094653,0.20918138,9.691727,-0.03111267,2.039856,9.595352,-0.040390015,2.023697,0.0021209717,0.020217896,0.0010528564,-25.132751,19.69757,-16.218567,0,0.0,0.0,0.0,0.0
1.410339356,0.17925002,-0.47888637,-0.8593819,0.10245854,0.87786686,-0.46781623,0.97845376,-0.0041949446,0.20642366,0.18390976,-0.46093604,-0.86816764,0.09962082,0.88742554,-0.45005727,0.97788185,-0.00371765,0.20912506,9.677353,-0.04069519,1.9823914,9.5952,-0.041137695,2.024292,0.004257202,0.004257202,0.0053253174,-25.132751,19.69757,-16.218567,0,0.0,0.0,0.0,0.0
1.415252686,0.17654331,-0.50170726,-0.8468308,0.10713829,0.86502737,-0.49015218,0.97844464,-0.0041949055,0.20646684,0.18381703,-0.46129695,-0.8679957,0.099679045,0.88723797,-0.45041412,0.97789335,-0.003727196,0.20907107,9.658203,-0.04548645,1.929718,9.5952,-0.041137695,2.0247345,-0.007461548,0.01914978,0.013824463,-23.339844,16.828918,-14.836121,0,0.0,0.0,0.0,0.0
1.420166016,0.17649168,-0.50176054,-0.8468099,0.10714073,0.86499625,-0.4902063,0.97845364,-0.0042105042,0.20642363,0.18381703,-0.46129695,-0.8679957,0.099679045,0.88723797,-0.45041412,0.97789335,-0.003727196,0.20907107,9.658203,-0.04548645,1.929718,9.5952,-0.041290283,2.024292,-0.007461548,0.01914978,0.013824463,-23.339844,16.828918,-14.836121,0,0.0,0.0,0.0,0.0
1.425079346,0.17659834,-0.50165045,-0.84685296,0.10713866,0.86506045,-0.49009386,0.9784347,-0.0041809194,0.20651439,0.18353294,-0.46291855,-0.86719203,0.09998321,0.88639283,-0.4520077,0.97791564,-0.003746335,0.20896637,9.677353,0.04069519,2.0542145,9.595062,-0.041000366,2.0251923,0.008514404,0.013824463,-0.005340576,-23.339844,16.828918,-14.836121,0,0.0,0.0,0.0,0.0
1.429992676,0.17908318,-0.4812842,-0.8580762,0.102960125,0.8765549,-0.47016057,0.9784317,-0.0041497867,0.2065293,0.183397,-0.46370238,-0.8668019,0.100130305,0.88598305,-0.45277798,0.97792614,-0.0037550267,0.20891729,9.686935,0.05984497,2.1020966,9.595062,-0.04069519,2.0253448,0.018096924,0.020217896,0.006378174,-24.77417,19.69757,-16.218567,0,0.0,0.0,0.0,0.0
1.434906006,0.1790371,-0.4813293,-0.8580606,0.102981746,0.87653005,-0.47020224,0.97843784,-0.004180933,0.20649949,0.1833112,-0.46405584,-0.8666309,0.100188226,0.885798,-0.45312724,0.97793627,-0.003762922,0.20886962,9.643829,-0.13645935,1.9632416,9.595062,-0.041000366,2.0250397,-0.012771606,0.012771606,-0.008529663,-24.77417,19.69757,-16.218567,0,0.0,0.0,0.0,0.0
1.439819336,0.17900753,-0.48135808,-0.8580504,0.102973334,0.876514,-0.47023356,0.9784441,-0.0041809594,0.2064697,0.18322615,-0.4644031,-0.8664629,0.10024539,0.88561594,-0.45347032,0.9779464,-0.0037712823,0.20882228,9.572006,-0.03590393,1.9393005,9.595062,-0.041000366,2.0247345,-0.009597778,0.02128601,-0.0010681152,-24.77417,19.69757,-16.218567,0,0.0,0.0,0.0,0.0
1.444732666,0.1777401,-0.49233714,-0.8520638,0.10520328,0.8703947,-0.48098373,0.9784379,-0.004149813,0.2064995,0.18314211,-0.46474388,-0.86629784,0.10030113,0.8854371,-0.45380706,0.97795635,-0.0037794756,0.20877516,9.686935,-0.09336853,1.8818359,9.595062,-0.04069519,2.0250397,0.0053253174,0.015960693,-0.0063934326,-23.519897,19.876099,-16.390991,0,0.0,0.0,0.0,0.0
1.449645996,0.17776084,-0.49231803,-0.85207033,0.105227254,0.8704053,-0.48095906,0.9784315,-0.0041653463,0.20652927,0.18303539,-0.46530032,-0.86602175,0.10040151,0.88514477,-0.45435476,0.97796607,-0.0037868824,0.2087297,9.615112,-0.07421875,2.1499786,9.595062,-0.04084778,2.0253448,0.015975952,0.01914978,-0.009597778,-23.519897,19.876099,-16.390991,0,0.0,0.0,0.0,0.0
