Time,Rot1,Rot2,Rot3,Rot4,Rot5,Rot6,Rot7,Rot8,Rot9,FRot1,FRot2,FRot3,FRot4,FRot5,FRot6,FRot7,FRot8,FRot9,AccX,AccY,AccZ,GravX,GravY,GravZ,GyroX,GyroY,GyroZ,MagX,MagY,MagZ,Imid
0.0,0.0,0.0,0.0,0.0,0.0,0.0,0.0,0.0,0.0,0.0,0.0,0.0,0.0,0.0,0.0,0.0,0.0,0.0,-0.08963013,0.11236572,0.038009644,9.549118,0.04324341,2.2316895,0.0,0.0,0.0,0.0,0.0,0.0,0,0.0,0.0,0.0,0.0
0.004455567,0.0,0.0,0.0,0.0,0.0,0.0,0.0,0.0,0.0,1.0,0.0,0.0,0.0,1.0,0.0,0.0,0.0,1.0,0.096954346,-0.02154541,-0.11476135,9.549271,0.04309082,2.2312317,0.0,0.0,0.0,0.0,0.0,0.0,0,0.0,0.0,0.0,0.0
0.008911133,0.06823096,0.9481789,-0.31032455,-0.21714725,0.3177064,0.92298955,0.9737513,0.004409656,0.22757186,1.0,0.0,0.0,0.0,1.0,0.0,0.0,0.0,1.0,-0.017807007,0.002243042,0.1337738,9.549118,0.04324341,2.2316895,-0.0063934326,0.007461548,-0.0032043457,-19.754028,3.919983,7.633972,0,0.0,0.0,0.0,0.0
0.0133667,0.068241075,0.9481856,-0.31030178,-0.21719253,0.31768632,0.9229858,0.9737405,0.004409678,0.2276181,0.99932903,0.024947057,-0.026814824,-0.024940446,0.99968874,5.809702E-4,0.026820973,8.819332E-5,0.9996402,0.06854248,0.0070343018,0.13812256,9.548965,0.04324341,2.232132,-0.010635376,0.0021362305,-0.0010681152,-19.754028,3.919983,7.633972,0,0.0,0.0,0.0,0.0
0.017822266,0.068277515,0.94820976,-0.31021988,-0.21725988,0.31761461,0.9229947,0.973723,0.004378549,0.22769389,0.9973244,0.049804237,-0.05351177,-0.049735144,0.998759,0.0026228686,0.053575993,4.5564695E-5,0.99856377,-0.11805725,-0.050109863,0.16131592,9.548813,0.042938232,2.2328796,-0.0021362305,-0.007461548,-0.0063934326,-19.754028,3.919983,7.633972,0,0.0,0.0,0.0,0.0
0.022247315,0.09813317,0.89414704,-0.4368879,-0.20552471,0.447752,0.87021714,0.9737194,0.0043940926,0.22770861,0.9941406,0.07371302,-0.07906213,-0.07349152,0.99727947,0.005711638,0.07926806,1.3222458E-4,0.99685335,0.030380249,0.04069519,0.08934021,9.548813,0.04309082,2.2330322,-0.013839722,0.0063934326,-0.0032043457,-20.651245,6.25,8.152771,0,0.0,0.0,0.0,0.0
0.026702881,0.0981428,0.8941549,-0.43686953,-0.20555277,0.44773617,0.8702186,0.9737125,0.0043940614,0.22773811,0.9901024,0.09429486,-0.103950344,-0.09380222,0.9955443,0.009628612,0.10439511,2.1746213E-4,0.9945359,-0.07975769,-0.0071868896,0.041152954,9.548813,0.04309082,2.2333374,0.010650635,-0.0021362305,-0.008529663,-20.651245,6.25,8.152771,0,0.0,0.0,0.0,0.0
0.031158448,0.09812834,0.89414304,-0.43689704,-0.20551065,0.44775987,0.87021637,0.9737229,0.004394108,0.22769384,0.98513263,0.114426434,-0.12814176,-0.113509595,0.9934317,0.014459297,0.1289546,3.0099432E-4,0.99165046,0.03996277,-0.0071868896,-0.12599182,9.548813,0.04309082,2.2328796,-0.004257202,0.0053253174,-0.0010681152,-20.651245,6.25,8.152771,0,0.0,0.0,0.0,0.0
0.035614014,0.0797206,0.9299161,-0.35902724,-0.21334367,0.36774483,0.90512335,0.9737193,0.0044392156,0.22770858,0.97929925,0.13410941,-0.15161653,-0.13258956,0.99096644,0.020136759,0.15294743,3.828568E-4,0.9882343,-0.18510437,0.116867065,0.01751709,9.548813,0.043533325,2.2330322,-0.0010681152,-0.0021362305,0.013824463,-21.009827,4.815674,7.8079224,0,0.0,0.0,0.0,0.0
0.040069581,0.0797206,0.9299161,-0.35902724,-0.21334367,0.36774483,0.90512335,0.9737193,0.0044392156,0.22770858,0.9724022,0.15508014,-0.17431007,-0.15272985,0.98790175,0.026900772,0.17637302,4.6398415E-4,0.98432326,0.011230469,-0.017211914,-0.0016479492,9.548813,0.043533325,2.2330322,-0.007461548,-0.007461548,0.012771606,-21.009827,4.815674,7.8079224,0,0.0,0.0,0.0,0.0
0.044494629,0.07971105,0.9299088,-0.35904843,-0.21326609,0.36776358,0.905134,0.973737,0.0044236653,0.22763284,0.9647124,0.17556396,-0.19623272,-0.17215087,0.9844679,0.034453943,0.19923368,5.43489E-4,0.97995186,-0.0032958984,-0.026626587,-0.18763733,9.548965,0.043380737,2.2322845,-0.0053253174,-0.004257202,-0.0138549805,-21.009827,4.815674,7.8079224,0,0.0,0.0,0.0,0.0
0.048950196,0.07971984,0.92991555,-0.3590289,-0.21326253,0.36774662,0.9051417,0.9737371,0.004409662,0.22763287,0.9562964,0.19556426,-0.21737488,-0.19083995,0.9806907,0.042730182,0.221534,6.210927E-4,0.97515243,-0.0032958984,-0.021697998,-0.020050049,9.548965,0.04324341,2.2322845,0.003189087,-0.0010681152,0.0021209717,-21.009827,4.815674,7.8079224,0,0.0,0.0,0.0,0.0
0.053405762,0.079771474,0.9299553,-0.35891452,-0.2132575,0.36764705,0.90518343,0.973734,0.004333405,0.22764769,0.94721866,0.21508636,-0.2377281,-0.20879011,0.9765948,0.051665384,0.24327655,6.9686427E-4,0.9699567,-0.0368042,-0.016174316,-0.12075806,9.548965,0.042495728,2.2324371,0.0021362305,0.0095825195,-0.004272461,-21.009827,4.815674,7.8079224,0,0.0,0.0,0.0,0.0
0.057861329,0.07979701,0.929975,-0.35885796,-0.21323128,0.36759788,0.9052095,0.97373754,0.0042867414,0.22763295,0.93754053,0.2341371,-0.2572887,-0.2259986,0.97220325,0.06119979,0.26446605,7.6959527E-4,0.9643947,0.10205078,-0.101882935,-0.0056915283,9.548965,0.042037964,2.2322845,-0.014892578,0.013839722,0.014892578,-21.009827,4.815674,7.8079224,0,0.0,0.0,0.0,0.0
0.062316895,0.07600694,0.9362597,-0.34298825,-0.21454741,0.35128245,0.9113563,0.97375166,0.0043178545,0.22757195,0.927321,0.2527211,-0.27605763,-0.24246372,0.9675388,0.07127416,0.28510898,8.399383E-4,0.9584947,0.020492554,0.06538391,-0.1631012,9.549118,0.04234314,2.2316895,-0.0010681152,0.0053253174,0.0021209717,-19.934082,4.0985107,6.7703247,0,0.0,0.0,0.0,0.0
0.066741944,0.076031685,0.93627983,-0.34292758,-0.21465027,0.35122856,0.91135275,0.9737271,0.0043178145,0.2276772,0.9165254,0.27118006,-0.29401103,-0.25850776,0.96252817,0.08193405,0.3052128,9.0949686E-4,0.95228374,0.030227661,0.02708435,0.022583008,9.548965,0.04234314,2.2327423,0.004257202,0.013839722,-0.0032043457,-19.934082,4.0985107,6.7703247,0,0.0,0.0,0.0,0.0
0.07119751,0.07608532,0.9363236,-0.34279615,-0.21474412,0.35111246,0.9113754,0.97370225,0.004271163,0.22778447,0.90528965,0.2891747,-0.3111731,-0.27380237,0.9572758,0.093033515,0.32478145,9.776634E-4,0.94578856,0.0640564,0.12809753,0.09815979,9.54866,0.041885376,2.23378,-0.024490356,0.023422241,-0.0032043457,-19.934082,4.0985107,6.7703247,0,0.0,0.0,0.0,0.0
0.075653077,0.07607258,0.9363133,-0.34282744,-0.21494564,0.35113907,0.9113177,0.97365874,0.004362973,0.22796845,0.90528965,0.2891747,-0.3111731,-0.27380237,0.9572758,0.093033515,0.32478145,9.776634E-4,0.94578856,0.0644989,0.12719727,0.09635925,9.548218,0.042785645,2.2355804,-0.024490356,0.023422241,-0.0032043457,-19.934082,4.0985107,6.7703247,0,0.0,0.0,0.0,0.0
0.080108643,0.071833275,0.94307417,-0.32473233,-0.21652803,0.33255365,0.9178909,0.97363013,0.004378544,0.2280904,0.88170207,0.32379958,-0.34315503,-0.30217734,0.9461251,0.11634537,0.36234015,0.0011117221,0.93204534,-0.08842468,-0.0070343018,0.047286987,9.547913,0.042938232,2.2367706,0.008529663,0.03514099,-0.007461548,-20.11261,4.637146,9.017944,0,0.0,0.0,0.0,0.0
0.084564209,0.071840405,0.9430784,-0.3247186,-0.21655674,0.3325418,0.91788846,0.9736232,0.004378513,0.22811991,0.88170207,0.32379958,-0.34315503,-0.30217734,0.9461251,0.11634537,0.36234015,0.0011117221,0.93204534,-0.08842468,-0.0070343018,0.04698181,9.547913,0.042938232,2.2370758,0.008529663,0.03514099,-0.007461548,-20.11261,4.637146,9.017944,0,0.0,0.0,0.0,0.0
0.089019776,0.07243801,0.94223255,-0.32703295,-0.2164209,0.33493122,0.9170513,0.97360915,0.0043473933,0.22818057,0.8571166,0.35712683,-0.37122974,-0.32828626,0.9340549,0.1406042,0.39696252,0.0013554234,0.91783386,-0.054779053,0.0076446533,-0.08769226,9.547775,0.042633057,2.237671,0.003189087,0.014892578,0.003189087,-21.188354,4.2785645,7.633972,0,0.0,0.0,0.0,0.0
0.093444825,0.07247137,0.94225734,-0.32695422,-0.21652406,0.3348617,0.91705227,0.97358364,0.0043334146,0.22828926,0.8571166,0.35712683,-0.37122974,-0.32828626,0.9340549,0.1406042,0.39696252,0.0013554234,0.91783386,-0.054473877,0.0077819824,-0.08874512,9.54747,0.042495728,2.2387238,0.003189087,0.014892578,0.003189087,-21.188354,4.2785645,7.633972,0,0.0,0.0,0.0,0.0
0.097900391,0.07250872,0.94228506,-0.32686612,-0.21663988,0.33478403,0.9170534,0.9735552,0.0043178666,0.22841126,0.83127093,0.38887492,-0.39719635,-0.35156685,0.9212894,0.1662126,0.43056867,0.0014733522,0.90255666,0.1517334,0.06059265,0.07287598,9.547165,0.04234314,2.239914,-0.009567261,0.030883789,0.003189087,-21.188354,4.2785645,7.633972,0,0.0,0.0,0.0,0.0
0.102355958,0.08268381,0.92530984,-0.37008774,-0.21293095,0.37918687,0.9004875,0.9735625,0.0043473933,0.22837974,0.81811726,0.4041141,-0.4091161,-0.36218822,0.9147073,0.17924911,0.44665855,0.0015302426,0.89470315,-0.04953003,0.08425903,-0.080062866,9.5473175,0.042633057,2.239624,-0.011703491,0.024490356,0.004257202,-19.5755,4.4570923,6.7703247,0,0.0,0.0,0.0,0.0
0.106811524,0.082680106,0.9253068,-0.37009645,-0.21288097,0.3791947,0.9004961,0.97357374,0.0043333704,0.22833206,0.8052084,0.41807693,-0.42053673,-0.37138787,0.90841025,0.19199458,0.46228838,0.0015865857,0.8867282,0.0029907227,-0.059249878,-0.11790466,9.54747,0.042495728,2.2391663,-0.019165039,0.01171875,0.003189087,-19.5755,4.4570923,6.7703247,0,0.0,0.0,0.0,0.0
0.11126709,0.08268964,0.9253148,-0.37007415,-0.21287695,0.3791752,0.9005051,0.97357374,0.0043178108,0.22833206,0.7922323,0.43166518,-0.43131572,-0.37998953,0.9020324,0.20480601,0.47746837,0.0016415216,0.8786474,0.07003784,-0.02558899,0.006591797,9.54747,0.04234314,2.2391663,0.007461548,0.019165039,-0.0053253174,-19.5755,4.4570923,6.7703247,0,0.0,0.0,0.0,0.0
0.115692139,0.08051442,0.9290911,-0.36098087,-0.21367952,0.36982563,0.90419585,0.9735803,0.0043333997,0.22830403,0.7792162,0.44488776,-0.4414715,-0.38801244,0.89558476,0.21765642,0.4922078,0.0016950475,0.87047607,-0.044891357,0.036499023,-0.093673706,9.54747,0.042495728,2.2388763,0.0021362305,-0.0032043457,0.0063934326,-20.829773,4.637146,7.2891235,0,0.0,0.0,0.0,0.0
0.120147706,0.08049624,0.9290762,-0.36102334,-0.21368694,0.36986277,0.904179,0.9735802,0.0043629627,0.228304,0.7661052,0.45793173,-0.45097813,-0.3956298,0.88898563,0.23061137,0.50651735,0.0017478146,0.862228,0.07481384,0.055374146,0.035614014,9.54747,0.042785645,2.2388763,0.0021362305,0.008514404,-0.0063934326,-20.829773,4.637146,7.2891235,0,0.0,0.0,0.0,0.0
0.124603272,0.08051741,0.9290935,-0.3609738,-0.21372801,0.36981922,0.9041869,0.9735694,0.004347424,0.22835024,0.75300175,0.47061923,-0.4598977,-0.40269744,0.8823346,0.24355787,0.52040666,0.0018001178,0.85391665,0.04145813,-0.021087646,0.13093567,9.5473175,0.042633057,2.2393188,0.0095825195,0.003189087,0.0010681152,-20.829773,4.637146,7.2891235,0,0.0,0.0,0.0,0.0
0.129058838,0.07802343,0.9333307,-0.3504372,-0.21468273,0.35899138,0.9083152,0.9735623,0.0043629524,0.22837971,0.73992735,0.48296005,-0.4682489,-0.40923604,0.87564045,0.2564755,0.5338851,0.0018510639,0.84555495,-0.07347107,0.021850586,0.058807373,9.5473175,0.042785645,2.239624,0.008529663,0.0010681152,-0.0010681152,-21.546936,4.2785645,6.5979004,0,0.0,0.0,0.0,0.0
0.133514405,0.07802915,0.93333596,-0.35042197,-0.2146647,0.35897803,0.9083249,0.97356594,0.0043474087,0.228365,0.7268055,0.4951638,-0.4759902,-0.41543362,0.8687976,0.2694545,0.5469633,0.0019013018,0.8371545,0.04145813,-0.021087646,-0.008087158,9.5473175,0.042633057,2.2394714,0.007461548,-0.004257202,0.0,-21.546936,4.2785645,6.5979004,0,0.0,0.0,0.0,0.0
0.137939454,0.07801656,0.93332434,-0.35045552,-0.21465385,0.3590078,0.9083154,0.9735692,0.004362983,0.2283502,0.71374977,0.50702965,-0.48319998,-0.42113075,0.8619264,0.2823681,0.5596518,0.001950224,0.8287255,-0.03515625,0.031433105,-0.04144287,9.5473175,0.042785645,2.2393188,0.010650635,0.004257202,-0.0053253174,-21.546936,4.2785645,6.5979004,0,0.0,0.0,0.0,0.0
0.14239502,0.06085946,0.9587305,-0.2777265,-0.22013374,0.28428328,0.9331261,0.9735694,0.004347424,0.22835024,0.7007774,0.5185652,-0.48989907,-0.42634693,0.8550357,0.29519856,0.5719609,0.0019984792,0.8202784,-0.13571167,-0.025878906,-0.03187561,9.5473175,0.042633057,2.2393188,0.008529663,0.014892578,0.0010681152,-19.216919,3.3813477,7.461548,0,0.0,0.0,0.0,0.0
0.146850586,0.06086138,0.9587316,-0.2777221,-0.22019672,0.28427914,0.9331124,0.97355497,0.004362989,0.22841118,0.6872225,0.5311176,-0.49562007,-0.4321872,0.8472956,0.30871397,0.5839002,0.0020454584,0.8118229,-0.039794922,0.045791626,0.1446991,9.547165,0.042785645,2.239914,0.003189087,-0.012786865,-0.0063934326,-19.216919,3.3813477,7.461548,0,0.0,0.0,0.0,0.0
0.151306153,0.060858503,0.95872986,-0.2777287,-0.22018223,0.28428498,0.933114,0.9735584,0.0043630046,0.22839645,0.67377937,0.54330707,-0.5008381,-0.43752348,0.8395314,0.32211822,0.5954784,0.0020918092,0.80336857,-0.0062713623,0.0027008057,-0.022735596,9.547165,0.042785645,2.2397614,0.0010681152,-0.010650635,0.0010681152,-19.216919,3.3813477,7.461548,0,0.0,0.0,0.0,0.0
0.155761719,0.070919044,0.94459146,-0.32049567,-0.21713378,0.32821894,0.919307,0.97356224,0.0043940716,0.22837968,0.6598483,0.5552134,-0.50629866,-0.44222406,0.83170456,0.33571628,0.60748506,0.002375634,0.79432756,0.07019043,0.04069519,-0.046539307,9.5473175,0.04309082,2.239624,0.0021362305,-0.014907837,-0.0032043457,-19.216919,3.7399292,6.7703247,0,0.0,0.0,0.0,0.0
0.160186768,0.07090146,0.94457835,-0.32053834,-0.2170094,0.328257,0.9193227,0.97359115,0.004378502,0.22825626,0.6470872,0.5659412,-0.5108705,-0.44600743,0.8244421,0.34838587,0.6183491,0.002416003,0.7858999,-0.006729126,-0.0118255615,-0.05970764,9.547623,0.042938232,2.2384186,0.003189087,-0.0063934326,-0.0021362305,-19.216919,3.7399292,6.7703247,0,0.0,0.0,0.0,0.0
0.164611817,0.07090235,0.9445789,-0.32053614,-0.21705957,0.32825485,0.9193116,0.97358,0.0043940814,0.22830397,0.63447577,0.5763617,-0.5150219,-0.44938284,0.81719095,0.36090702,0.62888426,0.002455253,0.77749497,0.026931763,0.02633667,0.14094543,9.54747,0.04309082,2.2388763,-0.0063934326,-0.0234375,-0.0010681152,-19.216919,3.7399292,6.7703247,0,0.0,0.0,0.0,0.0
0.169006348,0.09236828,0.9068127,-0.41128904,-0.20886473,0.4215107,0.8824422,0.9735726,0.004394118,0.22833544,0.6220248,0.5864838,-0.5187696,-0.4523713,0.80995715,0.37326884,0.63909733,0.0024940297,0.7691219,0.05581665,0.02154541,-0.13227844,9.5473175,0.04309082,2.2391663,-0.0021362305,-0.017044067,-0.0021362305,-20.651245,5.1742554,6.7703247,0,0.0,0.0,0.0,0.0
0.173400879,0.09234567,0.9067912,-0.41134164,-0.2088245,0.42155686,0.8824296,0.97358334,0.0044096564,0.22828919,0.6220248,0.5864838,-0.5187696,-0.4523713,0.80995715,0.37326884,0.63909733,0.0024940297,0.7691219,0.055664063,0.021392822,-0.13183594,9.54747,0.04324341,2.2387238,-0.0021362305,-0.017044067,-0.0021362305,-20.651245,5.1742554,6.7703247,0,0.0,0.0,0.0,0.0
0.177795411,0.09231429,0.90676135,-0.41141447,-0.20882317,0.42162064,0.88239956,0.9735867,0.0044547953,0.2282744,0.59945345,0.6026866,-0.5267109,-0.45487088,0.7979739,0.3953861,0.6585955,0.0025698883,0.75249285,0.012573242,0.11192322,-0.02154541,9.54747,0.043685913,2.2385712,0.0021362305,-0.01171875,-0.0053253174,-20.651245,5.1742554,6.7703247,0,0.0,0.0,0.0,0.0
0.182189942,0.086759105,0.9175604,-0.3880151,-0.21114163,0.39757136,0.892948,0.9735974,0.004454773,0.22822815,0.5884189,0.6104569,-0.53019387,-0.45571384,0.7920452,0.40618873,0.66789824,0.0026075863,0.74424803,-0.054626465,0.006591797,-0.15997314,9.547623,0.043685913,2.2381287,-0.017028809,-0.008529663,0.0,-20.651245,4.815674,6.7703247,0,0.0,0.0,0.0,0.0
0.186584473,0.08677599,0.91757596,-0.38797462,-0.2111647,0.39753577,0.8929585,0.973591,0.004439184,0.22825621,0.577316,0.61842966,-0.533152,-0.45660874,0.78583574,0.41709793,0.6769156,0.0026445303,0.7360559,0.117767334,-0.017211914,0.11746216,9.547623,0.043533325,2.2384186,-0.011703491,-0.0095825195,0.0010681152,-20.651245,4.815674,6.7703247,0,0.0,0.0,0.0,0.0
0.190979004,0.08674634,0.9175487,-0.38804564,-0.21109533,0.39759842,0.89294696,0.9736087,0.0044547534,0.22818045,0.5663937,0.6261823,-0.53581136,-0.45724812,0.779672,0.42782667,0.6856547,0.0026804234,0.727922,0.050567627,0.020950317,-0.18345642,9.547775,0.043685913,2.237671,0.012786865,0.0,0.007446289,-20.651245,4.815674,6.7703247,0,0.0,0.0,0.0,0.0
0.195373536,0.09228743,0.9067358,-0.41147688,-0.2087687,0.42167547,0.88238615,0.97360086,0.0044703484,0.2282134,0.5556547,0.6337193,-0.5381893,-0.45764396,0.7735583,0.4383715,0.6941253,0.00271591,0.71984905,-0.021102905,0.030380249,0.08918762,9.547623,0.0438385,2.237976,-0.008514404,0.004257202,0.007446289,-20.651245,5.1742554,6.7703247,0,0.0,0.0,0.0,0.0
0.199768067,0.09228223,0.9067308,-0.41148895,-0.20875108,0.4216861,0.88238525,0.97360516,0.004470297,0.2281952,0.54534346,0.64064246,-0.54053473,-0.45752347,0.7678345,0.4484446,0.70233387,0.0027509988,0.7118424,-0.06913757,-0.0031433105,-0.08305359,9.547775,0.0438385,2.2378235,-0.0010681152,-0.0063934326,-0.0053253174,-20.651245,5.1742554,6.7703247,0,0.0,0.0,0.0,0.0
0.204162598,0.092295505,0.90674347,-0.41145816,-0.20879579,0.421659,0.8823877,0.9735943,0.0044703186,0.22824143,0.5352151,0.6473767,-0.54263085,-0.45720303,0.76216507,0.4583337,0.7102889,0.002785385,0.7039048,0.069885254,0.07347107,-0.11222839,9.547623,0.0438385,2.238266,0.0138549805,0.008514404,0.0010681152,-20.651245,5.1742554,6.7703247,0,0.0,0.0,0.0,0.0
0.208587647,0.08306152,0.9243256,-0.37245542,-0.21257223,0.38157886,0.8995614,0.9736087,0.0044547534,0.22818045,0.5252709,0.6539281,-0.5444892,-0.45669532,0.7565514,0.4680377,0.7179971,0.0028190834,0.69604033,0.050567627,-0.070007324,-0.14993286,9.547775,0.043685913,2.237671,0.0063934326,0.023422241,0.004257202,-20.471191,4.637146,6.942749,0,0.0,0.0,0.0,0.0
0.212982178,0.083080456,0.924342,-0.3724105,-0.21256424,0.38153952,0.89958,0.97360885,0.0044236346,0.22818051,0.5151116,0.66095847,-0.545705,-0.4564612,0.7504171,0.47803494,0.7254676,0.0028517966,0.6882504,-0.049987793,-0.08407593,-0.006286621,9.547775,0.043380737,2.237671,0.007461548,0.0010681152,-0.0032043457,-20.471191,4.637146,6.942749,0,0.0,0.0,0.0,0.0
0.217376709,0.083073206,0.9243357,-0.3724277,-0.21253696,0.3815547,0.89958,0.97361535,0.004423664,0.22815245,0.50514644,0.6677929,-0.54669887,-0.45603505,0.7443415,0.48783988,0.73270667,0.0028832334,0.6805384,0.026626587,0.030838013,-0.077819824,9.547775,0.043380737,2.237381,-0.008514404,0.0,0.004257202,-20.471191,4.637146,6.942749,0,0.0,0.0,0.0,0.0
0.221771241,0.07297981,0.9412538,-0.32971993,-0.21614486,0.3376712,0.916111,0.9736299,0.004409663,0.22809036,0.49627435,0.6744153,-0.54669535,-0.45567188,0.7383484,0.4971969,0.73896885,0.0023676297,0.67373544,0.12225342,-0.06956482,-0.12988281,9.547913,0.04324341,2.2367706,-0.0053253174,0.017028809,0.0063934326,-20.651245,4.4570923,8.152771,0,0.0,0.0,0.0,0.0
0.226165772,0.07296343,0.9412426,-0.3297553,-0.21611744,0.337702,0.9161061,0.9736373,0.0044236295,0.22805887,0.48625666,0.6815626,-0.5468336,-0.45535755,0.73175585,0.507132,0.7457908,0.0024084705,0.6661758,0.05986023,0.06913757,-0.067337036,9.548065,0.043380737,2.2364807,-0.0021362305,0.008514404,-0.0010681152,-20.651245,4.4570923,8.152771,0,0.0,0.0,0.0,0.0
0.230560303,0.072968915,0.9412464,-0.3297435,-0.21609978,0.33769187,0.9161142,0.97364086,0.004409642,0.22804415,0.4764423,0.688504,-0.54677695,-0.4548565,0.7252285,0.51686484,0.7524017,0.0024487737,0.6587,-0.02633667,-0.04562378,-0.052825928,9.548065,0.04324341,2.2363281,0.008529663,0.0,0.0,-20.651245,4.4570923,8.152771,0,0.0,0.0,0.0,0.0
0.234954834,0.07877464,0.9318,-0.354321,-0.21398613,0.36294577,0.90690696,0.97365516,0.0043785167,0.22798318,0.4668307,0.695246,-0.54653656,-0.45418027,0.71876764,0.52639663,0.7588079,0.0024879912,0.6513097,0.0118255615,-0.1027832,-0.15278625,9.548218,0.042938232,2.235733,-0.0010681152,-0.007461548,-0.0021362305,-20.292664,4.815674,8.152771,0,0.0,0.0,0.0,0.0
0.239349366,0.07879082,0.93181133,-0.35428736,-0.21396382,0.3629168,0.9069237,0.97365874,0.0043474133,0.22796845,0.45766506,0.70141006,-0.54641247,-0.4530924,0.7127535,0.5354342,0.7650163,0.0025258018,0.6440059,-0.016906738,-0.07853699,-0.037704468,9.548218,0.042633057,2.2355804,-0.0010681152,0.014892578,-0.0053253174,-20.292664,4.815674,8.152771,0,0.0,0.0,0.0,0.0
0.243743897,0.07881983,0.93183184,-0.35422724,-0.21395229,0.36286497,0.9069473,0.973659,0.0043022907,0.2279685,0.44869396,0.70740086,-0.54612976,-0.45186543,0.7068079,0.5442795,0.7710327,0.0025622342,0.63679045,-0.06478882,-0.10682678,-0.042495728,9.548218,0.04219055,2.2355804,-0.0010681152,0.015960693,-0.004272461,-20.292664,4.815674,8.152771,0,0.0,0.0,0.0,0.0
0.248168946,0.08444425,0.9219153,-0.378076,-0.21182594,0.38736758,0.8972604,0.97365236,0.004317821,0.22799651,0.43991593,0.7132237,-0.5456976,-0.45050904,0.7009316,0.5529344,0.7768626,0.0025970354,0.6296647,0.04055786,0.00793457,-0.1625061,9.548218,0.04234314,2.2358704,0.0010681152,0.0095825195,0.008514404,-21.905518,4.9957275,7.2891235,0,0.0,0.0,0.0,0.0
0.252563477,0.08445366,0.9219236,-0.3780534,-0.21182188,0.38734773,0.8972698,0.9736524,0.004302262,0.22799654,0.43156672,0.71851516,-0.54542285,-0.44880453,0.69550633,0.5611109,0.7825118,0.0026314512,0.62263024,0.026184082,-0.006286621,-0.023635864,9.548218,0.04219055,2.2358704,0.004257202,0.024490356,-0.0010681152,-21.905518,4.9957275,7.2891235,0,0.0,0.0,0.0,0.0
0.256958008,0.084463075,0.92193204,-0.37803087,-0.21181782,0.38732794,0.8972793,0.9736524,0.0042867023,0.22799654,0.42340022,0.72366107,-0.54502016,-0.44700128,0.69015044,0.5691065,0.7879861,0.0026648673,0.61568725,0.05491638,-0.054000854,0.043395996,9.548218,0.042037964,2.2358704,0.0053253174,0.01171875,0.003189087,-21.905518,4.9957275,7.2891235,0,0.0,0.0,0.0,0.0
0.26135254,0.084431365,0.92190385,-0.37810686,-0.21181712,0.38739473,0.89725083,0.9736554,0.0043333946,0.22798324,0.41541424,0.7286656,-0.54449743,-0.44510683,0.68486434,0.5769235,0.7932912,0.0026973044,0.6088365,-0.04084778,0.13227844,-0.047439575,9.548218,0.042495728,2.235733,-0.0063934326,0.012786865,0.0095825195,-21.905518,4.9957275,7.2891235,0,0.0,0.0,0.0,0.0
0.265747071,0.08443691,0.9219087,-0.3780935,-0.2117987,0.3873831,0.89726007,0.973659,0.0043178503,0.2279685,0.40760645,0.73353153,-0.5438643,-0.44312805,0.6796499,0.58456266,0.7984325,0.0027300261,0.6020781,-0.08872986,-0.05909729,-0.052078247,9.548218,0.04234314,2.2355804,-0.004257202,0.008514404,-0.0063934326,-21.905518,4.9957275,7.2891235,0,0.0,0.0,0.0,0.0
0.270141602,0.08445839,0.9219278,-0.3780421,-0.2118396,0.38733777,0.89726996,0.9736482,0.0043023117,0.22801475,0.39997426,0.7382642,-0.54312664,-0.44107172,0.674506,0.59202814,0.8034154,0.0027617826,0.5954125,0.05027771,-0.03981018,0.13902283,9.548065,0.04219055,2.236023,-0.009567261,0.007461548,-0.009597778,-21.905518,4.9957275,7.2891235,0,0.0,0.0,0.0,0.0
0.274536133,0.081052266,0.9279874,-0.36368942,-0.21311659,0.37258682,0.90319455,0.973659,0.0043022907,0.2279685,0.3925155,0.7428679,-0.5422905,-0.43894544,0.6694323,0.5993224,0.80824405,0.0027925933,0.588841,0.16026306,0.0032958984,-0.09516907,9.548218,0.04219055,2.2355804,0.0053253174,0.0,0.0053253174,-20.651245,4.4570923,6.7703247,0,0.0,0.0,0.0,0.0
0.278930665,0.08106163,0.9279956,-0.36366627,-0.21311274,0.37256643,0.90320385,0.97365904,0.004286731,0.22796853,0.3850874,0.74755746,-0.5411705,-0.4368768,0.66419107,0.6066208,0.81292456,0.0028227875,0.5823622,0.05491638,-0.044418335,5.950928E-4,9.548218,0.042037964,2.2355804,-0.008514404,0.0063934326,-0.0032043457,-20.651245,4.4570923,6.7703247,0,0.0,0.0,0.0,0.0
0.283325196,0.08107468,0.9280071,-0.36363408,-0.21312326,0.37253806,0.90321314,0.9736557,0.0042711566,0.2279833,0.3778313,0.75211775,-0.5399653,-0.4347424,0.6590226,0.6137494,0.8174611,0.0028520662,0.57597685,-0.10310364,-0.025131226,0.029174805,9.548218,0.041885376,2.235733,0.0095825195,0.004257202,-0.0021362305,-20.651245,4.4570923,6.7703247,0,0.0,0.0,0.0,0.0
0.287750245,0.07141387,0.9437694,-0.32279938,-0.2165524,0.33057657,0.918599,0.9736555,0.004302276,0.22798327,0.37093863,0.75687104,-0.5380992,-0.43222803,0.6535609,0.6213189,0.8219389,0.002110394,0.56957185,0.002243042,0.0655365,-0.004348755,9.548218,0.04219055,2.235733,-0.012771606,-0.0021362305,0.0053253174,-20.471191,4.2785645,7.9803467,0,0.0,0.0,0.0,0.0
0.292144776,0.071407,0.94376475,-0.32281452,-0.21656893,0.33058965,0.9185904,0.97365236,0.004317821,0.22799651,0.3636343,0.76175606,-0.53618824,-0.4303095,0.64786035,0.62857836,0.82619846,0.0021542318,0.5633751,-0.0121154785,0.04144287,0.033828735,9.548218,0.04234314,2.2358704,-0.003189087,0.004257202,-0.0010681152,-20.471191,4.2785645,7.9803467,0,0.0,0.0,0.0,0.0
0.296539307,0.07139299,0.94375515,-0.32284534,-0.21650934,0.33061674,0.91859466,0.97366667,0.004317816,0.22793555,0.35650453,0.76650155,-0.53420955,-0.42832348,0.6422387,0.6356638,0.83032733,0.0021975036,0.5572716,0.011672974,0.02229309,-0.13795471,9.54837,0.04234314,2.2352753,0.012786865,-0.004257202,0.0,-20.471191,4.2785645,7.9803467,0,0.0,0.0,0.0,0.0
0.300933838,0.08257399,0.92521715,-0.37034425,-0.21248104,0.3794134,0.90049833,0.97366995,0.00433339,0.22792076,0.34954572,0.7711115,-0.5321699,-0.4262748,0.63669616,0.64257896,0.8343306,0.00223991,0.5512599,0.107437134,0.026931763,-0.027679443,9.54837,0.042495728,2.2351227,-0.0021362305,0.020217896,-0.012786865,-19.5755,4.4570923,6.7703247,0,0.0,0.0,0.0,0.0
0.30532837,0.08257771,0.9252202,-0.37033558,-0.21253102,0.3794056,0.90048975,0.97365874,0.0043474133,0.22796845,0.3431974,0.77493083,-0.530752,-0.4238119,0.6320419,0.6487731,0.8382118,0.0022817794,0.54534006,-0.031280518,0.036361694,0.11552429,9.548218,0.042633057,2.2355804,0.014907837,0.007461548,0.0053253174,-19.5755,4.4570923,6.7703247,0,0.0,0.0,0.0,0.0
0.309722901,0.08254633,0.9251937,-0.3704088,-0.21249267,0.3794699,0.90047175,0.9736698,0.004378513,0.22792073,0.33700076,0.7786467,-0.5292823,-0.42131966,0.6274583,0.6548174,0.841974,0.0023230924,0.5395131,0.06913757,0.05999756,-0.1234436,9.54837,0.042938232,2.2351227,0.0021362305,0.018096924,0.0095825195,-19.5755,4.4570923,6.7703247,0,0.0,0.0,0.0,0.0
0.314117432,0.08110873,0.9277772,-0.36421275,-0.21303076,0.37310943,0.90299904,0.9736731,0.0043474077,0.2279075,0.3309521,0.782261,-0.5277673,-0.4188004,0.62294626,0.66071486,0.8456222,0.002364201,0.53377664,-0.045791626,-0.06417847,-0.037109375,9.54837,0.042633057,2.2349854,-0.007461548,0.0021362305,-0.008529663,-19.754028,4.9957275,8.326721,0,0.0,0.0,0.0,0.0
0.318511963,0.08111231,0.9277796,-0.36420572,-0.21304359,0.37310335,0.9029985,0.97366995,0.0043473938,0.22792076,0.32499185,0.7858627,-0.52611804,-0.41630295,0.6183964,0.66654164,0.84915966,0.002403865,0.52813077,0.006881714,-0.011520386,0.034576416,9.54837,0.042633057,2.2351227,0.0095825195,0.0021362305,0.0,-19.754028,4.9957275,8.326721,0,0.0,0.0,0.0,0.0
0.322906495,0.081086755,0.92776215,-0.36425582,-0.21307369,0.37314618,0.9029737,0.97366554,0.0043941233,0.22793892,0.3191758,0.78936666,-0.5244302,-0.41378444,0.6139172,0.6722262,0.85258967,0.002442736,0.5225752,0.016616821,0.13645935,0.08230591,9.548218,0.04309082,2.2352753,-0.014892578,0.0010681152,0.0095825195,-19.754028,4.9957275,8.326721,0,0.0,0.0,0.0,0.0
0.327331543,0.06790309,0.9488531,-0.30832964,-0.21769473,0.31568742,0.9235532,0.973652,0.004409622,0.22799644,0.31350088,0.7927752,-0.5227089,-0.4112489,0.609509,0.6777707,0.85591555,0.0024817637,0.5171096,-0.026489258,0.050125122,0.13917542,9.548218,0.04324341,2.2358704,0.0095825195,-0.007461548,-0.0032043457,-20.11261,3.919983,7.633972,0,0.0,0.0,0.0,0.0
0.331726075,0.06789812,0.9488497,-0.30834097,-0.2177156,0.31569722,0.9235449,0.9736476,0.0044236765,0.22801462,0.30746377,0.79683214,-0.5201198,-0.40907672,0.60419554,0.6838158,0.8591404,0.0025203212,0.5117337,0.011978149,0.016464233,0.057617188,9.548065,0.043380737,2.236023,-0.013839722,0.017028809,0.004257202,-20.11261,3.919983,7.633972,0,0.0,0.0,0.0,0.0
0.336120606,0.06790019,0.94885105,-0.3083362,-0.21768172,0.31569323,0.9235543,0.9736551,0.004409636,0.22798316,0.3015776,0.80077314,-0.51750684,-0.40687242,0.5989623,0.68970937,0.86226785,0.0025583883,0.5064461,-0.08395386,-0.0073394775,0.110580444,9.548218,0.04324341,2.235733,-0.0021362305,-0.0021362305,-0.0010681152,-20.11261,3.919983,7.633972,0,0.0,0.0,0.0,0.0
0.340515137,0.06791018,0.9488578,-0.30831334,-0.217727,0.31567302,0.9235505,0.97364426,0.0044096573,0.22802939,0.3015776,0.80077314,-0.51750684,-0.40687242,0.5989623,0.68970937,0.86226785,0.0025583883,0.5064461,-0.08380127,-0.0073394775,0.11013794,9.548065,0.04324341,2.2361755,-0.0021362305,-0.0021362305,-0.0010681152,-20.11261,3.919983,7.633972,0,0.0,0.0,0.0,0.0
0.344909668,0.0855064,0.91981965,-0.3829106,-0.21142085,0.39231673,0.8952032,0.97364765,0.0044096727,0.22801463,0.29024488,0.8083227,-0.5122229,-0.40238303,0.5887338,0.70105666,0.868243,0.002631699,0.49613228,0.03591919,0.002243042,-0.014205933,9.548065,0.04324341,2.236023,0.007461548,-0.0021362305,0.003189087,-19.934082,4.815674,7.116699,0,0.0,0.0,0.0,0.0
0.3493042,0.08550551,0.91981894,-0.3829126,-0.21141748,0.39231846,0.89520323,0.9736484,0.0044096056,0.22801116,0.28544715,0.8109794,-0.51071745,-0.39963728,0.5850686,0.7056804,0.87109697,0.0026672585,0.49110377,0.050125122,0.021392822,-0.014205933,9.548218,0.04324341,2.236023,0.0063934326,-0.012786865,0.0063934326,-19.934082,4.815674,7.116699,0,0.0,0.0,0.0,0.0
0.353698731,0.077407435,0.93404746,-0.34865957,-0.21451883,0.3571216,0.90909064,0.9736476,0.0044236765,0.22801462,0.2805498,0.8132897,-0.5097565,-0.3960006,0.58185333,0.71037334,0.87434286,0.0025687823,0.48530203,0.011978149,0.030838013,0.009735107,9.548065,0.043380737,2.236023,0.0053253174,-0.014907837,0.0053253174,-21.72699,4.4570923,7.116699,0,0.0,0.0,0.0,0.0
0.358093262,0.07739063,0.9340331,-0.34870183,-0.21449175,0.35715902,0.9090824,0.973655,0.004439199,0.22798313,0.27568874,0.8162559,-0.5076633,-0.3934984,0.5776846,0.71515006,0.8770147,0.0026058801,0.4804565,-0.055221558,0.040252686,-0.090530396,9.548218,0.043533325,2.235733,0.0138549805,-0.0021362305,-0.0010681152,-21.72699,4.4570923,7.116699,0,0.0,0.0,0.0,0.0
0.362487793,0.077374265,0.934019,-0.348743,-0.21446659,0.35719544,0.90907395,0.9736618,0.00445479,0.22795361,0.27094832,0.8191416,-0.505563,-0.39099592,0.57358515,0.719807,0.8796074,0.0026425468,0.475693,0.002243042,0.054473877,-0.08544922,9.548218,0.043685913,2.2354279,-0.0010681152,-0.007461548,-0.0053253174,-21.72699,4.4570923,7.116699,0,0.0,0.0,0.0,0.0
0.366912842,0.07927437,0.9307771,-0.3568889,-0.21375243,0.36556002,0.90591156,0.973666,0.0044702976,0.22793539,0.26632583,0.8219493,-0.5034581,-0.38849553,0.56955445,0.7243473,0.8821235,0.0026787915,0.47101066,-0.098464966,0.01121521,-0.05177307,9.54837,0.0438385,2.2352753,-0.020217896,-0.0032043457,-0.009597778,-20.292664,4.4570923,7.116699,0,0.0,0.0,0.0,0.0
0.371307374,0.07929803,0.9307962,-0.3568335,-0.21376243,0.36551145,0.9059288,0.9736619,0.0044392305,0.22795363,0.2618875,0.82457995,-0.50148064,-0.38595265,0.5657389,0.7286837,0.8845651,0.0027146218,0.46640876,0.05970764,-0.074645996,0.06300354,9.548218,0.043533325,2.2354279,0.0,0.007461548,0.0,-20.292664,4.4570923,7.116699,0,0.0,0.0,0.0,0.0
0.375701905,0.07928844,0.9307884,-0.35685593,-0.21376629,0.3655311,0.90591985,0.9736618,0.00445479,0.22795361,0.25755966,0.82714146,-0.49949983,-0.383419,0.5619871,0.7329123,0.8869346,0.002749114,0.46188697,-0.09831238,0.044891357,-0.03277588,9.548218,0.043685913,2.2354279,0.0063934326,0.0053253174,0.0063934326,-20.292664,4.4570923,7.116699,0,0.0,0.0,0.0,0.0
0.380096436,0.09600701,0.8988919,-0.42752314,-0.20683005,0.43814802,0.8747844,0.973655,0.004439199,0.22798313,0.25333923,0.8296349,-0.49751896,-0.38089606,0.55829936,0.73703456,0.8892341,0.0027832277,0.45744383,0.0070343018,-0.031570435,0.086639404,9.548218,0.043533325,2.235733,0.010650635,-0.0021362305,-0.010650635,-20.471191,4.9957275,5.9066772,0,0.0,0.0,0.0,0.0
0.384490967,0.095979966,0.8988622,-0.42759168,-0.20677409,0.43820882,0.8747672,0.9736695,0.0044547543,0.22792067,0.24982446,0.83118135,-0.49671435,-0.37798983,0.55599415,0.74026626,0.89146584,0.002816347,0.45307904,0.006881714,0.020950317,-0.13302612,9.54837,0.043685913,2.2351227,0.0,-0.0138549805,0.004257202,-20.471191,4.9957275,5.9066772,0,0.0,0.0,0.0,0.0
0.388885499,0.09597612,0.89885795,-0.42760146,-0.20676123,0.43821752,0.8747659,0.9736727,0.0044547687,0.22790739,0.24639131,0.83269,-0.49590188,-0.37511578,0.5537321,0.743417,0.8936327,0.002849115,0.44878992,-0.031433105,0.011367798,-0.075424194,9.54837,0.043685913,2.2349854,-0.007461548,-0.0053253174,0.0010681152,-20.471191,4.9957275,5.9066772,0,0.0,0.0,0.0,0.0
0.39328003,0.06837649,0.94809717,-0.31054223,-0.21748675,0.31794986,0.92282575,0.9736653,0.004439246,0.22793886,0.24303803,0.83416235,-0.49508148,-0.3722751,0.5515114,0.7464894,0.8957364,0.0028812285,0.44457614,-0.016906738,-0.031570435,0.10145569,9.548218,0.043533325,2.2352753,0.003189087,-0.0032043457,0.0021209717,-21.368408,4.0985107,7.8079224,0,0.0,0.0,0.0,0.0
0.397674561,0.068373136,0.9480948,-0.31055018,-0.21751903,0.3179567,0.9228158,0.9736583,0.004454774,0.22796835,0.23880173,0.8370255,-0.49230283,-0.37009147,0.54715616,0.75076795,0.8977784,0.0029123886,0.44043782,-0.050430298,0.030532837,0.08200073,9.548218,0.043685913,2.2355804,0.0095825195,0.0,-0.009597778,-21.368408,4.0985107,7.8079224,0,0.0,0.0,0.0,0.0
0.402069092,0.06834708,0.9480765,-0.31061184,-0.21744816,0.3180111,0.92281383,0.973676,0.0044703437,0.2278926,0.23467383,0.83980924,-0.4895392,-0.3679115,0.5428736,0.75493664,0.89976066,0.0029432366,0.43637368,0.006881714,0.030380249,-0.22850037,9.54837,0.0438385,2.2348328,-0.003189087,-0.0053253174,-0.014923096,-21.368408,4.0985107,7.8079224,0,0.0,0.0,0.0,0.0
0.406494141,0.069541395,0.9462233,-0.31595173,-0.21705486,0.32348254,0.9210028,0.9736791,0.0045310417,0.22787778,0.23065084,0.84251547,-0.48679358,-0.36573502,0.53866404,0.7589987,0.90168625,0.0029737789,0.4323807,-0.036209106,0.15907288,-0.022445679,9.54837,0.044433594,2.2346802,0.0,-0.008529663,0.004257202,-20.292664,4.0985107,7.8079224,0,0.0,0.0,0.0,0.0
0.410888672,0.06955427,0.94623196,-0.3159228,-0.21711111,0.3234571,0.9209985,0.9736657,0.004530979,0.22793531,0.22677165,0.84508526,-0.48415443,-0.36353928,0.5346231,0.7629006,0.90355617,0.0030049242,0.42845905,-0.031433105,0.024993896,0.12060547,9.54837,0.044433594,2.2352753,-0.0010681152,-0.012786865,0.01171875,-20.292664,4.0985107,7.8079224,0,0.0,0.0,0.0,0.0
0.415283204,0.06953479,0.94621885,-0.31596652,-0.21707277,0.32349536,0.9209941,0.97367567,0.004546585,0.22789253,0.2229918,0.8475852,-0.481533,-0.361354,0.5306507,0.7667028,0.9053717,0.0030354452,0.42460907,0.054763794,0.020050049,-0.07527161,9.54837,0.04458618,2.2348328,0.0010681152,0.0010681152,-0.0021362305,-20.292664,4.0985107,7.8079224,0,0.0,0.0,0.0,0.0
0.419677735,0.07670054,0.9349102,-0.34649667,-0.2145952,0.35485506,0.9099598,0.9736868,0.0045621246,0.22784482,0.21930805,0.85001653,-0.47893205,-0.35917884,0.5267471,0.77040774,0.9071353,0.003065668,0.42082784,0.040252686,-0.0806427,-0.022140503,9.548523,0.04473877,2.234375,-0.011703491,-0.012786865,0.003189087,-20.471191,4.637146,7.9803467,0,0.0,0.0,0.0,0.0
0.424072266,0.076717064,0.93492204,-0.34646112,-0.21457456,0.3548243,0.90997666,0.97369003,0.00453102,0.22783156,0.21930805,0.85001653,-0.47893205,-0.35917884,0.5267471,0.77040774,0.9071353,0.003065668,0.42082784,0.040252686,-0.080337524,-0.022003174,9.548523,0.044433594,2.2342377,-0.011703491,-0.012786865,0.003189087,-20.471191,4.637146,7.9803467,0,0.0,0.0,0.0,0.0
0.428466797,0.07672698,0.93492913,-0.34643984,-0.21457072,0.35480586,0.90998477,0.9736901,0.00451546,0.22783157,0.21255705,0.8536223,-0.47555062,-0.3545159,0.5208804,0.77653205,0.9105701,0.003532909,0.4133395,-0.045944214,-0.046661377,0.0019378662,9.548523,0.044281006,2.2342377,-0.008514404,0.0095825195,0.008514404,-20.471191,4.637146,7.9803467,0,0.0,0.0,0.0,0.0
0.432861329,0.08965331,0.9117069,-0.40093994,-0.20959537,0.4108168,0.88729894,0.97366935,0.0044858726,0.2279206,0.20937024,0.85554546,-0.47350398,-0.3522521,0.51771545,0.77967244,0.91218555,0.0035525602,0.4097619,0.14575195,0.0014953613,-0.032470703,9.54837,0.04399109,2.2351227,-0.0010681152,-0.014907837,-0.0032043457,-19.754028,4.9957275,6.942749,0,0.0,0.0,0.0,0.0
0.43725586,0.08964984,0.9117038,-0.4009476,-0.20961691,0.41082332,0.8872907,0.973665,0.0044999286,0.2279388,0.20668885,0.856794,-0.47242317,-0.349761,0.5156464,0.7821611,0.9137543,0.0035712263,0.40625152,0.026184082,0.030090332,0.06315613,9.548218,0.044128418,2.2352753,0.003189087,0.026611328,0.0063934326,-19.754028,4.9957275,6.942749,0,0.0,0.0,0.0,0.0
0.441650391,0.08967822,0.9117287,-0.40088472,-0.20956932,0.4107688,0.8873272,0.9736727,0.0044392087,0.22790739,0.20407103,0.8580126,-0.47134843,-0.34730452,0.5136161,0.78458786,0.9152784,0.0035898006,0.40280584,0.011672974,-0.13690186,-0.089782715,9.54837,0.043533325,2.2349854,0.0053253174,-0.004257202,-0.008529663,-19.754028,4.9957275,6.942749,0,0.0,0.0,0.0,0.0
0.44607544,0.09180801,0.9074576,-0.40999043,-0.2086293,0.4201202,0.8831607,0.973676,0.0044547836,0.2278926,0.20151533,0.85920274,-0.4702788,-0.34488142,0.5116225,0.78695565,0.9167597,0.0036067886,0.39942285,-0.055374146,0.030532837,-0.080062866,9.54837,0.043685913,2.2348328,0.0021362305,0.0021362305,-0.01171875,-20.829773,5.7128906,7.9803467,0,0.0,0.0,0.0,0.0
0.450469971,0.09181778,0.9074655,-0.40997064,-0.20858839,0.42010343,0.8831785,0.97368395,0.0044236295,0.2278597,0.19909008,0.8602599,-0.46937832,-0.34245166,0.5098429,0.78916866,0.91819936,0.0036237487,0.3961021,0.064193726,-0.07928467,-0.06538391,9.548523,0.043380737,2.2345276,-0.007461548,0.0095825195,0.0010681152,-20.829773,5.7128906,7.9803467,0,0.0,0.0,0.0,0.0
0.454864502,0.09180492,0.907455,-0.4099967,-0.20854728,0.42012596,0.8831773,0.97369385,0.0044236747,0.2278169,0.19672139,0.8612925,-0.46848264,-0.34005702,0.5080965,0.79132754,0.9195988,0.0036397462,0.392842,0.025878906,-0.036209106,-0.13676453,9.548523,0.043380737,2.234085,-0.0053253174,-0.010650635,0.0021209717,-20.829773,5.7128906,7.9803467,0,0.0,0.0,0.0,0.0
0.459259034,0.06746444,0.949439,-0.3066172,-0.21767221,0.3139208,0.9241604,0.9736875,0.0043940824,0.22784498,0.19440763,0.8623007,-0.46759287,-0.3376974,0.5063833,0.79343325,0.92095935,0.003655425,0.38964152,-0.017211914,-0.08378601,0.059265137,9.548523,0.04309082,2.234375,0.027694702,0.004257202,0.0021209717,-20.471191,3.919983,7.633972,0,0.0,0.0,0.0,0.0
0.463653565,0.06752264,0.9494786,-0.3064815,-0.21770263,0.3138018,0.92419356,0.97367656,0.0043178597,0.22789274,0.19138148,0.8644366,-0.46488965,-0.33581185,0.50272834,0.79655164,0.9222817,0.0036701984,0.38650098,0.002090454,-0.10697937,-0.046539307,9.54837,0.04234314,2.2348328,-0.0053253174,0.004257202,-0.0063934326,-20.471191,3.919983,7.633972,0,0.0,0.0,0.0,0.0
0.468048096,0.067545384,0.9494942,-0.3064285,-0.21771047,0.31375533,0.92420757,0.9736733,0.0042867255,0.22790754,0.1884335,0.866516,-0.4622151,-0.33394185,0.49913564,0.7995914,0.9235668,0.0036831514,0.38341984,-0.08888245,-0.092315674,0.010772705,9.54837,0.042037964,2.2349854,0.020233154,0.018096924,0.01171875,-20.471191,3.919983,7.633972,0,0.0,0.0,0.0,0.0
0.472442627,0.06756119,0.949505,-0.30639163,-0.2177346,0.31372297,0.924213,0.97366685,0.0042711375,0.22793558,0.18556099,0.8685398,-0.45957118,-0.33208767,0.49560556,0.80255395,0.92481613,0.003695223,0.38039646,-0.064941406,-0.015563965,0.04878235,9.54837,0.041885376,2.2352753,-0.004257202,-0.0010681152,0.004257202,-20.471191,3.919983,7.633972,0,0.0,0.0,0.0,0.0
0.476837159,0.06752264,0.9494786,-0.3064815,-0.21770263,0.3138018,0.92419356,0.97367656,0.0043178597,0.22789274,0.18276195,0.87050956,-0.45695862,-0.33025032,0.49213755,0.805441,0.9260307,0.0037067414,0.37743008,-0.060150146,0.08932495,-0.104003906,9.54837,0.04234314,2.2348328,-0.014892578,0.0095825195,0.0,-20.471191,3.919983,7.633972,0,0.0,0.0,0.0,0.0
0.48123169,0.06752264,0.9494786,-0.3064815,-0.21770263,0.3138018,0.92419356,0.97367656,0.0043178597,0.22789274,0.18003358,0.8724257,-0.45438024,-0.32842934,0.48873273,0.80825394,0.92721194,0.0037189636,0.37451848,0.002090454,0.012710571,-0.013015747,9.54837,0.04234314,2.2348328,0.012786865,0.0063934326,-0.0021362305,-20.471191,3.919983,7.633972,0,0.0,0.0,0.0,0.0
0.485656739,0.08706173,0.9169524,-0.38938254,-0.21066767,0.39897335,0.89243454,0.9736731,0.004333404,0.2279075,0.17737454,0.8742905,-0.4518345,-0.32662594,0.4853887,0.8109953,0.92836076,0.0037309416,0.37166154,-0.021850586,0.031723022,0.053863525,9.54837,0.042495728,2.2349854,-0.010635376,0.003189087,0.0,-19.5755,5.1742554,7.8079224,0,0.0,0.0,0.0,0.0
0.49005127,0.08706229,0.9169527,-0.38938144,-0.21063146,0.39897257,0.8924434,0.9736809,0.00431781,0.22787455,0.17575021,0.8748018,-0.45147946,-0.32505804,0.48446438,0.812177,0.92921966,0.0040167435,0.36950606,-0.036361694,-0.03996277,-0.11341858,9.548523,0.04234314,2.2346802,0.0138549805,0.010650635,0.0010681152,-19.5755,5.1742554,7.8079224,0,0.0,0.0,0.0,0.0
0.494445801,0.08706229,0.9169527,-0.38938144,-0.21063146,0.39897257,0.8924434,0.9736809,0.00431781,0.22787455,0.17378728,0.8757241,-0.45045012,-0.32297784,0.48279515,0.8139989,0.9303135,0.004022765,0.36674312,0.112075806,0.00793457,0.025436401,9.548523,0.04234314,2.2346802,-0.003189087,0.0095825195,0.0095825195,-19.5755,5.1742554,7.8079224,0,0.0,0.0,0.0,0.0
0.498840333,0.07113435,0.944155,-0.32173172,-0.21651417,0.32947385,0.9190042,0.97368455,0.0042867064,0.22785984,0.17187044,0.8766249,-0.4494323,-0.3209304,0.4811576,0.81577635,0.9313776,0.004028666,0.36403233,0.025878906,-0.063583374,-0.15637207,9.548523,0.042037964,2.2345276,0.004257202,0.007461548,-0.0063934326,-20.651245,4.0985107,7.461548,0,0.0,0.0,0.0,0.0
0.503234864,0.071118385,0.94414324,-0.32176945,-0.21649018,0.329507,0.91899776,0.9736909,0.0043022945,0.22783178,0.16952254,0.87821966,-0.44720516,-0.31916824,0.4782406,0.8181794,0.93241286,0.0040338268,0.36137238,0.040252686,0.012863159,-0.065093994,9.548523,0.04219055,2.2342377,0.02130127,0.01171875,0.004257202,-20.651245,4.0985107,7.461548,0,0.0,0.0,0.0,0.0
0.507629395,0.07113105,0.9441526,-0.32173952,-0.21649973,0.32948077,0.91900504,0.97368795,0.0042867213,0.22784509,0.16723318,0.8797727,-0.445009,-0.31742674,0.47537735,0.8205222,0.93342024,0.004039196,0.35876223,0.025878906,-0.020492554,0.054473877,9.548523,0.042037964,2.234375,-0.0053253174,0.020217896,-0.0032043457,-20.651245,4.0985107,7.461548,0,0.0,0.0,0.0,0.0
0.512023926,0.08476986,0.9212775,-0.37955448,-0.21151748,0.38888213,0.89667773,0.97369117,0.0042711757,0.22783183,0.1650013,0.881286,-0.44284257,-0.31570658,0.472566,0.82280666,0.9344003,0.0040441467,0.3562018,0.12164307,-0.039505005,-0.022003174,9.548523,0.041885376,2.2342377,0.0021362305,0.003189087,-0.0138549805,-20.11261,4.9957275,7.633972,0,0.0,0.0,0.0,0.0
0.516418458,0.08476582,0.9212745,-0.37956312,-0.21150324,0.38888964,0.8966779,0.97369456,0.0042711906,0.22781707,0.16322505,0.8821613,-0.4417566,-0.31380004,0.47092983,0.8244723,0.935354,0.0040486874,0.3536898,-0.08425903,-0.020339966,-0.055374146,9.548523,0.041885376,2.234085,-0.017028809,0.0021362305,0.0021209717,-20.11261,4.9957275,7.633972,0,0.0,0.0,0.0,0.0
0.520812989,0.08478233,0.9212874,-0.37952805,-0.21152656,0.38885918,0.89668566,0.97368807,0.0042571584,0.22784512,0.16149047,0.8830162,-0.44068485,-0.31192377,0.4693249,0.8260979,0.9362822,0.0040531377,0.35122526,0.059402466,-0.020202637,0.08320618,9.548523,0.041748047,2.234375,-0.011703491,0.0053253174,-0.008529663,-20.11261,4.9957275,7.633972,0,0.0,0.0,0.0,0.0
0.525238038,0.07082751,0.944661,-0.3203107,-0.21656562,0.32802057,0.91951174,0.97369546,0.00424157,0.227814,0.15979691,0.88385147,-0.43962654,-0.3100782,0.46775004,0.82768434,0.9371854,0.0040572183,0.3488081,-0.060440063,-0.039215088,-0.098464966,9.54866,0.04159546,2.234085,-0.0021362305,-0.0010681152,0.0021209717,-21.009827,4.4570923,8.4991455,0,0.0,0.0,0.0,0.0
0.529632569,0.070847616,0.94467413,-0.3202679,-0.21655847,0.3279835,0.9195267,0.9736956,0.0042104507,0.22781402,0.15774105,0.88527435,-0.43750104,-0.30846798,0.46505153,0.82980394,0.9380647,0.004060905,0.34643647,-0.0077667236,-0.072402954,-0.0027008057,9.54866,0.041290283,2.234085,0.0063934326,0.003189087,-0.008529663,-21.009827,4.4570923,8.4991455,0,0.0,0.0,0.0,0.0
0.5340271,0.07085343,0.9446778,-0.32025552,-0.2164955,0.32797304,0.9195452,0.9737091,0.004180946,0.22775652,0.15573658,0.88666105,-0.43540588,-0.3068785,0.46240202,0.83187133,0.93892044,0.004063896,0.3441101,0.049682617,-0.0769043,-0.13139343,9.54866,0.041000366,2.23349,0.010650635,-0.015975952,-0.0021362305,-21.009827,4.4570923,8.4991455,0,0.0,0.0,0.0,0.0
0.538421631,0.0851359,0.9206406,-0.38101548,-0.21123628,0.39038867,0.8960892,0.9737202,0.00419493,0.22770879,0.15378179,0.8880125,-0.43334165,-0.30530882,0.45980135,0.833888,0.939754,0.0040662372,0.3418271,0.02558899,0.009140015,-0.11656189,9.548813,0.041137695,2.2330322,0.008529663,0.004257202,0.0010681152,-21.009827,5.1742554,7.8079224,0,0.0,0.0,0.0,0.0
0.542816163,0.08511355,0.9206227,-0.38106376,-0.21119578,0.3904308,0.8960806,0.9737311,0.00421047,0.22766256,0.15228108,0.8887169,-0.4324265,-0.3035561,0.4584383,0.8352772,0.9405658,0.004068811,0.33958694,0.020645142,0.042495728,-0.106552124,9.548965,0.041290283,2.2325897,0.015975952,0.004257202,0.0,-21.009827,5.1742554,7.8079224,0,0.0,0.0,0.0,0.0
0.547210694,0.08512733,0.92063373,-0.381034,-0.21120584,0.39040488,0.89608943,0.97372764,0.0041948953,0.22767733,0.15081471,0.88940483,-0.43152514,-0.3018323,0.45710224,0.8366331,0.9413566,0.0040716445,0.3373888,0.020645142,-0.014816284,0.027374268,9.548965,0.041137695,2.2327423,0.0053253174,0.018096924,0.0,-21.009827,5.1742554,7.8079224,0,0.0,0.0,0.0,0.0
0.551605225,0.08308216,0.9243434,-0.37240645,-0.21198699,0.3815385,0.8997166,0.97373456,0.004194925,0.22764783,0.14938252,0.89007723,-0.43063596,-0.30013794,0.45579147,0.83795667,0.9421264,0.0040741097,0.33523324,-0.04638672,-0.024383545,-0.09681702,9.548965,0.041137695,2.2324371,0.0021362305,-0.0021362305,-0.0021362305,-20.471191,4.637146,6.942749,0,0.0,0.0,0.0,0.0
0.555999756,0.08308219,0.92434347,-0.37240636,-0.2119513,0.38153854,0.8997249,0.97374225,0.0041808872,0.22761486,0.14812037,0.8906587,-0.42986906,-0.29780707,0.45465752,0.83940303,0.9430648,0.0036853566,0.3325885,0.010925293,-0.043380737,-0.08215332,9.549118,0.041000366,2.232132,0.003189087,-0.008529663,0.007446289,-20.471191,4.637146,6.942749,0,0.0,0.0,0.0,0.0
0.560394288,0.08307835,0.9243402,-0.3724155,-0.21197265,0.3815465,0.8997166,0.97373796,0.00419494,0.22763306,0.14669414,0.8913897,-0.42884162,-0.29621038,0.4532225,0.840743,0.9437903,0.0036952673,0.33052397,-0.04159546,0.052230835,0.04220581,9.548965,0.041137695,2.2322845,-0.013839722,0.0063934326,0.0010681152,-20.471191,4.637146,6.942749,0,0.0,0.0,0.0,0.0
0.564788819,0.076650314,0.9354242,-0.34511772,-0.21434557,0.35350254,0.9105449,0.97374576,0.0041809026,0.22760013,0.14530103,0.8921039,-0.4278297,-0.29464093,0.45181513,0.84205097,0.94449687,0.0037052608,0.3284995,-0.041748047,-0.024246216,-0.07241821,9.549118,0.041000366,2.2319794,-0.011703491,-0.0021362305,0.0053253174,-19.395447,4.2785645,7.2891235,0,0.0,0.0,0.0,0.0
0.569213868,0.07663971,0.9354164,-0.3451413,-0.21438491,0.35352293,0.91052777,0.97373796,0.0042104996,0.22763306,0.14376345,0.893073,-0.4263245,-0.29318404,0.4498963,0.8435855,0.94518524,0.0037147736,0.3265134,-0.0320282,0.06643677,0.05177307,9.548965,0.041290283,2.2322845,0.010650635,-0.004257202,-0.0021362305,-19.395447,4.2785645,7.2891235,0,0.0,0.0,0.0,0.0
0.573608399,0.07663971,0.9354164,-0.3451413,-0.21438491,0.35352293,0.91052777,0.97373796,0.0042104996,0.22763306,0.14226262,0.8940187,-0.42484346,-0.29175073,0.44801423,0.8450827,0.9458556,0.0037246882,0.32456627,0.01586914,0.008987427,0.027832031,9.548965,0.041290283,2.2322845,0.004257202,-0.0021362305,0.014892578,-19.395447,4.2785645,7.2891235,0,0.0,0.0,0.0,0.0
0.57800293,0.07218233,0.9425763,-0.3260975,-0.21595728,0.33396447,0.9175131,0.9737311,0.00419491,0.22766256,0.14079773,0.89494145,-0.423386,-0.29034004,0.4461679,0.846544,0.94650865,0.0037344045,0.32265675,0.03981018,-0.053100586,0.070617676,9.548965,0.041137695,2.2325897,-0.020217896,-0.0021362305,0.0,-21.368408,4.0985107,7.116699,0,0.0,0.0,0.0,0.0
0.582397461,0.07221659,0.9426038,-0.32601047,-0.21597822,0.33388746,0.9175362,0.9737239,0.0041498225,0.2276941,0.13924792,0.8960272,-0.4215984,-0.2890101,0.44398332,0.8481462,0.9471447,0.0037436145,0.32078466,0.011230469,-0.13406372,0.09428406,9.548813,0.04069519,2.2328796,-0.0063934326,0.012786865,-0.0010681152,-21.368408,4.0985107,7.116699,0,0.0,0.0,0.0,0.0
0.586791993,0.07221659,0.9426038,-0.32601047,-0.21597822,0.33388746,0.9175362,0.9737239,0.0041498225,0.2276941,0.13773625,0.89708674,-0.41983813,-0.2877004,0.4418385,0.84971005,0.9477643,0.003751739,0.31894943,0.030380249,0.03352356,0.022445679,9.548813,0.04069519,2.2328796,0.003189087,0.013839722,-0.01171875,-21.368408,4.0985107,7.116699,0,0.0,0.0,0.0,0.0
0.591186524,0.0748908,0.93832207,-0.33755454,-0.21506637,0.34573707,0.91335225,0.9737237,0.0041949456,0.22769405,0.13626118,0.8981201,-0.41810665,-0.2864105,0.43973416,0.85123616,0.948368,0.0037597008,0.31714973,0.03996277,0.090530396,-0.015853882,9.548813,0.041137695,2.2328796,0.0053253174,-0.0021362305,0.020217896,-20.651245,4.4570923,7.8079224,0,0.0,0.0,0.0,0.0
0.595581055,0.07490319,0.938331,-0.33752692,-0.2150774,0.34571293,0.9133588,0.9737203,0.004180927,0.2277088,0.13489273,0.89901775,-0.41661862,-0.28510654,0.437896,0.85262024,0.9489564,0.0037684059,0.31538484,-0.0079193115,-0.014678955,0.07975769,9.548813,0.041000366,2.2330322,-0.0021362305,0.004257202,-0.01171875,-20.651245,4.4570923,7.8079224,0,0.0,0.0,0.0,0.0
0.599975586,0.07490673,0.9383335,-0.337519,-0.21509181,0.34570596,0.91335803,0.9737169,0.0041809124,0.22772358,0.13355723,0.89989394,-0.41515455,-0.28382382,0.43609238,0.85397154,0.9495296,0.0037766562,0.31365463,0.030380249,-0.029037476,0.036514282,9.548813,0.041000366,2.2331848,-0.012771606,0.017028809,-0.0032043457,-20.651245,4.4570923,7.8079224,0,0.0,0.0,0.0,0.0
0.604370118,0.093016826,0.90535516,-0.41434273,-0.20793869,0.4246345,0.8811624,0.9737091,0.0041949498,0.22775652,0.13225362,0.9007492,-0.4137147,-0.28256196,0.4343231,0.8552907,0.95008826,0.0037847413,0.31195825,-0.0796051,0.061798096,0.055358887,9.54866,0.041137695,2.23349,-0.010635376,0.013839722,0.010650635,-21.188354,5.354309,6.942749,0,0.0,0.0,0.0,0.0
0.608795166,0.093020804,0.9053589,-0.41433355,-0.20788404,0.42462665,0.88117886,0.9737203,0.004165367,0.2277088,0.13146223,0.9008423,-0.4137641,-0.28109667,0.43412977,0.85587144,0.9506326,0.0037929455,0.31029546,0.05911255,-0.07196045,-0.10220337,9.548813,0.04084778,2.2330322,0.008529663,0.008514404,0.003189087,-21.188354,5.354309,6.942749,0,0.0,0.0,0.0,0.0
0.613189698,0.09302106,0.9053592,-0.41433293,-0.20784917,0.4246263,0.88118744,0.9737278,0.004149773,0.22767736,0.13068695,0.9009337,-0.41381085,-0.27965856,0.43394014,0.8564386,0.95116353,0.003800394,0.30866414,0.10684204,-0.0670166,-0.039657593,9.548965,0.04069519,2.2327423,0.015975952,0.008514404,0.010650635,-21.188354,5.354309,6.942749,0,0.0,0.0,0.0,0.0
0.617584229,0.08932852,0.91276187,-0.39860535,-0.20943004,0.40847135,0.8884201,0.97373486,0.0041186833,0.22764789,0.1299274,0.90102315,-0.41385525,-0.27824742,0.4337543,0.8569922,0.95168126,0.0038073813,0.3070639,0.06854248,-0.052352905,-0.07287598,9.548965,0.040390015,2.2324371,0.0053253174,0.003189087,-0.0021362305,-19.5755,5.1742554,7.461548,0,0.0,0.0,0.0,0.0
0.62197876,0.0893187,0.91275394,-0.39862558,-0.20943451,0.4084888,0.88841105,0.97373486,0.0041342434,0.22764789,0.12904222,0.90116376,-0.4138261,-0.27811208,0.43345577,0.85718715,0.95184124,0.0044767107,0.30655864,-0.13258362,0.009735107,-0.039352417,9.548965,0.040542603,2.2324371,0.0063934326,0.017028809,-0.008529663,-19.5755,5.1742554,7.461548,0,0.0,0.0,0.0,0.0
0.626373291,0.089373656,0.9127982,-0.39851204,-0.20954308,0.40839034,0.8884308,0.97370636,0.0041031344,0.22776987,0.12821756,0.90140224,-0.4135629,-0.2767751,0.43295962,0.85787034,0.9523423,0.0044698613,0.30499873,-0.017349243,-0.047409058,-0.040542603,9.54866,0.040237427,2.2336273,-0.0053253174,0.003189087,-0.014923096,-19.5755,5.1742554,7.461548,0,0.0,0.0,0.0,0.0
0.630767823,0.06759625,0.94952893,-0.30630994,-0.21770719,0.31365156,0.92424375,0.97367054,0.0042104707,0.22792089,0.12741151,0.90163666,-0.4133009,-0.27546552,0.4324713,0.8585379,0.95283,0.0044625266,0.30347162,0.097854614,0.09516907,0.058517456,9.54837,0.041290283,2.2351227,-0.0053253174,0.030883789,-0.0010681152,-20.471191,3.919983,7.633972,0,0.0,0.0,0.0,0.0
0.635162354,0.06762503,0.9495484,-0.30624276,-0.21774764,0.31359255,0.9242541,0.9736595,0.0041809264,0.22796863,0.12606446,0.9027425,-0.41129506,-0.27444115,0.4301581,0.8600267,0.95330465,0.0044574854,0.30197737,-0.055221558,-0.09605408,0.11552429,9.548218,0.041000366,2.2355804,-0.009567261,0.03514099,-0.019180298,-20.471191,3.919983,7.633972,0,0.0,0.0,0.0,0.0
0.639556885,0.06764541,0.9495623,-0.30619523,-0.2178847,0.31355038,0.92423624,0.9736275,0.0041949265,0.22810535,0.12475053,0.9038211,-0.4093223,-0.27343243,0.42788738,0.86147964,0.9537673,0.0044519543,0.30051318,-0.026184082,-0.024383545,0.0471344,9.547913,0.041137695,2.2369232,0.008529663,0.017028809,-0.007461548,-20.471191,3.919983,7.633972,0,0.0,0.0,0.0,0.0
0.643951416,0.06526393,0.9528486,-0.29634458,-0.21866065,0.30341598,0.92743,0.97361606,0.004271181,0.22815263,0.12346895,0.9048729,-0.40738243,-0.27244118,0.4256586,0.86289656,0.9542176,0.0044468143,0.29908028,-0.016464233,0.032333374,-0.096969604,9.547775,0.041885376,2.237381,0.019180298,0.025543213,-0.0021362305,-20.471191,3.5614014,6.942749,0,0.0,0.0,0.0,0.0
0.648376465,0.06526954,0.9528527,-0.29633015,-0.21873829,0.30340287,0.9274159,0.9735982,0.0042867307,0.22822833,0.122159414,0.9059886,-0.40529224,-0.2714921,0.4232788,0.8643651,0.95465654,0.0044433014,0.29767624,0.17521667,-0.049209595,-0.049835205,9.547623,0.042037964,2.2381287,0.010650635,0.02128601,-0.014923096,-20.471191,3.5614014,6.942749,0,0.0,0.0,0.0,0.0
0.652770997,0.065247625,0.9528367,-0.29638654,-0.21867996,0.30345303,0.9274133,0.97361284,0.0043022865,0.22816588,0.12088181,0.90707594,-0.40323794,-0.27055815,0.42094362,0.8657972,0.9550842,0.00444017,0.2963012,0.0026855469,0.05117798,-0.14978027,9.547775,0.04219055,2.2375183,0.004257202,0.024490356,-0.0053253174,-20.471191,3.5614014,6.942749,0,0.0,0.0,0.0,0.0
0.657165528,0.06544236,0.9525987,-0.29710755,-0.21865222,0.3041993,0.9271751,0.9736059,0.0042866957,0.22819537,0.11963445,0.90813535,-0.4012204,-0.2696366,0.41865325,0.8671941,0.9555018,0.004437412,0.29495186,-0.045196533,-0.049209595,0.05581665,9.547775,0.042037964,2.2378235,0.0063934326,0.013839722,-0.010650635,-20.829773,3.919983,7.9803467,0,0.0,0.0,0.0,0.0
0.661560059,0.06543223,0.95259225,-0.29713082,-0.21870413,0.30421945,0.92715657,0.973595,0.004317836,0.2282416,0.11842183,0.9091613,-0.39925173,-0.268727,0.4164205,0.8685504,0.955909,0.004434398,0.29362947,0.045928955,0.08454895,0.14155579,9.547623,0.04234314,2.238266,-0.010635376,0.019165039,-0.0021362305,-20.829773,3.919983,7.9803467,0,0.0,0.0,0.0,0.0
0.66595459,0.06539063,0.9525653,-0.29722613,-0.21875238,0.30430248,0.92711776,0.9735869,0.0043941126,0.22827446,0.11723819,0.9101614,-0.3973179,-0.26783195,0.41423017,0.8698733,0.95630604,0.004432067,0.2923339,0.055664063,0.05027771,-0.13168335,9.54747,0.04309082,2.2385712,-0.011703491,0.015960693,0.004257202,-20.829773,3.919983,7.9803467,0,0.0,0.0,0.0,0.0
0.670349122,0.08570173,0.91969436,-0.38316768,-0.21165355,0.39261043,0.8950195,0.97358,0.0043940814,0.22830397,0.116082296,0.91113555,-0.39541999,-0.2669513,0.41208303,0.87116283,0.9566932,0.004431308,0.29106435,0.050872803,0.03590393,-0.055374146,9.54747,0.04309082,2.2388763,0.007461548,0.02128601,-0.01171875,-20.651245,4.4570923,6.0791016,0,0.0,0.0,0.0,0.0
0.674743653,0.085714154,0.91970694,-0.38313472,-0.21166252,0.39258116,0.8950302,0.97357696,0.004378508,0.22831725,0.116082296,0.91113555,-0.39541999,-0.2669513,0.41208303,0.87116283,0.9566932,0.004431308,0.29106435,0.050872803,0.03605652,-0.055511475,9.54747,0.042938232,2.2390137,0.007461548,0.02128601,-0.01171875,-20.651245,4.4570923,6.0791016,0,0.0,0.0,0.0,0.0
0.679138184,0.085697964,0.9196906,-0.38317767,-0.21163918,0.39261937,0.89501905,0.9735835,0.0043940973,0.22828922,0.116082296,0.91113555,-0.39541999,-0.2669513,0.41208303,0.87116283,0.9566932,0.004431308,0.29106435,0.050872803,0.03590393,-0.055221558,9.54747,0.04309082,2.2387238,0.007461548,0.02128601,-0.01171875,-20.651245,4.4570923,6.0791016,0,0.0,0.0,0.0,0.0
0.683532715,0.08570324,0.9196959,-0.3831637,-0.21162081,0.39260703,0.8950287,0.973587,0.004378553,0.22827448,0.11424165,0.91165006,-0.39476952,-0.26376042,0.41094342,0.8726717,0.95779914,0.0044291187,0.28740406,-0.030532837,-0.04055786,-0.05986023,9.54747,0.042938232,2.2385712,0.012786865,0.007461548,-0.0010681152,-20.651245,4.4570923,6.0791016,0,0.0,0.0,0.0,0.0
0.687957764,0.08571603,0.9197089,-0.38312972,-0.21163122,0.39257684,0.89503956,0.9735836,0.004362978,0.22828923,0.11365391,0.91181463,-0.39455912,-0.26273698,0.41057825,0.87315226,0.9581504,0.0044281073,0.28623125,-0.11671448,0.012268066,-0.19407654,9.54747,0.042785645,2.2387238,0.0021362305,0.0053253174,-0.0010681152,-20.651245,4.4570923,6.0791016,0,0.0,0.0,0.0,0.0
0.692352295,0.085697964,0.9196906,-0.38317767,-0.21163918,0.39261937,0.89501905,0.9735835,0.0043940973,0.22828922,0.113448486,0.91265315,-0.39267495,-0.2628915,0.4087145,0.8739797,0.95813227,0.0040792255,0.28629678,0.060455322,0.05027771,0.016601563,9.54747,0.04309082,2.2387238,-0.025558472,0.019165039,-0.0021362305,-20.651245,4.4570923,6.0791016,0,0.0,0.0,0.0,0.0
0.696746827,0.08647398,0.91824365,-0.38645932,-0.21132326,0.3959915,0.8936069,0.9735835,0.0043940973,0.22828922,0.11287935,0.91279674,-0.3925053,-0.261884,0.40839374,0.8744321,0.9584754,0.0040855226,0.28514606,-0.0018005371,0.03112793,0.002243042,9.54747,0.04309082,2.2387238,0.003189087,-0.0063934326,0.0021209717,-19.754028,4.637146,6.5979004,0,0.0,0.0,0.0,0.0
0.701141358,0.0864746,0.9182443,-0.38645792,-0.21128711,0.39599037,0.8936159,0.97359115,0.004378502,0.22825626,0.11234127,0.91290736,-0.3924024,-0.2608876,0.4081464,0.8748452,0.95881027,0.0040916936,0.28401786,0.0076293945,-0.06925964,-0.09321594,9.547623,0.042938232,2.2384186,0.0053253174,0.013839722,0.007446289,-19.754028,4.637146,6.5979004,0,0.0,0.0,0.0,0.0
0.705535889,0.08645825,0.9182295,-0.38649657,-0.21122792,0.39602458,0.89361477,0.9736055,0.004378496,0.22819528,0.11181437,0.9130156,-0.3923009,-0.25990987,0.407904,0.8752492,0.9591373,0.00409743,0.28291127,0.050567627,0.026489258,-0.16445923,9.547775,0.042938232,2.2378235,0.003189087,0.0,-0.0032043457,-19.754028,4.637146,6.5979004,0,0.0,0.0,0.0,0.0
0.70993042,0.08451956,0.92178845,-0.37836814,-0.21196505,0.38766846,0.89709747,0.9736155,0.0043785414,0.22815251,0.11129808,0.91312146,-0.39220145,-0.25894997,0.40766704,0.8756441,0.959457,0.004103051,0.28182533,0.021835327,0.0025482178,-0.092178345,9.547775,0.042938232,2.237381,0.008529663,0.010650635,0.0095825195,-19.934082,5.1742554,8.152771,0,0.0,0.0,0.0,0.0
0.714324952,0.08450458,0.92177767,-0.3783979,-0.21195212,0.38769412,0.8970896,0.97361976,0.004394057,0.22813465,0.11074519,0.913299,-0.39194432,-0.2580279,0.40726888,0.87610143,0.9597693,0.0041085607,0.28075972,-0.026184082,0.01675415,-0.07766724,9.547913,0.04309082,2.2372284,-0.0010681152,0.0063934326,-0.0010681152,-19.934082,5.1742554,8.152771,0,0.0,0.0,0.0,0.0
0.718719483,0.08449636,0.9217717,-0.37841427,-0.21192366,0.38770828,0.8970902,0.9736266,0.0043940884,0.22810514,0.11020379,0.9134727,-0.39169216,-0.2571234,0.4068792,0.8765483,0.9600743,0.0041142707,0.27971485,-0.021392822,-0.011978149,-0.06777954,9.547913,0.04309082,2.2369232,0.007461548,0.01171875,0.0010681152,-19.934082,5.1742554,8.152771,0,0.0,0.0,0.0,0.0
0.723114014,0.05278917,0.96838933,-0.24379423,-0.2219402,0.24940613,0.9426236,0.9736302,0.0043474245,0.22809042,0.10967369,0.91364264,-0.3914446,-0.2562357,0.4064975,0.8769852,0.9603723,0.004119867,0.27868992,0.031280518,-0.09291077,-0.019744873,9.547913,0.042633057,2.2367706,-0.0053253174,-0.008529663,0.0,-20.11261,2.8442383,6.942749,0,0.0,0.0,0.0,0.0
0.727539063,0.0527873,0.9683881,-0.24379914,-0.22198957,0.24941026,0.94261074,0.97361904,0.004362997,0.22813776,0.108408995,0.9149915,-0.38863605,-0.2556822,0.40345195,0.8785517,0.9606634,0.0041244184,0.2776849,0.050567627,0.012268066,0.13781738,9.547775,0.042785645,2.2372284,-0.004257202,0.0053253174,0.007446289,-20.11261,2.8442383,6.942749,0,0.0,0.0,0.0,0.0
0.731933594,0.052784428,0.9683863,-0.24380672,-0.22197191,0.24941707,0.94261307,0.9736232,0.0043629534,0.22811991,0.107174374,0.91630363,-0.3858773,-0.25513518,0.40046296,0.88007694,0.96094733,0.00412919,0.27670068,0.09353638,0.0027008057,-0.024841309,9.547913,0.042785645,2.2370758,0.0021362305,-0.0032043457,-0.0063934326,-20.11261,2.8442383,6.942749,0,0.0,0.0,0.0,0.0
0.736328125,0.08105195,0.92804295,-0.36354786,-0.2132475,0.37244844,0.90322083,0.9736304,0.004317862,0.22809047,0.10596879,0.91758,-0.38316774,-0.25459337,0.39752966,0.8815624,0.9612247,0.0041338652,0.27573553,0.050430298,0.05102539,-0.13945007,9.547913,0.04234314,2.2367706,-0.013839722,0.0053253174,-0.0032043457,-19.395447,4.2785645,6.5979004,0,0.0,0.0,0.0,0.0
0.740722657,0.08102714,0.9280218,-0.36360714,-0.21319197,0.3725007,0.90321225,0.97364455,0.0043334155,0.22802946,0.10596879,0.91758,-0.38316774,-0.25459337,0.39752966,0.8815624,0.9612247,0.0041338652,0.27573553,0.05027771,0.050872803,-0.13885498,9.548065,0.042495728,2.2361755,-0.013839722,0.0053253174,-0.0032043457,-19.395447,4.2785645,6.5979004,0,0.0,0.0,0.0,0.0
0.745117188,0.08103085,0.92802495,-0.36359823,-0.21320634,0.3724928,0.9032121,0.9736411,0.0043334,0.22804421,0.10494188,0.91800636,-0.38242844,-0.25298756,0.396544,0.8824682,0.9617612,0.0041417675,0.27385828,-0.05984497,-0.020950317,-1.5258789E-4,9.548065,0.042495728,2.2363281,0.0021362305,0.023422241,-0.0021362305,-19.395447,4.2785645,6.5979004,0,0.0,0.0,0.0,0.0
0.749511719,0.08222846,0.9259086,-0.36868915,-0.21269587,0.37772286,0.90115803,0.97365236,0.004317821,0.22799651,0.104445025,0.9182129,-0.38206854,-0.25220802,0.3960656,0.8829061,0.9620199,0.0041456,0.27294773,0.016616821,-0.03996277,-0.10983276,9.548218,0.04234314,2.2358704,-0.003189087,0.014892578,-0.007461548,-19.216919,4.815674,7.8079224,0,0.0,0.0,0.0,0.0
0.75390625,0.0822353,0.92591363,-0.36867535,-0.21276052,0.3777107,0.90114796,0.97363764,0.004333385,0.22805896,0.10398713,0.91837037,-0.38181493,-0.2514307,0.3957003,0.8832915,0.962273,0.004149044,0.27205426,-0.03590393,0.050872803,0.17686462,9.548065,0.042495728,2.2364807,0.0063934326,0.0063934326,-0.009597778,-19.216919,4.815674,7.8079224,0,0.0,0.0,0.0,0.0
0.758300782,0.082202226,0.9258899,-0.3687421,-0.21275832,0.37776813,0.9011243,0.97364086,0.0043785223,0.22804415,0.10282024,0.9186653,-0.38142124,-0.25112602,0.39500624,0.88368875,0.9624779,0.0049237045,0.2713154,0.05027771,0.11746216,-0.052825928,9.548065,0.042938232,2.2363281,-0.0021362305,0.0021362305,-0.012786865,-19.216919,4.815674,7.8079224,0,0.0,0.0,0.0,0.0
0.762695313,0.0650766,0.9529581,-0.29603362,-0.2185895,0.3030709,0.92755955,0.97364455,0.0043474194,0.22802946,0.102395326,0.91881293,-0.38117984,-0.2503702,0.39466283,0.8840566,0.96272016,0.0049128016,0.270455,0.05986023,-0.06895447,0.0,9.548065,0.042633057,2.2361755,0.004257202,0.008514404,-0.012786865,-20.292664,3.3813477,6.42395,0,0.0,0.0,0.0,0.0
0.767120362,0.06509705,0.9529742,-0.2959775,-0.21859826,0.30302092,0.9275739,0.9736413,0.004317841,0.22804424,0.10158292,0.919583,-0.37953642,-0.24979024,0.39286506,0.88502085,0.9629567,0.004901494,0.26961124,-0.07421875,-0.08782959,0.004638672,9.548065,0.04234314,2.2363281,0.0063934326,0.004257202,-0.007461548,-20.292664,3.3813477,6.42395,0,0.0,0.0,0.0,0.0
0.771514893,0.065124504,0.9529957,-0.29590207,-0.21863772,0.30295357,0.9275865,0.9736305,0.0042867423,0.2280905,0.10078968,0.9203348,-0.3779223,-0.24921976,0.39110088,0.88596255,0.9631879,0.0048898207,0.26878455,-0.059692383,-0.082733154,0.12390137,9.547913,0.042037964,2.2367706,0.0053253174,-0.0010681152,0.0010681152,-20.292664,3.3813477,6.42395,0,0.0,0.0,0.0,0.0
0.775909424,0.07709937,0.9348021,-0.3466999,-0.21469188,0.35514328,0.9098245,0.9736339,0.0042867577,0.22807573,0.100015245,0.92106885,-0.37633643,-0.2486592,0.38936916,0.88688236,0.9634135,0.004877759,0.2679751,-0.011810303,-0.010925293,-0.024383545,9.547913,0.042037964,2.236618,-0.017028809,0.003189087,0.0,-21.72699,4.815674,8.152771,0,0.0,0.0,0.0,0.0
0.780303956,0.07710047,0.9348029,-0.34669742,-0.2147388,0.35514092,0.90981436,0.9736235,0.0043022716,0.22811997,0.099532746,0.9213559,-0.3757613,-0.24799751,0.38868964,0.8873656,0.96363395,0.0048659393,0.2671813,0.026489258,0.04159546,0.10923767,9.547913,0.04219055,2.2370758,-0.0010681152,0.008514404,0.0053253174,-21.72699,4.815674,8.152771,0,0.0,0.0,0.0,0.0
0.784698487,0.07709937,0.9348021,-0.3466999,-0.21469188,0.35514328,0.9098245,0.9736339,0.0042867577,0.22807573,0.099060915,0.9216367,-0.37519696,-0.24734926,0.38802353,0.8878379,0.9638492,0.004854666,0.26640412,0.016921997,-0.015716553,-0.105789185,9.547913,0.042037964,2.236618,0.0053253174,-0.0053253174,0.003189087,-21.72699,4.815674,8.152771,0,0.0,0.0,0.0,0.0
0.789093018,0.09403966,0.90330034,-0.4185752,-0.20777996,0.42898735,0.879089,0.97364473,0.004302297,0.2280295,0.09859936,0.92191136,-0.3746432,-0.2467124,0.3873705,0.88830006,0.9640597,0.0048433077,0.26564145,-0.03112793,0.017654419,-0.12449646,9.548065,0.04219055,2.2361755,-0.010635376,-0.008529663,0.0021209717,-19.934082,5.532837,7.461548,0,0.0,0.0,0.0,0.0
0.793487549,0.0940536,0.90331197,-0.41854662,-0.20775302,0.42896283,0.8791072,0.97364914,0.004271128,0.22801133,0.098542355,0.92155784,-0.375527,-0.24592885,0.388211,0.88815045,0.9642657,0.004832488,0.26489288,0.016616821,-0.058639526,-0.06687927,9.548218,0.041885376,2.236023,0.0010681152,-0.008529663,0.0053253174,-19.934082,5.532837,7.461548,0,0.0,0.0,0.0,0.0
0.797882081,0.09406237,0.9033194,-0.41852874,-0.20774879,0.42894745,0.87911576,0.97364914,0.0042571244,0.22801133,0.09848547,0.92121077,-0.3763924,-0.2451607,0.3890339,0.88800263,0.9644671,0.004821261,0.26415887,-0.055221558,-0.039367676,-0.009429932,9.548218,0.041748047,2.236023,0.003189087,-0.0032043457,-0.004272461,-19.934082,5.532837,7.461548,0,0.0,0.0,0.0,0.0
0.802276612,0.07738681,0.93433917,-0.34788164,-0.21448931,0.35635987,0.90939647,0.97365576,0.0042415936,0.22798331,0.098428555,0.9208701,-0.37723997,-0.2444079,0.38983977,0.8878568,0.964664,0.004809978,0.26343933,-0.04084778,-0.07749939,-0.066589355,9.548218,0.04159546,2.235733,0.0010681152,0.004257202,-0.0032043457,-20.11261,4.637146,7.9803467,0,0.0,0.0,0.0,0.0
0.806701661,0.07738112,0.9343352,-0.3478937,-0.2144247,0.3563706,0.9094076,0.9736705,0.00422603,0.22792087,0.09798662,0.92115134,-0.37666804,-0.24382472,0.389175,0.8883087,0.96485656,0.0047986098,0.26273343,-0.012268066,-0.019897461,-0.17132568,9.54837,0.04144287,2.2351227,0.0010681152,-0.0053253174,0.0021209717,-20.11261,4.637146,7.9803467,0,0.0,0.0,0.0,0.0
0.811096192,0.07737114,0.93432814,-0.34791476,-0.21442857,0.3563888,0.9093995,0.9736704,0.0042415895,0.22792086,0.097554244,0.92142636,-0.37610716,-0.24325137,0.38852352,0.8887509,0.9650451,0.0047871587,0.26204035,0.021240234,0.04698181,-0.0037384033,9.54837,0.04159546,2.2351227,-0.0021362305,0.015960693,0.0053253174,-20.11261,4.637146,7.9803467,0,0.0,0.0,0.0,0.0
0.815490723,0.05312731,0.9680484,-0.24507129,-0.22165458,0.2507276,0.94234014,0.97367686,0.0042571775,0.22789282,0.097131155,0.9216953,-0.37555736,-0.24268903,0.38788527,0.88918334,0.96522933,0.0047762473,0.2613611,0.011672974,0.046829224,-0.051330566,9.54837,0.041748047,2.2348328,-0.009567261,0.004257202,0.0053253174,-21.546936,3.2028198,7.9803467,0,0.0,0.0,0.0,0.0
0.819885254,0.05310871,0.96803766,-0.2451172,-0.22165957,0.25076804,0.94232816,0.9736768,0.004286741,0.2278928,0.09617916,0.92281556,-0.3730428,-0.242351,0.38521248,0.89043653,0.9654095,0.004765866,0.26069468,-0.117614746,0.046539307,-0.041748047,9.54837,0.042037964,2.2348328,0.0010681152,0.008514404,0.0010681152,-21.546936,3.2028198,7.9803467,0,0.0,0.0,0.0,0.0
0.824279786,0.05313709,0.9680539,-0.24504709,-0.22165196,0.2507063,0.94234645,0.97367704,0.0042416183,0.22789285,0.09461388,0.92423725,-0.36991045,-0.24176608,0.38178557,0.89207,0.9657108,0.00502959,0.25957143,0.016464233,-0.10623169,0.010925293,9.54837,0.04159546,2.2348328,-0.011703491,-0.007461548,-0.007461548,-21.546936,3.2028198,7.9803467,0,0.0,0.0,0.0,0.0
0.828674317,0.064242974,0.954211,-0.29215443,-0.2187066,0.2991045,0.9288185,0.9736736,0.004226044,0.2279076,0.09371872,0.9252899,-0.36749873,-0.24143763,0.37922734,0.8932494,0.9658802,0.0050138305,0.25894052,-0.069732666,-0.019897461,0.029922485,9.54837,0.04144287,2.2349854,-0.004257202,-0.0053253174,-0.0010681152,-21.009827,3.3813477,6.42395,0,0.0,0.0,0.0,0.0
0.833068848,0.0642521,0.9542184,-0.2921284,-0.21870366,0.2990813,0.92882675,0.97367364,0.004210484,0.22790763,0.09308696,0.925935,-0.3660318,-0.2410191,0.3776499,0.8940304,0.96604586,0.004998075,0.2583223,0.11701965,-0.038909912,0.029922485,9.54837,0.041290283,2.2349854,0.0010681152,0.004257202,-0.0063934326,-21.009827,3.3813477,6.42395,0,0.0,0.0,0.0,0.0
0.837463379,0.064246505,0.95421386,-0.29214433,-0.21867454,0.2990956,0.928829,0.97368056,0.004210514,0.22787812,0.09246964,0.92656463,-0.36459202,-0.2406074,0.3761026,0.8947933,0.9662078,0.0049823234,0.2577164,0.11701965,-0.0053863525,-0.05596924,9.54837,0.041290283,2.2346802,0.0021362305,-0.0032043457,-0.004272461,-21.009827,3.3813477,6.42395,0,0.0,0.0,0.0,0.0
0.841857911,0.07944495,0.93095654,-0.3563825,-0.21363734,0.3651065,0.9061216,0.97367734,0.0041498165,0.22789294,0.09186609,0.9271791,-0.3631798,-0.24020194,0.37458545,0.8955383,0.96636623,0.004966887,0.25712192,-0.19422913,-0.15800476,-0.013015747,9.54837,0.04069519,2.2348328,-0.013839722,-0.018112183,-0.0021362305,-21.188354,4.9957275,8.326721,0,0.0,0.0,0.0,0.0
0.846282959,0.079458684,0.93096644,-0.35635346,-0.21364765,0.3650813,0.9061293,0.97367394,0.0041342424,0.22790769,0.09161294,0.9272556,-0.36304834,-0.23967502,0.37439623,0.8957585,0.966521,0.004950546,0.25653952,-0.021850586,-0.03816223,0.034713745,9.54837,0.040542603,2.2349854,-0.003189087,-0.0095825195,-0.007461548,-21.188354,4.9957275,8.326721,0,0.0,0.0,0.0,0.0
0.850677491,0.07945488,0.93096364,-0.3563615,-0.21363334,0.36508837,0.90612984,0.97367746,0.004134257,0.22789295,0.0913653,0.92733073,-0.36291885,-0.2391586,0.37421033,0.89597416,0.9666724,0.00493422,0.255969,-0.031433105,-0.009429932,-0.036956787,9.54837,0.040542603,2.2348328,0.0053253174,-0.0053253174,-0.0053253174,-21.188354,4.9957275,8.326721,0,0.0,0.0,0.0,0.0
0.855072022,0.09778556,0.895584,-0.43401307,-0.20586851,0.44487345,0.871611,0.9736817,0.0041186493,0.22787474,0.091122724,0.9274043,-0.36279193,-0.23865211,0.37402827,0.8961853,0.9668205,0.0049182205,0.25540945,-0.022003174,-0.057144165,-0.0655365,9.548523,0.040390015,2.2346802,0.0095825195,-0.017044067,-0.008529663,-19.754028,5.354309,6.5979004,0,0.0,0.0,0.0,0.0
0.859466553,0.09778101,0.89557964,-0.43402314,-0.20585437,0.44488227,0.87160987,0.97368515,0.004118664,0.22785999,0.091301024,0.92682207,-0.36423194,-0.2379961,0.3754687,0.89575726,0.9669653,0.004902229,0.25486073,-0.069885254,0.014663696,-0.04144287,9.548523,0.040390015,2.2345276,-0.009567261,-0.012786865,-0.0021362305,-19.754028,5.354309,6.5979004,0,0.0,0.0,0.0,0.0
0.863861084,0.09775353,0.8955531,-0.4340839,-0.20583697,0.4449352,0.87158686,0.9736916,0.004149811,0.22783193,0.091473915,0.9262494,-0.36564285,-0.2373529,0.37687966,0.8953353,0.9671071,0.004886558,0.25432262,0.07376099,0.09576416,-0.045944214,9.548523,0.04069519,2.2342377,-0.012771606,-0.0021362305,-0.0063934326,-19.754028,5.354309,6.5979004,0,0.0,0.0,0.0,0.0
0.868255616,0.08804452,0.91529685,-0.39303917,-0.2101575,0.40275833,0.8908532,0.973695,0.0041653854,0.22781716,0.091641106,0.9256855,-0.36702618,-0.23672205,0.37826258,0.894919,0.9672459,0.004871823,0.25379458,-0.022003174,0.018997192,-0.045791626,9.548523,0.04084778,2.234085,0.010650635,-0.008529663,-0.004272461,-19.395447,4.9957275,7.2891235,0,0.0,0.0,0.0,0.0
0.872650147,0.0880125,0.91527104,-0.3931066,-0.21012014,0.40281686,0.8908357,0.973706,0.0041949362,0.22776979,0.091583,0.9254842,-0.3675481,-0.23618914,0.37875515,0.8948515,0.9673816,0.004857694,0.25327685,-0.017349243,0.080963135,-0.15068054,9.54866,0.041137695,2.2336273,-0.0063934326,-0.0095825195,-0.0021362305,-19.395447,4.9957275,7.2891235,0,0.0,0.0,0.0,0.0
0.877044678,0.08803894,0.9152924,-0.3930509,-0.21017613,0.40276843,0.8908444,0.9736915,0.00418093,0.22783192,0.09152486,0.92528605,-0.368061,-0.23566599,0.37923902,0.8947845,0.9675147,0.0048444383,0.25276825,-0.045944214,-0.033828735,0.15516663,9.548523,0.041000366,2.2342377,-0.0010681152,0.003189087,0.003189087,-19.395447,4.9957275,7.2891235,0,0.0,0.0,0.0,0.0
0.881439209,0.10525219,0.87846816,-0.46606404,-0.20206952,0.47778252,0.8549221,0.9736991,0.0041949064,0.2277993,0.09146787,0.9250921,-0.36856237,-0.23515464,0.37971207,0.89471847,0.9676445,0.0048311683,0.25227115,-0.060440063,0.042648315,-0.06958008,9.54866,0.041137695,2.2339325,0.003189087,0.0053253174,0.0021209717,-20.651245,6.25,7.116699,0,0.0,0.0,0.0,0.0
0.885864258,0.10522815,0.87844497,-0.46611333,-0.2021894,0.47782448,0.8548704,0.9736768,0.004286741,0.2278928,0.091803186,0.9242649,-0.37054893,-0.23449995,0.38172126,0.894035,0.9677716,0.0048184427,0.2517833,0.002090454,0.022598267,-0.080062866,9.54837,0.042037964,2.2348328,0.018112183,0.007461548,-0.0010681152,-20.651245,6.25,7.116699,0,0.0,0.0,0.0,0.0
0.89025879,0.10521188,0.8784291,-0.46614668,-0.20211215,0.47785354,0.8548723,0.97369456,0.0042711906,0.22781707,0.09200455,0.9230309,-0.37356266,-0.23574625,0.38467962,0.8924378,0.96744967,0.00595765,0.25299335,0.045028687,-0.020339966,-0.17507935,9.548523,0.041885376,2.234085,0.020233154,0.026611328,-0.012786865,-20.651245,6.25,7.116699,0,0.0,0.0,0.0,0.0
0.894653321,0.10523939,0.8784558,-0.4660903,-0.20212884,0.47780484,0.8548956,0.97368807,0.004241599,0.22784512,0.09232697,0.92223406,-0.37544656,-0.23508036,0.38658676,0.8917892,0.96758103,0.0059239217,0.2524915,0.016311646,-0.06791687,0.07841492,9.548523,0.04159546,2.234375,-0.008514404,0.010650635,0.003189087,-20.651245,6.25,7.116699,0,0.0,0.0,0.0,0.0
0.899047852,0.10522883,0.8784455,-0.4661119,-0.20209923,0.47782364,0.8548921,0.97369546,0.00424157,0.227814,0.09264104,0.9214497,-0.37729046,-0.23442768,0.388453,0.8911498,0.9677093,0.0058902754,0.252,0.0927887,-0.034423828,-0.074523926,9.54866,0.04159546,2.234085,0.003189087,0.018096924,-0.0010681152,-20.651245,6.25,7.116699,0,0.0,0.0,0.0,0.0
0.903442383,0.10520811,0.8784254,-0.46615434,-0.20204125,0.47786045,0.8548851,0.9737097,0.004241564,0.22775301,0.09294653,0.92067724,-0.37909675,-0.23378721,0.39028078,0.89051914,0.9678349,0.005857301,0.2515178,0.14530945,0.013458252,-0.13139343,9.548813,0.04159546,2.23349,-0.014892578,0.0095825195,0.0010681152,-20.651245,6.25,7.116699,0,0.0,0.0,0.0,0.0
0.907836915,0.06854889,0.9479577,-0.31092957,-0.21721905,0.31836736,0.92274487,0.973713,0.0042867013,0.22773822,0.093243495,0.9199164,-0.38086677,-0.23315802,0.3920713,0.88989747,0.96795815,0.0058249864,0.25104398,-0.0031433105,0.12794495,-0.035461426,9.548813,0.042037964,2.2333374,-0.004257202,0.020217896,0.0010681152,-21.009827,3.7399292,6.7703247,0,0.0,0.0,0.0,0.0
0.912231446,0.06854583,0.9479553,-0.31093773,-0.21720457,0.3183747,0.9227458,0.97371644,0.0042867167,0.22772346,0.09272075,0.9205339,-0.37949982,-0.23286556,0.3906196,0.8906121,0.96807873,0.005794221,0.2505792,0.016021729,0.008239746,-0.040100098,9.548813,0.042037964,2.2331848,-0.004257202,0.020217896,-0.009597778,-21.009827,3.7399292,6.7703247,0,0.0,0.0,0.0,0.0
0.916625977,0.06854278,0.94795287,-0.31094587,-0.21719007,0.31838194,0.92274666,0.97371984,0.004286732,0.22770871,0.09220949,0.92113686,-0.37815908,-0.23257762,0.38919616,0.8913103,0.9681968,0.005764071,0.25012338,-0.03665161,-0.006134033,-0.05432129,9.548813,0.042037964,2.2330322,0.004257202,0.014892578,0.0,-21.009827,3.7399292,6.7703247,0,0.0,0.0,0.0,0.0
0.921020508,0.060329154,0.9592507,-0.27604058,-0.21966308,0.28252345,0.9337711,0.9737086,0.0043023108,0.2277564,0.091709465,0.9217255,-0.37684408,-0.23229411,0.38780046,0.8919923,0.9683124,0.0057345247,0.24967638,-0.060440063,0.017654419,0.13197327,9.54866,0.04219055,2.23349,0.0,0.003189087,-0.01171875,-20.11261,3.5614014,7.9803467,0,0.0,0.0,0.0,0.0
0.925445557,0.060318526,0.95924455,-0.2760647,-0.21966276,0.2825445,0.933765,0.9737094,0.004317805,0.22775294,0.09104603,0.9225907,-0.37488276,-0.23208477,0.3857381,0.8929405,0.9684252,0.0057058805,0.24923916,-0.0079193115,0.012710571,0.045776367,9.548813,0.04234314,2.23349,0.0010681152,0.010650635,0.0010681152,-20.11261,3.5614014,7.9803467,0,0.0,0.0,0.0,0.0
0.929840088,0.06031173,0.9592405,-0.27607998,-0.21968225,0.28255776,0.9337563,0.9737054,0.0043334165,0.22776966,0.09104603,0.9225907,-0.37488276,-0.23208477,0.3857381,0.8929405,0.9684252,0.0057058805,0.24923916,-0.0077667236,0.012557983,0.045639038,9.54866,0.042495728,2.2336273,0.0010681152,0.010650635,0.0010681152,-20.11261,3.5614014,7.9803467,0,0.0,0.0,0.0,0.0
0.93423462,0.07047552,0.94500923,-0.31935987,-0.21665168,0.3270145,0.9198497,0.97370183,0.0043629636,0.22778437,0.08976206,0.92425567,-0.37107164,-0.23167399,0.38173217,0.8947668,0.9686433,0.0056515303,0.24839108,0.016174316,0.079315186,0.04548645,9.54866,0.042785645,2.23378,0.003189087,-0.007461548,0.0063934326,-19.5755,4.0985107,7.8079224,0,0.0,0.0,0.0,0.0
0.938629151,0.07049297,0.94502074,-0.31932214,-0.21668002,0.32698163,0.91985476,0.97369426,0.004347433,0.227817,0.08935685,0.9247021,-0.370056,-0.23138948,0.38065,0.8953013,0.9687488,0.0056257593,0.24798001,0.011520386,-0.011520386,0.102645874,9.548523,0.042633057,2.234085,-0.015960693,0.0,0.007446289,-19.5755,4.0985107,7.8079224,0,0.0,0.0,0.0,0.0
0.943023682,0.0705084,0.9450308,-0.31928876,-0.21670417,0.32695255,0.91985935,0.9736877,0.0043333997,0.22784503,0.08896087,0.92513853,-0.36905915,-0.23111056,0.37958837,0.8958239,0.9688518,0.0056001926,0.2475778,-0.036361694,-0.0736084,0.07362366,9.548523,0.042495728,2.234375,0.0095825195,0.017028809,0.0053253174,-19.5755,4.0985107,7.8079224,0,0.0,0.0,0.0,0.0
0.947418213,0.092110865,0.9069864,-0.4109636,-0.20842691,0.42113724,0.88272387,0.97369075,0.004347417,0.22783172,0.08857382,0.9255653,-0.36808082,-0.230837,0.37854686,0.89633507,0.9689525,0.005574857,0.24718407,0.0019378662,0.055526733,-0.041152954,9.548523,0.042633057,2.2342377,-0.007461548,-0.0010681152,-0.0063934326,-19.754028,4.9957275,6.5979004,0,0.0,0.0,0.0,0.0
0.951812745,0.09212318,0.906998,-0.41093543,-0.20843573,0.4211126,0.8827335,0.9736877,0.0043333997,0.22784503,0.088663295,0.9252133,-0.3689434,-0.23038848,0.37940693,0.89608675,0.96905106,0.0055503086,0.24679795,0.049819946,-0.030532837,0.059265137,9.548523,0.042495728,2.234375,0.0063934326,-0.0032043457,0.0063934326,-19.754028,4.9957275,6.5979004,0,0.0,0.0,0.0,0.0
0.956207276,0.092092924,0.9069698,-0.41100457,-0.20836699,0.4211733,0.8827209,0.9737053,0.00434742,0.22776963,0.08875047,0.92486763,-0.36978808,-0.22994909,0.38024902,0.8958427,0.96914744,0.005525971,0.24641976,0.07362366,0.012420654,-0.19856262,9.54866,0.042633057,2.2336273,0.004257202,-0.0010681152,-0.010650635,-19.754028,4.9957275,6.5979004,0,0.0,0.0,0.0,0.0
0.960601807,0.081276886,0.92739314,-0.36515215,-0.21278514,0.37406313,0.90266234,0.97371274,0.0043333797,0.22773816,0.08865258,0.9244489,-0.37085712,-0.22981213,0.38126126,0.8954475,0.9691889,0.005843731,0.24624936,0.05911255,-0.016174316,-0.045043945,9.548813,0.042495728,2.2333374,0.004257202,0.003189087,-0.004272461,-21.009827,4.0985107,5.732727,0,0.0,0.0,0.0,0.0
0.964996338,0.08127874,0.92739505,-0.3651467,-0.21275254,0.3740584,0.9026719,0.9737197,0.004317851,0.22770867,0.0885026,0.9245083,-0.37074468,-0.22947344,0.3811175,0.89559555,0.9692828,0.005813524,0.24588001,0.13093567,-0.030380249,-0.07347107,9.548813,0.04234314,2.2330322,0.0,-0.0053253174,-0.008529663,-21.009827,4.0985107,5.732727,0,0.0,0.0,0.0,0.0
0.969421387,0.08126649,0.9273821,-0.36518237,-0.21274175,0.3740904,0.90266126,0.9737231,0.004333426,0.22769392,0.08835579,0.92456657,-0.3706344,-0.22914083,0.3809766,0.8957407,0.9693749,0.005783611,0.24551745,-0.03187561,0.012557983,-0.020645142,9.548813,0.042495728,2.2328796,0.003189087,-0.0021362305,0.004257202,-21.009827,4.0985107,5.732727,0,0.0,0.0,0.0,0.0
0.973815918,0.06667305,0.9506278,-0.3030863,-0.21770751,0.31030348,0.925373,0.9737342,0.0042867265,0.22764774,0.08821171,0.9246234,-0.37052682,-0.22881456,0.38083896,0.89588255,0.9694651,0.0057546077,0.24516177,-0.008071899,-0.097091675,-0.14949036,9.548965,0.042037964,2.2324371,-0.009567261,-0.0032043457,-0.008529663,-21.188354,3.919983,7.633972,0,0.0,0.0,0.0,0.0
0.97821045,0.0666409,0.9506054,-0.303164,-0.21770282,0.3103718,0.92535126,0.9737374,0.00433342,0.22763292,0.08776069,0.92519534,-0.3692041,-0.22861291,0.37944803,0.896524,0.9695536,0.00572525,0.24481222,-0.04638672,0.08917236,-0.05834961,9.548965,0.042495728,2.2322845,0.0053253174,0.0,-0.0021362305,-21.188354,3.919983,7.633972,0,0.0,0.0,0.0,0.0
0.982604981,0.066634044,0.9506006,-0.3031806,-0.21767047,0.3103865,0.92535394,0.97374505,0.0043333853,0.22759996,0.087318905,0.9257532,-0.36790824,-0.22841448,0.37808546,0.8971501,0.96964025,0.0056974133,0.24446943,0.044433594,0.0029907227,-0.043685913,9.549118,0.042495728,2.2319794,-0.0021362305,-0.0010681152,-0.0053253174,-21.188354,3.919983,7.633972,0,0.0,0.0,0.0,0.0
0.986999512,0.07771124,0.933496,-0.3500659,-0.21400052,0.35856193,0.9086457,0.9737375,0.004302301,0.22763294,0.0868865,0.9262977,-0.3666377,-0.2282185,0.3767497,0.89776164,0.9697252,0.005670133,0.24413273,0.020645142,-0.07809448,0.08050537,9.548965,0.04219055,2.2322845,0.0,-0.007461548,0.004257202,-19.754028,4.637146,7.9803467,0,0.0,0.0,0.0,0.0
0.991394043,0.07771124,0.933496,-0.3500659,-0.21400052,0.35856193,0.9086457,0.9737375,0.004302301,0.22763294,0.08669738,0.92644525,-0.36630973,-0.22793752,0.3763873,0.897985,0.9698083,0.005642777,0.24380343,-0.008071899,0.008087158,-9.0026855E-4,9.548965,0.04219055,2.2322845,0.0021362305,-0.007461548,0.0053253174,-19.754028,4.637146,7.9803467,0,0.0,0.0,0.0,0.0
0.995788575,0.07769287,0.9334833,-0.35010403,-0.21397246,0.35859495,0.9086393,0.97374505,0.004317825,0.22759996,0.086512245,0.9265896,-0.36598808,-0.22766204,0.37603205,0.89820373,0.96988946,0.005615968,0.24348065,-0.06568909,0.04144287,-0.09156799,9.549118,0.04234314,2.2319794,0.007461548,-0.0010681152,0.0053253174,-19.754028,4.637146,7.9803467,0,0.0,0.0,0.0,0.0
1.000183106,0.10940696,0.867864,-0.4846051,-0.19959396,0.496783,0.8446116,0.97375166,0.0043178545,0.22757195,0.086330675,0.92673075,-0.3656736,-0.22739135,0.3756846,0.8984177,0.9699692,0.005590005,0.24316365,0.010925293,-0.0016479492,-0.091278076,9.549118,0.04234314,2.2316895,-0.0010681152,0.0010681152,0.004257202,-20.471191,6.071472,6.251526,0,0.0,0.0,0.0,0.0
1.004577637,0.10935737,0.8678093,-0.48471436,-0.19951503,0.4968784,0.8445742,0.9737734,0.0043473835,0.22747831,0.086847916,0.92571497,-0.36811572,-0.22686051,0.37818086,0.8975041,0.9700473,0.005564562,0.24285239,-0.0037384033,0.069885254,-0.25798035,9.549408,0.042633057,2.2307892,-0.009567261,-0.0032043457,0.004257202,-20.471191,6.071472,6.251526,0,0.0,0.0,0.0,0.0
1.009002686,0.109360486,0.86781275,-0.48470747,-0.19949621,0.49687248,0.84458214,0.97377694,0.004333395,0.22746357,0.08735187,0.9247123,-0.3705089,-0.2263375,0.38062647,0.89660186,0.97012424,0.0055402187,0.24254552,0.07287598,-0.030532837,-0.00881958,9.549408,0.042495728,2.2306366,0.008529663,0.007461548,-0.0032043457,-20.471191,6.071472,6.251526,0,0.0,0.0,0.0,0.0
1.013397217,0.080647185,0.9283114,-0.36295173,-0.2126813,0.37177855,0.90363014,0.97378784,0.004317815,0.22741736,0.0878438,0.92372334,-0.372852,-0.22582358,0.38302055,0.8957114,0.9701996,0.005516082,0.2422445,0.11103821,-0.016021729,-0.089782715,9.549561,0.04234314,2.230194,0.0095825195,-0.0032043457,-0.0010681152,-20.292664,4.815674,7.8079224,0,0.0,0.0,0.0,0.0
1.017791749,0.08062071,0.9282916,-0.36300832,-0.21266037,0.37182772,0.9036149,0.9737946,0.0043474087,0.22738783,0.08769674,0.9238165,-0.37265578,-0.22556274,0.38279614,0.89587307,0.97027355,0.005492117,0.24194856,0.024841309,0.069885254,-0.07511902,9.549561,0.042633057,2.229889,-0.0063934326,0.0010681152,-0.0010681152,-20.292664,4.815674,7.8079224,0,0.0,0.0,0.0,0.0
1.02218628,0.08061336,0.928286,-0.36302394,-0.21263312,0.3718413,0.9036155,0.9738011,0.0043474375,0.22735977,0.08755223,0.9239073,-0.37246463,-0.2253066,0.38257727,0.89603096,0.9703461,0.005469222,0.2416579,-0.05656433,-0.021087646,-0.08918762,9.549561,0.042633057,2.229599,-0.004257202,0.0010681152,0.003189087,-20.292664,4.815674,7.8079224,0,0.0,0.0,0.0,0.0
1.026580811,0.07357578,0.9400458,-0.33301738,-0.21523046,0.34102064,0.91508526,0.9737878,0.004347378,0.22741735,0.087037235,0.9240373,-0.3722628,-0.22616515,0.38225186,0.89595354,0.9701927,0.0062115537,0.24225518,0.024841309,0.0076446533,0.15441895,9.549561,0.042633057,2.230194,0.0010681152,0.013839722,-0.01171875,-20.11261,4.2785645,7.633972,0,0.0,0.0,0.0,0.0
1.030975342,0.07360984,0.9400701,-0.3329413,-0.21533148,0.34095383,0.9150862,0.97376275,0.0043333946,0.22752422,0.08675715,0.9243753,-0.37148824,-0.22595464,0.38143438,0.896355,0.9702668,0.0061742705,0.24195904,0.020339966,0.06523132,0.028884888,9.549271,0.042495728,2.2312317,0.0095825195,0.0063934326,0.0,-20.11261,4.2785645,7.633972,0,0.0,0.0,0.0,0.0
1.035369874,0.07370547,0.94013816,-0.3327275,-0.21537645,0.3407673,0.91514504,0.9737456,0.004210465,0.22760008,0.0864838,0.9247064,-0.37072712,-0.2257499,0.38063154,0.8967478,0.9703389,0.006137453,0.24167086,0.006134033,-0.19689941,0.047286987,9.549118,0.041290283,2.2319794,-0.012771606,0.025543213,0.007446289,-20.11261,4.2785645,7.633972,0,0.0,0.0,0.0,0.0
1.039764405,0.09845293,0.89366245,-0.4378063,-0.20524783,0.44871986,0.8697838,0.9737456,0.004226025,0.22760008,0.08621823,0.9250317,-0.36997667,-0.2255498,0.3798409,0.89713335,0.97040904,0.0060989135,0.24138993,-0.051330566,0.02798462,0.004196167,9.549118,0.04144287,2.2319794,-0.023422241,0.012786865,0.0010681152,-19.934082,5.1742554,6.0791016,0,0.0,0.0,0.0,0.0
1.044158936,0.09844891,0.8936582,-0.43781593,-0.20523505,0.44872838,0.86978245,0.9737487,0.0042260387,0.2275868,0.08648783,0.92445576,-0.37135077,-0.22515064,0.3812411,0.8966395,0.97047776,0.0060614557,0.24111454,-0.022598267,-0.0055389404,-0.048339844,9.549118,0.04144287,2.231842,0.007461548,-0.012786865,0.003189087,-19.934082,5.1742554,6.0791016,0,0.0,0.0,0.0,0.0
1.048583985,0.09844442,0.89365345,-0.43782654,-0.20522082,0.44873774,0.8697809,0.97375214,0.0042260536,0.22757204,0.08675102,0.9238892,-0.37269688,-0.22475898,0.38261262,0.8961534,0.97054505,0.0060247476,0.24084444,-0.046539307,-7.4768066E-4,-0.038604736,9.549118,0.04144287,2.2316895,0.008529663,-0.0021362305,-0.007461548,-19.934082,5.1742554,6.0791016,0,0.0,0.0,0.0,0.0
1.052978516,0.061830256,0.9572694,-0.28251103,-0.21906848,0.28916645,0.9318755,0.9737485,0.0042711613,0.22758676,0.087007925,0.9233319,-0.3740157,-0.22437455,0.38395604,0.89567506,0.970611,0.005988774,0.24057941,-0.027389526,0.113723755,0.009124756,9.549118,0.041885376,2.231842,-0.003189087,-0.0021362305,0.0,-20.651245,3.7399292,8.152771,0,0.0,0.0,0.0,0.0
1.057373047,0.061807305,0.95725554,-0.2825628,-0.2190602,0.28921166,0.9318634,0.97375184,0.0043022954,0.22757198,0.08648708,0.9241038,-0.3722261,-0.22429705,0.3820953,0.8964898,0.97067547,0.0059544216,0.24032004,0.010925293,0.07991028,-0.014663696,9.549118,0.04219055,2.2316895,0.003189087,0.0021362305,0.003189087,-20.651245,3.7399292,8.152771,0,0.0,0.0,0.0,0.0
1.061767579,0.061790768,0.9572455,-0.28260013,-0.2190309,0.28924435,0.93186,0.9737594,0.00431782,0.227539,0.08597678,0.9248561,-0.3704716,-0.22421965,0.3802711,0.8972845,0.9707387,0.0059213797,0.24006541,0.111328125,0.03665161,-0.0622406,9.549271,0.04234314,2.2313843,-0.003189087,-0.008529663,0.007446289,-20.651245,3.7399292,8.152771,0,0.0,0.0,0.0,0.0
1.06616211,0.079828106,0.9297498,-0.35943404,-0.21305548,0.36816648,0.90501976,0.9737735,0.00433338,0.22747833,0.08547693,0.92558974,-0.36875114,-0.22414222,0.37848252,0.89805967,0.97080064,0.005889308,0.23981525,0.092041016,0.031723022,-0.15263367,9.549408,0.042495728,2.2307892,-0.003189087,0.007461548,0.003189087,-21.188354,4.637146,7.2891235,0,0.0,0.0,0.0,0.0
1.070556641,0.07981585,0.9297396,-0.35946319,-0.21304461,0.36819214,0.90501195,0.97377694,0.004347399,0.22746357,0.085361496,0.925674,-0.36856613,-0.22392185,0.37827668,0.8982014,0.9708617,0.00585819,0.2395689,0.024993896,0.045944214,-0.03755188,9.549408,0.042633057,2.2306366,0.0010681152,0.013839722,0.010650635,-21.188354,4.637146,7.2891235,0,0.0,0.0,0.0,0.0
1.074951172,0.07979698,0.92972386,-0.35950807,-0.21297081,0.3682319,0.90501314,0.9737946,0.0043474087,0.22738783,0.085248224,0.9257564,-0.36838534,-0.2237056,0.37807545,0.8983399,0.97092146,0.005827974,0.23932716,0.029632568,0.0028533936,-0.1804657,9.549561,0.042633057,2.229889,0.0,0.014892578,-0.009597778,-21.188354,4.637146,7.2891235,0,0.0,0.0,0.0,0.0
1.079345704,0.08823102,0.91432834,-0.39524555,-0.20966905,0.40495044,0.88997424,0.97378343,0.004347428,0.22743553,0.085136935,0.92583686,-0.368209,-0.2234922,0.377879,0.8984758,0.9709804,0.0057983627,0.23908876,0.068099976,-0.016311646,0.12553406,9.549408,0.042633057,2.2303467,-0.0063934326,0.020217896,-0.0053253174,-19.5755,4.815674,6.7703247,0,0.0,0.0,0.0,0.0
1.083740235,0.08821566,0.91431475,-0.3952803,-0.20969051,0.40498063,0.8899553,0.9737801,0.004378533,0.22744876,0.08520608,0.92561454,-0.3687515,-0.22321606,0.37842366,0.8983152,0.97103786,0.005769344,0.23885602,0.020202637,0.0791626,0.044006348,9.549408,0.042938232,2.230484,0.008529663,0.004257202,0.0,-19.5755,4.815674,6.7703247,0,0.0,0.0,0.0,0.0
1.088165284,0.08822519,0.9143232,-0.39525875,-0.2096862,0.40496188,0.889965,0.9737803,0.004362974,0.22744879,0.08527323,0.9253961,-0.3692838,-0.2229458,0.3789579,0.89815706,0.971094,0.005741528,0.23862813,0.09681702,-0.030822754,0.024841309,9.549408,0.042785645,2.230484,-0.007461548,0.0063934326,-0.0053253174,-19.5755,4.815674,6.7703247,0,0.0,0.0,0.0,0.0
1.092559815,0.09495276,0.90072036,-0.42389488,-0.20674367,0.43437725,0.8766833,0.97377676,0.0043940777,0.22746354,0.08546805,0.9250123,-0.3701991,-0.22336316,0.37989017,0.89765936,0.970981,0.0059676464,0.23908216,0.005844116,0.06942749,0.05342102,9.549408,0.04309082,2.2306366,0.007461548,0.010650635,-0.0021362305,-18.858337,5.1742554,6.7703247,0,0.0,0.0,0.0,0.0
1.096954346,0.09494372,0.9007123,-0.42391396,-0.20668039,0.43439403,0.87668985,0.973791,0.0043785116,0.22740254,0.08567404,0.9245585,-0.37128353,-0.22303493,0.38099375,0.8972732,0.9710383,0.005936175,0.23885012,-0.013458252,-0.026184082,-0.15188599,9.549561,0.042938232,2.2300415,-0.0010681152,0.0095825195,-0.0063934326,-18.858337,5.1742554,6.7703247,0,0.0,0.0,0.0,0.0
1.101348877,0.09494372,0.9007123,-0.42391396,-0.20668039,0.43439403,0.87668985,0.973791,0.0043785116,0.22740254,0.08587514,0.9241124,-0.37234625,-0.22271174,0.3820751,0.89689356,0.97109467,0.005905022,0.23862141,0.020050049,0.0121154785,-0.017807007,9.549561,0.042938232,2.2300415,0.0095825195,0.010650635,-0.01171875,-18.858337,5.1742554,6.7703247,0,0.0,0.0,0.0,0.0
1.105743409,0.09497132,0.9007368,-0.42385572,-0.20680185,0.4343431,0.8766865,0.9737626,0.0043940768,0.22752418,0.08607162,0.9236739,-0.37338737,-0.22239487,0.3831344,0.89652026,0.9711499,0.0058744918,0.23839734,-0.013168335,0.0023956299,0.019317627,9.549271,0.04309082,2.2312317,0.0021362305,0.018096924,0.003189087,-18.858337,5.1742554,6.7703247,0,0.0,0.0,0.0,0.0
1.11013794,0.094953045,0.9007206,-0.42389426,-0.20681082,0.4343764,0.87666774,0.97376233,0.0044236393,0.22752412,0.086264014,0.9232434,-0.37440622,-0.22208665,0.38417098,0.8961529,0.9712033,0.005844884,0.23818019,-0.056274414,0.06434631,-0.014205933,9.549271,0.043380737,2.2312317,0.0021362305,0.028747559,-0.0032043457,-18.858337,5.1742554,6.7703247,0,0.0,0.0,0.0,0.0
1.114532471,0.094961695,0.9007282,-0.423876,-0.20680656,0.43436062,0.8766766,0.97376245,0.004409636,0.22752415,0.086451575,0.9228202,-0.3754051,-0.22178458,0.385187,0.8957916,0.9712557,0.005816459,0.23796731,-0.080215454,-0.040863037,-0.023788452,9.549271,0.04324341,2.2312317,-0.012771606,0.013839722,0.003189087,-18.858337,5.1742554,6.7703247,0,0.0,0.0,0.0,0.0
1.118927002,0.07368761,0.93978554,-0.33372632,-0.21529289,0.3417359,0.9148036,0.9737655,0.0044392133,0.22751084,0.08663505,0.92240447,-0.37638333,-0.22148831,0.386182,0.8954364,0.971307,0.005788323,0.23775871,-0.0036010742,0.073776245,-0.052383423,9.549271,0.043533325,2.2310944,0.007461548,0.010650635,0.0,-20.11261,3.919983,6.5979004,0,0.0,0.0,0.0,0.0
1.123321534,0.073684275,0.93978274,-0.3337348,-0.21527842,0.34174347,0.9148041,0.9737689,0.0044392287,0.22749609,0.086368635,0.92277277,-0.37554073,-0.22137201,0.38530144,0.8958444,0.9713573,0.0057613407,0.23755403,0.015563965,0.011520386,-0.009124756,9.549271,0.043533325,2.2309418,-0.0021362305,0.004257202,-0.007461548,-20.11261,3.919983,6.5979004,0,0.0,0.0,0.0,0.0
1.127746583,0.07368123,0.93978024,-0.33374265,-0.2153094,0.34175026,0.91479427,0.9737623,0.0044547585,0.2275241,0.086107716,0.9231329,-0.3747147,-0.22125734,0.38443825,0.8962435,0.9714065,0.005734898,0.23735303,0.010772705,0.040100098,0.062408447,9.549271,0.043685913,2.2312317,0.0053253174,-0.007461548,-0.0053253174,-20.11261,3.919983,6.5979004,0,0.0,0.0,0.0,0.0
1.132141114,0.08964894,0.91142124,-0.40158993,-0.2092018,0.4114502,0.8870983,0.9737544,0.0044859136,0.22755702,0.08585228,0.923485,-0.3739049,-0.22114535,0.38359213,0.89663357,0.9714547,0.0057092956,0.23715667,0.034866333,0.06373596,0.12434387,9.549118,0.04399109,2.2315369,-0.011703491,0.0063934326,0.0053253174,-21.72699,4.815674,6.0791016,0,0.0,0.0,0.0,0.0
1.136535645,0.08964486,0.91141677,-0.401601,-0.2092199,0.41145998,0.88708955,0.97375095,0.0044999016,0.22757179,0.08593459,0.92325205,-0.37446097,-0.22090709,0.3841529,0.8964523,0.9715016,0.0056848284,0.23696493,-0.046539307,0.06838989,0.033218384,9.549118,0.044128418,2.2316895,-0.010635376,-0.0010681152,-0.0021362305,-21.72699,4.815674,6.0791016,0,0.0,0.0,0.0,0.0
1.140930176,0.089618176,0.91138756,-0.40167323,-0.20923227,0.41152415,0.8870568,0.9737507,0.0045465794,0.22757171,0.08601487,0.9230233,-0.375006,-0.22067384,0.3847025,0.896274,0.9715475,0.00566113,0.23677722,0.010925293,0.08708191,-0.024246216,9.549118,0.04458618,2.2316895,-0.007461548,0.0063934326,-0.008529663,-21.72699,4.815674,6.0791016,0,0.0,0.0,0.0,0.0
1.145324708,0.07411961,0.9390343,-0.33573946,-0.21519464,0.34379423,0.9140552,0.9737544,0.0044999174,0.22755702,0.08609281,0.9227982,-0.37554157,-0.22044551,0.38524228,0.89609826,0.9715924,0.005638839,0.23659332,-0.013015747,0.049240112,-0.12464905,9.549118,0.044128418,2.2315369,-0.008514404,-0.010650635,-0.0010681152,-21.188354,4.2785645,7.2891235,0,0.0,0.0,0.0,0.0
1.149719239,0.07411754,0.9390326,-0.33574444,-0.21514617,0.3437988,0.9140648,0.9737652,0.004485891,0.22751078,0.08584727,0.92314094,-0.37475452,-0.22034696,0.38442054,0.8964754,0.9716365,0.005616061,0.23641276,-0.0036010742,-0.017669678,-0.11941528,9.549271,0.04399109,2.2310944,-0.022354126,0.007461548,0.008514404,-21.188354,4.2785645,7.2891235,0,0.0,0.0,0.0,0.0
1.15411377,0.07410664,0.939024,-0.33577108,-0.21509983,0.34382248,0.91406685,0.9737763,0.004485878,0.22746342,0.0856068,0.92347616,-0.37398297,-0.22024913,0.38361505,0.8968443,0.97167987,0.0055934573,0.23623489,0.034576416,0.0014953613,-0.13331604,9.549408,0.04399109,2.2306366,0.0,-0.0010681152,-0.0053253174,-21.188354,4.2785645,7.2891235,0,0.0,0.0,0.0,0.0
1.158508301,0.08905336,0.9125403,-0.39917362,-0.20935398,0.4089622,0.8882121,0.97377634,0.0044703186,0.22746344,0.08547195,0.92379403,-0.37322804,-0.21929967,0.38285524,0.8974016,0.9719065,0.005146131,0.23531112,0.058517456,-0.07015991,0.02468872,9.549408,0.0438385,2.2306366,-0.0010681152,-0.01171875,0.0063934326,-19.5755,5.1742554,7.461548,0,0.0,0.0,0.0,0.0
1.162902833,0.08903539,0.9125259,-0.39921072,-0.2093315,0.40899438,0.88820267,0.97378284,0.004485908,0.22743538,0.08554848,0.92357624,-0.3737491,-0.21910131,0.3833805,0.89722574,0.97194445,0.005132615,0.23515438,-0.027679443,0.058944702,-0.08036804,9.549408,0.04399109,2.2303467,0.0095825195,0.0010681152,0.0010681152,-19.5755,5.1742554,7.461548,0,0.0,0.0,0.0,0.0
1.167327881,0.08905502,0.9125417,-0.3991702,-0.20932253,0.4089594,0.8882208,0.97378296,0.004454789,0.22743542,0.08562294,0.92336226,-0.3742604,-0.21890637,0.38389573,0.897053,0.9719818,0.005119681,0.23500016,-0.018096924,-0.074798584,0.015411377,9.549408,0.043685913,2.2303467,0.003189087,-0.0032043457,-0.008529663,-19.5755,5.1742554,7.461548,0,0.0,0.0,0.0,0.0
1.171722413,0.08920729,0.9122168,-0.3998782,-0.20925798,0.40968344,0.88790226,0.9737829,0.0044703484,0.2274354,0.085696094,0.92315257,-0.3747607,-0.2187151,0.38439995,0.8968837,0.9720184,0.005106383,0.23484896,-0.056411743,0.03515625,-0.013320923,9.549408,0.0438385,2.2303467,-0.003189087,-0.008529663,-0.0063934326,-21.009827,5.1742554,7.116699,0,0.0,0.0,0.0,0.0
1.176116944,0.08920729,0.9122168,-0.3998782,-0.20925798,0.40968344,0.88790226,0.9737829,0.0044703484,0.2274354,0.08577084,0.9229407,-0.3752651,-0.21852648,0.38490853,0.8967115,0.97205424,0.0050936625,0.23470089,0.082458496,0.04953003,0.053710938,9.549408,0.0438385,2.2303467,-0.0063934326,-0.007461548,0.0063934326,-21.009827,5.1742554,7.116699,0,0.0,0.0,0.0,0.0
1.180511475,0.08919303,0.9122038,-0.39991087,-0.20927908,0.4097119,0.88788414,0.9737797,0.0044998974,0.22744866,0.08577084,0.9229407,-0.3752651,-0.21852648,0.38490853,0.8967115,0.97205424,0.0050936625,0.23470089,0.082458496,0.049240112,0.05357361,9.549408,0.044128418,2.230484,-0.0063934326,-0.007461548,0.0063934326,-21.009827,5.1742554,7.116699,0,0.0,0.0,0.0,0.0
1.184906006,0.088673934,0.91321564,-0.39771107,-0.2095353,0.40745157,0.8888634,0.973772,0.004515487,0.22748126,0.08591469,0.92252827,-0.37624496,-0.21816106,0.38589624,0.89637595,0.9721236,0.0050701494,0.23441388,0.039505005,0.044296265,0.12031555,9.549271,0.044281006,2.2307892,0.0063934326,-0.010650635,0.008514404,-21.368408,5.1742554,7.116699,0,0.0,0.0,0.0,0.0
1.189300538,0.08869524,0.9132352,-0.39766133,-0.2095724,0.40740782,0.88887465,0.97376204,0.0044998806,0.22752406,0.08597343,0.92234695,-0.3766758,-0.21798883,0.38632953,0.8962312,0.97215706,0.0050590564,0.23427542,-0.017959595,-0.022583008,0.10549927,9.549271,0.044128418,2.2312317,0.0010681152,-0.0032043457,0.004257202,-21.368408,5.1742554,7.116699,0,0.0,0.0,0.0,0.0
1.193695069,0.08871694,0.91325516,-0.3976107,-0.20961474,0.40736327,0.8888851,0.97375095,0.0044858977,0.22757179,0.08603124,0.92216945,-0.37709698,-0.21782078,0.38675314,0.8960894,0.97218966,0.0050478727,0.23414053,-0.032180786,-0.036819458,0.11462402,9.549118,0.04399109,2.2316895,-0.0053253174,0.012786865,-0.004272461,-21.368408,5.1742554,7.116699,0,0.0,0.0,0.0,0.0
1.1980896,0.084142715,0.9218654,-0.37826464,-0.21149272,0.38748404,0.8972887,0.97375095,0.0044999016,0.22757179,0.086088136,0.92199576,-0.37750852,-0.2176569,0.38716725,0.8959503,0.9722213,0.005036633,0.23400924,0.06359863,0.020507813,0.038009644,9.549118,0.044128418,2.2316895,-0.0021362305,0.0,-0.0032043457,-19.216919,4.815674,7.461548,0,0.0,0.0,0.0,0.0
1.202484131,0.0841161,0.92184514,-0.37832,-0.21143797,0.38753214,0.8972809,0.97376513,0.0045154546,0.22751077,0.086049266,0.92199314,-0.3775238,-0.2175336,0.38717365,0.8959775,0.97225237,0.005025899,0.23388049,-0.12809753,0.039505005,-0.21038818,9.549271,0.044281006,2.2310944,-0.0053253174,-0.012786865,-0.0053253174,-19.216919,4.815674,7.461548,0,0.0,0.0,0.0,0.0
1.20690918,0.08415568,0.92187536,-0.37823772,-0.21150316,0.38746077,0.8972963,0.97374755,0.004485882,0.22758654,0.08601069,0.92199016,-0.37753978,-0.2174118,0.38718084,0.89600396,0.972283,0.0050156903,0.23375323,-0.07048035,-0.07510376,0.20544434,9.549118,0.04399109,2.231842,0.0063934326,0.0021362305,-0.007461548,-19.216919,4.815674,7.461548,0,0.0,0.0,0.0,0.0
1.211303711,0.07353274,0.94002926,-0.33307335,-0.21547559,0.3410642,0.91501117,0.9737367,0.0044859033,0.22763276,0.085973635,0.9219879,-0.37755376,-0.21729377,0.38718632,0.89603025,0.9723127,0.005005094,0.23363005,-0.0942688,0.011062622,0.10923767,9.548965,0.04399109,2.2322845,-0.0053253174,-0.0053253174,0.0021209717,-19.934082,4.815674,9.190369,0,0.0,0.0,0.0,0.0
1.215698243,0.07354209,0.9400348,-0.33305597,-0.21542296,0.34104964,0.91502905,0.9737476,0.0044547627,0.22758655,0.085721225,0.92237103,-0.37667426,-0.21726441,0.38627285,0.89643145,0.97234154,0.0049947104,0.2335102,0.10189819,-0.074798584,-0.10101318,9.549118,0.043685913,2.231842,-0.004257202,0.0053253174,-0.0010681152,-19.934082,4.815674,9.190369,0,0.0,0.0,0.0,0.0
1.220092774,0.073534675,0.9400304,-0.3330697,-0.21539429,0.34106147,0.91503125,0.9737545,0.0044547943,0.22755705,0.085474156,0.92274576,-0.37581167,-0.21723436,0.385377,0.8968243,0.97237,0.0049839118,0.23339187,0.044433594,-0.017364502,-0.06718445,9.549118,0.043685913,2.2315369,-0.0053253174,0.0021362305,-0.004272461,-19.934082,4.815674,9.190369,0,0.0,0.0,0.0,0.0
1.224487305,0.098336466,0.8935394,-0.43808347,-0.20527624,0.448963,0.86965156,0.9737513,0.004409656,0.22757186,0.085231945,0.92311215,-0.37496608,-0.21720405,0.3844988,0.8972085,0.97239804,0.004973329,0.23327526,-0.09442139,-0.09829712,-0.014663696,9.549118,0.04324341,2.2316895,0.01171875,0.003189087,-0.004272461,-19.934082,5.1742554,6.0791016,0,0.0,0.0,0.0,0.0
1.228881836,0.09834562,0.8935492,-0.4380617,-0.20527156,0.44894394,0.8696627,0.9737514,0.004394097,0.22757187,0.08588722,0.9225333,-0.3762391,-0.21770039,0.38588646,0.8964922,0.9722294,0.0049101715,0.23397855,0.020492554,-0.06941223,0.009277344,9.549118,0.04309082,2.2316895,0.0010681152,0.012786865,0.0010681152,-19.934082,5.1742554,6.0791016,0,0.0,0.0,0.0,0.0
1.233276368,0.09837132,0.8935762,-0.43800053,-0.20522144,0.44889042,0.8697019,0.97375935,0.004333379,0.22753899,0.0861489,0.9219967,-0.3774925,-0.21745902,0.38716686,0.8959986,0.9722603,0.0048998496,0.2338505,0.020339966,-0.12628174,-0.05267334,9.549271,0.042495728,2.2313843,0.015975952,0.0063934326,0.0021209717,-19.934082,5.1742554,6.0791016,0,0.0,0.0,0.0,0.0
1.237670899,0.078830294,0.93147343,-0.35516635,-0.21344571,0.36378363,0.9066986,0.97376925,0.0043334235,0.22749616,0.08640546,0.92146957,-0.37871882,-0.21722129,0.38841987,0.8955137,0.97229064,0.00488852,0.23372442,0.0011901855,-0.011383057,-0.114471436,9.549271,0.042495728,2.2309418,0.004257202,0.0095825195,-0.0021362305,-20.829773,4.2785645,6.5979004,0,0.0,0.0,0.0,0.0
1.24206543,0.078817695,0.931462,-0.3551987,-0.2134316,0.3638124,0.90669024,0.9737734,0.0043473835,0.22747831,0.086251445,0.92167604,-0.3782512,-0.21714835,0.38792977,0.89574385,0.97232056,0.0048774183,0.23359992,0.15428162,0.041152954,-0.018554688,9.549408,0.042633057,2.2307892,0.01171875,0.003189087,0.0063934326,-20.829773,4.2785645,6.5979004,0,0.0,0.0,0.0,0.0
1.246490479,0.078833826,0.93147653,-0.35515723,-0.21346013,0.36377552,0.90669847,0.97376585,0.004333408,0.22751093,0.08610034,0.9218779,-0.3777934,-0.21707644,0.38744992,0.895969,0.97235,0.004866818,0.23347753,-0.037109375,-0.025741577,0.091278076,9.549271,0.042495728,2.2310944,-0.003189087,-0.0095825195,-0.015975952,-20.829773,4.2785645,6.5979004,0,0.0,0.0,0.0,0.0
1.25088501,0.09061535,0.90984535,-0.4049325,-0.20879744,0.41492528,0.8855737,0.97375184,0.0043022954,0.22757198,0.08595267,0.9220758,-0.3773437,-0.21700646,0.38697878,0.8961895,0.9723787,0.0048561497,0.23335826,-0.032180786,-0.07809448,0.15292358,9.549118,0.04219055,2.2316895,0.004257202,-0.015975952,0.004257202,-21.188354,5.354309,7.2891235,0,0.0,0.0,0.0,0.0
1.255279541,0.09061535,0.90984535,-0.4049325,-0.20879744,0.41492528,0.8855737,0.97375184,0.0043022954,0.22757198,0.086050026,0.9218396,-0.3778983,-0.21684322,0.3875413,0.8959859,0.97240645,0.0048450725,0.2332426,0.044433594,-0.011077881,0.004486084,9.549118,0.04219055,2.2316895,-0.012771606,0.0010681152,0.004257202,-21.188354,5.354309,7.2891235,0,0.0,0.0,0.0,0.0
1.259674073,0.09063289,0.9098611,-0.40489307,-0.20882004,0.41489077,0.8855844,0.9737453,0.004286707,0.22760001,0.08614527,0.92160773,-0.3784417,-0.21668318,0.38809246,0.89578605,0.97243375,0.0048342175,0.23312923,0.058807373,-0.039657593,0.09039307,9.549118,0.042037964,2.2319794,-0.0063934326,-0.007461548,0.007446289,-21.188354,5.354309,7.2891235,0,0.0,0.0,0.0,0.0
1.264068604,0.07549972,0.9371379,-0.34069416,-0.21469063,0.34893337,0.9122246,0.97375965,0.0042711417,0.22753905,0.08623878,0.9213805,-0.3789733,-0.21652675,0.38863173,0.89559,0.97246027,0.004823267,0.23301867,0.015563965,-0.034713745,-0.17237854,9.549271,0.041885376,2.2313843,-0.008514404,-0.0095825195,0.0,-21.546936,4.637146,7.9803467,0,0.0,0.0,0.0,0.0
1.268463135,0.07547538,0.9371197,-0.3407493,-0.21463516,0.34898174,0.91221905,0.9737737,0.004286702,0.22747838,0.08602105,0.9217123,-0.37821534,-0.21649526,0.38784444,0.89593893,0.9724866,0.004812225,0.23290913,-0.008514404,0.013015747,-0.15742493,9.549408,0.042037964,2.2307892,0.003189087,-0.004257202,-0.009597778,-21.546936,4.637146,7.9803467,0,0.0,0.0,0.0,0.0
1.272857666,0.07547052,0.93711615,-0.34076038,-0.21457197,0.3489917,0.9122302,0.9737881,0.0042711366,0.22741741,0.08580726,0.92203635,-0.37747338,-0.21646304,0.38707364,0.89628,0.97251266,0.0048017143,0.23280051,-0.10444641,-0.044265747,-0.17597961,9.549561,0.041885376,2.230194,-0.0053253174,-0.014907837,-0.0021362305,-21.546936,4.637146,7.9803467,0,0.0,0.0,0.0,0.0
1.277252198,0.06983656,0.9458887,-0.31688723,-0.21645598,0.32446307,0.92079884,0.97379136,0.0042867106,0.22740263,0.085597746,0.9223531,-0.37674624,-0.21643008,0.38631818,0.8966138,0.9725384,0.004791103,0.23269293,-0.05656433,0.041748047,-0.041748047,9.549561,0.042037964,2.2300415,0.007461548,-0.007461548,0.0021209717,-19.934082,3.7399292,6.7703247,0,0.0,0.0,0.0,0.0
1.281646729,0.069830194,0.9458838,-0.31690326,-0.21642703,0.32447734,0.9208006,0.9737982,0.0042867414,0.22737311,0.08527935,0.92286384,-0.37556592,-0.21644191,0.3850967,0.8971362,0.97256374,0.0047810148,0.2325872,0.039215088,-0.0013427734,-0.07496643,9.549561,0.042037964,2.2297363,-0.0021362305,-0.0021362305,-0.0032043457,-19.934082,3.7399292,6.7703247,0,0.0,0.0,0.0,0.0
1.286071778,0.069830194,0.9458838,-0.31690326,-0.21642703,0.32447734,0.9208006,0.9737982,0.0042867414,0.22737311,0.08496728,0.9233626,-0.3744089,-0.21645245,0.38389933,0.89764667,0.9725887,0.004771129,0.23248298,-0.018249512,0.032180786,-0.02708435,9.549561,0.042037964,2.2297363,-0.003189087,-0.010650635,-0.007461548,-19.934082,3.7399292,6.7703247,0,0.0,0.0,0.0,0.0
1.290466309,0.08732557,0.91613895,-0.3912334,-0.20996425,0.400838,0.89176434,0.9738014,0.0042711953,0.22735985,0.08466158,0.9238499,-0.3732744,-0.21646236,0.38272536,0.8981455,0.9726132,0.0047614416,0.23238085,0.06794739,-0.044265747,-0.0077819824,9.549561,0.041885376,2.229599,-0.003189087,0.014892578,-0.009597778,-19.754028,4.9957275,7.2891235,0,0.0,0.0,0.0,0.0
1.29486084,0.08730518,0.9161222,-0.3912772,-0.2099696,0.40087593,0.89174604,0.97380203,0.0043022493,0.22735637,0.08535167,0.923724,-0.373429,-0.21621744,0.38303706,0.89807165,0.97260743,0.004089942,0.23241808,-0.06628418,0.06074524,-0.031723022,9.549713,0.04219055,2.229599,-0.003189087,0.0021362305,0.0095825195,-19.754028,4.9957275,7.2891235,0,0.0,0.0,0.0,0.0
1.299255372,0.08724507,0.9160729,-0.3914063,-0.20994817,0.40098804,0.89170086,0.9738121,0.0043785367,0.22731203,0.08539279,0.9235753,-0.373787,-0.21609245,0.3833952,0.89794886,0.9726315,0.004094188,0.23231684,0.01512146,0.04084778,-0.04084778,9.549713,0.042938232,2.2291412,0.0,0.01171875,-0.007461548,-19.754028,4.9957275,7.2891235,0,0.0,0.0,0.0,0.0
1.303649903,0.08930608,0.9120587,-0.40021658,-0.20904556,0.41003624,0.88778955,0.9738195,0.0043785,0.22728056,0.085431896,0.9234286,-0.37414047,-0.21596964,0.38374847,0.8978275,0.9726554,0.004099875,0.2322169,-0.056869507,-0.021392822,-0.11238098,9.549866,0.042938232,2.2288513,0.02130127,-0.004257202,-0.01171875,-20.471191,5.354309,7.633972,0,0.0,0.0,0.0,0.0
1.308044434,0.08932064,0.91207075,-0.40018597,-0.20905724,0.41000968,0.887799,0.9738156,0.004362993,0.2272973,0.0855126,0.92320853,-0.37466466,-0.21583167,0.38427746,0.8976344,0.97267896,0.004105448,0.23211822,-0.04234314,-0.026031494,0.05027771,9.549713,0.042785645,2.2289886,0.007461548,-0.0095825195,-0.0021362305,-20.471191,5.354309,7.633972,0,0.0,0.0,0.0,0.0
1.312438965,0.08932372,0.91207325,-0.40017948,-0.20910431,0.41000384,0.88779056,0.9738052,0.0043785055,0.22734153,0.08559185,0.9229928,-0.37517768,-0.2156967,0.3847952,0.8974451,0.9727019,0.004110599,0.23202184,7.4768066E-4,0.031280518,0.116867065,9.549713,0.042938232,2.2294464,0.008529663,-0.0021362305,0.010650635,-20.471191,5.354309,7.633972,0,0.0,0.0,0.0,0.0
1.316833497,0.08932919,0.9120778,-0.40016797,-0.20908566,0.409994,0.88779956,0.97380877,0.0043629617,0.22732681,0.08566945,0.9227812,-0.37568006,-0.21556544,0.38530228,0.897259,0.9727242,0.0041159573,0.23192838,0.12524414,-0.026031494,-0.0027008057,9.549713,0.042785645,2.2292938,-0.0063934326,0.0063934326,0.0021209717,-20.471191,5.354309,7.633972,0,0.0,0.0,0.0,0.0
1.321228028,0.08933915,0.91208595,-0.40014696,-0.2090487,0.40997598,0.88781655,0.97381574,0.0043334295,0.22729732,0.08574547,0.92257375,-0.3761721,-0.21543635,0.38579887,0.8970766,0.9727461,0.0041208975,0.23183642,0.02947998,-0.08319092,-0.06942749,9.549713,0.042495728,2.2289886,-0.0053253174,0.0010681152,-0.0032043457,-20.471191,5.354309,7.633972,0,0.0,0.0,0.0,0.0
1.325622559,0.089333475,0.91208136,-0.400159,-0.20909989,0.40998617,0.8877999,0.9738053,0.004362947,0.22734158,0.085820094,0.9223702,-0.37665385,-0.2153091,0.38628513,0.89689785,0.97276765,0.004125148,0.23174572,0.1013031,0.08888245,0.15995789,9.549713,0.042785645,2.2294464,0.003189087,0.0063934326,-0.014923096,-20.471191,5.354309,7.633972,0,0.0,0.0,0.0,0.0
1.330047608,0.059694815,0.95985764,-0.2740618,-0.21945563,0.28045374,0.9344436,0.97379446,0.004362968,0.22738779,0.08589297,0.92217046,-0.3771261,-0.2151854,0.38676172,0.8967222,0.97278863,0.0041299043,0.23165771,0.06794739,-0.002090454,0.12121582,9.549561,0.042785645,2.229889,-0.010635376,0.003189087,-0.009597778,-19.036865,3.5614014,8.326721,0,0.0,0.0,0.0,0.0
1.334442139,0.059711058,0.95986617,-0.27402833,-0.21948153,0.28042477,0.9344464,0.9737878,0.004347378,0.22741735,0.085369974,0.923041,-0.3751097,-0.21530169,0.3846794,0.8975895,0.9728089,0.0041345656,0.23157237,0.034423828,-0.07374573,0.077804565,9.549561,0.042633057,2.230194,-0.0010681152,0.0063934326,0.003189087,-19.036865,3.5614014,8.326721,0,0.0,0.0,0.0,0.0
1.33883667,0.05975023,0.9598867,-0.27394757,-0.2195179,0.28035486,0.9344587,0.9737771,0.0043022768,0.22746362,0.084857754,0.92388976,-0.37313113,-0.21541494,0.3826363,0.8984352,0.9728286,0.0041388217,0.23148932,0.020202637,-0.087677,0.13482666,9.549408,0.04219055,2.2306366,0.0010681152,-0.004257202,0.008514404,-19.036865,3.5614014,8.326721,0,0.0,0.0,0.0,0.0
1.343231202,0.08399949,0.9223713,-0.37706134,-0.21138284,0.38628072,0.8978332,0.9737871,0.004286761,0.22742084,0.08435654,0.9247178,-0.37118867,-0.21552536,0.3806309,0.8992602,0.97284776,0.004142091,0.23140883,0.005844116,-0.039657593,-0.089782715,9.549408,0.042037964,2.230194,0.0,0.004257202,0.008514404,-19.754028,4.637146,6.942749,0,0.0,0.0,0.0,0.0
1.347625733,0.083994694,0.9223673,-0.37707224,-0.21136515,0.3862903,0.8978332,0.97379136,0.0042867106,0.22740263,0.08434988,0.9246712,-0.37130633,-0.21544236,0.38074413,0.8992322,0.9728668,0.0041449843,0.23132905,-0.013458252,-0.030075073,-0.06568909,9.549561,0.042037964,2.2300415,0.01171875,-0.0095825195,0.0053253174,-19.754028,4.637146,6.942749,0,0.0,0.0,0.0,0.0
1.352020264,0.0840082,0.9223786,-0.37704143,-0.21137536,0.38626337,0.89784247,0.9737881,0.0042711366,0.22741741,0.08434322,0.92462546,-0.3714217,-0.21536069,0.38085514,0.89920473,0.97288543,0.0041478183,0.23125052,-0.03262329,-0.015563965,0.025131226,9.549561,0.041885376,2.230194,-0.02128601,-0.0063934326,-0.0063934326,-19.754028,4.637146,6.942749,0,0.0,0.0,0.0,0.0
1.356414795,0.07817301,0.9326123,-0.35231146,-0.2136025,0.36085454,0.9078315,0.9737879,0.0042866957,0.22741738,0.084337,0.9245808,-0.3715342,-0.215281,0.38096347,0.89917797,0.9729036,0.0041502845,0.23117399,-0.07092285,0.046539307,0.010772705,9.549561,0.042037964,2.230194,0.003189087,-0.0021362305,0.0053253174,-19.754028,4.2785645,6.942749,0,0.0,0.0,0.0,0.0
1.360809327,0.07817744,0.9326158,-0.35230106,-0.21362025,0.36084536,0.90783095,0.9737837,0.0042867456,0.22743559,0.083926775,0.9248992,-0.37083384,-0.2152928,0.38018754,0.8995034,0.97293645,0.004345435,0.23103206,-0.037246704,-0.020492554,0.024978638,9.549408,0.042037964,2.2303467,-0.0053253174,-0.0010681152,-0.004272461,-19.754028,4.2785645,6.942749,0,0.0,0.0,0.0,0.0
1.365203858,0.078187026,0.93262357,-0.3522785,-0.21361645,0.36082557,0.9078397,0.97378373,0.004271186,0.2274356,0.08381076,0.92505753,-0.37046507,-0.2152608,0.37980226,0.8996739,0.9729535,0.0043442617,0.23096015,0.034576416,-0.029922485,0.0058288574,9.549408,0.041885376,2.2303467,0.0138549805,-0.017044067,0.0010681152,-19.754028,4.2785645,6.942749,0,0.0,0.0,0.0,0.0
1.369628907,0.09115139,0.9088212,-0.40710616,-0.20844428,0.41716442,0.88460433,0.9737774,0.004226035,0.22746369,0.083697334,0.9252127,-0.37010318,-0.2152294,0.3794242,0.8998409,0.97297025,0.0043428,0.23088975,-0.08514404,-0.1060791,0.0677948,9.549408,0.04144287,2.2306366,-0.0010681152,-0.004257202,-0.0032043457,-20.829773,5.354309,7.2891235,0,0.0,0.0,0.0,0.0
1.374023438,0.091160946,0.90882975,-0.4070851,-0.20843981,0.4171461,0.8846141,0.9737775,0.0042104754,0.2274637,0.08385046,0.92490005,-0.370849,-0.2150963,0.38018554,0.8995513,0.97298646,0.0043404647,0.23082131,0.024993896,-0.038909912,0.02947998,9.549408,0.041290283,2.2306366,-0.004257202,-0.0063934326,0.0010681152,-20.829773,5.354309,7.2891235,0,0.0,0.0,0.0,0.0
1.378417969,0.091183394,0.9088496,-0.4070356,-0.20844552,0.41710302,0.88463306,0.9737742,0.004180898,0.2274785,0.08400055,0.92459327,-0.37157926,-0.21496572,0.380931,0.89926714,0.9730024,0.004337865,0.23075427,0.020202637,-0.091278076,0.029327393,9.549408,0.041000366,2.2307892,0.0010681152,-0.0032043457,-0.0010681152,-20.829773,5.354309,7.2891235,0,0.0,0.0,0.0,0.0
1.3828125,0.083821125,0.92292356,-0.3757475,-0.21153271,0.38496062,0.8983648,0.97376996,0.00418094,0.22749634,0.08414789,0.92429245,-0.3722937,-0.21483766,0.3816604,0.8989884,0.97301793,0.004334726,0.23068874,0.039505005,0.009277344,0.067489624,9.549271,0.041000366,2.2309418,-0.007461548,-0.0032043457,-0.01171875,-19.5755,4.815674,7.461548,0,0.0,0.0,0.0,0.0
1.387207032,0.08381628,0.9229198,-0.3757578,-0.21155074,0.38496947,0.8983567,0.9737664,0.0041949283,0.22751106,0.08414157,0.9242652,-0.37236285,-0.21477146,0.38172653,0.89897615,0.97303313,0.00433165,0.23062484,0.116119385,0.023498535,0.0769043,9.549271,0.041137695,2.2310944,0.0010681152,0.0021362305,0.003189087,-19.5755,4.815674,7.461548,0,0.0,0.0,0.0,0.0
1.391601563,0.08380022,0.92290735,-0.3757919,-0.21157198,0.38499892,0.89833903,0.97376317,0.004226034,0.22752433,0.084135264,0.9242384,-0.3724308,-0.21470696,0.38179144,0.898964,0.97304785,0.004328916,0.23056254,-0.099365234,0.09501648,0.0049438477,9.549271,0.04144287,2.2312317,0.0095825195,-0.008529663,0.0095825195,-19.5755,4.815674,7.461548,0,0.0,0.0,0.0,0.0
1.395996094,0.08199584,0.92610186,-0.36825556,-0.2122784,0.37724972,0.9014548,0.9737631,0.0042571533,0.2275243,0.08412877,0.92421186,-0.3724981,-0.21464421,0.38185567,0.89895165,0.9730623,0.004326858,0.23050176,0.020339966,0.046829224,0.0049438477,9.549271,0.041748047,2.2312317,0.0,-0.004257202,-0.0010681152,-19.934082,4.4570923,6.7703247,0,0.0,0.0,0.0,0.0
1.400390625,0.08198012,0.9260883,-0.36829287,-0.21225464,0.37728256,0.9014464,0.97376955,0.004271185,0.22749624,0.08408586,0.9242499,-0.3724133,-0.2145971,0.38176355,0.899002,0.97307634,0.004325464,0.23044226,0.116119385,0.051483154,-0.042648315,9.549271,0.041885376,2.2309418,0.0021362305,0.0010681152,0.004257202,-19.934082,4.4570923,6.7703247,0,0.0,0.0,0.0,0.0
1.404785157,0.08196234,0.9260731,-0.36833525,-0.21222687,0.37731987,0.9014374,0.9737771,0.0042867167,0.22746362,0.084043495,0.9242869,-0.3723311,-0.21455039,0.381674,0.89905125,0.97309035,0.004324378,0.23038332,-0.09950256,0.027389526,-0.104599,9.549408,0.042037964,2.2306366,-0.008514404,-0.004257202,0.017028809,-19.934082,4.4570923,6.7703247,0,0.0,0.0,0.0,0.0
1.409210206,0.07561322,0.9369055,-0.34130734,-0.21460555,0.3495564,0.9120058,0.9737694,0.0042867446,0.22749622,0.08400164,0.92432284,-0.37225127,-0.21450411,0.38158694,0.89909923,0.9731041,0.0043236245,0.23032497,-0.0036010742,0.027389526,0.081848145,9.549271,0.042037964,2.2309418,-0.007461548,-0.004257202,-0.009597778,-20.11261,4.2785645,7.2891235,0,0.0,0.0,0.0,0.0
1.413604737,0.07559737,0.9368934,-0.341344,-0.21462739,0.3495884,0.9119885,0.97376597,0.004317849,0.22751096,0.083833024,0.9245853,-0.37163708,-0.21450928,0.38095063,0.8993678,0.97311753,0.004322887,0.23026836,0.053863525,0.05102539,0.024230957,9.549271,0.04234314,2.2310944,-0.009567261,0.003189087,0.017028809,-20.11261,4.2785645,7.2891235,0,0.0,0.0,0.0,0.0
1.417999268,0.075586066,0.9368849,-0.3413702,-0.21458119,0.34961155,0.9119906,0.97377706,0.004317836,0.2274636,0.08366755,0.92484176,-0.3710357,-0.21451475,0.38032758,0.8996301,0.9731306,0.0043227863,0.23021325,0.07766724,0.012710571,-0.06628418,9.549408,0.04234314,2.2306366,0.018112183,-0.0063934326,-0.0053253174,-20.11261,4.2785645,7.2891235,0,0.0,0.0,0.0,0.0
1.422393799,0.08398978,0.9223787,-0.37704548,-0.21144922,0.3862628,0.8978255,0.97377366,0.004317821,0.22747837,0.08350514,0.92509246,-0.3704467,-0.21451901,0.37971726,0.89988685,0.9731436,0.004322687,0.23015827,0.015426636,0.0031433105,0.014968872,9.549408,0.04234314,2.2307892,0.008529663,0.0021362305,-0.004272461,-20.471191,4.2785645,5.9066772,0,0.0,0.0,0.0,0.0
1.426788331,0.08396536,0.9223537,-0.377112,-0.2114277,0.38632208,0.89780486,0.97378033,0.0043474142,0.2274488,0.08411024,0.92491615,-0.37074998,-0.21369676,0.38015467,0.89989775,0.9732724,0.0035374532,0.22962649,-0.022888184,0.10340881,0.05836487,9.549408,0.042633057,2.230484,0.0021362305,-0.007461548,0.012771606,-20.471191,4.2785645,5.9066772,0,0.0,0.0,0.0,0.0
1.431182862,0.08395475,0.92234284,-0.37714094,-0.2114643,0.38634768,0.8977853,0.97377336,0.0043785027,0.2274783,0.08411024,0.92491615,-0.37074998,-0.21369676,0.38015467,0.89989775,0.9732724,0.0035374532,0.22962649,-0.022888184,0.10310364,0.058059692,9.549408,0.042938232,2.2307892,0.0021362305,-0.007461548,0.012771606,-20.471191,4.2785645,5.9066772,0,0.0,0.0,0.0,0.0
1.435577393,0.090072095,0.91075355,-0.40300757,-0.2089153,0.4129276,0.8864792,0.97377694,0.004347399,0.22746357,0.08410459,0.92481506,-0.3710034,-0.21360812,0.38040027,0.8998151,0.97329235,0.0035707587,0.2295414,-0.08035278,-0.09291077,-0.03276062,9.549408,0.042633057,2.2306366,0.0063934326,0.012786865,0.0021209717,-21.009827,5.532837,7.8079224,0,0.0,0.0,0.0,0.0
1.439971924,0.09008516,0.9107644,-0.40298003,-0.20892543,0.4129037,0.88648784,0.9737735,0.00433338,0.22747833,0.08422614,0.9245451,-0.371648,-0.21351582,0.38105568,0.8995596,0.97330207,0.0035862918,0.22949986,-0.061187744,-0.04966736,0.014968872,9.549408,0.042495728,2.2307892,0.012786865,0.007461548,0.0063934326,-21.009827,5.532837,7.8079224,0,0.0,0.0,0.0,0.0
1.444366456,0.09007267,0.91075397,-0.40300632,-0.20888421,0.4129266,0.88648677,0.97378343,0.0043334244,0.22743553,0.0843454,0.92428035,-0.37227905,-0.21342544,0.38169736,0.89930904,0.9733116,0.0036012337,0.22945935,-0.022888184,0.012557983,-0.11387634,9.549408,0.042495728,2.2303467,0.0,0.0063934326,-0.0032043457,-21.009827,5.532837,7.8079224,0,0.0,0.0,0.0,0.0
1.448791504,0.07390044,0.9396244,-0.33413282,-0.21521759,0.34218034,0.9146552,0.97376597,0.004317849,0.22751096,0.08446197,0.92402023,-0.37289774,-0.21333602,0.38232636,0.89906305,0.9733211,0.0036158774,0.22941884,0.13526917,-0.05430603,-0.033218384,9.549271,0.04234314,2.2310944,0.008529663,0.0010681152,-0.0021362305,-19.934082,4.0985107,7.116699,0,0.0,0.0,0.0,0.0
1.453186036,0.073899105,0.9396233,-0.33413598,-0.21516766,0.34218332,0.91466576,0.9737771,0.0043022768,0.22746362,0.08425093,0.9243492,-0.3721293,-0.21337864,0.38153014,0.89939106,0.97333,0.0036299168,0.22938065,0.0010528564,-0.044570923,-0.09980774,9.549408,0.04219055,2.2306366,-0.017028809,0.022354126,-0.0063934326,-19.934082,4.0985107,7.116699,0,0.0,0.0,0.0,0.0
