Time,Rot1,Rot2,Rot3,Rot4,Rot5,Rot6,Rot7,Rot8,Rot9,FRot1,FRot2,FRot3,FRot4,FRot5,FRot6,FRot7,FRot8,FRot9,AccX,AccY,AccZ,GravX,GravY,GravZ,GyroX,GyroY,GyroZ,MagX,MagY,MagZ,Imid
0.0,0.0,0.0,0.0,0.0,0.0,0.0,0.0,0.0,0.0,0.0,0.0,0.0,0.0,0.0,0.0,0.0,0.0,0.0,9.823395,-0.03590393,0.07421875,9.806046,-0.031723022,0.0947113,0.0,0.0,0.0,0.0,0.0,0.0,0,0.0,0.0,0.0,0.0
0.004394532,0.0,0.0,0.0,0.0,0.0,0.0,0.0,0.0,0.0,1.0,0.0,0.0,0.0,1.0,0.0,0.0,0.0,1.0,9.737213,-0.002380371,0.14125061,9.806046,-0.03186035,0.09277344,0.0,0.0,0.0,0.0,0.0,0.0,0,0.0,0.0,0.0,0.0
0.00881958,0.0,0.0,0.0,0.0,0.0,0.0,0.0,0.0,0.0,1.0,0.0,0.0,0.0,1.0,0.0,0.0,0.0,1.0,9.708481,0.04548645,0.18913269,9.806046,-0.03186035,0.090530396,0.010650635,-0.04901123,0.006378174,0.0,0.0,0.0,0,0.0,0.0,0.0,0.0
0.013214112,0.0068736784,-0.40963712,-0.9122227,0.0066325176,0.9122428,-0.4095962,0.9999544,-0.0032349,0.0089873895,0.9999928,-2.7971022E-4,-0.0037832803,2.8024177E-4,0.99999994,1.3997365E-4,0.0037832411,-1.4103288E-4,0.99999285,9.876068,0.05984497,-0.10772705,9.806046,-0.031723022,0.088134766,-0.0021362305,-0.057525635,0.004257202,-27.464294,19.876099,-9.132385,0,0.0,0.0,0.0,0.0
0.017639161,0.006711122,-0.40982378,-0.9121401,0.006544397,0.912159,-0.40978414,0.999956,-0.003219295,0.00880366,0.9993515,-0.0087151695,-0.03493706,0.008716937,0.99996203,-1.0169986E-4,0.03493662,-2.0291028E-4,0.9993895,9.732422,-0.01675415,0.13166809,9.806198,-0.031570435,0.08633423,-0.0010681152,-0.039413452,0.004257202,-27.464294,19.876099,-9.132385,0,0.0,0.0,0.0,0.0
0.022064209,0.006542277,-0.4100176,-0.9120541,0.0064705564,0.9120719,-0.40997916,0.9999576,-0.0032193004,0.008620069,0.9977124,-0.01698541,-0.06543291,0.016966231,0.9998557,-8.4885367E-4,0.06543788,-2.6323803E-4,0.99785656,9.880859,-0.07421875,0.01675415,9.806198,-0.031570435,0.08453369,-0.015975952,-0.042617798,-0.0010681152,-27.464294,19.876099,-9.132385,0,0.0,0.0,0.0,0.0
0.026458741,0.0059704646,-0.45906,-0.8883852,0.006691157,0.8883995,-0.45902243,0.9999598,-0.0032037476,0.0083758,0.99513686,-0.025093375,-0.095251806,0.025009932,0.99968505,-0.0020699482,0.09527375,-3.2235932E-4,0.99545103,9.785095,-0.08378601,-0.05984497,9.806198,-0.031417847,0.08213806,-0.004272461,-0.03515625,-0.0063934326,-28.001404,18.980408,-9.996033,0,0.0,0.0,0.0,0.0
0.030883789,0.0058266097,-0.45922723,-0.88829976,0.006636088,0.888313,-0.45919055,0.99996096,-0.0032193111,0.008223325,0.9916482,-0.03412624,-0.12437549,0.033908263,0.9994175,-0.0038696886,0.1244351,-3.7998715E-4,0.9922277,9.799454,-0.11251831,0.04548645,9.806198,-0.031570435,0.0806427,0.010650635,-0.042617798,-0.008529663,-28.001404,18.980408,-9.996033,0,0.0,0.0,0.0,0.0
0.035308838,0.0058266097,-0.45922723,-0.88829976,0.006636088,0.888313,-0.45919055,0.99996096,-0.0032193111,0.008223325,0.98732364,-0.042979512,-0.15278974,0.042540792,0.99907583,-0.0061408663,0.15291247,-4.367737E-4,0.9882396,9.737213,-0.03590393,0.05027771,9.806198,-0.031570435,0.0806427,-0.008529663,-0.027694702,-0.0032043457,-28.001404,18.980408,-9.996033,0,0.0,0.0,0.0,0.0
0.03970337,0.005709135,-0.46771607,-0.88386035,0.0066632237,0.8838729,-0.46767968,0.9999615,-0.0032193128,0.008162647,0.9822212,-0.05165245,-0.18048161,0.050891053,0.998665,-0.008849814,0.1806978,-4.9242453E-4,0.98353857,9.794678,-0.03111267,-0.04548645,9.806198,-0.031570435,0.08004761,0.0053253174,-0.014923096,0.0021209717,-28.89862,19.517517,-10.514832,0,0.0,0.0,0.0,0.0
0.044128418,0.0056960713,-0.46773112,-0.88385236,0.0066212625,0.88386494,-0.46769512,0.99996185,-0.0031881945,0.008131529,0.9763844,-0.060339406,-0.2074432,0.05913587,0.99817777,-0.012003849,0.2077895,-5.469624E-4,0.9781734,9.823395,0.04548645,-0.002380371,9.806198,-0.03126526,0.07974243,0.0095825195,-0.015975952,-0.0021362305,-28.89862,19.517517,-10.514832,0,0.0,0.0,0.0,0.0
0.04852295,0.0056770556,-0.46775308,-0.8838409,0.0065938258,0.8838535,-0.46771738,0.99996215,-0.0031726356,0.008101968,0.96987516,-0.068848535,-0.23367085,0.06707412,0.99762696,-0.015541669,0.23418635,-5.99787E-4,0.9721915,9.68454,0.01675415,-0.002380371,9.806198,-0.03111267,0.079452515,0.0021209717,0.0,-0.0138549805,-28.89862,19.517517,-10.514832,0,0.0,0.0,0.0,0.0
0.053161621,0.005678745,-0.46292788,-0.8863777,0.0065273824,0.8863902,-0.46289262,0.99996257,-0.0031570771,0.008055293,0.9627447,-0.07718312,-0.25916284,0.074699745,0.99701667,-0.019432101,0.2598895,-6.51244E-4,0.9656381,9.804245,-0.02154541,-0.05027771,9.806198,-0.030960083,0.07899475,-0.0021362305,0.0010681152,0.0,-29.974365,18.441772,-9.823608,0,0.0,0.0,0.0,0.0
0.057800293,0.0056569306,-0.4629557,-0.8863634,0.0065689352,0.8863757,-0.46292022,0.99996245,-0.0032037562,0.008055291,0.95505095,-0.08523716,-0.28392276,0.081903756,0.9963604,-0.023614423,0.28490224,-7.013607E-4,0.9585563,9.928741,-0.13166809,0.08857727,9.806198,-0.031417847,0.07899475,-0.009597778,0.0095825195,-0.0021362305,-29.974365,18.441772,-9.823608,0,0.0,0.0,0.0,0.0
0.062438965,0.0058098203,-0.46276084,-0.88646406,0.0065431874,0.88647765,-0.46272504,0.99996173,-0.0031119513,0.008178208,0.9468336,-0.09312534,-0.30795085,0.08879245,0.9956541,-0.028085507,0.309228,-7.514087E-4,0.9509876,9.866501,0.03590393,0.09336853,9.806198,-0.030517578,0.080200195,0.0095825195,0.0063934326,-0.004272461,-29.974365,18.441772,-9.823608,0,0.0,0.0,0.0,0.0
0.067077637,0.0060240566,-0.4428241,-0.89658827,0.006513589,0.8966028,-0.44278756,0.9999606,-0.0031726307,0.008285561,0.93813854,-0.100845724,-0.33124942,0.095359266,0.9949018,-0.03281933,0.33287033,-7.986196E-4,0.9429723,9.823395,-0.007171631,0.08857727,9.806198,-0.03111267,0.08125305,0.01171875,0.026611328,-0.014923096,-28.54004,18.800354,-9.477234,0,0.0,0.0,0.0,0.0
0.071716309,0.0061189015,-0.44270855,-0.89664465,0.006526252,0.89666,-0.4426716,0.99995995,-0.0031430651,0.008375802,0.9290533,-0.107961215,-0.35384226,0.1011943,0.99415475,-0.03763048,0.3558366,-8.460998E-4,0.9345478,9.847351,-0.05027771,-0.05027771,9.806198,-0.030822754,0.08213806,0.0095825195,0.026611328,0.013824463,-28.54004,18.800354,-9.477234,0,0.0,0.0,0.0,0.0
0.076324463,0.006174674,-0.44264057,-0.8966778,0.0065860385,0.89669347,-0.44260293,0.99995923,-0.0031726263,0.008452038,0.9290533,-0.107961215,-0.35384226,0.1011943,0.99415475,-0.03763048,0.3558366,-8.460998E-4,0.9345478,9.847351,-0.05027771,-0.05027771,9.806198,-0.03111267,0.08288574,0.0095825195,0.026611328,0.013824463,-28.54004,18.800354,-9.477234,0,0.0,0.0,0.0,0.0
0.080963135,0.0063920915,-0.43929207,-0.89832157,0.006657266,0.8983387,-0.4392531,0.9999574,-0.0031726204,0.008666746,0.9104708,-0.12167439,-0.39526972,0.11227851,0.9925687,-0.046914455,0.39804065,-0.0016660541,0.91736627,9.832977,-0.05505371,-0.026321411,9.806198,-0.03111267,0.084991455,-0.010650635,0.028747559,0.003189087,-27.28424,19.33899,-9.651184,0,0.0,0.0,0.0,0.0
0.085601807,0.006523038,-0.4391432,-0.89839345,0.0067023477,0.8984116,-0.4391034,0.99995625,-0.003157057,0.008803662,0.9104708,-0.12167439,-0.39526972,0.11227851,0.9925687,-0.046914455,0.39804065,-0.0016660541,0.91736627,9.832977,-0.05505371,-0.026321411,9.806198,-0.030960083,0.08633423,-0.010650635,0.028747559,0.003189087,-27.28424,19.33899,-9.651184,0,0.0,0.0,0.0,0.0
0.090240479,0.0066684205,-0.43897784,-0.89847314,0.0067888806,0.8984923,-0.4389368,0.9999547,-0.003172612,0.008971692,0.88995725,-0.1347393,-0.43568507,0.12178105,0.9908796,-0.057680395,0.43948323,-0.001725098,0.89824915,9.670166,0.011962891,0.007171631,9.806198,-0.03111267,0.08798218,-0.007461548,0.043655396,-0.004272461,-27.28424,19.33899,-9.651184,0,0.0,0.0,0.0,0.0
0.094879151,0.006446759,-0.4781926,-0.8782313,0.007175617,0.878249,-0.47814956,0.9999534,-0.0032193367,0.009093187,0.87930644,-0.1410645,-0.45488563,0.1261057,0.9899988,-0.06324259,0.45925754,-0.0017540483,0.88830143,9.780304,-0.06942749,0.06463623,9.806046,-0.031570435,0.08917236,-0.017028809,0.04472351,0.0053253174,-27.642822,18.621826,-10.342407,0,0.0,0.0,0.0,0.0
0.099517823,0.0065552657,-0.47806853,-0.87829804,0.007266865,0.8783165,-0.47802433,0.99995214,-0.0032488964,0.009231659,0.8683188,-0.14813064,-0.47337073,0.13092238,0.98896617,-0.069319546,0.47841597,-0.0017833541,0.8781315,9.876068,-0.14125061,0.06463623,9.806046,-0.03186035,0.090530396,0.010650635,0.031936646,0.007446289,-27.642822,18.621826,-10.342407,0,0.0,0.0,0.0,0.0
0.104125977,0.0066803773,-0.47792554,-0.87837493,0.007386354,0.8783941,-0.47787982,0.9999504,-0.0032955701,0.009398133,0.8571337,-0.15504535,-0.49120545,0.13543339,0.9879056,-0.07549926,0.49697047,-0.0018126649,0.86776555,9.832977,-0.06463623,0.13645935,9.806046,-0.032318115,0.092163086,0.0,0.03514099,-0.004272461,-27.642822,18.621826,-10.342407,0,0.0,0.0,0.0,0.0
0.108764649,0.007056898,-0.44364175,-0.8961764,0.007170439,0.8961981,-0.44359607,0.9999494,-0.003295567,0.009505485,0.8457794,-0.1618112,-0.50840384,0.13964579,0.98682004,-0.08176378,0.5149334,-0.0018423231,0.8572283,9.713272,-0.03111267,0.12689209,9.806046,-0.032318115,0.09321594,-0.0063934326,0.036193848,0.007446289,-28.720093,21.131897,-10.687256,0,0.0,0.0,0.0,0.0
0.113403321,0.007201725,-0.44348392,-0.8962534,0.007222863,0.89627635,-0.44343722,0.99994797,-0.0032800026,0.0096579585,0.8343918,-0.16767266,-0.5250489,0.14292453,0.985841,-0.087693796,0.5323186,-0.001871388,0.84654206,9.818619,-0.05505371,0.15560913,9.806046,-0.032165527,0.0947113,-0.014907837,0.022354126,-0.0010681152,-28.720093,21.131897,-10.687256,0,0.0,0.0,0.0,0.0
0.118041993,0.007242941,-0.44343895,-0.8962753,0.0071750106,0.8962987,-0.44339257,0.99994797,-0.0032193193,0.009673518,0.82288855,-0.17340767,-0.5410953,0.1459497,0.98484826,-0.093661696,0.5491385,-0.0018995603,0.83572924,9.919174,0.11251831,0.12210083,9.806046,-0.031570435,0.09486389,-0.0010681152,0.028747559,-0.005340576,-28.720093,21.131897,-10.687256,0,0.0,0.0,0.0,0.0
0.122680664,0.0072297156,-0.4434534,-0.8962683,0.007201625,0.89629155,-0.44340682,0.9999479,-0.0032488827,0.009673517,0.81129044,-0.17902133,-0.55656004,0.14873025,0.9838433,-0.09965771,0.5654087,-0.0019259555,0.8248086,9.68454,-0.09336853,0.09815979,9.806046,-0.03186035,0.09486389,-0.0053253174,0.010650635,0.007446289,-28.720093,21.131897,-10.687256,0,0.0,0.0,0.0,0.0
0.127319336,0.0072227544,-0.44346094,-0.89626455,0.007215631,0.89628774,-0.44341427,0.9999479,-0.0032644426,0.009673517,0.79961777,-0.18451737,-0.5714586,0.15127581,0.98282737,-0.10566979,0.58114296,-0.0019524139,0.81379914,9.86171,-0.09815979,0.09815979,9.806046,-0.03201294,0.09486389,-0.004272461,0.0053253174,0.003189087,-28.720093,21.131897,-10.687256,0,0.0,0.0,0.0,0.0
0.131927491,0.007194617,-0.4434916,-0.8962496,0.0072020795,0.89627254,-0.44344515,0.9999482,-0.0032644435,0.009642401,0.7878897,-0.18989803,-0.58580595,0.1535938,0.98180187,-0.11168761,0.5963546,-0.0019786544,0.8027187,9.789886,-0.026321411,0.03111267,9.806046,-0.03201294,0.094558716,-0.017028809,-0.0010681152,-0.017044067,-28.720093,21.131897,-10.687256,0,0.0,0.0,0.0,0.0
0.136566162,0.007297271,-0.4279382,-0.90377855,0.00708409,0.9038021,-0.42789212,0.99994826,-0.0032800036,0.009626841,0.77612406,-0.19516623,-0.59961796,0.15569225,0.98076814,-0.117702186,0.61105764,-0.0020043703,0.79158354,9.880859,-0.08378601,0.04548645,9.806046,-0.032165527,0.09440613,0.0053253174,-0.014923096,-0.005340576,-28.54004,18.800354,-9.132385,0,0.0,0.0,0.0,0.0
0.141204834,0.007109482,-0.42817056,-0.90366995,0.006980652,0.90369207,-0.42812613,0.9999504,-0.0032644507,0.009413692,0.7643923,-0.199985,-0.6129522,0.15731445,0.9797968,-0.12349204,0.6252652,-0.002029883,0.7804097,9.775513,-0.026321411,-0.05505371,9.806046,-0.03201294,0.092315674,-0.011703491,-0.008529663,-0.007461548,-28.54004,18.800354,-9.132385,0,0.0,0.0,0.0,0.0
0.145843506,0.0070519643,-0.42824167,-0.9036367,0.006887071,0.90365857,-0.4281983,0.9999515,-0.0032037708,0.009321899,0.7526525,-0.20470774,-0.62578666,0.1587488,0.97882104,-0.12926058,0.6389938,-0.0020545742,0.7692092,9.785095,0.09815979,0.10293579,9.806046,-0.031417847,0.091415405,0.0095825195,-0.031967163,-0.0063934326,-28.54004,18.800354,-9.132385,0,0.0,0.0,0.0,0.0
0.150482178,0.0070056217,-0.41864115,-0.9081247,0.006705736,0.9081462,-0.41859934,0.999953,-0.003157096,0.009169427,0.7399625,-0.20865771,-0.63946646,0.15967001,0.97798496,-0.13435307,0.6534224,-0.002687369,0.75698864,9.765945,0.14604187,0.05505371,9.806046,-0.030960083,0.089920044,-0.013839722,-0.0234375,-0.0021362305,-29.078674,19.69757,-9.30481,0,0.0,0.0,0.0,0.0
0.154907227,0.0068501025,-0.41883013,-0.9080388,0.0065692402,0.90805936,-0.41879007,0.999955,-0.0030963705,0.008971695,0.7282851,-0.21299298,-0.6513332,0.16060197,0.97705,-0.1399296,0.6661891,-0.0026967637,0.745778,9.837769,0.13166809,0.08378601,9.806198,-0.03036499,0.08798218,-0.0021362305,-0.028762817,0.0053253174,-29.078674,19.69757,-9.30481,0,0.0,0.0,0.0,0.0
0.159301758,0.006654849,-0.41906735,-0.9079308,0.0064817155,0.9079499,-0.41902867,0.99995685,-0.0030963763,0.008758544,0.7166404,-0.21724153,-0.6627463,0.16137382,0.97611415,-0.14546368,0.6785168,-0.0027047559,0.7345799,9.84256,-0.026321411,0.02154541,9.806198,-0.03036499,0.08589172,-0.011703491,-0.043685913,0.0,-29.078674,19.69757,-9.30481,0,0.0,0.0,0.0,0.0
0.163696289,0.006405972,-0.42967752,-0.90295964,0.006494421,0.902977,-0.42963967,0.99995834,-0.0031119408,0.008574952,0.7050392,-0.22140619,-0.6737202,0.1619939,0.9751779,-0.15095045,0.6904184,-0.0027125883,0.7234051,9.818619,-0.04548645,0.05984497,9.806198,-0.030517578,0.08409119,-0.012771606,-0.040481567,-0.0010681152,-27.464294,20.23468,-9.823608,0,0.0,0.0,0.0,0.0
0.168090821,0.0063156798,-0.4297773,-0.9029128,0.006469731,0.90292954,-0.42973998,0.9999592,-0.003127503,0.0084831575,0.69345504,-0.22571197,-0.6842326,0.16262807,0.9741903,-0.15654203,0.70190614,-0.0027205753,0.71226424,9.708481,0.01675415,0.24180603,9.806198,-0.030670166,0.08319092,-0.007461548,-0.038360596,0.0021209717,-27.464294,20.23468,-9.823608,0,0.0,0.0,0.0,0.0
0.172485352,0.006211298,-0.4298927,-0.9028587,0.0063695405,0.9028748,-0.42985654,0.9999604,-0.0030808276,0.008346242,0.6819367,-0.22992954,-0.6943304,0.16311382,0.9732035,-0.16207688,0.71299106,-0.0027287137,0.7011679,9.742004,0.04069519,0.026321411,9.806198,-0.030212402,0.081848145,-0.015975952,-0.034088135,0.0053253174,-27.464294,20.23468,-9.823608,0,0.0,0.0,0.0,0.0
0.176879883,0.0057582324,-0.47702876,-0.8788688,0.0065970076,0.87888247,-0.4769929,0.99996173,-0.0030512682,0.008207771,0.6704926,-0.23406102,-0.7040277,0.16345719,0.97221804,-0.16755237,0.7236859,-0.0027357559,0.69012403,9.847351,-0.011962891,0.16998291,9.806198,-0.029922485,0.08049011,0.0053253174,-0.026641846,-0.0032043457,-29.078674,19.33899,-10.687256,0,0.0,0.0,0.0,0.0
0.181274414,0.005710739,-0.47708383,-0.8788392,0.006589518,0.8788524,-0.4770482,0.99996203,-0.0030668287,0.00816265,0.6589578,-0.23913315,-0.7131549,0.1643606,0.9709829,-0.17371751,0.7340029,-0.002742066,0.6791408,9.789886,-0.09815979,0.22744751,9.806198,-0.030075073,0.08004761,0.010650635,-0.036224365,-0.007461548,-29.078674,19.33899,-10.687256,0,0.0,0.0,0.0,0.0
0.185668946,0.0055842474,-0.4772305,-0.8787604,0.0064692665,0.8787729,-0.4771962,0.99996346,-0.0030201538,0.007994616,0.6475165,-0.24409874,-0.7218991,0.16509755,0.96974653,-0.17981812,0.74395245,-0.0027485613,0.66822696,9.785095,0.011962891,0.05984497,9.806198,-0.02961731,0.07839966,-0.011703491,-0.022369385,-0.0032043457,-29.078674,19.33899,-10.687256,0,0.0,0.0,0.0,0.0
0.190063477,0.0053739655,-0.49206525,-0.87054175,0.0065245302,0.8705531,-0.4920314,0.99996436,-0.0030357162,0.007888817,0.63617396,-0.24896204,-0.7302743,0.16567567,0.9685093,-0.1858528,0.7535478,-0.002753993,0.6573873,9.880859,-0.06463623,0.09815979,9.806198,-0.029769897,0.07736206,0.0010528564,-0.03515625,-0.005340576,-28.181458,19.517517,-11.206055,0,0.0,0.0,0.0,0.0
0.194458008,0.005325275,-0.49211845,-0.8705119,0.006515435,0.8705229,-0.4920848,0.99996465,-0.003051277,0.00784214,0.6248815,-0.25405008,-0.7382288,0.16631347,0.9671871,-0.19206484,0.76279944,-0.0027596275,0.6466293,9.770737,-0.06942749,-0.04548645,9.806198,-0.029922485,0.0769043,-0.0010681152,-0.026641846,0.0,-28.181458,19.517517,-11.206055,0,0.0,0.0,0.0,0.0
0.198852539,0.005289228,-0.49215785,-0.8704899,0.0065472983,0.87050056,-0.49212405,0.99996465,-0.0030964005,0.00782658,0.61370283,-0.25903073,-0.74583644,0.1667956,0.96586514,-0.1982014,0.77171767,-0.0027654606,0.6359593,9.890442,-0.13645935,0.04069519,9.806198,-0.03036499,0.07675171,-0.0021362305,-0.014923096,0.0021209717,-28.181458,19.517517,-11.206055,0,0.0,0.0,0.0,0.0
0.203247071,0.005417898,-0.45897567,-0.88843226,0.0062664887,0.8884434,-0.45894322,0.99996567,-0.0030808437,0.007689662,0.60264367,-0.26390597,-0.75310975,0.16713004,0.9645444,-0.20425865,0.7803129,-0.0027720795,0.6253832,9.900009,-0.08378601,-0.06463623,9.806198,-0.030212402,0.075408936,-0.0010681152,-0.019180298,-0.007461548,-27.28424,19.69757,-10.342407,0,0.0,0.0,0.0,0.0
0.207641602,0.005356371,-0.45904288,-0.888398,0.006252869,0.8884087,-0.4590107,0.999966,-0.0030964047,0.007628981,0.60264367,-0.26390597,-0.75310975,0.16713004,0.9645444,-0.20425865,0.7803129,-0.0027720795,0.6253832,9.900009,-0.08378601,-0.06463623,9.806198,-0.03036499,0.07481384,-0.0010681152,-0.019180298,-0.007461548,-27.28424,19.69757,-10.342407,0,0.0,0.0,0.0,0.0
0.212036133,0.0053424407,-0.45905805,-0.8883902,0.006245819,0.88840073,-0.45902598,0.99996614,-0.0030964052,0.0076134223,0.581147,-0.27191216,-0.767028,0.16651392,0.962318,-0.2149816,0.796581,-0.0027849227,0.60452545,9.785095,-0.01675415,0.04069519,9.806198,-0.03036499,0.074661255,0.0053253174,-0.008529663,-0.0021362305,-27.28424,19.69757,-10.342407,0,0.0,0.0,0.0,0.0
0.216430664,0.0054418026,-0.43678218,-0.89955086,0.006084278,0.89956194,-0.43675077,0.9999666,-0.0030964066,0.0075527425,0.5703943,-0.27528363,-0.7738665,0.16673608,0.96135443,-0.21908154,0.8042695,-0.004068611,0.59425074,9.837769,-0.06942749,0.08857727,9.806198,-0.03036499,0.07406616,-0.018096924,0.0,0.010650635,-28.54004,19.876099,-9.823608,0,0.0,0.0,0.0,0.0
0.220825196,0.005434952,-0.43679014,-0.89954704,0.0060983235,0.89955807,-0.43675864,0.9999666,-0.0031119664,0.0075527425,0.5600507,-0.27861086,-0.7802046,0.16589294,0.9603955,-0.22387484,0.81167895,-0.004049167,0.58408976,9.809036,-0.08857727,0.09336853,9.806198,-0.030517578,0.07406616,-0.018096924,-0.014923096,-0.004272461,-28.54004,19.876099,-9.823608,0,0.0,0.0,0.0,0.0
0.225219727,0.005428102,-0.43679807,-0.8995432,0.0061123683,0.8995542,-0.4367665,0.9999666,-0.0031275263,0.0075527425,0.5498406,-0.28186846,-0.7862732,0.16497348,0.95944464,-0.22858222,0.8188157,-0.0040304232,0.57404244,9.823395,-0.07899475,0.07421875,9.806198,-0.030670166,0.07406616,0.0053253174,-0.01171875,-0.0021362305,-28.54004,19.876099,-9.823608,0,0.0,0.0,0.0,0.0
0.229614258,0.0055566686,-0.42164814,-0.90674245,0.006032924,0.9067541,-0.42161658,0.9999663,-0.0031275253,0.007582304,0.5397662,-0.28505793,-0.79208237,0.16398256,0.95850194,-0.23320343,0.82568896,-0.004012365,0.5641114,9.718063,-0.026321411,0.12689209,9.806198,-0.030670166,0.07435608,-0.004272461,-0.018112183,-0.0010681152,-27.642822,21.131897,-9.996033,0,0.0,0.0,0.0,0.0
0.234008789,0.005550061,-0.42165524,-0.90673923,0.0060470765,0.90675074,-0.4216236,0.99996626,-0.003143085,0.0075823036,0.5298844,-0.2878593,-0.79772145,0.16274692,0.9576644,-0.23747076,0.8323076,-0.003994668,0.55429965,9.866501,-0.05505371,0.10293579,9.806198,-0.030822754,0.07435608,-0.0021362305,-0.007461548,-0.007461548,-27.642822,21.131897,-9.996033,0,0.0,0.0,0.0,0.0
0.238403321,0.0055566686,-0.42164814,-0.90674245,0.006032924,0.9067541,-0.42161658,0.9999663,-0.0031275253,0.007582304,0.5201399,-0.29060242,-0.8031219,0.16145916,0.9568356,-0.24165374,0.83868074,-0.0039776363,0.54460883,9.84256,-0.026321411,0.05984497,9.806198,-0.030670166,0.07435608,-0.011703491,-0.0138549805,0.011703491,-27.642822,21.131897,-9.996033,0,0.0,0.0,0.0,0.0
0.242797852,0.005580855,-0.42096624,-0.90705925,0.0059864046,0.9070711,-0.42093492,0.99996644,-0.0030808463,0.007582305,0.510534,-0.2932882,-0.8082927,0.16012245,0.9560159,-0.24575281,0.844817,-0.0039606346,0.5350406,9.789886,0.09815979,0.06942749,9.806198,-0.030212402,0.07435608,0.0021209717,-0.0063934326,0.0021209717,-28.720093,20.414734,-9.651184,0,0.0,0.0,0.0,0.0
0.247192383,0.005517111,-0.42103994,-0.9070254,0.0059420597,0.90703696,-0.42100915,0.9999671,-0.0030668445,0.007506067,0.5010703,-0.29590362,-0.8132463,0.15873264,0.9552097,-0.24975678,0.8507247,-0.0039430386,0.5255968,9.818619,0.03590393,0.20828247,9.806198,-0.030075073,0.0736084,0.004257202,-0.017044067,-0.0010681152,-28.720093,20.414734,-9.651184,0,0.0,0.0,0.0,0.0
0.251586914,0.0054880576,-0.42107347,-0.90700996,0.0058602635,0.9070215,-0.4210434,0.9999677,-0.0030046068,0.007445388,0.4917454,-0.29846618,-0.817988,0.1573023,0.95441216,-0.2536798,0.8564126,-0.003925515,0.5162772,9.919174,0.05027771,0.08378601,9.806198,-0.029464722,0.073013306,0.0,-0.02557373,0.003189087,-28.720093,20.414734,-9.651184,0,0.0,0.0,0.0,0.0
0.255981446,0.005223834,-0.44669306,-0.8946719,0.005933284,0.8946823,-0.44666362,0.9999688,-0.0029750464,0.007324029,0.48256043,-0.3009761,-0.82252586,0.15583363,0.9536237,-0.2575223,0.86188823,-0.003907097,0.50708324,9.828186,-0.06463623,0.04548645,9.806198,-0.029174805,0.07182312,-0.017028809,-0.015975952,-0.010665894,-27.642822,19.69757,-9.996033,0,0.0,0.0,0.0,0.0
0.260375977,0.005209809,-0.44670883,-0.8946642,0.0059264256,0.8946745,-0.44667944,0.9999689,-0.0029750466,0.0073084696,0.47342676,-0.30397564,-0.82672,0.154599,0.9526719,-0.2617546,0.8671599,-0.003888456,0.4980147,9.789886,-0.06463623,0.01675415,9.806198,-0.029174805,0.07167053,-0.0021362305,-0.0234375,-0.010665894,-27.642822,19.69757,-9.996033,0,0.0,0.0,0.0,0.0
0.264770508,0.005174757,-0.44674823,-0.89464486,0.005926674,0.89465475,-0.44671887,0.99996895,-0.0029906067,0.0072773504,0.46443737,-0.3069126,-0.8307242,0.15331808,0.95172983,-0.26590204,0.8722336,-0.003870188,0.48907414,9.809036,-0.03590393,0.026321411,9.806198,-0.029327393,0.07136536,-0.004272461,-0.020248413,-0.007461548,-27.642822,19.69757,-9.996033,0,0.0,0.0,0.0,0.0
0.269165039,0.00513508,-0.44664317,-0.89469737,0.0059059155,0.8947071,-0.44661415,0.99996936,-0.002990608,0.00723223,0.4555916,-0.30978888,-0.83454615,0.15199488,0.95079756,-0.26996583,0.87711674,-0.0038525963,0.48026165,9.871292,-0.03111267,-0.04069519,9.806198,-0.029327393,0.07092285,-0.008529663,-0.010650635,-0.0032043457,-28.361511,19.69757,-9.996033,0,0.0,0.0,0.0,0.0
0.273559571,0.0050943005,-0.44669017,-0.89467424,0.0058511496,0.8946839,-0.44666168,0.99996996,-0.002959444,0.007171439,0.44688946,-0.31260264,-0.83819413,0.1506311,0.94987625,-0.2739441,0.8818164,-0.0038353566,0.47157738,9.823395,-0.08378601,0.21307373,9.806351,-0.029022217,0.07032776,-0.008529663,-0.0138549805,-0.0021362305,-28.361511,19.69757,-9.996033,0,0.0,0.0,0.0,0.0
0.277954102,0.0050662295,-0.44672248,-0.89465827,0.0058026426,0.8946678,-0.44669437,0.9999703,-0.0029283257,0.007124763,0.43833005,-0.31535846,-0.84167445,0.149231,0.94896495,-0.27784103,0.88633907,-0.0038178382,0.46302113,9.742004,0.05027771,-0.07899475,9.806351,-0.028717041,0.069869995,-0.019165039,-0.02557373,-0.009597778,-28.361511,19.69757,-9.996033,0,0.0,0.0,0.0,0.0
0.282348633,0.0050693876,-0.42814967,-0.90369356,0.005726371,0.9037027,-0.4281219,0.9999707,-0.003004569,0.0070329634,0.4294308,-0.31743166,-0.845474,0.14727253,0.9482737,-0.28122538,0.89101064,-0.0037482402,0.45396695,9.823395,-0.07421875,0.13645935,9.806351,-0.029464722,0.06896973,-0.008529663,-0.010650635,-0.005340576,-26.567078,20.056152,-9.651184,0,0.0,0.0,0.0,0.0
0.286743164,0.00496641,-0.428261,-0.90364146,0.005695749,0.90365005,-0.4282338,0.99997145,-0.003020131,0.006927163,0.4212209,-0.3196957,-0.84874463,0.14564928,0.94751287,-0.28461477,0.89518666,-0.003733367,0.4456757,9.756363,-0.04069519,0.07421875,9.806351,-0.02961731,0.06793213,0.012771606,-0.0234375,0.011703491,-26.567078,20.056152,-9.651184,0,0.0,0.0,0.0,0.0
0.291137696,0.0048828893,-0.42835128,-0.90359914,0.005656927,0.9036073,-0.42832458,0.9999721,-0.003020133,0.006835365,0.41314772,-0.32191503,-0.85186833,0.14400959,0.94676125,-0.28793117,0.8992053,-0.0037191021,0.4375111,9.823395,-0.05027771,-0.04548645,9.806351,-0.02961731,0.06703186,0.007446289,-0.0234375,0.0010528564,-26.567078,20.056152,-9.651184,0,0.0,0.0,0.0,0.0
0.295532227,0.005094877,-0.38310277,-0.92369163,0.0053994455,0.9237007,-0.38307676,0.99997246,-0.0030356937,0.006774685,0.4052107,-0.32409012,-0.85485077,0.14235526,0.94601893,-0.2911754,0.9030721,-0.003705123,0.42947295,9.866501,-0.05505371,-0.08857727,9.806351,-0.029769897,0.06643677,-0.034072876,-0.010650635,-0.0010681152,-26.567078,20.414734,-8.613586,0,0.0,0.0,0.0,0.0
0.299926758,0.00504548,-0.3831576,-0.9236692,0.0053962367,0.923678,-0.38313174,0.9999727,-0.003051254,0.0067280075,0.3975488,-0.32528383,-0.85798913,0.14029457,0.9456092,-0.29349723,0.9067924,-0.0036917343,0.4215614,9.775513,-0.07899475,-0.04548645,9.806351,-0.029922485,0.065979004,-0.015975952,-0.004272461,0.0021209717,-26.567078,20.414734,-8.613586,0,0.0,0.0,0.0,0.0
0.304321289,0.005029998,-0.38317478,-0.9236622,0.0053562606,0.9236709,-0.3831492,0.99997294,-0.0030201357,0.006698446,0.39001524,-0.32645425,-0.86099696,0.13824642,0.9452058,-0.29575977,0.91037136,-0.0036789246,0.4137758,9.866501,0.04548645,-0.02154541,9.806351,-0.02961731,0.06568909,-0.0032043457,-0.009597778,-0.0021362305,-26.567078,20.414734,-8.613586,0,0.0,0.0,0.0,0.0
0.308715821,0.005064135,-0.3772624,-0.92609257,0.005323997,0.92610145,-0.3772369,0.99997294,-0.0030201357,0.006698446,0.38260978,-0.32760116,-0.86387914,0.13621084,0.94480896,-0.29796404,0.9138142,-0.003665749,0.40611598,9.718063,-0.026321411,0.08378601,9.806351,-0.02961731,0.06568909,-0.0053253174,-0.0053253174,-0.0010681152,-27.642822,20.773315,-8.613586,0,0.0,0.0,0.0,0.0
0.313110352,0.0050608567,-0.37726617,-0.9260911,0.00529077,0.9261,-0.3772409,0.9999732,-0.002990573,0.0066828877,0.3753488,-0.32860392,-0.86667913,0.1341413,0.94446075,-0.29999998,0.9171256,-0.0036528367,0.39858156,9.799454,0.026321411,0.002380371,9.806351,-0.029327393,0.0655365,0.003189087,0.01914978,-0.012786865,-27.642822,20.773315,-8.613586,0,0.0,0.0,0.0,0.0
0.317504883,0.0049785604,-0.37735996,-0.92605317,0.0052898927,0.92606163,-0.37733495,0.9999736,-0.0030201375,0.006606648,0.3682131,-0.32958633,-0.86936307,0.13208887,0.94411844,-0.30198166,0.9203107,-0.0036395912,0.39117143,9.789886,-0.09815979,-0.09815979,9.806351,-0.02961731,0.06478882,0.0053253174,0.008514404,-0.0063934326,-27.642822,20.773315,-8.613586,0,0.0,0.0,0.0,0.0
0.321899414,0.0045783445,-0.44409734,-0.8959668,0.005674729,0.8959734,-0.4440716,0.9999735,-0.0030512565,0.006622207,0.3611996,-0.33055064,-0.8719353,0.13005558,0.9437813,-0.30391186,0.9233745,-0.0036272022,0.3838834,9.847351,-0.09336853,0.08857727,9.806351,-0.029922485,0.064941406,0.003189087,0.004257202,0.0021209717,-29.257202,19.517517,-9.823608,0,0.0,0.0,0.0,0.0
0.326293946,0.004611998,-0.44405693,-0.8959867,0.0056737075,0.8959934,-0.44403103,0.99997324,-0.0030356962,0.006651769,0.354121,-0.33287662,-0.8739516,0.12856051,0.9429634,-0.3070702,0.9263209,-0.0036156832,0.37671793,9.933533,-0.01675415,0.16040039,9.806351,-0.029769897,0.06523132,-0.0032043457,0.01171875,-0.01171875,-29.257202,19.517517,-9.823608,0,0.0,0.0,0.0,0.0
0.330688477,0.0045851846,-0.44408914,-0.8959708,0.005625955,0.89597744,-0.44406366,0.9999736,-0.003004578,0.006606648,0.34717342,-0.33515328,-0.8758669,0.1270543,0.9421567,-0.3101579,0.92915434,-0.0036040833,0.36967444,9.856918,0.06942749,-0.05505371,9.806351,-0.029464722,0.06478882,-0.009597778,0.0053253174,-0.0138549805,-29.257202,19.517517,-9.823608,0,0.0,0.0,0.0,0.0
0.335083008,0.0046118745,-0.44405708,-0.8959866,0.005638918,0.8959934,-0.44403145,0.9999735,-0.0030045775,0.0066362107,0.340354,-0.33738318,-0.8776855,0.12553862,0.94136053,-0.31317785,0.9318794,-0.0035920932,0.36275044,9.737213,-0.05027771,0.15083313,9.806351,-0.029464722,0.065078735,0.008514404,0.0063934326,0.003189087,-29.257202,19.517517,-9.823608,0,0.0,0.0,0.0,0.0
0.339477539,0.0046540177,-0.4440064,-0.8960115,0.00565938,0.89601856,-0.44398052,0.9999732,-0.0030045765,0.0066828877,0.3336621,-0.339566,-0.87941146,0.12401571,0.94057536,-0.3161297,0.9344997,-0.0035803427,0.3559459,9.785095,-0.026321411,0.15560913,9.806351,-0.029464722,0.0655365,-0.004272461,0.02128601,0.0021209717,-29.257202,19.517517,-9.823608,0,0.0,0.0,0.0,0.0
0.343872071,0.004654144,-0.44400626,-0.89601165,0.0056941705,0.89601856,-0.44398013,0.99997294,-0.0030356953,0.006698446,0.32709664,-0.3417023,-0.88104904,0.122487284,0.93980145,-0.31901422,0.93701905,-0.0035688274,0.34926006,9.880859,-0.11251831,0.10293579,9.806351,-0.029769897,0.06568909,0.0021209717,0.01171875,-0.005340576,-29.257202,19.517517,-9.823608,0,0.0,0.0,0.0,0.0
0.348266602,0.0044753635,-0.46641088,-0.88455695,0.00577394,0.88456315,-0.46638492,0.99997336,-0.0030201366,0.0066517694,0.32071364,-0.34268433,-0.883012,0.1209864,0.9394421,-0.32064128,0.9394174,-0.003998419,0.34275204,9.780304,0.002380371,-0.04548645,9.806351,-0.02961731,0.06523132,-0.019165039,0.0010681152,0.0,-28.720093,19.33899,-10.342407,0,0.0,0.0,0.0,0.0
0.352661133,0.004489232,-0.46639478,-0.8845653,0.005781115,0.88457155,-0.46636873,0.99997324,-0.0030201364,0.0066673285,0.31432858,-0.34522817,-0.88431615,0.119617395,0.93851036,-0.32386726,0.94174796,-0.003978853,0.33629593,9.976624,-0.01675415,0.10293579,9.806351,-0.02961731,0.06538391,-0.0021362305,0.0021209717,0.0010528564,-28.720093,19.33899,-10.342407,0,0.0,0.0,0.0,0.0
0.357055664,0.00451697,-0.4663626,-0.88458216,0.005795463,0.8845885,-0.46633634,0.99997294,-0.0030201357,0.006698446,0.30806684,-0.3477183,-0.8855432,0.1182375,0.93759066,-0.3270223,0.9439887,-0.003959679,0.32995394,9.847351,-0.05984497,0.16998291,9.806351,-0.02961731,0.06568909,0.0010528564,0.0021209717,0.008514404,-28.720093,19.33899,-10.342407,0,0.0,0.0,0.0,0.0
0.361450196,0.0045089317,-0.47154865,-0.8818285,0.0058358237,0.8818348,-0.47152218,0.99997276,-0.003020135,0.006728008,0.30192667,-0.3501556,-0.8866969,0.11684843,0.93668324,-0.33010742,0.9461431,-0.003940888,0.32372484,9.909592,-0.026321411,0.12210083,9.806351,-0.02961731,0.065979004,-0.011703491,-0.0053253174,-0.007461548,-30.154419,19.69757,-10.687256,0,0.0,0.0,0.0,0.0
0.365844727,0.004482656,-0.47157985,-0.8818119,0.005822044,0.8818181,-0.47155356,0.99997294,-0.0030201357,0.006698446,0.29589275,-0.35265172,-0.88774115,0.115486875,0.93574643,-0.33322877,0.9482143,-0.003922473,0.31760722,9.789886,-0.01675415,0.002380371,9.806351,-0.02961731,0.06568909,-0.013839722,-0.010650635,-0.007461548,-30.154419,19.69757,-10.687256,0,0.0,0.0,0.0,0.0
0.370239258,0.0044951024,-0.4715651,-0.8818198,0.005828572,0.88182604,-0.47153872,0.9999729,-0.0030201355,0.0067124492,0.289976,-0.3550962,-0.88871855,0.11411738,0.9348216,-0.33628228,0.9502058,-0.0039044267,0.31159848,9.8138275,-0.04548645,0.09336853,9.806351,-0.02961731,0.065826416,0.0021209717,-0.0032043457,-0.007461548,-30.154419,19.69757,-10.687256,0,0.0,0.0,0.0,0.0
0.374633789,0.0042851293,-0.5000258,-0.8659999,0.0059435796,0.86600524,-0.49999952,0.9999732,-0.0030045765,0.0066828877,0.2841757,-0.35748905,-0.88963234,0.11274153,0.9339092,-0.33926818,0.95212054,-0.0038867411,0.30569816,9.799454,0.01675415,0.01675415,9.806351,-0.029464722,0.0655365,-0.015975952,-0.0138549805,-0.0032043457,-28.720093,18.263245,-10.687256,0,0.0,0.0,0.0,0.0
0.379028321,0.004331584,-0.49997106,-0.8660312,0.0059537385,0.8660369,-0.49994454,0.9999729,-0.002990572,0.006728009,0.27841648,-0.3604394,-0.89026266,0.11154169,0.93277454,-0.34276813,0.95396155,-0.003869098,0.29990384,9.866501,0.026321411,0.16998291,9.806351,-0.029327393,0.065979004,0.0095825195,0.0,-0.0021362305,-28.720093,18.263245,-10.687256,0,0.0,0.0,0.0,0.0
0.383422852,0.004355111,-0.49994338,-0.86604714,0.0059131747,0.86605316,-0.4999171,0.99997306,-0.0029438934,0.00672801,0.2727737,-0.36332607,-0.890836,0.11032724,0.9316541,-0.3461915,0.95573133,-0.0038515273,0.2942155,9.732422,0.05984497,0.06942749,9.806351,-0.028869629,0.065979004,0.004257202,-0.009597778,-0.010665894,-28.720093,18.263245,-10.687256,0,0.0,0.0,0.0,0.0
0.387817383,0.0044652647,-0.47463477,-0.88017154,0.005701194,0.8801781,-0.47460938,0.9999738,-0.0028987722,0.0066362126,0.2672448,-0.36615103,-0.891355,0.10909938,0.9305476,-0.34954053,0.9574328,-0.003833375,0.28863084,9.756363,0.002380371,0.12689209,9.806351,-0.028427124,0.065078735,-0.012771606,-0.0021362305,-0.0138549805,-28.181458,19.876099,-10.861206,0,0.0,0.0,0.0,0.0
0.392211914,0.0044390582,-0.47466353,-0.88015616,0.0056873094,0.88016266,-0.47463834,0.9999741,-0.0028987732,0.006606651,0.2618885,-0.36837733,-0.8920272,0.10770756,0.92966855,-0.3523003,0.9590691,-0.0038146828,0.28314653,9.718063,-0.026321411,-0.007171631,9.806351,-0.028427124,0.06478882,0.027694702,-0.026641846,-0.007461548,-28.181458,19.876099,-10.861206,0,0.0,0.0,0.0,0.0
0.396606446,0.00440512,-0.47470072,-0.8801362,0.0056516454,0.88014257,-0.47467586,0.99997437,-0.0028832143,0.006559974,0.25663844,-0.37055764,-0.8926498,0.106315784,0.9288017,-0.35499907,0.96064234,-0.0037963649,0.27776235,9.732422,0.03590393,-0.04069519,9.806351,-0.028274536,0.064331055,0.0095825195,-0.014923096,0.006378174,-28.181458,19.876099,-10.861206,0,0.0,0.0,0.0,0.0
0.401000977,0.0044125086,-0.4694646,-0.88294035,0.0056115035,0.8829466,-0.4694399,0.9999745,-0.0028832147,0.0065304115,0.25149253,-0.3726932,-0.8932252,0.104924835,0.9279469,-0.35763848,0.96215504,-0.0037781016,0.27247652,9.74678,-0.05984497,-0.01675415,9.806351,-0.028274536,0.06404114,-0.0010681152,0.004257202,-0.012786865,-27.464294,19.517517,-10.514832,0,0.0,0.0,0.0,0.0
0.405395508,0.0044125086,-0.4694646,-0.88294035,0.0056115035,0.8829466,-0.4694399,0.9999745,-0.0028832147,0.0065304115,0.24646153,-0.374674,-0.8937987,0.10350666,0.927149,-0.36011264,0.96360934,-0.003760204,0.2672878,9.8138275,-0.03111267,0.08378601,9.806351,-0.028274536,0.06404114,-0.0010681152,-0.0138549805,-0.004272461,-27.464294,19.517517,-10.514832,0,0.0,0.0,0.0,0.0
0.409790039,0.004438795,-0.46943575,-0.88295555,0.0056252363,0.88296205,-0.46941093,0.99997437,-0.0028832143,0.006559974,0.24153121,-0.3766135,-0.89432937,0.10209347,0.92636293,-0.36253092,0.96500754,-0.003742664,0.26219532,9.761154,-0.02154541,0.11251831,9.806351,-0.028274536,0.064331055,-0.010650635,-0.019180298,-0.0032043457,-27.464294,19.517517,-10.514832,0,0.0,0.0,0.0,0.0
0.414184571,0.004587046,-0.43464437,-0.9005905,0.0053806035,0.9005977,-0.43462044,0.999975,-0.0028520967,0.0064697317,0.23670037,-0.37851202,-0.89481926,0.10068623,0.9255889,-0.36489385,0.9663515,-0.003725475,0.25719818,9.775513,0.05505371,-0.15083313,9.806351,-0.02796936,0.063446045,-0.004272461,-0.008529663,-0.0063934326,-28.361511,18.980408,-9.30481,0,0.0,0.0,0.0,0.0
0.418579102,0.004531564,-0.4347115,-0.90055835,0.005423468,0.9005651,-0.43468744,0.999975,-0.0029143356,0.0064386125,0.23195226,-0.37910113,-0.89581275,0.09914476,0.9253469,-0.36592823,0.9676613,-0.0039372453,0.25222218,9.871292,-0.18913269,-0.02154541,9.806351,-0.028579712,0.06314087,-0.009597778,-0.0010681152,0.0010528564,-28.361511,18.980408,-9.30481,0,0.0,0.0,0.0,0.0
0.422973633,0.004552493,-0.43468618,-0.9005705,0.0054160915,0.9005774,-0.43466213,0.999975,-0.002898776,0.006454172,0.22738536,-0.3802278,-0.89650583,0.09758323,0.92488456,-0.36751333,0.9689032,-0.003916787,0.24740906,9.885651,0.002380371,0.11251831,9.806351,-0.028427124,0.06329346,-0.007461548,-0.017044067,-0.005340576,-28.361511,18.980408,-9.30481,0,0.0,0.0,0.0,0.0
0.427368164,0.004038692,-0.518283,-0.8551997,0.0058188774,0.8552044,-0.5182584,0.99997497,-0.0028832161,0.006469731,0.22290878,-0.38133088,-0.8971613,0.09603958,0.92443043,-0.36905935,0.97009695,-0.003896427,0.24268652,9.794678,0.03111267,0.09336853,9.806351,-0.028274536,0.063446045,0.0063934326,-0.015975952,0.0053253174,-28.001404,19.69757,-12.069702,0,0.0,0.0,0.0,0.0
0.431762696,0.004046813,-0.51827455,-0.8552047,0.00580553,0.85520947,-0.5182499,0.99997497,-0.0028676563,0.006469731,0.21834077,-0.38416904,-0.8970738,0.0949299,0.92325467,-0.3722757,0.9712444,-0.0038761627,0.23805326,9.789886,-0.01675415,0.08857727,9.806351,-0.028121948,0.063446045,-0.0053253174,0.013824463,-0.0010681152,-28.001404,19.69757,-12.069702,0,0.0,0.0,0.0,0.0
0.436157227,0.00397981,-0.51834416,-0.85516286,0.0057655377,0.8551674,-0.5183201,0.9999755,-0.002867658,0.0063919364,0.21386807,-0.38694674,-0.89695746,0.09381355,0.922094,-0.375422,0.9723474,-0.0038559928,0.2335073,9.74678,0.002380371,-0.15560913,9.806351,-0.028121948,0.062683105,0.0021209717,0.003189087,0.0010528564,-28.001404,19.69757,-12.069702,0,0.0,0.0,0.0,0.0
0.440551758,0.0047543934,-0.39994162,-0.9165282,0.005203358,0.91653603,-0.39991805,0.9999751,-0.0028676568,0.006438613,0.20948724,-0.38966703,-0.89681363,0.092691995,0.92094785,-0.3785014,0.9734081,-0.0038362262,0.22904584,9.799454,-0.05505371,0.18434143,9.806351,-0.028121948,0.06314087,0.007446289,-0.008529663,0.0053253174,-28.181458,20.593262,-9.132385,0,0.0,0.0,0.0,0.0
0.444946289,0.004719421,-0.39998183,-0.9165109,0.005205381,0.9165185,-0.39995834,0.9999753,-0.002883217,0.0064074947,0.20544267,-0.38987303,-0.89765936,0.091018975,0.92086077,-0.37911883,0.97442746,-0.0038168547,0.22466992,9.775513,-0.04548645,-0.01675415,9.806351,-0.028274536,0.06283569,-0.0010681152,-0.0063934326,-0.010665894,-28.181458,20.593262,-9.132385,0,0.0,0.0,0.0,0.0
0.449340821,0.004719421,-0.39998183,-0.9165109,0.005205381,0.9165185,-0.39995834,0.9999753,-0.002883217,0.0064074947,0.20147489,-0.39007565,-0.8984703,0.08937604,0.920775,-0.37971747,0.9754075,-0.0037981821,0.22037645,9.804245,-0.06463623,0.08378601,9.806351,-0.028274536,0.06283569,0.02130127,0.0021209717,-0.007461548,-28.181458,20.593262,-9.132385,0,0.0,0.0,0.0,0.0
0.453735352,0.0045931684,-0.41944423,-0.9077695,0.0052983575,0.90777653,-0.4194207,0.9999754,-0.0028832173,0.0063919355,0.1975833,-0.39027423,-0.8992479,0.08776252,0.9206909,-0.38029724,0.9763496,-0.0037798828,0.21616459,9.856918,-0.02154541,0.19871521,9.806351,-0.028274536,0.062683105,0.010650635,0.0,-0.0138549805,-28.181458,20.951843,-9.823608,0,0.0,0.0,0.0,0.0
0.458129883,0.004635819,-0.419397,-0.90779114,0.005317693,0.9077984,-0.41937318,0.9999751,-0.0028832164,0.006438613,0.1975833,-0.39027423,-0.8992479,0.08776252,0.9206909,-0.38029724,0.9763496,-0.0037798828,0.21616459,9.856918,-0.02154541,0.19871521,9.806351,-0.028274536,0.06314087,0.010650635,0.0,-0.0138549805,-28.181458,20.951843,-9.823608,0,0.0,0.0,0.0,0.0
0.462524414,0.0044757165,-0.41957426,-0.9077099,0.005262222,0.90771633,-0.41955128,0.99997616,-0.0028987792,0.006270575,0.18995358,-0.3914352,-0.90038663,0.08478282,0.920198,-0.3821615,0.9781255,-0.003744375,0.2079819,9.737213,0.01675415,-0.10772705,9.806351,-0.028427124,0.06149292,0.0010528564,-0.018112183,-0.0063934326,-28.181458,20.951843,-9.823608,0,0.0,0.0,0.0,0.0
0.466918946,0.004404118,-0.43181574,-0.9019511,0.0053222897,0.90195715,-0.4317927,0.99997616,-0.0028987792,0.006270575,0.18624724,-0.3920017,-0.90091425,0.08332813,0.91995686,-0.3830609,0.97896284,-0.003727463,0.20400421,9.832977,-0.007171631,0.05505371,9.806351,-0.028427124,0.06149292,-0.0063934326,-0.021316528,0.0095825195,-28.181458,20.951843,-10.168457,0,0.0,0.0,0.0,0.0
0.471313477,0.0044108806,-0.43180835,-0.9019546,0.0053082197,0.90196073,-0.43178535,0.99997616,-0.0028832196,0.006270575,0.18259169,-0.39280555,-0.9013125,0.081946164,0.919614,-0.3841807,0.97976786,-0.0037108893,0.20010279,9.794678,-0.011962891,0.04069519,9.806351,-0.028274536,0.06149292,0.007446289,-0.0138549805,-0.009597778,-28.181458,20.951843,-10.168457,0,0.0,0.0,0.0,0.0
0.475708008,0.00433431,-0.43189207,-0.90191483,0.005254951,0.9019206,-0.4318696,0.99997675,-0.0028676616,0.006178776,0.17900915,-0.39359292,-0.90168744,0.080584146,0.9192774,-0.38527292,0.98054165,-0.0036943362,0.19627641,9.828186,-0.04069519,0.11251831,9.806351,-0.028121948,0.06059265,0.003189087,-0.01171875,-0.008529663,-28.181458,20.951843,-10.168457,0,0.0,0.0,0.0,0.0
0.480102539,0.0040156767,-0.4749601,-0.8799981,0.005408307,0.8800027,-0.4749379,0.99997735,-0.0028521034,0.006102537,0.17549638,-0.39436594,-0.90204024,0.0792416,0.91894615,-0.38634023,0.9812858,-0.0036778026,0.19252191,9.765945,0.03590393,0.03590393,9.806351,-0.02796936,0.05984497,-0.010650635,-0.021316528,-0.007461548,-29.257202,19.876099,-10.861206,0,0.0,0.0,0.0,0.0
0.484497071,0.0040436056,-0.47492832,-0.8800152,0.0053895353,0.88002,-0.47490615,0.99997735,-0.00282254,0.0061180964,0.1709363,-0.39494994,-0.9026601,0.077717476,0.91869414,-0.3872481,0.9822122,-0.003957708,0.1877327,9.84256,0.01675415,0.11251831,9.806351,-0.027679443,0.05999756,-0.018096924,-0.017044067,0.0010528564,-29.257202,19.876099,-10.861206,0,0.0,0.0,0.0,0.0
0.488891602,0.0039823884,-0.47499803,-0.8799779,0.005374726,0.87998235,-0.47497612,0.99997765,-0.0028381005,0.006057415,0.16750917,-0.3965822,-0.90258694,0.07657902,0.9179908,-0.38913822,0.9828918,-0.0039350046,0.18414174,9.871292,-0.05505371,-0.08378601,9.806351,-0.027832031,0.059402466,0.007446289,-0.0010681152,-0.0138549805,-29.257202,19.876099,-10.861206,0,0.0,0.0,0.0,0.0
0.493286133,0.0038838286,-0.4843842,-0.8748468,0.0053944103,0.87485087,-0.4843625,0.99997795,-0.0028381012,0.0060107377,0.16415155,-0.398182,-0.90249956,0.0754508,0.91729814,-0.39098772,0.98354536,-0.003913067,0.18061906,9.837769,-0.01675415,-0.05027771,9.806351,-0.027832031,0.058944702,-0.009597778,-0.0032043457,-0.0010681152,-28.720093,19.69757,-11.03363,0,0.0,0.0,0.0,0.0
0.497680664,0.0038907058,-0.48437655,-0.87485105,0.0054141628,0.874855,-0.48435467,0.9999777,-0.0028521046,0.006026296,0.16084658,-0.39994472,-0.9023151,0.07436707,0.916531,-0.39298916,0.9841737,-0.0038915675,0.1771636,9.799454,-0.07899475,0.10293579,9.806351,-0.02796936,0.05909729,0.014907837,-0.0063934326,0.010650635,-28.720093,19.69757,-11.03363,0,0.0,0.0,0.0,0.0
0.502075196,0.0038892338,-0.48437816,-0.8748501,0.005448932,0.874854,-0.48435614,0.99997765,-0.0028832238,0.0060418556,0.15761064,-0.40167063,-0.9021195,0.073292404,0.915776,-0.3949462,0.9847777,-0.003870778,0.17377545,9.818619,-0.09815979,0.06942749,9.806351,-0.028274536,0.059249878,-0.011703491,0.0021209717,0.004257202,-28.720093,19.69757,-11.03363,0,0.0,0.0,0.0,0.0
0.506469727,0.00394011,-0.46725994,-0.8841112,0.0053786375,0.8841153,-0.46723813,0.9999779,-0.002914344,0.0059967334,0.15444216,-0.40336072,-0.90191334,0.0722275,0.915033,-0.39686,0.98535824,-0.003851027,0.1704534,9.847351,-0.11730957,-0.04069519,9.806351,-0.028579712,0.058807373,0.007446289,-0.018112183,-0.009597778,-27.28424,19.33899,-10.342407,0,0.0,0.0,0.0,0.0
0.510864258,0.0038781264,-0.4673282,-0.8840753,0.005362238,0.884079,-0.4673066,0.9999781,-0.0029283487,0.005934496,0.1513663,-0.4046597,-0.90185297,0.071113236,0.91445935,-0.39838055,0.98591644,-0.0038322934,0.16719499,9.832977,0.07421875,0.10293579,9.806351,-0.028717041,0.05819702,-0.007461548,-0.014923096,0.0053253174,-27.28424,19.33899,-10.342407,0,0.0,0.0,0.0,0.0
0.515258789,0.0038634855,-0.46734437,-0.8840669,0.00538982,0.8840704,-0.46732265,0.999978,-0.0029594677,0.005934495,0.14835237,-0.4059333,-0.9017814,0.07001212,0.9138948,-0.39986834,0.9864532,-0.0038142144,0.16399871,9.789886,-0.13166809,0.03111267,9.806351,-0.029022217,0.05819702,-0.011703491,-0.015975952,0.011703491,-27.28424,19.33899,-10.342407,0,0.0,0.0,0.0,0.0
0.519653321,0.004190046,-0.41089144,-0.9116747,0.0051840353,0.91167945,-0.41086978,0.9999779,-0.0030045905,0.005950054,0.14540024,-0.40718096,-0.9016997,0.06892491,0.91333956,-0.40132296,0.9869692,-0.0037971195,0.16086471,9.928741,-0.13645935,0.10772705,9.806351,-0.029464722,0.05834961,-0.0053253174,-0.01171875,0.0021209717,-27.642822,21.131897,-9.651184,0,0.0,0.0,0.0,0.0
0.524047852,0.004127946,-0.41095892,-0.9116445,0.0051735947,0.91164887,-0.41093746,0.9999781,-0.0030201513,0.005889373,0.14259404,-0.40725526,-0.9021143,0.06767284,0.91330653,-0.40161118,0.98746514,-0.0037812686,0.15779218,9.900009,-0.05984497,-0.08857727,9.806351,-0.02961731,0.057754517,0.010650635,0.0063934326,-0.0021362305,-27.642822,21.131897,-9.651184,0,0.0,0.0,0.0,0.0
0.528442383,0.0041401708,-0.41094565,-0.9116505,0.0051465835,0.911655,-0.41092435,0.99997824,-0.0029905878,0.0058893734,0.13984138,-0.4073294,-0.9025116,0.06644466,0.9132735,-0.4018912,0.98794204,-0.0037660464,0.1547783,9.765945,0.04069519,0.06463623,9.806351,-0.029327393,0.057754517,-0.009597778,0.0063934326,-0.0010681152,-27.642822,21.131897,-9.651184,0,0.0,0.0,0.0,0.0
0.532836914,0.0038294315,-0.45398194,-0.89100266,0.005323221,0.8910058,-0.4539607,0.99997854,-0.0030045926,0.0058286916,0.137143,-0.40740183,-0.9028928,0.06523943,0.91324127,-0.40216184,0.9884005,-0.0037505373,0.15182331,9.789886,-0.08378601,-0.10293579,9.806351,-0.029464722,0.057159424,-0.010650635,0.0021209717,-0.0032043457,-28.720093,20.056152,-10.342407,0,0.0,0.0,0.0,0.0
0.537231446,0.003780001,-0.4540381,-0.8909743,0.005282729,0.8909773,-0.45401725,0.9999789,-0.00299059,0.0057664546,0.13443522,-0.40834448,-0.90287423,0.064185485,0.9128202,-0.40328574,0.9888414,-0.0037356187,0.14892498,9.742004,0.011962891,-0.09815979,9.806351,-0.029327393,0.056549072,0.0,0.0,0.004257202,-28.720093,20.056152,-10.342407,0,0.0,0.0,0.0,0.0
0.541625977,0.0037674392,-0.45405233,-0.890967,0.0052764313,0.89097,-0.45403153,0.999979,-0.0029905904,0.0057524517,0.1317817,-0.40926903,-0.9028468,0.06314616,0.91240615,-0.4043854,0.98926544,-0.003720718,0.1460822,9.727631,-0.03111267,0.03590393,9.806351,-0.029327393,0.056411743,0.0095825195,0.0021209717,-0.0063934326,-28.720093,20.056152,-10.342407,0,0.0,0.0,0.0,0.0
0.546020508,0.0037816647,-0.4540362,-0.8909752,0.005248637,0.8909783,-0.4540155,0.9999791,-0.002959471,0.005752452,0.129182,-0.410175,-0.9028115,0.062121827,0.91199934,-0.4054604,0.98967314,-0.0037061155,0.1432947,9.837769,0.04069519,0.04548645,9.806351,-0.029022217,0.056411743,-0.013839722,0.0021209717,-0.0010681152,-28.720093,20.056152,-10.342407,0,0.0,0.0,0.0,0.0
0.550415039,0.0037871136,-0.45403,-0.89097834,0.005268831,0.8909814,-0.45400918,0.9999789,-0.00297503,0.0057664546,0.12692875,-0.41041988,-0.90301967,0.060630586,0.911891,-0.40592954,0.9900571,-0.0032264816,0.14062919,9.775513,-0.07421875,0.07899475,9.806351,-0.029174805,0.056549072,-0.009597778,0.0010681152,-0.008529663,-28.720093,20.056152,-10.342407,0,0.0,0.0,0.0,0.0
0.554809571,0.003780001,-0.4540381,-0.8909743,0.005282729,0.8909773,-0.45401725,0.9999789,-0.00299059,0.0057664546,0.124428526,-0.41130182,-0.90296644,0.05964751,0.91149354,-0.4069665,0.9904341,-0.0032214525,0.13794893,9.852127,-0.06942749,0.08857727,9.806351,-0.029327393,0.056549072,-0.0063934326,-0.004272461,0.0021209717,-28.720093,20.056152,-10.342407,0,0.0,0.0,0.0,0.0
0.559204102,0.003926742,-0.42909813,-0.9032493,0.0052090026,0.90325284,-0.42907715,0.9999787,-0.003020153,0.0057820138,0.12197937,-0.41216588,-0.90290654,0.058679376,0.9111031,-0.40798014,0.9907965,-0.0032168352,0.13532142,9.818619,-0.09336853,0.08857727,9.806351,-0.02961731,0.05670166,-0.007461548,0.0010681152,-0.0010681152,-28.361511,20.056152,-9.651184,0,0.0,0.0,0.0,0.0
0.563598633,0.0038782868,-0.429154,-0.90322304,0.0051691514,0.9032263,-0.4291334,0.9999791,-0.0030045942,0.0057213325,0.11961229,-0.41250592,-0.90306795,0.057659887,0.91094923,-0.40846884,0.9911449,-0.0032129015,0.13274577,9.866501,-0.011962891,-0.10293579,9.806351,-0.029464722,0.056106567,-0.008529663,0.015960693,-0.007461548,-28.361511,20.056152,-9.651184,0,0.0,0.0,0.0,0.0
0.567993164,0.003802245,-0.42924163,-0.9031816,0.005150857,0.9031845,-0.42922133,0.99997944,-0.0030201552,0.0056450916,0.1172915,-0.4128403,-0.9032196,0.05665808,0.91079783,-0.40894654,0.99148005,-0.0032087355,0.13021958,9.799454,-0.04548645,-0.15560913,9.806351,-0.02961731,0.055358887,0.0063934326,-0.004272461,-0.005340576,-28.361511,20.056152,-9.651184,0,0.0,0.0,0.0,0.0
0.572387696,0.0034405175,-0.4824628,-0.87590957,0.00536079,0.87591106,-0.4824426,0.99997973,-0.003035716,0.00559997,0.11501542,-0.41316965,-0.9033617,0.05567414,0.91064847,-0.409414,0.99180233,-0.003204964,0.12774147,9.885651,-0.09336853,-0.05984497,9.806351,-0.029769897,0.05491638,-0.0010681152,-0.0032043457,-0.004272461,-28.181458,19.517517,-10.861206,0,0.0,0.0,0.0,0.0
0.576782227,0.0034528675,-0.48244917,-0.87591714,0.0053674923,0.8759187,-0.48242888,0.9999797,-0.0030357158,0.0056139734,0.11271843,-0.4145813,-0.9030044,0.054842766,0.91000664,-0.41095033,0.99211234,-0.0032015792,0.12531132,9.823395,-0.026321411,0.10772705,9.806351,-0.029769897,0.05505371,0.0063934326,-0.0021362305,0.003189087,-28.181458,19.517517,-10.861206,0,0.0,0.0,0.0,0.0
0.581176758,0.0033581648,-0.482554,-0.87585974,0.005351616,0.8758608,-0.48253405,0.99998003,-0.0030668364,0.0055237287,0.11046974,-0.4159634,-0.9026466,0.05402097,0.9093757,-0.4124531,0.9924103,-0.0031982618,0.122929245,9.74678,-0.03111267,0.06942749,9.806351,-0.030075073,0.0541687,-0.004272461,-0.0032043457,-0.009597778,-28.181458,19.517517,-10.861206,0,0.0,0.0,0.0,0.0
0.585571289,0.0036342805,-0.4417363,-0.8971376,0.0051905056,0.89713985,-0.44171637,0.99998,-0.0030512763,0.005553292,0.10826613,-0.41731912,-0.9022878,0.0532089,0.9087544,-0.41392544,0.99269694,-0.0031956332,0.1205924,9.837769,-0.007171631,0.14604187,9.806351,-0.029922485,0.05445862,0.0021209717,-0.022369385,0.0053253174,-29.795837,20.056152,-9.996033,0,0.0,0.0,0.0,0.0
0.589965821,0.0035944222,-0.44178393,-0.8971143,0.0052041598,0.8971162,-0.441764,0.99998,-0.00308084,0.005523728,0.10615745,-0.4178105,-0.9023109,0.052308764,0.90852857,-0.4145354,0.9929725,-0.003192746,0.118302226,9.832977,-0.10772705,-0.03111267,9.806351,-0.030212402,0.0541687,-0.008529663,-0.009597778,-0.004272461,-29.795837,20.056152,-9.996033,0,0.0,0.0,0.0,0.0
0.594360352,0.0035522545,-0.44183427,-0.89708966,0.005183739,0.8970914,-0.44181463,0.9999803,-0.003080841,0.0054770503,0.10409054,-0.41829294,-0.9023282,0.051424563,0.9083066,-0.4151321,0.9932375,-0.0031905079,0.11605666,9.823395,-0.04069519,-0.05027771,9.806351,-0.030212402,0.053710938,-0.0053253174,-0.01171875,-0.010665894,-29.795837,20.056152,-9.996033,0,0.0,0.0,0.0,0.0
0.598754883,0.003348353,-0.47742948,-0.8786637,0.0053096237,0.87866473,-0.47740978,0.9999803,-0.003066837,0.0054770503,0.10206455,-0.41876662,-0.90233994,0.05055543,0.9080883,-0.415716,0.99349236,-0.0031883144,0.11385456,9.9479065,0.011962891,0.06942749,9.806351,-0.030075073,0.053710938,0.0021209717,-0.014923096,0.0010528564,-27.464294,19.158936,-10.514832,0,0.0,0.0,0.0,0.0
0.603149414,0.003347907,-0.47743,-0.8786634,0.00534303,0.87866443,-0.47741017,0.9999802,-0.0030964005,0.00549261,0.100039646,-0.41995838,-0.9020128,0.04978131,0.9075378,-0.41700962,0.9937374,-0.0031858848,0.11169583,9.823395,-0.09815979,0.06942749,9.806351,-0.03036499,0.053863525,0.004257202,-0.01171875,0.0,-27.464294,19.158936,-10.514832,0,0.0,0.0,0.0,0.0
0.607543946,0.0033140944,-0.47746736,-0.8786432,0.0053072153,0.87864417,-0.47744784,0.9999805,-0.0030808416,0.005445932,0.09805705,-0.42112562,-0.9016862,0.04901808,0.9069967,-0.41827524,0.9939729,-0.003184095,0.10958019,9.8138275,-0.002380371,-0.04548645,9.806351,-0.030212402,0.05340576,0.0063934326,-0.020248413,-0.0032043457,-27.464294,19.158936,-10.514832,0,0.0,0.0,0.0,0.0
0.611938477,0.0033188863,-0.48004237,-0.877239,0.0053120963,0.8772399,-0.48002273,0.99998033,-0.0030668373,0.005461491,0.096114956,-0.42226964,-0.9013603,0.04826443,0.9064647,-0.4195144,0.9941994,-0.0031820298,0.10750542,9.9526825,0.02154541,0.07421875,9.806351,-0.030075073,0.05355835,-0.008529663,-0.010650635,-0.01171875,-27.642822,19.33899,-10.687256,0,0.0,0.0,0.0,0.0
0.616333008,0.0032940775,-0.48006964,-0.87722415,0.00526324,0.87722504,-0.48005036,0.9999807,-0.0030357188,0.0054163695,0.09317228,-0.42401755,-0.90084857,0.047115937,0.9056484,-0.4214037,0.99453455,-0.0031811784,0.10435931,9.852127,0.05027771,-0.04548645,9.806351,-0.029769897,0.053115845,0.0095825195,-0.017044067,0.0010528564,-27.642822,19.33899,-10.687256,0,0.0,0.0,0.0,0.0
0.620727539,0.0032329732,-0.4801368,-0.8771876,0.0052480074,0.8771882,-0.48011783,0.999981,-0.0030512796,0.005355688,0.09132897,-0.42515576,-0.9005007,0.046392564,0.9051146,-0.42262897,0.9947395,-0.0031782691,0.10238725,9.694122,-0.07421875,-0.08857727,9.806351,-0.029922485,0.052520752,0.003189087,0.0021209717,0.0010528564,-27.642822,19.33899,-10.687256,0,0.0,0.0,0.0,0.0
0.625122071,0.0035844182,-0.41999534,-0.9075191,0.004969562,0.9075212,-0.41997668,0.9999812,-0.0030046008,0.005340129,0.08952285,-0.42627198,-0.90015435,0.045678988,0.9045895,-0.42382935,0.9949367,-0.0031757294,0.1004531,9.785095,0.06463623,0.011962891,9.806351,-0.029464722,0.052368164,0.0021209717,-0.0063934326,0.004257202,-28.54004,20.23468,-9.477234,0,0.0,0.0,0.0,0.0
0.629516602,0.0035286308,-0.42006013,-0.9074894,0.004978452,0.90749127,-0.42004165,0.99998146,-0.003035721,0.005293451,0.08781496,-0.42614666,-0.90038186,0.04485598,0.90464854,-0.4237912,0.99512637,-0.0031723068,0.0985569,9.765945,-0.11251831,-0.09815979,9.806351,-0.029769897,0.0519104,0.007446289,-0.009597778,0.006378174,-28.54004,20.23468,-9.477234,0,0.0,0.0,0.0,0.0
0.633911133,0.0035092633,-0.42008257,-0.9074791,0.004986777,0.90748084,-0.4200641,0.99998146,-0.0030512807,0.005279447,0.08613953,-0.42602512,-0.90060127,0.04405002,0.9047058,-0.42375353,0.99530876,-0.0031695752,0.096697345,9.780304,-0.04548645,0.03111267,9.806351,-0.029922485,0.05177307,-0.004272461,-0.015975952,0.0053253174,-28.54004,20.23468,-9.477234,0,0.0,0.0,0.0,0.0
0.638305664,0.0035454386,-0.4106037,-0.91180706,0.0049087885,0.91180897,-0.4105855,0.9999817,-0.003020162,0.005248329,0.08449669,-0.42590642,-0.9008129,0.043260664,0.9047617,-0.42371547,0.9954842,-0.0031672092,0.09487436,9.804245,0.02154541,-0.007171631,9.806351,-0.02961731,0.051467896,0.015975952,0.0053253174,0.0095825195,-28.720093,20.414734,-9.30481,0,0.0,0.0,0.0,0.0
0.642700196,0.0035104537,-0.41064453,-0.9117887,0.0049103554,0.91179043,-0.4106264,0.9999818,-0.003035722,0.00521721,0.08289479,-0.4256015,-0.9011058,0.042469267,0.90490514,-0.4234891,0.9956529,-0.0031642683,0.0930869,9.832977,-0.05984497,-0.06463623,9.806351,-0.029769897,0.05116272,-0.004272461,0.0021209717,-0.0032043457,-28.720093,20.414734,-9.30481,0,0.0,0.0,0.0,0.0
0.647094727,0.0035104537,-0.41064453,-0.9117887,0.0049103554,0.91179043,-0.4106264,0.9999818,-0.003035722,0.00521721,0.08132353,-0.42530352,-0.9013897,0.041694768,0.9050453,-0.4232666,0.9958152,-0.0031616974,0.09133441,9.837769,-0.026321411,0.07899475,9.806351,-0.029769897,0.05116272,-0.0021362305,-0.0032043457,-0.0063934326,-28.720093,20.414734,-9.30481,0,0.0,0.0,0.0,0.0
0.651489258,0.0032515451,-0.45391718,-0.8910379,0.005045842,0.8910387,-0.45389917,0.999982,-0.003020163,0.0051876474,0.07978294,-0.4250114,-0.90166515,0.04093662,0.9051825,-0.4230471,0.99597126,-0.003159178,0.08961665,9.86171,-0.002380371,-0.04069519,9.806351,-0.02961731,0.050872803,-0.008529663,0.0021209717,0.0053253174,-28.720093,20.773315,-10.687256,0,0.0,0.0,0.0,0.0
0.655883789,0.0032447006,-0.45392472,-0.8910341,0.0050249426,0.891035,-0.45390686,0.9999821,-0.0030046033,0.005172088,0.078233406,-0.4255939,-0.9015261,0.040269054,0.9049087,-0.4236963,0.9961214,-0.0031563975,0.087932356,9.804245,0.02154541,0.03111267,9.806351,-0.029464722,0.050720215,0.010650635,0.0063934326,0.0010528564,-28.720093,20.773315,-10.687256,0,0.0,0.0,0.0,0.0
0.660278321,0.0032861049,-0.4538793,-0.8910571,0.005012558,0.89105815,-0.45386136,0.999982,-0.0029750394,0.005203207,0.076715335,-0.4261648,-0.90138686,0.039612398,0.9046401,-0.42433152,0.9962658,-0.0031533618,0.08628118,9.756363,0.04069519,0.10293579,9.806351,-0.029174805,0.05102539,0.007446289,0.008514404,-0.004272461,-28.720093,20.773315,-10.687256,0,0.0,0.0,0.0,0.0
0.664672852,0.0032663173,-0.45832875,-0.8887768,0.0050491723,0.88877773,-0.45831066,0.9999819,-0.0029905988,0.0052172104,0.075229086,-0.42672318,-0.901248,0.038966574,0.9043768,-0.42495203,0.99640465,-0.0031497953,0.08466338,9.828186,-0.07421875,0.12210083,9.806351,-0.029327393,0.05116272,-0.020233154,0.01171875,0.0021209717,-28.181458,19.517517,-10.168457,0,0.0,0.0,0.0,0.0
0.669067383,0.0031983939,-0.45840612,-0.88873714,0.0050479155,0.8887378,-0.4583883,0.9999822,-0.0030201634,0.005156528,0.07376948,-0.42736062,-0.90106654,0.03833958,0.9040758,-0.42564902,0.99653804,-0.0031466114,0.08307803,9.84256,-0.08857727,-0.09815979,9.806351,-0.02961731,0.050567627,-0.0021362305,-0.0063934326,0.0010528564,-28.181458,19.517517,-10.168457,0,0.0,0.0,0.0,0.0
0.673461914,0.0031768552,-0.4584307,-0.88872457,0.005089489,0.888725,-0.4584127,0.999982,-0.0030668424,0.0051565277,0.07233828,-0.42798665,-0.9008854,0.037723165,0.90377957,-0.42633253,0.9966665,-0.0031440824,0.08152288,9.890442,-0.16040039,0.04069519,9.806351,-0.030075073,0.050567627,0.0010528564,0.0010681152,-0.005340576,-28.181458,19.517517,-10.168457,0,0.0,0.0,0.0,0.0
0.677856446,0.0035297188,-0.39050576,-0.9205938,0.0048437854,0.92059535,-0.39048785,0.999982,-0.0030808463,0.0051409677,0.07093602,-0.4286005,-0.9007051,0.03711797,0.90348864,-0.42700177,0.99679,-0.0031425375,0.079998665,9.832977,-0.06463623,0.01675415,9.806351,-0.030212402,0.05041504,0.0010528564,0.007446289,-0.010665894,-27.642822,20.056152,-8.613586,0,0.0,0.0,0.0,0.0
0.682250977,0.0035023347,-0.39053774,-0.92058027,0.0048323628,0.92058176,-0.39051998,0.9999822,-0.0030808467,0.0051114047,0.069616914,-0.42784572,-0.9011668,0.036418684,0.9038463,-0.4263045,0.9969088,-0.0031413038,0.07850457,9.866501,-0.05027771,-0.05027771,9.806351,-0.030212402,0.050125122,0.007446289,0.01914978,-0.004272461,-27.642822,20.056152,-8.613586,0,0.0,0.0,0.0,0.0
0.686645508,0.0034372201,-0.3906137,-0.92054826,0.004789982,0.9205495,-0.39059636,0.9999826,-0.0030668443,0.005035164,0.06863528,-0.42779124,-0.90126795,0.035726465,0.90387285,-0.42630693,0.99700195,-0.0029394233,0.07732102,9.794678,0.02154541,-0.13166809,9.806351,-0.030075073,0.04937744,0.01171875,0.004257202,-0.0021362305,-27.642822,20.056152,-8.613586,0,0.0,0.0,0.0,0.0
0.691040039,0.0031532655,-0.43960318,-0.8981865,0.004940417,0.8981868,-0.43958598,0.9999828,-0.003051285,0.005004045,0.06735829,-0.42705446,-0.90171355,0.03505684,0.9042211,-0.4256233,0.99711275,-0.0029419716,0.075877964,9.923965,-0.007171631,-0.011962891,9.806351,-0.029922485,0.049072266,-0.004272461,0.008514404,-0.005340576,-28.54004,19.158936,-9.477234,0,0.0,0.0,0.0,0.0
0.695434571,0.0030912193,-0.43967775,-0.8981503,0.0048931846,0.89815056,-0.439661,0.99998325,-0.0030357265,0.004927804,0.0660682,-0.4273063,-0.90168977,0.03447324,0.90410215,-0.42592362,0.9972194,-0.002944158,0.07446304,9.727631,0.026321411,-0.16040039,9.806351,-0.029769897,0.048324585,-0.0053253174,-0.0053253174,0.004257202,-28.54004,19.158936,-9.477234,0,0.0,0.0,0.0,0.0
0.699829102,0.0031052863,-0.43966085,-0.89815855,0.004899967,0.89815885,-0.43964404,0.9999832,-0.0030357263,0.004943364,0.06480278,-0.42755455,-0.90166384,0.033899717,0.9039847,-0.4262187,0.9973221,-0.0029459894,0.073074706,9.86171,-0.05505371,0.07421875,9.806351,-0.029769897,0.048477173,0.003189087,-0.0032043457,0.0010528564,-28.54004,19.158936,-9.477234,0,0.0,0.0,0.0,0.0
0.704223633,0.003253173,-0.4039434,-0.9147782,0.0047550006,0.914779,-0.40392685,0.9999835,-0.0030357272,0.0048966855,0.06356324,-0.42779744,-0.90163684,0.03333707,0.9038698,-0.4265067,0.99742085,-0.002947784,0.071714416,9.775513,-0.04069519,-0.10772705,9.806351,-0.029769897,0.04801941,0.0095825195,-0.007461548,-0.004272461,-28.720093,20.056152,-8.958435,0,0.0,0.0,0.0,0.0
0.708618164,0.0031973156,-0.40401027,-0.91474885,0.0047307233,0.91474926,-0.40399393,0.9999836,-0.0030357277,0.004836003,0.06356324,-0.42779744,-0.90163684,0.03333707,0.9038698,-0.4265067,0.99742085,-0.002947784,0.071714416,9.775513,-0.04069519,-0.10772705,9.806351,-0.029769897,0.047424316,0.0095825195,-0.007461548,-0.004272461,-28.720093,20.056152,-8.958435,0,0.0,0.0,0.0,0.0
0.713012696,0.0031764298,-0.40403524,-0.9147378,0.0047046337,0.9147383,-0.40401912,0.99998385,-0.0030201685,0.0048064403,0.061204873,-0.42686096,-0.90224373,0.032146163,0.9043125,-0.42565903,0.9976074,-0.0029512665,0.06907027,9.770737,0.02154541,-0.026321411,9.806351,-0.02961731,0.0471344,0.010650635,0.012771606,0.008514404,-28.720093,20.056152,-8.958435,0,0.0,0.0,0.0,0.0
0.717407227,0.0027481208,-0.4867969,-0.8735109,0.0049711354,0.87351,-0.48678076,0.99998385,-0.0030046087,0.004820444,0.060059454,-0.426407,-0.90253526,0.031569675,0.9045266,-0.42524698,0.99769545,-0.0029526446,0.0677869,9.962265,-0.02154541,0.06463623,9.806351,-0.029464722,0.04727173,-0.011703491,0.0,0.0021209717,-28.89862,18.08319,-10.168457,0,0.0,0.0,0.0,0.0
0.721801758,0.0026947446,-0.48686185,-0.8734748,0.0049417973,0.87347376,-0.48684603,0.99998415,-0.0030046096,0.004759762,0.058879208,-0.42763504,-0.9020319,0.0311146,0.9039467,-0.42651182,0.9977801,-0.002953684,0.066529356,9.832977,-0.011962891,-0.09815979,9.806351,-0.029464722,0.046676636,-0.0021362305,0.004257202,0.003189087,-28.89862,18.08319,-10.168457,0,0.0,0.0,0.0,0.0
0.726196289,0.002728175,-0.48682114,-0.87349737,0.004977986,0.87349635,-0.48680505,0.99998385,-0.0030201685,0.0048064403,0.057722725,-0.42883906,-0.90153486,0.030665128,0.9033761,-0.42775148,0.99786156,-0.0029547024,0.06529573,9.761154,-0.06942749,0.16519165,9.806351,-0.02961731,0.0471344,0.010650635,-0.0021362305,-0.008529663,-28.89862,18.08319,-10.168457,0,0.0,0.0,0.0,0.0
0.730590821,0.0029854805,-0.43638882,-0.8997532,0.0047873044,0.8997532,-0.43637294,0.99998415,-0.0030046096,0.004775322,0.056591254,-0.4300174,-0.9010452,0.030222274,0.90281576,-0.42896423,0.9979399,-0.0029560118,0.064087585,9.809036,0.007171631,-0.04548645,9.806351,-0.029464722,0.046829224,0.0010528564,-0.010650635,0.0010528564,-29.437256,19.69757,-9.651184,0,0.0,0.0,0.0,0.0
0.734985352,0.0029294258,-0.4364566,-0.89972055,0.004727655,0.8997204,-0.43644112,0.9999845,-0.0029750469,0.0046990803,0.055516973,-0.43014506,-0.9010511,0.02972176,0.90275496,-0.4291272,0.9980153,-0.0029569834,0.06290289,9.957474,0.04069519,-0.13645935,9.806351,-0.029174805,0.046081543,0.0063934326,-0.0010681152,-0.0021362305,-29.437256,19.69757,-9.651184,0,0.0,0.0,0.0,0.0
0.739379883,0.00293668,-0.4364478,-0.8997248,0.004748417,0.8997246,-0.4364322,0.99998444,-0.0029906065,0.00471464,0.054463044,-0.4302715,-0.90105504,0.029229801,0.9026947,-0.42928767,0.9980879,-0.0029573448,0.061740253,9.832977,-0.05984497,0.11251831,9.806351,-0.029327393,0.04623413,-0.0053253174,-0.008529663,-0.0010681152,-29.437256,19.69757,-9.651184,0,0.0,0.0,0.0,0.0
0.743774414,0.003002971,-0.4301883,-0.90273416,0.0047265766,0.9027343,-0.43017265,0.9999844,-0.0029750464,0.0047442033,0.0534304,-0.43039522,-0.9010577,0.028747754,0.9026357,-0.42944425,0.9981577,-0.00295801,0.060601085,9.785095,-0.007171631,0.10293579,9.806351,-0.029174805,0.046524048,-0.009597778,-0.008529663,-0.0021362305,-29.078674,20.773315,-9.996033,0,0.0,0.0,0.0,0.0
0.748168946,0.0030184388,-0.4301707,-0.9027425,0.0047665928,0.9027426,-0.43015483,0.99998415,-0.0030046096,0.004775322,0.052423015,-0.43039107,-0.90111893,0.028267708,0.90263766,-0.42947194,0.9982248,-0.0029583508,0.059485164,9.804245,-0.09336853,0.14604187,9.806351,-0.029464722,0.046829224,0.0,-0.004272461,-0.004272461,-29.078674,20.773315,-9.996033,0,0.0,0.0,0.0,0.0
0.752563477,0.0029901762,-0.4302029,-0.90272725,0.0047533126,0.9027272,-0.43018714,0.9999842,-0.0030046096,0.0047442024,0.050960727,-0.4301931,-0.90129733,0.027493995,0.9027322,-0.42932343,0.9983221,-0.0029016286,0.057831615,9.880859,-0.05984497,-0.03590393,9.806351,-0.029464722,0.046524048,-0.0032043457,-0.008529663,-0.0010681152,-29.078674,20.773315,-9.996033,0,0.0,0.0,0.0,0.0
0.756958008,0.0028180818,-0.43039912,-0.9026343,0.004689593,0.90263367,-0.43038413,0.999985,-0.0030201296,0.0045620915,0.050002277,-0.43019328,-0.901351,0.027039733,0.90273213,-0.4293525,0.998383,-0.002903688,0.056770973,9.823395,-0.007171631,-0.09336853,9.806488,-0.02961731,0.04473877,-0.0010681152,-0.007461548,0.006378174,-29.078674,20.773315,-9.996033,0,0.0,0.0,0.0,0.0
0.761352539,0.0027206016,-0.4305102,-0.9025816,0.0046437224,0.9025806,-0.43049574,0.9999855,-0.0030201313,0.0044547324,0.049059443,-0.4301974,-0.9014008,0.026593475,0.90273017,-0.4293845,0.99844176,-0.0029060168,0.05572788,9.933533,-0.026321411,-0.23222351,9.806488,-0.02961731,0.043685913,0.0053253174,-0.029830933,0.004257202,-29.078674,20.773315,-9.996033,0,0.0,0.0,0.0,0.0
0.765747071,0.0027347286,-0.4304941,-0.90258926,0.004650372,0.90258837,-0.4304796,0.99998546,-0.003020131,0.0044702915,0.04813339,-0.43020368,-0.9014477,0.02615529,0.9027272,-0.4294177,0.9984984,-0.002908299,0.05470342,9.8138275,-0.05027771,0.07899475,9.806488,-0.02961731,0.0438385,0.003189087,-0.008529663,-0.0021362305,-29.078674,20.773315,-9.996033,0,0.0,0.0,0.0,0.0
0.770141602,0.0027553863,-0.41816577,-0.9083665,0.00459319,0.90836555,-0.41815144,0.9999856,-0.0030201315,0.004423613,0.047226015,-0.4302095,-0.90149295,0.025725905,0.9027244,-0.4294495,0.9985529,-0.0029105355,0.053699605,9.785095,-0.03111267,-0.05984497,9.806488,-0.02961731,0.043380737,0.007446289,-0.0010681152,0.006378174,-29.078674,20.773315,-9.651184,0,0.0,0.0,0.0,0.0
0.774536133,0.0027553863,-0.41816577,-0.9083665,0.00459319,0.90836555,-0.41815144,0.9999856,-0.0030201315,0.004423613,0.046342924,-0.42996937,-0.9016533,0.025292117,0.90283877,-0.4292347,0.9986054,-0.0029127274,0.052715026,9.627075,-0.026321411,0.05505371,9.806488,-0.02961731,0.043380737,0.0010528564,-0.014923096,-0.0063934326,-29.078674,20.773315,-9.651184,0,0.0,0.0,0.0,0.0
0.778930664,0.0026663863,-0.4182685,-0.90831953,0.004569891,0.9083184,-0.41825452,0.999986,-0.0030356925,0.0043333694,0.045477185,-0.42973402,-0.9018096,0.024867414,0.9029508,-0.4290238,0.9986558,-0.0029148753,0.051750038,9.794678,-0.07421875,-0.20828247,9.806488,-0.029769897,0.042495728,-0.0010681152,-0.0138549805,0.007446289,-29.078674,20.773315,-9.651184,0,0.0,0.0,0.0,0.0
0.783325196,0.0024987543,-0.44291547,-0.89655995,0.004620322,0.8965583,-0.44290173,0.9999862,-0.0030356927,0.0042866906,0.044626694,-0.4295054,-0.90196097,0.024451233,0.9030596,-0.42881876,0.9987045,-0.0029172916,0.050802503,9.928741,-0.01675415,-0.05984497,9.806488,-0.029769897,0.042037964,-0.018096924,-0.010650635,-0.0021362305,-28.720093,20.773315,-10.342407,0,0.0,0.0,0.0,0.0
0.787719727,0.0024509688,-0.44296852,-0.8965337,0.004579641,0.89653194,-0.44295514,0.99998647,-0.003020134,0.0042260094,0.043779068,-0.42977452,-0.90187436,0.02406732,0.9029315,-0.42911005,0.9987513,-0.0029196595,0.04987302,9.8138275,0.002380371,-0.12689209,9.806488,-0.02961731,0.04144287,0.0053253174,-0.0021362305,0.006378174,-28.720093,20.773315,-10.342407,0,0.0,0.0,0.0,0.0
0.792114258,0.0024369394,-0.44298413,-0.8965261,0.004572792,0.8965243,-0.44297084,0.9999866,-0.0030201345,0.00421045,0.042947486,-0.4300393,-0.90178806,0.023689777,0.9028054,-0.42939624,0.9987964,-0.002921669,0.04896076,9.770737,-0.026321411,-0.007171631,9.806488,-0.02961731,0.041290283,-0.013839722,0.0095825195,-0.005340576,-28.720093,20.773315,-10.342407,0,0.0,0.0,0.0,0.0
0.796508789,0.002319318,-0.45934027,-0.8882574,0.004616928,0.88825524,-0.4593271,0.99998665,-0.0030356944,0.0041808872,0.042132474,-0.43029907,-0.90170264,0.023319196,0.90268165,-0.42967668,0.99883986,-0.0029236383,0.048066437,9.689331,-0.06463623,-0.03111267,9.806488,-0.029769897,0.041000366,-0.0063934326,-0.004272461,0.0,-28.89862,19.517517,-10.168457,0,0.0,0.0,0.0,0.0
0.800903321,0.0023054127,-0.45935652,-0.88824904,0.004609823,0.8882468,-0.45934337,0.99998665,-0.0030356944,0.0041653276,0.04132482,-0.43088445,-0.90146035,0.022970717,0.90240234,-0.43028167,0.99888164,-0.0029258793,0.04718934,9.794678,-0.04069519,0.02154541,9.806488,-0.029769897,0.04084778,0.004257202,-0.010650635,-0.005340576,-28.89862,19.517517,-10.168457,0,0.0,0.0,0.0,0.0
0.805297852,0.002284794,-0.45938054,-0.8882366,0.00458177,0.8882344,-0.4593676,0.9999869,-0.0030201355,0.004134209,0.04053349,-0.43145826,-0.9012219,0.02262808,0.90212816,-0.43087444,0.99892193,-0.0029280756,0.046329476,9.799454,0.02154541,-0.05984497,9.806488,-0.02961731,0.040542603,-0.010650635,-0.0021362305,0.0095825195,-28.89862,19.517517,-10.168457,0,0.0,0.0,0.0,0.0
0.809692383,0.0023698288,-0.4468528,-0.8946044,0.0045422423,0.8946025,-0.4468398,0.9999869,-0.0030045756,0.0041497685,0.039757937,-0.4320209,-0.9009868,0.022290774,0.9018588,-0.4314554,0.9989607,-0.0029299168,0.04548613,9.823395,-0.011962891,0.11730957,9.806488,-0.029464722,0.04069519,-0.0021362305,-0.0063934326,0.013824463,-28.181458,19.517517,-9.823608,0,0.0,0.0,0.0,0.0
0.814086914,0.0023901258,-0.44682938,-0.894616,0.0045366045,0.8946142,-0.44681635,0.9999869,-0.002990572,0.0041653286,0.03900496,-0.43231872,-0.9008769,0.0219482,0.9017161,-0.43177116,0.9989979,-0.00293141,0.044660017,9.852127,0.007171631,0.05505371,9.806488,-0.029327393,0.04084778,0.007446289,0.0,-0.0138549805,-28.181458,19.517517,-9.823608,0,0.0,0.0,0.0,0.0
0.818481446,0.0023901104,-0.4468294,-0.894616,0.004501813,0.89461434,-0.44681656,0.99998707,-0.002959453,0.0041497694,0.03805282,-0.43243384,-0.9008624,0.021897428,0.90165967,-0.43189165,0.9990358,-0.0032918751,0.043779876,9.86171,0.07421875,0.007171631,9.806488,-0.029022217,0.04069519,-0.0032043457,-0.0010681152,0.0053253174,-28.181458,19.517517,-9.823608,0,0.0,0.0,0.0,0.0
0.822875977,0.0024914285,-0.42493737,-0.9052194,0.00442165,0.90521806,-0.42492458,0.9999872,-0.0029438937,0.0041342103,0.037334505,-0.43272284,-0.90075356,0.021560969,0.90152097,-0.43219787,0.99907017,-0.0032852269,0.042987764,9.780304,0.007171631,0.011962891,9.806488,-0.028869629,0.040542603,0.004257202,-0.008529663,-0.007461548,-27.642822,21.131897,-9.996033,0,0.0,0.0,0.0,0.0
0.827270508,0.002504057,-0.42492384,-0.90522563,0.004394851,0.90522444,-0.4249111,0.99998724,-0.0029143305,0.0041342103,0.036640894,-0.43256745,-0.90085673,0.021212522,0.90159565,-0.43205947,0.99910337,-0.0032784003,0.042211115,9.818619,0.01675415,0.03590393,9.806488,-0.028579712,0.040542603,-0.011703491,-0.012786865,-0.0021362305,-27.642822,21.131897,-9.996033,0,0.0,0.0,0.0,0.0
0.831665039,0.0024772699,-0.42495254,-0.9052122,0.0044150795,0.9052108,-0.42493978,0.9999872,-0.0029438937,0.0041186507,0.03596134,-0.43241486,-0.9009574,0.020870753,0.90166885,-0.4319233,0.9991352,-0.0032711187,0.04145004,9.708481,-0.09336853,0.01675415,9.806488,-0.028869629,0.040390015,0.007446289,-0.012786865,-0.0032043457,-27.642822,21.131897,-9.996033,0,0.0,0.0,0.0,0.0
0.836059571,0.0023593893,-0.45422116,-0.8908859,0.0044741817,0.8908843,-0.4542085,0.99998724,-0.0029143305,0.0041342103,0.035294563,-0.43226588,-0.9010552,0.020536385,0.9017403,-0.43179008,0.99916595,-0.0032645743,0.04070371,9.799454,0.01675415,0.10772705,9.806488,-0.028579712,0.040542603,-0.009597778,-0.0063934326,-0.0021362305,-28.181458,18.441772,-9.477234,0,0.0,0.0,0.0,0.0
0.840454102,0.0023529895,-0.45422888,-0.8908819,0.0044866777,0.89088017,-0.45421618,0.9999872,-0.002928334,0.0041342103,0.034628477,-0.43270755,-0.900869,0.020231143,0.9015285,-0.43224663,0.99919546,-0.0032575694,0.039972723,9.756363,-0.05505371,0.007171631,9.806488,-0.028717041,0.040542603,-0.026626587,-0.0010681152,-0.0021362305,-28.181458,18.441772,-9.477234,0,0.0,0.0,0.0,0.0
0.844848633,0.0023804468,-0.4541956,-0.89089876,0.0044673183,0.8908972,-0.45418286,0.9999872,-0.0028987706,0.00414977,0.03397589,-0.43314046,-0.90068585,0.019931637,0.9013206,-0.43269384,0.9992239,-0.0032509847,0.039256364,9.751572,0.03111267,0.10293579,9.806488,-0.028427124,0.04069519,-0.010650635,-0.0053253174,-0.008529663,-28.181458,18.441772,-9.477234,0,0.0,0.0,0.0,0.0
0.849243164,0.002411391,-0.45219296,-0.8919168,0.004455117,0.89191544,-0.45218024,0.9999872,-0.002883211,0.0041653295,0.033337187,-0.43356398,-0.9005059,0.01963709,0.90111697,-0.43313116,0.99925125,-0.0032439406,0.038554642,9.832977,0.026321411,0.06463623,9.806488,-0.028274536,0.04084778,-0.009597778,0.003189087,-0.0021362305,-27.464294,20.593262,-10.514832,0,0.0,0.0,0.0,0.0
0.853637696,0.0023766104,-0.4522299,-0.8918983,0.0044202306,0.8918967,-0.4522173,0.9999873,-0.0028676516,0.004118651,0.032712758,-0.4339384,-0.9003484,0.01934621,0.9009367,-0.43351904,0.99927753,-0.003236726,0.03786719,9.761154,0.007171631,-0.06942749,9.806488,-0.028121948,0.040390015,-0.0032043457,-0.0138549805,-0.0032043457,-27.464294,20.593262,-10.514832,0,0.0,0.0,0.0,0.0
0.858032227,0.0022533443,-0.45236057,-0.89183223,0.004325239,0.8918306,-0.4523488,0.99998814,-0.0028380905,0.0039661694,0.03210026,-0.43430606,-0.9001932,0.019059949,0.90075964,-0.43389964,0.9993029,-0.0032293443,0.037192468,9.780304,-0.026321411,-0.011962891,9.806488,-0.027832031,0.038894653,-0.0032043457,-0.0063934326,-0.008529663,-27.464294,20.593262,-10.514832,0,0.0,0.0,0.0,0.0
0.862426758,0.0020087338,-0.5026192,-0.86450565,0.0044669444,0.8645033,-0.50260746,0.9999881,-0.0028520941,0.0039817286,0.031497717,-0.43466884,-0.9000394,0.018777171,0.90058464,-0.43427503,0.9993274,-0.003221519,0.03652821,9.9048,-0.05984497,0.05984497,9.806488,-0.02796936,0.03904724,-0.0032043457,-0.026641846,-0.0063934326,-28.89862,19.158936,-11.206055,0,0.0,0.0,0.0,0.0
0.866821289,0.0019616303,-0.50267226,-0.86447495,0.0044578374,0.86447245,-0.5026607,0.99998814,-0.002867654,0.003936606,0.030886399,-0.4360544,-0.89939016,0.01853531,0.89991456,-0.43567216,0.999351,-0.0032141304,0.035877522,9.828186,-0.05984497,-0.06463623,9.806488,-0.028121948,0.038604736,0.0,-0.015975952,-0.0010681152,-28.89862,19.158936,-11.206055,0,0.0,0.0,0.0,0.0
0.871215821,0.001942439,-0.5026939,-0.8644624,0.004428793,0.8644599,-0.5026825,0.9999884,-0.0028520948,0.0039054872,0.03028715,-0.43741238,-0.89875084,0.018296435,0.89925534,-0.4370413,0.9993738,-0.003207201,0.03523897,9.785095,-0.007171631,-0.06942749,9.806488,-0.02796936,0.03829956,-0.013839722,-0.015975952,-0.0063934326,-28.89862,19.158936,-11.206055,0,0.0,0.0,0.0,0.0
0.875610352,0.0021382985,-0.44370595,-0.8961698,0.0042412137,0.8961678,-0.44369483,0.99998873,-0.002852096,0.0037981267,0.029700216,-0.4387427,-0.8981218,0.018060083,0.8986071,-0.4383825,0.99939567,-0.0032000989,0.03461255,9.794678,-0.007171631,-0.20350647,9.806488,-0.02796936,0.037246704,0.007446289,-0.0138549805,-0.005340576,-27.642822,20.056152,-9.996033,0,0.0,0.0,0.0,0.0
0.880004883,0.0021382985,-0.44370595,-0.8961698,0.0042412137,0.8961678,-0.44369483,0.99998873,-0.002852096,0.0037981267,0.029147664,-0.4388421,-0.8980913,0.01778682,0.8985585,-0.4384931,0.9994168,-0.0031931386,0.033996485,9.84256,-0.05505371,0.03590393,9.806488,-0.02796936,0.037246704,0.0063934326,-0.020248413,0.004257202,-27.642822,20.056152,-9.996033,0,0.0,0.0,0.0,0.0
0.884399414,0.0021319294,-0.44371304,-0.8961664,0.004222468,0.8961644,-0.443702,0.9999888,-0.0028380924,0.0037841233,0.027630603,-0.43925202,-0.89793885,0.016963795,0.8983585,-0.4389353,0.9994742,-0.0031044045,0.03227357,9.765945,0.04069519,-0.002380371,9.806488,-0.027832031,0.037109375,0.0053253174,-0.017044067,-0.0010681152,-27.642822,20.056152,-9.996033,0,0.0,0.0,0.0,0.0
0.888793946,0.0019857613,-0.46271715,-0.88650376,0.0043063536,0.8865012,-0.46270618,0.99998873,-0.002898775,0.0037530034,0.027119504,-0.4393413,-0.8979108,0.016711539,0.89831483,-0.43903428,0.99949247,-0.0030990783,0.031703923,9.832977,-0.05984497,0.17477417,9.806488,-0.028427124,0.0368042,-0.0010681152,-0.017044067,0.006378174,-27.28424,19.69757,-10.342407,0,0.0,0.0,0.0,0.0
0.893188477,0.002021341,-0.4626784,-0.8865239,0.004272084,0.8865216,-0.46266747,0.9999888,-0.0028520962,0.0037685635,0.026610617,-0.4398119,-0.89769554,0.016476423,0.8980846,-0.43951404,0.9995101,-0.0030950722,0.03114511,9.919174,0.08378601,0.06463623,9.806488,-0.02796936,0.036956787,0.008514404,-0.019180298,0.012756348,-27.28424,19.69757,-10.342407,0,0.0,0.0,0.0,0.0
0.897583008,0.0019672625,-0.46273726,-0.8864933,0.00424414,0.88649094,-0.46272662,0.9999891,-0.002852097,0.0037078818,0.026112806,-0.44027212,-0.89748454,0.016244743,0.8978591,-0.43998313,0.999527,-0.0030902126,0.030597728,9.722839,-0.02154541,-0.10772705,9.806488,-0.02796936,0.036361694,-0.010650635,-0.007461548,-0.009597778,-27.28424,19.69757,-10.342407,0,0.0,0.0,0.0,0.0
0.901977539,0.0019816612,-0.45681915,-0.88955736,0.0042238273,0.889555,-0.4568085,0.9999891,-0.002852097,0.003692322,0.025623996,-0.4407242,-0.89727676,0.016016666,0.89763725,-0.44044387,0.9995433,-0.0030854503,0.030059986,9.832977,-0.04069519,0.002380371,9.806488,-0.02796936,0.036209106,-0.008529663,-0.0032043457,-0.0021362305,-29.078674,19.33899,-9.996033,0,0.0,0.0,0.0,0.0
0.906372071,0.001913457,-0.45690024,-0.8895159,0.004189174,0.8895134,-0.45688993,0.9999894,-0.0028520979,0.0036160804,0.025147157,-0.4410475,-0.8971314,0.015789254,0.89747846,-0.44077557,0.99955904,-0.0030807832,0.02953284,9.828186,-0.02154541,-0.14125061,9.806488,-0.02796936,0.035461426,-0.015975952,-0.0053253174,-0.015991211,-29.078674,19.33899,-9.996033,0,0.0,0.0,0.0,0.0
0.910766602,0.0018995386,-0.4569168,-0.8895074,0.004182101,0.8895049,-0.4569066,0.9999895,-0.0028520983,0.0036005212,0.024678536,-0.44136596,-0.8969878,0.015565391,0.89732194,-0.44110215,0.9995743,-0.0030762095,0.029014627,9.895233,-0.01675415,-0.011962891,9.806488,-0.02796936,0.035308838,0.0063934326,-0.0138549805,-0.009597778,-29.078674,19.33899,-9.996033,0,0.0,0.0,0.0,0.0
0.915161133,0.0021038996,-0.43751588,-0.8992082,0.0040085507,0.8992066,-0.43750575,0.9999897,-0.0026840535,0.003645645,0.024219118,-0.4416783,-0.89684653,0.015345531,0.8971682,-0.4414223,0.9995889,-0.003071727,0.028506411,9.799454,0.10772705,0.04069519,9.806488,-0.026321411,0.035751343,-0.013839722,-0.0010681152,0.0021209717,-28.720093,19.69757,-9.651184,0,0.0,0.0,0.0,0.0
0.919555664,0.002070332,-0.43755543,-0.8991891,0.0040097,0.89918745,-0.43754536,0.9999898,-0.0026996138,0.003616082,0.0237779,-0.44159514,-0.89689934,0.015116834,0.89720917,-0.44134697,0.999603,-0.0030639733,0.028009271,9.895233,-0.04548645,-0.04548645,9.806488,-0.026473999,0.035461426,0.0,0.01171875,-0.024505615,-28.720093,19.69757,-9.651184,0,0.0,0.0,0.0,0.0
0.923950196,0.0020634877,-0.4375635,-0.8991851,0.004023709,0.8991834,-0.43755344,0.9999898,-0.0027151734,0.003616082,0.023344837,-0.44151443,-0.8969504,0.014892853,0.897249,-0.44127375,0.99961656,-0.0030566864,0.02752154,9.890442,-0.06463623,0.011962891,9.806488,-0.026626587,0.035461426,-0.019165039,-0.004272461,-0.0021362305,-28.720093,19.69757,-9.651184,0,0.0,0.0,0.0,0.0
0.928344727,0.0020285733,-0.4407066,-0.8976489,0.0040380135,0.8976471,-0.44069657,0.9999898,-0.0027307332,0.0036005222,0.022920264,-0.44143546,-0.89700025,0.014673714,0.89728785,-0.44120207,0.9996296,-0.003049856,0.02704357,9.799454,-0.06942749,-0.002380371,9.806488,-0.026779175,0.035308838,0.0095825195,0.0063934326,-0.007461548,-28.89862,19.876099,-9.823608,0,0.0,0.0,0.0,0.0
0.932739258,0.0020354667,-0.44069853,-0.8976528,0.0040240283,0.897651,-0.44068855,0.99998987,-0.0027151736,0.0036005224,0.02250265,-0.44142085,-0.897018,0.01446071,0.897295,-0.44119444,0.9996422,-0.0030434735,0.026574774,9.895233,0.002380371,0.06942749,9.806488,-0.026626587,0.035308838,-0.0053253174,-0.007461548,-0.0021362305,-28.89862,19.876099,-9.823608,0,0.0,0.0,0.0,0.0
0.937133789,0.0020214259,-0.440715,-0.89764476,0.0040172082,0.8976429,-0.44070503,0.99998987,-0.0027151736,0.0035849628,0.022093546,-0.44140643,-0.89703524,0.01425171,0.89730215,-0.44118676,0.99965435,-0.0030369074,0.026115384,9.804245,-0.01675415,-0.02154541,9.806488,-0.026626587,0.03515625,-0.0021362305,-0.007461548,-0.005340576,-28.89862,19.876099,-9.823608,0,0.0,0.0,0.0,0.0
0.941528321,0.0018842729,-0.4637437,-0.8859675,0.0040333495,0.8859654,-0.463734,0.9999901,-0.0026996145,0.0035398402,0.021692386,-0.44139257,-0.8970519,0.014046798,0.897309,-0.44117942,0.99966604,-0.0030304727,0.025664926,9.86171,-0.007171631,-0.08378601,9.806488,-0.026473999,0.034713745,-0.012771606,0.014892578,0.0,-28.720093,18.980408,-9.996033,0,0.0,0.0,0.0,0.0
0.945922852,0.0019165665,-0.4637053,-0.8859874,0.004102762,0.88598526,-0.4636953,0.9999898,-0.0027462929,0.0036005222,0.021291303,-0.44184238,-0.89684,0.013856261,0.8970876,-0.44163543,0.9996773,-0.0030238554,0.025222447,9.914383,-0.13166809,0.18913269,9.806488,-0.026931763,0.035308838,-0.0063934326,-0.0021362305,-0.0138549805,-28.720093,18.980408,-9.996033,0,0.0,0.0,0.0,0.0
0.950317383,0.0019027047,-0.46372178,-0.8859789,0.0040955828,0.8859766,-0.46371183,0.9999898,-0.0027462929,0.0035849626,0.020899177,-0.44228232,-0.8966324,0.013670529,0.89687085,-0.44208127,0.99968815,-0.0030183042,0.024790095,9.86171,-0.03111267,0.002380371,9.806488,-0.026931763,0.03515625,-0.020233154,0.01171875,0.0,-28.720093,18.980408,-9.996033,0,0.0,0.0,0.0,0.0
0.954711914,0.0017568731,-0.48805663,-0.87281024,0.0041110544,0.8728077,-0.48804694,0.99999,-0.0027307335,0.0035398398,0.019984057,-0.44253483,-0.8965286,0.01377229,0.8967445,-0.44233435,0.99970543,-0.0035076172,0.024015311,9.794678,-0.07899475,0.04069519,9.806488,-0.026779175,0.034713745,-0.0032043457,-0.0053253174,0.007446289,-28.181458,18.08319,-10.168457,0,0.0,0.0,0.0,0.0
0.959106446,0.0017492363,-0.4880657,-0.8728052,0.0041246535,0.8728026,-0.488056,0.99999,-0.0027462933,0.0035398398,0.019984057,-0.44253483,-0.8965286,0.01377229,0.8967445,-0.44233435,0.99970543,-0.0035076172,0.024015311,9.794678,-0.07899475,0.04069519,9.806488,-0.026931763,0.034713745,-0.0032043457,-0.0053253174,0.007446289,-28.181458,18.08319,-10.168457,0,0.0,0.0,0.0,0.0
0.963500977,0.0017415991,-0.48807475,-0.8728001,0.0041382518,0.8727974,-0.488065,0.99998987,-0.002761853,0.0035398395,0.01924301,-0.44436088,-0.8956412,0.013425764,0.8958412,-0.4441716,0.9997247,-0.003477469,0.023204563,9.84256,-0.07421875,0.02154541,9.806488,-0.02708435,0.034713745,0.004257202,-0.012786865,-0.005340576,-28.181458,18.08319,-10.168457,0,0.0,0.0,0.0,0.0
0.967895508,0.0017470175,-0.48806837,-0.87280375,0.0041572964,0.8728011,-0.48805857,0.99998987,-0.0027758565,0.0035538434,0.018883936,-0.44524607,-0.8952091,0.013256881,0.89540154,-0.44506213,0.99973375,-0.0034631565,0.022811279,9.761154,-0.07899475,0.08378601,9.806488,-0.02722168,0.034851074,-0.010650635,-0.004272461,0.0010528564,-28.181458,18.08319,-10.168457,0,0.0,0.0,0.0,0.0
0.972290039,0.0017454003,-0.48807022,-0.8728026,0.0041920543,0.8727999,-0.4880603,0.9999897,-0.0028069755,0.0035694023,0.018532578,-0.44611308,-0.8947846,0.013091108,0.89496994,-0.4459343,0.9997425,-0.0034494107,0.022426216,9.86171,-0.09815979,0.08857727,9.806488,-0.027526855,0.035003662,0.0021209717,-0.0021362305,-0.008529663,-28.181458,18.08319,-10.168457,0,0.0,0.0,0.0,0.0
0.976684571,0.0017650801,-0.48804688,-0.8728156,0.004220776,0.87281287,-0.4880368,0.99998957,-0.0028225349,0.0036005215,0.018188551,-0.44696242,-0.8943678,0.012928685,0.89454615,-0.4467886,0.999751,-0.003436562,0.022049135,9.852127,-0.05027771,0.10772705,9.806488,-0.027679443,0.035308838,0.0010528564,-0.008529663,-0.007461548,-28.181458,18.08319,-10.168457,0,0.0,0.0,0.0,0.0
0.981079102,0.002305037,-0.3655622,-0.930784,0.0039376966,0.93078256,-0.3655519,0.99998957,-0.0028225349,0.0035849616,0.01785209,-0.44779387,-0.8939586,0.012769407,0.8941303,-0.4476249,0.99975914,-0.0034242813,0.021680156,9.914383,-0.05027771,-0.026321411,9.806488,-0.027679443,0.03515625,0.0010528564,-0.0063934326,0.0,-28.89862,21.310425,-8.441162,0,0.0,0.0,0.0,0.0
0.985473633,0.002251965,-0.36562458,-0.9307597,0.0039488706,0.9307581,-0.36561435,0.9999897,-0.0028520986,0.0035398388,0.017556595,-0.44618264,-0.8947697,0.012565039,0.89493537,-0.44601873,0.9997669,-0.0034122465,0.02131832,9.785095,-0.09336853,-0.06942749,9.806488,-0.02796936,0.034713745,-0.011703491,0.0,0.0021209717,-28.89862,21.310425,-8.441162,0,0.0,0.0,0.0,0.0
0.989868164,0.0022539913,-0.3656222,-0.9307607,0.003901178,0.9307592,-0.36561218,0.99998987,-0.002806976,0.00352428,0.017265249,-0.44460344,-0.8955611,0.012365976,0.8957211,-0.44444442,0.99977446,-0.0034010434,0.020962803,9.8138275,0.05505371,-0.011962891,9.806488,-0.027526855,0.034561157,-0.0063934326,0.0053253174,0.0,-28.89862,21.310425,-8.441162,0,0.0,0.0,0.0,0.0
0.994262696,0.0018098424,-0.4469272,-0.8945684,0.0040924195,0.8945657,-0.44691756,0.99999,-0.0028520995,0.0034480374,0.016979216,-0.44305444,-0.8963339,0.012170978,0.8964883,-0.44290018,0.9997818,-0.0033891618,0.020614076,9.799454,-0.09336853,0.12210083,9.806488,-0.02796936,0.033813477,0.0,-0.021316528,-0.005340576,-29.257202,20.23468,-10.168457,0,0.0,0.0,0.0,0.0
0.998657227,0.0016853176,-0.44707125,-0.89449674,0.0040655956,0.89449376,-0.4470621,0.9999904,-0.0028832203,0.0033251168,0.0166752,-0.44313198,-0.89630127,0.0120107345,0.89645,-0.44298208,0.9997888,-0.0033784206,0.020270826,9.866501,-0.10772705,-0.03590393,9.806488,-0.028274536,0.032608032,0.0095825195,-0.021316528,0.003189087,-29.257202,20.23468,-10.168457,0,0.0,0.0,0.0,0.0
1.003051758,0.0016657315,-0.4470939,-0.8944855,0.0040732953,0.89448243,-0.44708478,0.9999904,-0.00289878,0.0033111132,0.01637478,-0.44321087,-0.8962678,0.011853166,0.89641106,-0.44306514,0.9997957,-0.003368517,0.019931985,9.727631,-0.04548645,0.011962891,9.806488,-0.028427124,0.032470703,-0.011703491,-0.022369385,0.0,-29.257202,20.23468,-10.168457,0,0.0,0.0,0.0,0.0
1.007446289,0.0014611759,-0.48528126,-0.874357,0.004126288,0.87435335,-0.48527238,0.9999904,-0.00289878,0.0032799938,0.016079942,-0.44328862,-0.8962347,0.011698831,0.8963726,-0.44314697,0.99980223,-0.003359122,0.019599577,9.804245,-0.04069519,-0.05984497,9.806488,-0.028427124,0.032165527,0.0,-0.014923096,-0.004272461,-28.720093,20.414734,-11.378479,0,0.0,0.0,0.0,0.0
1.011840821,0.0014626803,-0.48527956,-0.87435776,0.004091525,0.87435424,-0.48527077,0.9999905,-0.002867661,0.0032644344,0.015780536,-0.4441386,-0.8958191,0.01156091,0.89595187,-0.44400072,0.99980867,-0.003349915,0.019273248,9.809036,0.03590393,-0.002380371,9.806488,-0.028121948,0.03201294,0.008514404,-0.01171875,-0.008529663,-28.720093,20.414734,-11.378479,0,0.0,0.0,0.0,0.0
1.016235352,0.001419407,-0.4853261,-0.874332,0.004137108,0.87432826,-0.48531735,0.99999046,-0.0029283436,0.0032488743,0.015487369,-0.44497105,-0.895411,0.0114245005,0.8955387,-0.44483694,0.99981475,-0.0033402697,0.018953111,9.837769,-0.16040039,-0.002380371,9.806488,-0.028717041,0.03186035,-0.015975952,0.0021209717,0.0,-28.720093,20.414734,-11.378479,0,0.0,0.0,0.0,0.0
1.020629883,0.001387082,-0.48956773,-0.87196416,0.004137099,0.8719603,-0.489559,0.99999046,-0.0029283436,0.0032348707,0.015105966,-0.44547725,-0.8951658,0.011479112,0.8952862,-0.44534346,0.99982,-0.0035483653,0.018637847,9.818619,-0.04548645,-0.026321411,9.806488,-0.028717041,0.031723022,-0.0053253174,0.0,0.003189087,-29.257202,19.876099,-11.206055,0,0.0,0.0,0.0,0.0
1.025024414,0.0012862276,-0.48968056,-0.8719009,0.0040648784,0.87189704,-0.4896724,0.999991,-0.0029143414,0.0031119504,0.014824433,-0.44637027,-0.8947255,0.011345625,0.8948414,-0.44624007,0.9998257,-0.0035359648,0.018329864,9.775513,-0.007171631,-0.25616455,9.806488,-0.028579712,0.030517578,0.018096924,0.0,-0.007461548,-29.257202,19.876099,-11.206055,0,0.0,0.0,0.0,0.0
1.029418946,0.0013172056,-0.48964587,-0.87192035,0.0041338825,0.87191623,-0.48963732,0.9999905,-0.0029594635,0.0031726318,0.014546587,-0.44724733,-0.89429206,0.011212905,0.8944034,-0.44712064,0.9998313,-0.0035235325,0.018025458,9.765945,-0.02154541,-0.05505371,9.806488,-0.029022217,0.03111267,0.0,0.013824463,0.0053253174,-29.257202,19.876099,-11.206055,0,0.0,0.0,0.0,0.0
1.033813477,0.0013435651,-0.4779981,-0.87835985,0.0041358825,0.87835574,-0.47798955,0.9999905,-0.002990583,0.0031570722,0.014275331,-0.44810572,-0.8938666,0.011083699,0.8939737,-0.44798237,0.9998367,-0.0035122512,0.01772844,9.780304,-0.10772705,-0.002380371,9.806488,-0.029327393,0.030960083,0.008514404,0.02128601,0.0095825195,-29.257202,19.876099,-10.861206,0,0.0,0.0,0.0,0.0
1.038208008,0.001289979,-0.47805896,-0.87832683,0.004106967,0.8783227,-0.4780507,0.99999076,-0.0029905837,0.0030963898,0.014012087,-0.44870868,-0.8935682,0.010953255,0.8936712,-0.44858864,0.9998418,-0.0035018178,0.01743702,9.885651,-0.04548645,-0.11730957,9.806488,-0.029327393,0.03036499,-0.004272461,0.018096924,-0.0010681152,-29.257202,19.876099,-10.861206,0,0.0,0.0,0.0,0.0
1.042602539,0.0013631035,-0.47797596,-0.8783719,0.004197794,0.8783677,-0.47796717,0.9999903,-0.0030357053,0.0032037504,0.013753215,-0.44930062,-0.8932747,0.010824569,0.89337385,-0.44918376,0.9998468,-0.0034915933,0.017150247,9.84256,-0.13166809,-0.03590393,9.806488,-0.029769897,0.031417847,-0.0021362305,0.022354126,0.0,-29.257202,19.876099,-10.861206,0,0.0,0.0,0.0,0.0
1.046997071,0.0018578639,-0.39024177,-0.9207106,0.004101465,0.9207074,-0.39023215,0.99998987,-0.003051264,0.0033111114,0.013501209,-0.4498788,-0.8929875,0.010699866,0.8930828,-0.44976503,0.9998516,-0.0034824754,0.01687134,9.871292,0.002380371,-0.04069519,9.806488,-0.029922485,0.032470703,-0.008529663,0.029815674,-0.0021362305,-28.54004,20.593262,-8.786011,0,0.0,0.0,0.0,0.0
1.051391602,0.0019298001,-0.39015725,-0.92074627,0.0041637234,0.92074317,-0.39014724,0.9999895,-0.0030808263,0.0034013567,0.013276794,-0.44870427,-0.8935817,0.010552742,0.8936736,-0.44859362,0.9998562,-0.0034738511,0.016600179,9.895233,-0.07421875,-0.08378601,9.806488,-0.030212402,0.033355713,0.014907837,0.03086853,0.008514404,-28.54004,20.593262,-8.786011,0,0.0,0.0,0.0,0.0
1.055786133,0.0018974334,-0.39019522,-0.9207301,0.0040842537,0.9207271,-0.39018553,0.99998987,-0.0030201445,0.003340675,0.013057813,-0.44755083,-0.89416313,0.010410426,0.89425176,-0.44744316,0.9998605,-0.0034659905,0.016336167,9.885651,0.10772705,-0.14125061,9.806488,-0.02961731,0.03276062,-0.0053253174,0.034072876,0.0,-28.54004,20.593262,-8.786011,0,0.0,0.0,0.0,0.0
1.060180664,0.0018150044,-0.4315298,-0.9020969,0.004300641,0.9020934,-0.43151945,0.9999891,-0.0030963847,0.0034931574,0.01284242,-0.44642052,-0.8947311,0.010269954,0.89481664,-0.44631574,0.9998648,-0.0034570736,0.01607633,9.84256,-0.08378601,0.14604187,9.806488,-0.03036499,0.03425598,0.008514404,0.01914978,-0.0032043457,-28.361511,20.056152,-9.651184,0,0.0,0.0,0.0,0.0
1.064575196,0.001856059,-0.43148252,-0.90211934,0.0042873025,0.90211606,-0.43147212,0.9999891,-0.0030668213,0.003524277,0.012623737,-0.4461239,-0.8948822,0.010146948,0.8949646,-0.44602183,0.9998688,-0.00344986,0.015824592,9.775513,0.03111267,0.13166809,9.806488,-0.030075073,0.034561157,-0.014907837,0.025543213,0.010650635,-28.361511,20.056152,-9.651184,0,0.0,0.0,0.0,0.0
1.068969727,0.0018278317,-0.43151504,-0.90210396,0.004273942,0.9021006,-0.4315048,0.9999892,-0.0030668217,0.0034931581,0.012410344,-0.44583225,-0.89503056,0.010026358,0.89510995,-0.44573277,0.99987274,-0.0034421992,0.015578696,9.847351,-0.011962891,-0.02154541,9.806488,-0.030075073,0.03425598,-0.0010681152,0.017028809,0.004257202,-28.361511,20.056152,-9.651184,0,0.0,0.0,0.0,0.0
1.073364258,0.0016036414,-0.48185727,-0.87624824,0.0043977657,0.8762443,-0.48184705,0.99998903,-0.0030808246,0.0035242767,0.012200469,-0.44554698,-0.89517546,0.009907992,0.8952519,-0.44545007,0.9998765,-0.0034346916,0.01533697,9.785095,-0.06942749,0.10293579,9.806488,-0.030212402,0.034561157,0.003189087,0.023422241,-0.0063934326,-28.720093,19.33899,-10.687256,0,0.0,0.0,0.0,0.0
1.077758789,0.0016255082,-0.48183233,-0.8762619,0.004358181,0.87625813,-0.4818222,0.9999892,-0.003035702,0.0035242776,0.011984081,-0.44628075,-0.89481276,0.009806236,0.8948864,-0.44618618,0.9998801,-0.0034276142,0.015100726,9.852127,0.08378601,0.03111267,9.806488,-0.029769897,0.034561157,-0.0032043457,0.0021209717,-0.007461548,-28.720093,19.33899,-10.687256,0,0.0,0.0,0.0,0.0
1.082153321,0.0016255082,-0.48183233,-0.8762619,0.004358181,0.87625813,-0.4818222,0.9999892,-0.003035702,0.0035242776,0.011772637,-0.44699904,-0.8944569,0.009705383,0.89452785,-0.44690678,0.9998836,-0.003419776,0.01486925,9.804245,-0.06463623,0.04069519,9.806488,-0.029769897,0.034561157,0.007446289,0.02128601,-0.007461548,-28.720093,19.33899,-10.687256,0,0.0,0.0,0.0,0.0
1.086547852,0.002049622,-0.38623232,-0.92239916,0.0041493,0.9223965,-0.38622198,0.99998933,-0.0030357023,0.0034931584,0.012380383,-0.4471348,-0.8943809,0.0096997935,0.8944611,-0.44704062,0.9998763,-0.0031407762,0.015410885,9.856918,-0.007171631,-0.11730957,9.806488,-0.029769897,0.03425598,-0.009597778,0.01171875,-0.004272461,-29.437256,20.414734,-8.613586,0,0.0,0.0,0.0,0.0
1.090942383,0.0020580115,-0.38622206,-0.9224036,0.004169639,0.92240083,-0.3862116,0.9999892,-0.0030512619,0.0035087178,0.01218093,-0.4459355,-0.8949822,0.009575013,0.8950596,-0.44584376,0.99987996,-0.0031386747,0.0151724955,9.895233,-0.05984497,0.04069519,9.806488,-0.029922485,0.03440857,-0.022354126,0.008514404,0.0010528564,-29.437256,20.414734,-8.613586,0,0.0,0.0,0.0,0.0
1.095336914,0.002043579,-0.38623974,-0.9223961,0.004163669,0.92239344,-0.3862294,0.99998933,-0.003051262,0.0034931584,0.011985346,-0.44475922,-0.89557,0.009453698,0.89564466,-0.44466984,0.9998835,-0.0031369266,0.014939231,9.847351,-0.04069519,0.01675415,9.806488,-0.029922485,0.03425598,-0.004272461,-0.009597778,0.004257202,-29.437256,20.414734,-8.613586,0,0.0,0.0,0.0,0.0
1.099731446,0.001778644,-0.42465413,-0.90535384,0.0042543323,0.9053503,-0.4246441,0.9999894,-0.0030963856,0.003416916,0.011793046,-0.44360608,-0.8961443,0.009335162,0.89621645,-0.44351894,0.99988693,-0.0031352134,0.014710257,9.794678,0.05505371,0.07421875,9.806488,-0.03036499,0.0335083,-0.0053253174,-0.004272461,0.004257202,-28.361511,18.980408,-8.958435,0,0.0,0.0,0.0,0.0
1.104125977,0.001813627,-0.42461136,-0.90537393,0.004253374,0.90537053,-0.42460126,0.99998933,-0.0030808256,0.003448035,0.011594942,-0.44322893,-0.89633346,0.00922945,0.89640296,-0.4431439,0.9998902,-0.003134437,0.0144845,9.847351,-0.02154541,0.11251831,9.806488,-0.030212402,0.033813477,-0.004272461,-0.019180298,0.014892578,-28.361511,18.980408,-8.958435,0,0.0,0.0,0.0,0.0
1.108520508,0.0016817591,-0.42477277,-0.9052984,0.004243744,0.9052946,-0.42476308,0.99998957,-0.0031275058,0.0033251143,0.011401301,-0.4428584,-0.89651906,0.009125941,0.89658606,-0.44277543,0.99989337,-0.0031333647,0.014263748,9.809036,-0.05027771,-0.01675415,9.806488,-0.030670166,0.032608032,0.017044067,-0.012786865,0.007446289,-28.361511,18.980408,-8.958435,0,0.0,0.0,0.0,0.0
1.112915039,0.001925689,-0.3729363,-0.9278549,0.004045724,0.9278519,-0.37292674,0.99999,-0.0030357044,0.003295552,0.011208756,-0.44249845,-0.89669925,0.009024428,0.8967638,-0.4424175,0.99989647,-0.0031332476,0.014044902,9.9526825,0.17955017,-0.05027771,9.806488,-0.029769897,0.032318115,-0.012771606,-0.022369385,0.0053253174,-29.795837,20.414734,-8.267212,0,0.0,0.0,0.0,0.0
1.117309571,0.001925689,-0.3729363,-0.9278549,0.004045724,0.9278519,-0.37292674,0.99999,-0.0030357044,0.003295552,0.011030376,-0.44113106,-0.8973749,0.008910732,0.8974372,-0.44105214,0.99989945,-0.0031312967,0.013829871,9.86171,-0.04548645,0.026321411,9.806488,-0.029769897,0.032318115,0.0,-0.014923096,-0.007461548,-29.795837,20.414734,-8.267212,0,0.0,0.0,0.0,0.0
1.121704102,0.0018517162,-0.37302923,-0.9278177,0.003982801,0.9278148,-0.37302008,0.9999904,-0.0030045863,0.0032037508,0.010855244,-0.43979004,-0.898035,0.008799855,0.89809513,-0.43971312,0.99990237,-0.0031293847,0.0136191305,9.847351,0.03111267,0.05027771,9.806488,-0.029464722,0.031417847,-0.0021362305,-0.018112183,0.0010528564,-29.795837,20.414734,-8.267212,0,0.0,0.0,0.0,0.0
1.126098633,0.0012313932,-0.47294468,-0.8810912,0.0041575716,0.8810866,-0.47293642,0.9999905,-0.0030808295,0.0030512658,0.010682032,-0.43847668,-0.8986791,0.008690433,0.89873713,-0.4384017,0.99990517,-0.0031268888,0.013410891,9.785095,-0.026321411,-0.09336853,9.806488,-0.030212402,0.029922485,-0.019165039,-0.019180298,-0.0032043457,-27.464294,19.517517,-10.514832,0,0.0,0.0,0.0,0.0
1.130493164,0.0012239962,-0.47295284,-0.881087,0.004171293,0.8810824,-0.4729446,0.9999905,-0.0030963891,0.0030512658,0.010489579,-0.4391727,-0.8983414,0.008606901,0.8983972,-0.43909946,0.9999079,-0.0031259675,0.013203725,9.885651,-0.06463623,0.04548645,9.806488,-0.03036499,0.029922485,0.013839722,-0.024505615,0.017028809,-27.464294,19.517517,-10.514832,0,0.0,0.0,0.0,0.0
1.134887696,0.0011101332,-0.47307712,-0.8810203,0.004092983,0.88101566,-0.47306946,0.99999106,-0.003080831,0.0029143416,0.010300887,-0.43985468,-0.8980099,0.008524998,0.8980635,-0.4397832,0.9999106,-0.0031253758,0.013000611,9.823395,-0.002380371,-0.18913269,9.806488,-0.030212402,0.028579712,-0.008529663,-0.01171875,0.0021209717,-27.464294,19.517517,-10.514832,0,0.0,0.0,0.0,0.0
1.139282227,0.0013472172,-0.42221096,-0.90649664,0.004043247,0.9064924,-0.42220297,0.999991,-0.0030963905,0.0029283452,0.010113738,-0.44052532,-0.89768326,0.008442996,0.8977347,-0.44045547,0.9999132,-0.003124485,0.012798808,9.880859,-0.06942749,0.05027771,9.806488,-0.03036499,0.028717041,-0.02130127,-0.010650635,0.0,-28.181458,19.517517,-9.132385,0,0.0,0.0,0.0,0.0
1.143676758,0.0013186457,-0.4222449,-0.9064809,0.003997447,0.9064767,-0.4222371,0.9999911,-0.0030668275,0.0028832224,0.009940164,-0.4401608,-0.897864,0.008351507,0.8979135,-0.44009265,0.9999157,-0.0031239232,0.012601414,9.765945,0.05984497,-0.09336853,9.806488,-0.030075073,0.028274536,0.0,-0.017044067,-0.008529663,-28.181458,19.517517,-9.132385,0,0.0,0.0,0.0,0.0
1.148071289,0.001277528,-0.42229363,-0.9064582,0.0039784624,0.90645397,-0.42228606,0.9999913,-0.0030668278,0.0028380994,0.009769376,-0.43980414,-0.89804065,0.008261034,0.8980883,-0.43973762,0.99991816,-0.0031227814,0.012406999,9.919174,-0.04069519,-0.05984497,9.806488,-0.030075073,0.027832031,-0.007461548,-0.017044067,0.0021209717,-28.181458,19.517517,-9.132385,0,0.0,0.0,0.0,0.0
1.152465821,0.0012292124,-0.4223138,-0.90644884,0.0039714715,0.9064445,-0.4223064,0.99999136,-0.0030808318,0.0027914203,0.0096011115,-0.4394555,-0.89821297,0.008172115,0.89825886,-0.43939063,0.9999205,-0.0031216624,0.012215565,9.876068,-0.04548645,-0.08378601,9.806488,-0.030212402,0.027374268,0.0010528564,-0.0021362305,0.0053253174,-28.89862,19.517517,-9.132385,0,0.0,0.0,0.0,0.0
1.156860352,0.00122143,-0.4223233,-0.90644443,0.0039180988,0.90644026,-0.42231607,0.99999166,-0.0030357095,0.0027618576,0.008806199,-0.43974343,-0.8980803,0.0077771423,0.8981181,-0.43968564,0.999931,-0.003112539,0.011328952,9.809036,0.07421875,-0.07899475,9.806488,-0.029769897,0.02708435,0.010650635,-0.010650635,0.0,-28.89862,19.517517,-9.132385,0,0.0,0.0,0.0,0.0
1.161254883,0.0012275849,-0.42231584,-0.90644795,0.003938107,0.9064437,-0.42230853,0.9999916,-0.003051269,0.0027758612,0.008656001,-0.4393966,-0.8982515,0.0076971003,0.8982878,-0.4393402,0.99993294,-0.0031110025,0.01115766,9.847351,-0.06463623,0.06463623,9.806488,-0.029922485,0.02722168,-0.015975952,0.0053253174,0.0021209717,-28.89862,19.517517,-9.132385,0,0.0,0.0,0.0,0.0
1.165649414,0.0011182702,-0.44121575,-0.89740044,0.00394992,0.897396,-0.44120866,0.99999166,-0.0030512693,0.002746298,0.008508857,-0.4390565,-0.8984192,0.0076191695,0.89845407,-0.43900138,0.9999348,-0.0031098078,0.010990064,9.804245,-0.04548645,-0.026321411,9.806488,-0.029922485,0.026931763,-0.004272461,0.0053253174,0.007446289,-29.974365,21.310425,-10.514832,0,0.0,0.0,0.0,0.0
1.170043946,0.0011182702,-0.44121575,-0.89740044,0.00394992,0.897396,-0.44120866,0.99999166,-0.0030512693,0.002746298,0.008360889,-0.4390997,-0.8983995,0.007546143,0.89843297,-0.43904588,0.9999366,-0.003108637,0.010825207,9.732422,-0.04548645,0.03590393,9.806488,-0.029922485,0.026931763,0.0095825195,0.0,0.0021209717,-29.974365,21.310425,-10.514832,0,0.0,0.0,0.0,0.0
1.174438477,0.0010830713,-0.4412556,-0.8973808,0.0039154096,0.8973763,-0.44124866,0.9999917,-0.0030357097,0.002699619,0.008215817,-0.43914205,-0.8983801,0.0074745286,0.8984123,-0.43908942,0.9999383,-0.0031074898,0.01066357,9.804245,0.007171631,-0.09815979,9.806488,-0.029769897,0.026473999,-0.015975952,0.01171875,-0.009597778,-29.974365,21.310425,-10.514832,0,0.0,0.0,0.0,0.0
1.178833008,0.0010690391,-0.44127145,-0.89737296,0.003908563,0.8973685,-0.4412646,0.99999183,-0.0030357102,0.0026840596,0.008073019,-0.43918434,-0.89836067,0.0074036885,0.8983916,-0.4391329,0.99994,-0.0031060542,0.010504317,9.761154,-0.026321411,-0.03111267,9.806488,-0.029769897,0.026321411,-0.009597778,0.022354126,0.0010528564,-29.974365,21.310425,-10.514832,0,0.0,0.0,0.0,0.0
1.183227539,0.0010423785,-0.44130167,-0.89735824,0.0038955528,0.89735365,-0.4412949,0.99999183,-0.0030357102,0.0026544959,0.00793279,-0.43922612,-0.89834154,0.0073341117,0.89837116,-0.43917587,0.99994165,-0.0031046474,0.010347922,9.698898,-0.01675415,-0.05027771,9.806488,-0.029769897,0.026031494,-0.0032043457,0.003189087,0.006378174,-29.974365,21.310425,-10.514832,0,0.0,0.0,0.0,0.0
1.187622071,0.0010492788,-0.4412938,-0.897362,0.003881581,0.8973576,-0.4412871,0.99999195,-0.0030201506,0.002654496,0.007794911,-0.43926767,-0.8983224,0.0072656963,0.89835083,-0.43921852,0.9999432,-0.0031032688,0.010194151,9.823395,0.002380371,0.026321411,9.806488,-0.02961731,0.026031494,-0.0063934326,0.0010681152,-0.004272461,-29.974365,21.310425,-10.514832,0,0.0,0.0,0.0,0.0
1.192016602,0.0010328171,-0.45578003,-0.8900919,0.0039743753,0.8900872,-0.45577303,0.9999916,-0.0030668287,0.002730738,0.0076598497,-0.43930823,-0.89830375,0.007198315,0.898331,-0.4392602,0.99994475,-0.0031016064,0.01004336,9.933533,0.002380371,0.02154541,9.806488,-0.030075073,0.026779175,-0.004272461,-0.0063934326,-0.0021362305,-29.257202,18.441772,-9.477234,0,0.0,0.0,0.0,0.0
1.196411133,9.985428E-4,-0.4558231,-0.89006984,0.003972705,0.8900651,-0.4558162,0.99999166,-0.0030808328,0.0026996187,0.0075261323,-0.43963915,-0.89814293,0.0071362136,0.8981691,-0.43959215,0.9999462,-0.003100911,0.009897099,9.856918,-0.07421875,-0.05505371,9.806488,-0.030212402,0.026473999,0.014907837,0.02128601,0.012756348,-29.257202,18.441772,-9.477234,0,0.0,0.0,0.0,0.0
1.200805664,0.0010121333,-0.455806,-0.8900786,0.004014568,0.8900737,-0.45579892,0.9999914,-0.0031119515,0.0027307374,0.0073944107,-0.43996426,-0.8979848,0.0070752264,0.8980099,-0.4399183,0.9999476,-0.0031005095,0.009753101,9.765945,-0.09815979,0.11251831,9.806488,-0.030517578,0.026779175,-0.010650635,-0.0032043457,0.0053253174,-29.257202,18.441772,-9.477234,0,0.0,0.0,0.0,0.0
1.205200196,0.0010474485,-0.43547982,-0.90019786,0.003998239,0.9001929,-0.43547282,0.9999914,-0.0031430712,0.0026840584,0.007265721,-0.4402825,-0.8978299,0.0070162304,0.8978539,-0.44023752,0.999949,-0.0031007384,0.0096126795,9.694122,-0.04069519,0.01675415,9.806488,-0.030822754,0.026321411,0.01171875,0.0010681152,-0.005340576,-28.181458,20.951843,-10.168457,0,0.0,0.0,0.0,0.0
1.209594727,0.0010474485,-0.43547982,-0.90019786,0.003998239,0.9001929,-0.43547282,0.9999914,-0.0031430712,0.0026840584,0.007265721,-0.4402825,-0.8978299,0.0070162304,0.8978539,-0.44023752,0.999949,-0.0031007384,0.0096126795,9.694122,-0.04069519,0.01675415,9.806488,-0.030822754,0.026321411,0.01171875,0.0010681152,-0.005340576,-28.181458,20.951843,-10.168457,0,0.0,0.0,0.0,0.0
1.213989258,0.0010270593,-0.43550202,-0.90018713,0.003936595,0.90018237,-0.43549523,0.9999917,-0.0030963928,0.0026389358,0.007020166,-0.4400926,-0.89792496,0.0068954933,0.897947,-0.4400495,0.99995154,-0.0031024148,0.009338393,9.900009,0.07899475,-0.07421875,9.806488,-0.03036499,0.025878906,-0.013839722,-0.004272461,0.006378174,-28.181458,20.951843,-10.168457,0,0.0,0.0,0.0,0.0
1.218383789,0.0010271788,-0.43547463,-0.9002004,0.0039365636,0.90019566,-0.43546784,0.9999917,-0.0030963928,0.0026389358,0.0069006034,-0.4400009,-0.89797086,0.0068357177,0.89799196,-0.43995872,0.9999528,-0.0031022942,0.009204408,9.727631,-0.12210083,-0.12689209,9.806488,-0.03036499,0.025878906,0.01171875,0.0053253174,-0.0010681152,-30.691528,20.23468,-9.823608,0,0.0,0.0,0.0,0.0
1.222778321,0.0010276365,-0.4354741,-0.90020066,0.0039713522,0.9001959,-0.43546724,0.99999166,-0.003127512,0.0026544954,0.007846838,-0.44122693,-0.8973612,0.006673909,0.897392,-0.4411837,0.9999469,-0.0025270102,0.009986397,9.900009,-0.09336853,0.04548645,9.806488,-0.030670166,0.026031494,0.022369385,0.013824463,-0.008529663,-30.691528,20.23468,-9.823608,0,0.0,0.0,0.0,0.0
1.227172852,0.0011865622,-0.4352788,-0.90029496,0.004030266,0.9002905,-0.43527132,0.9999913,-0.0031119513,0.0028225398,0.007710809,-0.44111204,-0.8974189,0.006619009,0.8974485,-0.44106972,0.9999484,-0.00253902,0.009839778,9.770737,-0.06463623,0.16040039,9.806488,-0.030517578,0.027679443,-0.012771606,0.01914978,-0.0032043457,-30.691528,20.23468,-9.823608,0,0.0,0.0,0.0,0.0
1.231567383,0.0010137281,-0.4627047,-0.8865118,0.004056979,0.8865069,-0.4626975,0.9999913,-0.003127511,0.0027758605,0.00758069,-0.4409955,-0.89747727,0.006566422,0.89750564,-0.44095403,0.9999497,-0.0025504788,0.009699475,9.852127,-0.05984497,-0.07421875,9.806488,-0.030670166,0.02722168,-0.0063934326,0.027679443,-0.004272461,-28.001404,20.414734,-10.687256,0,0.0,0.0,0.0,0.0
1.235961914,0.0010229574,-0.46269476,-0.88651705,0.004009107,0.8865122,-0.46268764,0.9999914,-0.003080832,0.0027618571,0.0074481093,-0.4414323,-0.89726365,0.006519324,0.89729095,-0.4413916,0.999951,-0.0025620195,0.00956096,9.86171,0.08857727,-0.002380371,9.806488,-0.030212402,0.02708435,0.003189087,0.007446289,-0.0010681152,-28.001404,20.414734,-10.687256,0,0.0,0.0,0.0,0.0
1.240356446,0.0010084874,-0.46271035,-0.88650894,0.0040367125,0.88650405,-0.46270323,0.99999136,-0.0031119513,0.002761857,0.0073185065,-0.44186002,-0.8970542,0.0064721387,0.8970803,-0.4418201,0.99995226,-0.0025723958,0.009425067,9.823395,-0.10293579,0.03590393,9.806488,-0.030517578,0.02708435,0.0053253174,0.020217896,-0.005340576,-28.001404,20.414734,-10.687256,0,0.0,0.0,0.0,0.0
1.244750977,0.0011226501,-0.44171804,-0.89715326,0.0040040854,0.8971486,-0.44171074,0.99999136,-0.0030963917,0.0027758607,0.0071911784,-0.44227943,-0.8968485,0.006426299,0.8968736,-0.44224033,0.9999535,-0.002583187,0.009291798,9.818619,0.011962891,0.07421875,9.806488,-0.03036499,0.02722168,0.0,0.01914978,-0.0032043457,-29.974365,19.876099,-9.823608,0,0.0,0.0,0.0,0.0
1.249145508,0.001088859,-0.44175905,-0.8971331,0.003970245,0.8971286,-0.44175196,0.9999916,-0.0030808325,0.002730738,0.007069863,-0.44226822,-0.896855,0.006377794,0.89687914,-0.44222984,0.9999547,-0.0025934512,0.009161508,9.84256,0.007171631,-0.12689209,9.806488,-0.030212402,0.026779175,0.0053253174,0.013824463,-0.008529663,-29.974365,19.876099,-9.823608,0,0.0,0.0,0.0,0.0
1.253540039,0.001163634,-0.4416683,-0.89717764,0.0039564525,0.8971733,-0.44166103,0.9999916,-0.0030357093,0.002791421,0.006950265,-0.44225803,-0.89686096,0.0063295737,0.8968841,-0.4422204,0.99995583,-0.0026031986,0.0090328865,9.785095,-0.05505371,-0.09815979,9.806488,-0.029769897,0.027374268,-0.0032043457,0.02128601,0.0,-29.974365,19.876099,-9.823608,0,0.0,0.0,0.0,0.0
1.257934571,0.0011214006,-0.45120507,-0.8924195,0.0039686295,0.89241517,-0.4511979,0.9999916,-0.0030357093,0.002791421,0.0068345834,-0.4422463,-0.89686763,0.0062820483,0.89688987,-0.44220936,0.9999569,-0.002611849,0.008908081,9.804245,-0.03111267,0.04069519,9.806488,-0.029769897,0.027374268,-0.0032043457,0.026611328,-0.01171875,-29.437256,19.69757,-9.996033,0,0.0,0.0,0.0,0.0
1.262329102,0.0011553788,-0.45116472,-0.89243996,0.004036225,0.8924353,-0.45115718,0.9999911,-0.0030808311,0.0028521027,0.00671989,-0.44242588,-0.8967799,0.006236911,0.89680123,-0.44238967,0.9999579,-0.0026203264,0.008785776,9.804245,-0.15083313,-0.04548645,9.806488,-0.030212402,0.02796936,0.0063934326,0.01914978,0.0021209717,-29.437256,19.69757,-9.996033,0,0.0,0.0,0.0,0.0
1.266723633,0.0011756921,-0.45114055,-0.89245224,0.004030716,0.8924477,-0.45113295,0.9999911,-0.0030668275,0.0028676626,0.006608235,-0.44260108,-0.89669424,0.006193988,0.89671475,-0.44256553,0.999959,-0.0026295367,0.008667168,9.785095,0.011962891,0.06463623,9.806488,-0.030075073,0.028121948,-0.015975952,0.020217896,-0.0010681152,-29.437256,19.69757,-9.996033,0,0.0,0.0,0.0,0.0
1.271118164,0.0012328514,-0.43841293,-0.8987728,0.0040136017,0.8987683,-0.43840525,0.9999911,-0.0030668275,0.0028676626,0.006499181,-0.4427723,-0.89661056,0.0061517376,0.8966302,-0.4427374,0.99996,-0.0026382825,0.008551181,9.828186,-0.03111267,0.04069519,9.806488,-0.030075073,0.028121948,0.0063934326,0.015960693,-0.004272461,-27.642822,20.414734,-9.996033,0,0.0,0.0,0.0,0.0
1.275512696,0.0012609587,-0.43838224,-0.8987878,0.0040272013,0.8987834,-0.43837443,0.99999106,-0.0030668273,0.0028987818,0.006394012,-0.44268522,-0.8966543,0.0061084516,0.89667314,-0.44265097,0.9999609,-0.0026468534,0.00843746,9.871292,-0.05027771,0.09815979,9.806488,-0.030075073,0.028427124,-0.012771606,0.007446289,-0.0032043457,-27.642822,20.414734,-9.996033,0,0.0,0.0,0.0,0.0
1.279907227,0.0012537596,-0.4383901,-0.898784,0.004006407,0.8987798,-0.43838248,0.9999913,-0.0030512682,0.0028832227,0.006291575,-0.44259927,-0.8966974,0.006066358,0.8967156,-0.44256565,0.9999618,-0.002655253,0.0083267195,9.866501,0.01675415,0.026321411,9.806488,-0.029922485,0.028274536,-0.008529663,0.010650635,-0.008529663,-27.642822,20.414734,-9.996033,0,0.0,0.0,0.0,0.0
1.284301758,0.0012954439,-0.42883885,-0.9033801,0.003958108,0.903376,-0.42883125,0.99999136,-0.0030201487,0.0028676633,0.0061910395,-0.4425152,-0.8967396,0.0060247118,0.89675707,-0.44248214,0.9999627,-0.002663173,0.008217885,9.847351,0.05505371,-0.01675415,9.806488,-0.02961731,0.028121948,0.004257202,0.0021209717,0.0053253174,-29.257202,19.876099,-9.477234,0,0.0,0.0,0.0,0.0
1.288696289,0.001302867,-0.42882994,-0.9033843,0.0039788233,0.9033802,-0.42882225,0.9999913,-0.0030357083,0.0028832227,0.004930484,-0.44230437,-0.8968515,0.0053299796,0.89686126,-0.4422799,0.9999736,-0.0025995462,0.006779433,9.895233,-0.05984497,0.04069519,9.806488,-0.029769897,0.028274536,0.0010528564,-0.020248413,-0.0010681152,-29.257202,19.876099,-9.477234,0,0.0,0.0,0.0,0.0
1.293090821,0.0013572628,-0.4287646,-0.9034152,0.0039699627,0.9034113,-0.4287568,0.9999913,-0.003004589,0.0029283462,0.0048582917,-0.44203585,-0.8969843,0.0053018676,0.89699364,-0.44201174,0.99997413,-0.0026082697,0.0067014717,9.852127,0.02154541,0.14604187,9.806488,-0.029464722,0.028717041,-0.0010681152,0.0063934326,0.0021209717,-29.257202,19.876099,-9.477234,0,0.0,0.0,0.0,0.0
1.297485352,0.0015453771,-0.38850188,-0.92144656,0.0039122803,0.9214429,-0.38849378,0.9999911,-0.0030045884,0.0029439053,0.0047886567,-0.44177136,-0.8971149,0.0052742115,0.8971239,-0.4417476,0.99997467,-0.002616196,0.0066260146,9.799454,-0.011962891,0.10293579,9.806488,-0.029464722,0.028869629,-0.0010681152,-0.018112183,0.0021209717,-29.078674,21.131897,-8.958435,0,0.0,0.0,0.0,0.0
1.301879883,0.0015833499,-0.38845754,-0.9214653,0.0039787907,0.9214616,-0.38844913,0.9999908,-0.0030512668,0.0030045875,0.004725279,-0.4407202,-0.8976321,0.005243105,0.8976407,-0.44069684,0.9999751,-0.0026239636,0.006552344,9.9048,-0.15560913,0.16040039,9.806488,-0.029922485,0.029464722,-0.018096924,-0.007461548,0.003189087,-29.078674,21.131897,-8.958435,0,0.0,0.0,0.0,0.0
1.306274414,0.0014792869,-0.3885791,-0.9214142,0.0039522243,0.92141026,-0.38857108,0.99999106,-0.0030668273,0.0028987818,0.0046637305,-0.43968862,-0.8981382,0.0052141105,0.89814645,-0.4396656,0.99997556,-0.0026325097,0.006481298,9.876068,-0.05027771,0.02154541,9.806488,-0.030075073,0.028427124,0.020233154,-0.0021362305,-0.0010681152,-29.078674,21.131897,-8.958435,0,0.0,0.0,0.0,0.0
1.310668946,0.0013300825,-0.42887554,-0.90336263,0.004026353,0.9033584,-0.4288676,0.99999106,-0.0030668273,0.0029283455,0.0046013915,-0.43867946,-0.8986318,0.0051852465,0.8986397,-0.43865678,0.9999759,-0.0026411961,0.0064096544,9.727631,-0.02154541,0.08857727,9.806488,-0.030075073,0.028717041,-0.011703491,-0.020248413,0.0021209717,-27.822876,19.876099,-9.477234,0,0.0,0.0,0.0,0.0
1.315063477,0.0012689473,-0.4289453,-0.90332955,0.0040130764,0.90332514,-0.42893758,0.9999911,-0.0030808311,0.0028676626,0.004536219,-0.43848392,-0.8987276,0.005161371,0.8987351,-0.43846154,0.9999764,-0.002649709,0.0063400376,9.828186,-0.07421875,-0.11251831,9.806488,-0.030212402,0.028121948,-0.007461548,-0.01171875,-0.0010681152,-27.822876,19.876099,-9.477234,0,0.0,0.0,0.0,0.0
1.319458008,0.0011379264,-0.429095,-0.90325874,0.003968589,0.9032541,-0.4290878,0.9999914,-0.003096392,0.0027307374,0.004471065,-0.43829364,-0.8988207,0.0051377015,0.8988279,-0.43827158,0.9999768,-0.0026583315,0.0062705404,9.775513,-0.04069519,0.06463623,9.806488,-0.03036499,0.026779175,-0.008529663,-0.008529663,0.003189087,-27.822876,19.876099,-9.477234,0,0.0,0.0,0.0,0.0
1.323852539,8.8769617E-4,-0.49221545,-0.8704729,0.00404121,0.8704679,-0.49220848,0.9999914,-0.003080832,0.0027618571,0.0044047306,-0.43811008,-0.8989106,0.005113695,0.8989173,-0.4380884,0.99997723,-0.0026670925,0.0061998502,9.794678,0.01675415,0.10772705,9.806488,-0.030212402,0.02708435,0.014907837,-0.03302002,0.0021209717,-27.105713,19.158936,-10.861206,0,0.0,0.0,0.0,0.0
1.328247071,9.194757E-4,-0.4921814,-0.87049216,0.004076928,0.87048715,-0.49217424,0.9999913,-0.0030963914,0.00280698,0.0043330467,-0.43920895,-0.8983745,0.0050963014,0.89838094,-0.43918756,0.99997765,-0.0026753673,0.0061310683,9.852127,-0.06463623,0.15083313,9.806488,-0.03036499,0.027526855,-0.009597778,-0.008529663,-0.008529663,-27.105713,19.158936,-10.861206,0,0.0,0.0,0.0,0.0
1.332641602,8.999472E-4,-0.4922023,-0.8704803,0.0040480886,0.87047535,-0.4921953,0.9999914,-0.003080832,0.002775861,0.0042635095,-0.4402845,-0.8978482,0.0050797616,0.8978543,-0.44026336,0.999978,-0.0026837878,0.0060645505,9.832977,-0.02154541,-0.05505371,9.806488,-0.030212402,0.02722168,-0.008529663,0.004257202,-0.0010681152,-27.105713,19.158936,-10.861206,0,0.0,0.0,0.0,0.0
1.337036133,0.0010390787,-0.45912436,-0.8883714,0.004004959,0.88836664,-0.45911723,0.9999914,-0.003080832,0.0027618571,0.0041949907,-0.4413383,-0.897331,0.0050628493,0.8973367,-0.44131747,0.99997836,-0.0026917288,0.0059987484,9.823395,-0.03590393,-0.03111267,9.806488,-0.030212402,0.02708435,-0.0032043457,-0.020248413,0.0021209717,-28.181458,20.951843,-10.861206,0,0.0,0.0,0.0,0.0
1.341430664,0.0010316498,-0.45913222,-0.8883673,0.003985384,0.8883627,-0.45912522,0.9999916,-0.0030668287,0.0027462977,0.0041314624,-0.44169578,-0.8971554,0.005042912,0.8971608,-0.44167525,0.9999788,-0.002699511,0.005934019,9.727631,0.01675415,-0.011962891,9.806488,-0.030075073,0.026931763,0.012771606,-0.01171875,-0.0032043457,-28.181458,20.951843,-10.861206,0,0.0,0.0,0.0,0.0
1.345825196,9.7124535E-4,-0.45919633,-0.8883343,0.0039018383,0.8883297,-0.4591897,0.99999195,-0.0030201506,0.002654496,0.0040690377,-0.4420462,-0.8969831,0.0050229244,0.8969882,-0.44202593,0.99997914,-0.0027068574,0.0058702435,9.799454,0.01675415,0.07421875,9.806488,-0.02961731,0.026031494,0.007446289,-0.008529663,-0.0063934326,-28.181458,20.951843,-10.861206,0,0.0,0.0,0.0,0.0
1.350219727,9.08209E-4,-0.44542837,-0.89531714,0.0038928892,0.8953123,-0.44542202,0.999992,-0.003080834,0.002547134,0.0040067118,-0.4423908,-0.8968134,0.005001682,0.8968182,-0.44237086,0.99997944,-0.0027131233,0.0058059907,9.880859,-0.15083313,0.06942749,9.806488,-0.030212402,0.024978638,0.0010528564,-0.022369385,-0.0063934326,-29.437256,19.33899,-9.651184,0,0.0,0.0,0.0,0.0
1.354614258,9.0877304E-4,-0.44542772,-0.8953175,0.0038253907,0.8953129,-0.44542155,0.9999923,-0.0030201518,0.002517571,0.002374532,-0.44194892,-0.897037,0.0043611717,0.8970356,-0.44193667,0.99998766,-0.0028627398,0.004057455,9.823395,0.13166809,-0.06942749,9.806488,-0.02961731,0.02468872,-0.008529663,-0.02557373,0.0021209717,-29.437256,19.33899,-9.651184,0,0.0,0.0,0.0,0.0
1.359008789,9.0877304E-4,-0.44542772,-0.8953175,0.0038253907,0.8953129,-0.44542155,0.9999923,-0.0030201518,0.002517571,0.0023452137,-0.4420186,-0.8970028,0.0043505854,0.89700127,-0.4420065,0.9999878,-0.002865888,0.0040266993,9.722839,-0.026321411,0.03590393,9.806488,-0.02961731,0.02468872,-0.0063934326,-0.0138549805,0.0021209717,-29.437256,19.33899,-9.651184,0,0.0,0.0,0.0,0.0
1.363403321,8.5115E-4,-0.44914722,-0.89345735,0.0038081715,0.8934527,-0.44914126,0.99999243,-0.0030201522,0.0024708922,0.002316466,-0.44208685,-0.89696926,0.0043401984,0.89696765,-0.44207487,0.9999879,-0.0028689732,0.00399654,9.847351,-0.03590393,-0.10772705,9.806488,-0.02961731,0.024230957,0.010650635,-0.015975952,0.0,-27.464294,18.800354,-9.477234,0,0.0,0.0,0.0,0.0
1.367797852,8.371787E-4,-0.4491636,-0.8934492,0.0038011984,0.8934445,-0.44915766,0.99999243,-0.0030201522,0.0024553323,0.0022870733,-0.44222832,-0.89689964,0.00432978,0.8968979,-0.44221643,0.999988,-0.0028719967,0.0039660227,9.962265,-0.04548645,-0.002380371,9.806488,-0.02961731,0.02407837,-0.0053253174,-0.018112183,-0.0021362305,-27.464294,18.800354,-9.477234,0,0.0,0.0,0.0,0.0
1.372192383,8.246047E-4,-0.44917822,-0.89344186,0.0037949225,0.8934372,-0.44917238,0.99999255,-0.0030201524,0.0024413287,0.002257936,-0.44236732,-0.8968311,0.0043193977,0.89682937,-0.44235554,0.99998814,-0.0028749597,0.0039357436,9.804245,-0.011962891,-0.01675415,9.806488,-0.02961731,0.02394104,0.0010528564,0.018096924,0.008514404,-27.464294,18.800354,-9.477234,0,0.0,0.0,0.0,0.0
1.376586914,8.857751E-4,-0.45374843,-0.8911294,0.0039082393,0.8911245,-0.45374203,0.99999195,-0.0030808337,0.0025626936,0.002229161,-0.4425038,-0.8967638,0.0043091057,0.896762,-0.4424922,0.99998826,-0.0028778636,0.0039058228,9.8138275,-0.08857727,0.02154541,9.806488,-0.030212402,0.025131226,0.004257202,0.012771606,-0.0063934326,-29.257202,20.593262,-10.514832,0,0.0,0.0,0.0,0.0
1.380981446,9.469639E-4,-0.4536794,-0.8911644,0.003956626,0.89115953,-0.45367274,0.9999917,-0.0030963928,0.0026389358,0.002202123,-0.44272935,-0.8966526,0.0043013785,0.8966506,-0.44271785,0.9999883,-0.002881923,0.0038788812,9.828186,-0.002380371,-0.09336853,9.806488,-0.03036499,0.025878906,0.003189087,0.027679443,0.007446289,-29.257202,20.593262,-10.514832,0,0.0,0.0,0.0,0.0
1.385375977,0.0010764574,-0.45353332,-0.8912387,0.0040394934,0.8912339,-0.45352605,0.9999913,-0.0031119513,0.00279142,0.0021769386,-0.44294903,-0.89654416,0.0042947805,0.89654213,-0.44293758,0.9999884,-0.0028862124,0.0038540862,9.885651,-0.09336853,0.01675415,9.806488,-0.030517578,0.027374268,-0.007461548,0.029815674,0.007446289,-29.257202,20.593262,-10.514832,0,0.0,0.0,0.0,0.0
1.389770508,0.0011447606,-0.45345628,-0.8912778,0.004073972,0.8912731,-0.45344865,0.99999106,-0.0031119506,0.0028676623,0.002154899,-0.44316134,-0.8964393,0.00428994,0.8964372,-0.44315,0.9999885,-0.0028907272,0.0038328671,9.9048,0.09815979,-0.16040039,9.806488,-0.030517578,0.028121948,-0.009597778,0.036193848,-0.0032043457,-29.257202,20.593262,-10.514832,0,0.0,0.0,0.0,0.0
1.394165039,0.0013232133,-0.45325488,-0.89137995,0.0041639823,0.8913755,-0.45324644,0.99999046,-0.0031119487,0.0030668254,0.0021346393,-0.4433678,-0.8963373,0.0042858403,0.8963351,-0.44335654,0.99998856,-0.0028951517,0.0038135557,9.885651,-0.01675415,0.09815979,9.806488,-0.030517578,0.030075073,0.014907837,0.036193848,0.0095825195,-29.257202,20.593262,-10.514832,0,0.0,0.0,0.0,0.0
1.398559571,0.0014527804,-0.45310867,-0.89145404,0.0042467252,0.89144963,-0.45309955,0.99998987,-0.0031275067,0.003219309,0.0021184129,-0.44356605,-0.8962392,0.0042835884,0.89623696,-0.44355488,0.99998856,-0.0028994877,0.0037986543,9.943115,-0.026321411,-0.07421875,9.806488,-0.030670166,0.031570435,0.0021209717,0.038330078,0.0010528564,-29.257202,20.593262,-10.514832,0,0.0,0.0,0.0,0.0
1.402954102,0.0016777567,-0.4347927,-0.900529,0.0043158275,0.9005251,-0.43478274,0.99998933,-0.0031570683,0.0033873522,0.002105005,-0.44375739,-0.89614445,0.0042829434,0.8961422,-0.4437462,0.9999886,-0.002904048,0.0037869718,9.756363,-0.11730957,-0.07421875,9.806488,-0.030960083,0.033218384,0.0021209717,0.045791626,0.0053253174,-28.181458,20.951843,-10.168457,0,0.0,0.0,0.0,0.0
1.407348633,0.0018146373,-0.43464342,-0.9006008,0.004348436,0.90059716,-0.43463293,0.9999889,-0.0031275037,0.0035242764,0.0020964572,-0.44357854,-0.896233,0.0042835157,0.89623076,-0.4435674,0.9999886,-0.0029091083,0.003778985,9.852127,-0.002380371,-0.12689209,9.806488,-0.030670166,0.034561157,0.0063934326,0.047912598,-0.0010681152,-28.181458,20.951843,-10.168457,0,0.0,0.0,0.0,0.0
1.411743164,0.0019935651,-0.4344483,-0.9006946,0.004433889,0.9006914,-0.43443695,0.9999882,-0.0031275013,0.0037218821,0.0020908844,-0.4434003,-0.8963213,0.004284794,0.896319,-0.44338915,0.9999887,-0.0029134762,0.0037739782,9.770737,-0.08857727,-0.05027771,9.806488,-0.030670166,0.036499023,-0.004272461,0.045791626,-0.007461548,-28.181458,20.951843,-10.168457,0,0.0,0.0,0.0,0.0
