Time,Rot1,Rot2,Rot3,Rot4,Rot5,Rot6,Rot7,Rot8,Rot9,FRot1,FRot2,FRot3,FRot4,FRot5,FRot6,FRot7,FRot8,FRot9,AccX,AccY,AccZ,GravX,GravY,GravZ,GyroX,GyroY,GyroZ,MagX,MagY,MagZ,Imid
0.0,0.0,0.0,0.0,0.0,0.0,0.0,0.0,0.0,0.0,0.0,0.0,0.0,0.0,0.0,0.0,0.0,0.0,0.0,9.574402,0.02154541,2.0494232,9.586075,0.034713745,2.067093,0.0,0.0,0.0,0.0,0.0,0.0,0,0.0,0.0,0.0,0.0
0.004394532,0.0,0.0,0.0,0.0,0.0,0.0,0.0,0.0,0.0,1.0,0.0,0.0,0.0,1.0,0.0,0.0,0.0,1.0,9.497787,0.01675415,2.173935,9.586075,0.034561157,2.0675354,0.0,0.0,0.0,0.0,0.0,0.0,0,0.0,0.0,0.0,0.0
0.008789063,0.10969705,0.84533733,-0.5228493,-0.1799735,0.53422153,0.8259643,0.9775357,0.0034931828,0.21074083,1.0,0.0,0.0,0.0,1.0,0.0,0.0,0.0,1.0,9.627075,-0.04548645,1.8148041,9.586227,0.03425598,2.0666351,-0.012786865,0.014892578,-0.008529663,-19.754028,6.4300537,6.251526,0,0.0,0.0,0.0,0.0
0.013183594,0.10964171,0.8452756,-0.52296066,-0.18006551,0.5343183,0.82588154,0.977525,0.0036161235,0.21078856,0.99942803,0.020142736,-0.027161771,-0.0201372,0.9997971,4.773713E-4,0.027165877,6.986374E-5,0.9996309,9.574402,0.3184204,2.1930847,9.586075,0.035461426,2.067093,0.0063934326,-0.007461548,0.007446289,-19.754028,6.4300537,6.251526,0,0.0,0.0,0.0,0.0
0.017578125,0.10963827,0.84527177,-0.5229675,-0.18002875,0.53432447,0.8258856,0.9775322,0.0036005327,0.21075565,0.99775904,0.039872445,-0.053730983,-0.03982233,0.99920475,0.0020033936,0.053768136,1.4078902E-4,0.99855345,9.445114,0.02154541,1.9488678,9.586227,0.035308838,2.0667877,0.007461548,-0.012786865,0.0095825195,-19.754028,6.4300537,6.251526,0,0.0,0.0,0.0,0.0
0.021972657,0.10306621,0.8639369,-0.49294037,-0.1838364,0.50358695,0.8441589,0.9775385,0.003616116,0.21072589,0.99506193,0.0591924,-0.07967463,-0.059020348,0.9982466,0.0045147343,0.07980216,2.0998398E-4,0.99681073,9.631866,0.07421875,1.9680328,9.586227,0.035461426,2.0664825,0.010650635,0.0021209717,0.0,-19.036865,6.4300537,7.2891235,0,0.0,0.0,0.0,0.0
0.026367188,0.10304122,0.86391413,-0.49298558,-0.18383195,0.5036258,0.84413666,0.9775419,0.0036456343,0.21070926,0.9913481,0.07882155,-0.10495783,-0.07841284,0.9968887,0.008021333,0.10526352,2.7810672E-4,0.9944443,9.627075,0.08378601,2.063797,9.58638,0.035751343,2.0663452,0.0053253174,0.011703491,0.003189087,-19.036865,6.4300537,7.2891235,0,0.0,0.0,0.0,0.0
0.030761719,0.10308173,0.86395115,-0.49291238,-0.18384446,0.50356275,0.8441715,0.97753525,0.003600544,0.21074075,0.98671466,0.09802766,-0.12955606,-0.09723864,0.99518365,0.012417365,0.1301493,3.4545737E-4,0.99149436,9.588776,-0.06942749,2.1452026,9.586227,0.035308838,2.0666351,0.0010681152,0.020217896,0.007446289,-19.036865,6.4300537,7.2891235,0,0.0,0.0,0.0,0.0
0.03515625,0.12396444,0.7988786,-0.58857954,-0.17049925,0.60148156,0.7804806,0.9775289,0.0036005208,0.2107705,0.98122776,0.11681579,-0.15344746,-0.11547692,0.9931535,0.017640227,0.15445754,4.105592E-4,0.9879994,9.579193,0.03111267,2.1308289,9.586227,0.035308838,2.0669403,-0.003189087,0.017028809,0.003189087,-18.319702,6.4300537,4.8690796,0,0.0,0.0,0.0,0.0
0.039550782,0.12397818,0.7988968,-0.5885519,-0.17052813,0.60145736,0.78049296,0.9775222,0.0036005534,0.21080197,0.9752623,0.1328562,-0.17667119,-0.1308138,0.9911352,0.023210855,0.17818874,4.743585E-4,0.9839962,9.622284,0.04069519,2.1499786,9.586075,0.035308838,2.0672302,-0.003189087,0.014892578,0.0,-18.319702,6.4300537,4.8690796,0,0.0,0.0,0.0,0.0
0.043945313,0.12402327,0.7989566,-0.5884612,-0.17057219,0.6013781,0.78054434,0.9775087,0.0035694411,0.21086466,0.9686629,0.14841928,-0.1991579,-0.14562798,0.9889237,0.028675426,0.20120797,0.0012261381,0.97954774,9.670166,-0.04069519,2.2840576,9.585922,0.035003662,2.0678406,0.010650635,0.0021209717,0.0,-18.319702,6.4300537,4.8690796,0,0.0,0.0,0.0,0.0
0.048339844,0.09117629,0.89453965,-0.43759078,-0.19021438,0.44697455,0.8740893,0.9774995,0.003539844,0.21090779,0.9614322,0.16376063,-0.22097644,-0.15988825,0.98649925,0.035424788,0.22379428,0.0012730042,0.97463554,9.469055,-0.05984497,2.1691437,9.585922,0.034713745,2.068283,-0.008514404,-0.014923096,0.0,-19.934082,5.1742554,6.42395,0,0.0,0.0,0.0,0.0
0.052734375,0.09122461,0.8945887,-0.4374803,-0.19022666,0.44687682,0.8741367,0.97749275,0.0034776363,0.21094081,0.9530093,0.18233402,-0.24192469,-0.17705834,0.9832357,0.04356352,0.2458121,0.0013183411,0.96931654,9.66539,-0.11251831,2.1595612,9.58577,0.034103394,2.0685883,0.014907837,-0.0053253174,-0.012786865,-19.934082,5.1742554,6.42395,0,0.0,0.0,0.0,0.0
0.057128907,0.09122789,0.8945921,-0.43747288,-0.19006991,0.44687074,0.87417394,0.97752285,0.003401389,0.21080211,0.94398683,0.20047522,-0.26210403,-0.19353914,0.97969776,0.052295074,0.2672666,0.001361527,0.9636217,9.617508,0.04069519,2.1068878,9.586075,0.033355713,2.0672302,-0.0010681152,-0.019180298,-0.0010681152,-19.934082,5.1742554,6.42395,0,0.0,0.0,0.0,0.0
0.061523438,0.1234449,0.80099976,-0.5857992,-0.17070043,0.5986551,0.7826069,0.9775596,0.0033873508,0.21063192,0.9344208,0.21818732,-0.28151748,-0.2093264,0.9759059,0.06156404,0.2881671,0.0014023244,0.9575792,9.583984,0.002380371,2.1212616,9.586533,0.033218384,2.0655823,-0.012786865,-0.03515625,0.015960693,-19.036865,7.5057983,6.251526,0,0.0,0.0,0.0,0.0
0.065917969,0.1233281,0.80087084,-0.5860001,-0.17046884,0.5988275,0.7825253,0.97761464,0.0033873853,0.21037577,0.9251603,0.23200352,-0.3004211,-0.22111882,0.9727139,0.07024375,0.3085206,0.0014420251,0.95121664,9.756363,0.04069519,1.9871826,9.586975,0.033218384,2.0630493,-0.015960693,-0.043685913,-0.0032043457,-19.036865,7.5057983,6.251526,0,0.0,0.0,0.0,0.0
0.0703125,0.123315506,0.80085695,-0.5860217,-0.17034225,0.5988465,0.78253853,0.9776384,0.0033251208,0.21026683,0.91553605,0.24549398,-0.31863192,-0.23235562,0.969397,0.07924864,0.32833588,0.0014809322,0.9445599,9.593552,-0.01675415,1.9440765,9.58728,0.032608032,2.0619965,0.014907837,-0.046875,0.0053253174,-19.036865,7.5057983,6.251526,0,0.0,0.0,0.0,0.0
0.074707032,0.123213075,0.8007438,-0.58619785,-0.17011644,0.5989978,0.78247166,0.9776905,0.0033111407,0.21002404,0.91553605,0.24549398,-0.31863192,-0.23235562,0.969397,0.07924864,0.32833588,0.0014809322,0.9445599,9.593552,-0.01675415,1.9440765,9.587723,0.032470703,2.0596008,0.014907837,-0.046875,0.0053253174,-19.036865,7.5057983,6.251526,0,0.0,0.0,0.0,0.0
0.080322266,0.11531472,0.8268633,-0.550454,-0.17527184,0.5623933,0.80808014,0.97774345,0.0032955545,0.20977807,0.89535344,0.27152526,-0.35301015,-0.25319266,0.96243006,0.09809106,0.36638176,0.0015534086,0.9304633,9.598343,-0.08378601,2.0302734,9.588318,0.032318115,2.0572052,-0.025543213,-0.043685913,-0.0063934326,-19.754028,7.147217,6.5979004,0,0.0,0.0,0.0,0.0
0.0859375,0.11524806,0.8267914,-0.5505758,-0.17509943,0.5624989,0.80804384,0.97778213,0.0032800203,0.20959765,0.8846309,0.28494418,-0.36910033,-0.26360983,0.9585428,0.10819227,0.38462722,0.0015882514,0.92307067,9.646225,0.07421875,2.0446472,9.588623,0.032165527,2.05542,-0.017028809,-0.055389404,-0.01171875,-19.754028,7.147217,6.5979004,0,0.0,0.0,0.0,0.0
0.091583252,0.10449313,0.8586409,-0.5018137,-0.18138817,0.51256686,0.83926976,0.97784436,0.0033251492,0.20930701,0.87367886,0.29803833,-0.38452357,-0.27347106,0.95455253,0.11850346,0.4023665,0.001622087,0.9154773,9.50737,-0.07899475,1.9584503,9.589218,0.032608032,2.0525665,-0.008514404,-0.03729248,0.004257202,-19.216919,5.8914185,6.0791016,0,0.0,0.0,0.0,0.0
0.097198487,0.104467124,0.85861224,-0.50186825,-0.18120602,0.51261526,0.8392795,0.97788084,0.0032644367,0.20913713,0.87367886,0.29803833,-0.38452357,-0.27347106,0.95455253,0.11850346,0.4023665,0.001622087,0.9154773,9.50737,-0.07899475,1.9584503,9.589661,0.03201294,2.0509186,-0.008514404,-0.03729248,0.004257202,-19.216919,5.8914185,6.0791016,0,0.0,0.0,0.0,0.0
0.102844239,0.104444504,0.85858727,-0.5019155,-0.1811484,0.512657,0.8392664,0.977894,0.0032644286,0.20907591,0.8505267,0.3255014,-0.4131019,-0.29357177,0.94554,0.14060456,0.4363714,0.001687124,0.899765,9.564835,0.03590393,1.8578949,9.589813,0.03201294,2.0503235,-0.010650635,-0.030899048,0.003189087,-19.216919,5.8914185,6.0791016,0,0.0,0.0,0.0,0.0
0.106842041,0.12612052,0.78816557,-0.60240227,-0.16665289,0.6154547,0.770352,0.97791636,0.0032348877,0.20897156,0.83871293,0.33872494,-0.4264105,-0.30276954,0.9408838,0.15188204,0.452649,0.0017186701,0.8916871,9.631866,-0.03590393,1.7860718,9.589966,0.031723022,2.049286,0.0010681152,-0.022369385,-0.0021362305,-19.754028,7.147217,5.215454,0,0.0,0.0,0.0,0.0
0.110809326,0.1261138,0.78815657,-0.6024155,-0.16663934,0.61546624,0.77034575,0.9779196,0.0032348982,0.20895669,0.82802826,0.34919757,-0.43866876,-0.30930278,0.93704796,0.16208915,0.46765482,0.001467082,0.88390994,9.660599,0.03111267,2.0063324,9.589966,0.031723022,2.0491333,-0.003189087,0.013824463,0.003189087,-19.754028,7.147217,5.215454,0,0.0,0.0,0.0,0.0
0.114807129,0.1261138,0.78815657,-0.6024155,-0.16663934,0.61546624,0.77034575,0.9779196,0.0032348982,0.20895669,0.81680405,0.35950425,-0.45120704,-0.3154613,0.9331422,0.17242314,0.48302722,0.0015024383,0.87560403,9.679749,0.002380371,2.0733643,9.589966,0.031723022,2.0491333,-0.003189087,0.0053253174,0.0,-19.754028,7.147217,5.215454,0,0.0,0.0,0.0,0.0
0.118804932,0.10644795,0.8529054,-0.51109815,-0.17990996,0.5220558,0.83372074,0.9779066,0.003203787,0.20901793,0.80552983,0.36956245,-0.4631903,-0.32119834,0.9292046,0.18278512,0.49794906,0.0015370876,0.8672049,9.550461,0.09336853,2.0254822,9.589813,0.031417847,2.0497284,0.0032043457,0.022354126,0.0063934326,-19.395447,6.7886353,7.2891235,0,0.0,0.0,0.0,0.0
0.122772217,0.106449895,0.8529072,-0.5110947,-0.17994367,0.5220527,0.83371544,0.9779002,0.003219326,0.20904769,0.7934817,0.38148102,-0.47419304,-0.328333,0.92437536,0.19423611,0.5124297,0.0015704216,0.8587277,9.646225,0.07899475,2.1260376,9.589813,0.031570435,2.0500336,0.015975952,0.018096924,0.015960693,-19.395447,6.7886353,7.2891235,0,0.0,0.0,0.0,0.0
0.12677002,0.10643422,0.8528924,-0.5111226,-0.17993592,0.5220767,0.8337021,0.97790337,0.003234896,0.2090328,0.7814111,0.39310005,-0.48463285,-0.3349851,0.9194943,0.20570657,0.5264804,0.0016033998,0.8501857,9.70369,0.06463623,2.0542145,9.589813,0.031723022,2.049881,-0.008514404,0.017028809,-0.010650635,-19.395447,6.7886353,7.2891235,0,0.0,0.0,0.0,0.0
0.130767823,0.12007404,0.8099302,-0.57410395,-0.1712288,0.58651733,0.79163,0.9778869,0.0032488971,0.20910886,0.7693384,0.40442568,-0.49452826,-0.34117025,0.91456944,0.21717657,0.5401122,0.0016360297,0.8415914,9.612717,0.08378601,1.9776001,9.589661,0.03186035,2.0506287,0.0095825195,0.018096924,0.0,-18.319702,7.147217,6.251526,0,0.0,0.0,0.0,0.0
0.134735108,0.12007404,0.8099302,-0.57410395,-0.1712288,0.58651733,0.79163,0.9778869,0.0032488971,0.20910886,0.75781995,0.4140551,-0.5042492,-0.34573165,0.9102503,0.2278465,0.553334,0.001668287,0.8329578,9.617508,-0.026321411,2.2649078,9.589661,0.03186035,2.0506287,0.0095825195,0.025543213,0.0010681152,-18.319702,7.147217,6.251526,0,0.0,0.0,0.0,0.0
0.13873291,0.12012585,0.80998534,-0.5740152,-0.17128444,0.58644116,0.79167426,0.97787076,0.0032193265,0.20918465,0.75781995,0.4140551,-0.5042492,-0.34573165,0.9102503,0.2278465,0.553334,0.001668287,0.8329578,9.617508,-0.026321411,2.2649078,9.589523,0.031570435,2.0513763,0.0095825195,0.025543213,0.0010681152,-18.319702,7.147217,6.251526,0,0.0,0.0,0.0,0.0
0.142730713,0.12015052,0.8100117,-0.573973,-0.17136037,0.58640486,0.79168487,0.9778545,0.0032348838,0.20926073,0.7349118,0.43261087,-0.522257,-0.3537478,0.9015791,0.24903339,0.5785906,0.0017297083,0.8156163,9.622284,0.05505371,2.2601166,9.589371,0.031723022,2.052124,0.0,0.0063934326,-0.0010681152,-18.319702,7.147217,6.251526,0,0.0,0.0,0.0,0.0
0.146697998,0.12015052,0.8100117,-0.573973,-0.17136037,0.58640486,0.79168487,0.9778545,0.0032348838,0.20926073,0.72354925,0.44154727,-0.5305776,-0.35723102,0.8972363,0.2595248,0.5906459,0.0017598118,0.806929,9.679749,0.026321411,2.0829468,9.589371,0.031723022,2.052124,-0.0095825195,0.0,0.0,-18.319702,7.147217,6.251526,0,0.0,0.0,0.0,0.0
0.150695801,0.12018064,0.8100437,-0.5739214,-0.17139553,0.58636063,0.79171,0.97784466,0.0032193428,0.20930707,0.71226317,0.45026267,-0.5384651,-0.36038226,0.8928943,0.26993385,0.60233355,0.0017893133,0.79824245,9.631866,0.002380371,2.1930847,9.589218,0.031570435,2.0525665,-0.0010681152,0.0021209717,0.007446289,-18.319702,7.147217,6.251526,0,0.0,0.0,0.0,0.0
0.154693604,0.11309203,0.83333004,-0.5410835,-0.17613316,0.5527667,0.8145098,0.9778483,0.0031881842,0.20929052,0.70106477,0.45876327,-0.54593456,-0.36321637,0.88855666,0.2802515,0.61366284,0.0018179137,0.78956604,9.622284,-0.05505371,1.9967499,9.589371,0.03126526,2.0524292,0.004257202,0.0063934326,0.0021209717,-20.11261,6.7886353,6.251526,0,0.0,0.0,0.0,0.0
0.158660889,0.11309203,0.83333004,-0.5410835,-0.17613316,0.5527667,0.8145098,0.9778483,0.0031881842,0.20929052,0.68966395,0.46777612,-0.5527651,-0.36630967,0.88384503,0.2909212,0.62464464,0.0018453192,0.7809069,9.631866,0.03590393,2.0590057,9.589371,0.03126526,2.0524292,-0.0010681152,0.0084991455,0.0095825195,-20.11261,6.7886353,6.251526,0,0.0,0.0,0.0,0.0
0.162658692,0.11310477,0.83334464,-0.54105836,-0.17616235,0.5527447,0.81451845,0.9778416,0.003188213,0.20932198,0.67837065,0.4765618,-0.55919766,-0.36908266,0.879139,0.30148408,0.6352883,0.0018721765,0.7722729,9.660599,0.026321411,2.15477,9.589218,0.03126526,2.052719,-0.004257202,0.010635376,0.007446289,-20.11261,6.7886353,6.251526,0,0.0,0.0,0.0,0.0
0.166931153,0.10511148,0.85721385,-0.50411904,-0.18102817,0.5149507,0.8378869,0.9778447,0.0031882233,0.20930709,0.6671939,0.48512632,-0.5652475,-0.37155005,0.87444204,0.31193218,0.6456027,0.0018984972,0.7636711,9.631866,0.03111267,2.039856,9.589218,0.03126526,2.0525665,0.0010681152,-0.0053253174,-0.0053253174,-18.499756,6.25,6.7703247,0,0.0,0.0,0.0,0.0
0.171203614,0.10511722,0.85721934,-0.5041084,-0.18104206,0.5149415,0.8378896,0.9778416,0.003188213,0.20932198,0.65580636,0.49425203,-0.5706426,-0.37431154,0.8693165,0.32276875,0.65559816,0.0019242918,0.7551076,9.588776,-0.002380371,2.1020966,9.589218,0.03126526,2.052719,-0.01171875,0.0053253174,-0.0010681152,-18.499756,6.25,6.7703247,0,0.0,0.0,0.0,0.0
0.175506592,0.10511722,0.85721934,-0.5041084,-0.18104206,0.5149415,0.8378896,0.9778416,0.003188213,0.20932198,0.6445524,0.5031429,-0.57567304,-0.37676305,0.864201,0.33347595,0.66528326,0.0019495701,0.7465885,9.617508,0.06463623,2.039856,9.589218,0.03126526,2.052719,-0.0021362305,-0.0053253174,0.0053253174,-18.499756,6.25,6.7703247,0,0.0,0.0,0.0,0.0
0.179779053,0.10506081,0.8573644,-0.5038734,-0.18109225,0.5146999,0.83802724,0.9778384,0.0032037625,0.20933685,0.63316697,0.51205146,-0.58043337,-0.3781734,0.8589543,0.3452281,0.67534024,9.1743877E-4,0.73750573,9.588776,0.05505371,2.0829468,9.589218,0.031417847,2.0528717,-0.014892578,-0.0138549805,0.007446289,-20.829773,6.4300537,6.5979004,0,0.0,0.0,0.0,0.0
0.184173584,0.10503092,0.8573315,-0.5039357,-0.18107574,0.51475453,0.8379973,0.97784466,0.0032349029,0.20930707,0.62220937,0.52048826,-0.58476275,-0.38004908,0.85386825,0.35562852,0.68441087,9.6316525E-4,0.7290959,9.708481,0.09336853,2.0111237,9.589218,0.031723022,2.0525665,-0.014892578,-0.0053253174,-0.010650635,-20.829773,6.4300537,6.5979004,0,0.0,0.0,0.0,0.0
0.188598633,0.105040334,0.8573419,-0.5039161,-0.18107,0.51473737,0.83800906,0.97784466,0.0032193428,0.20930707,0.6114029,0.5287062,-0.58877516,-0.38165653,0.84880424,0.36588192,0.6931989,0.0010086001,0.7207456,9.765945,0.01675415,2.0925293,9.589218,0.031570435,2.0525665,-0.004257202,-0.012786865,-0.008529663,-20.829773,6.4300537,6.5979004,0,0.0,0.0,0.0,0.0
0.193023682,0.122155145,0.8032929,-0.5829226,-0.16999339,0.5955757,0.78510624,0.9778447,0.0031882233,0.20930709,0.60075235,0.5367124,-0.5924833,-0.38300967,0.8437646,0.37598523,0.70171237,0.0010528149,0.7124596,9.627075,-0.05027771,2.0590057,9.589218,0.03126526,2.0525665,-0.013839722,-0.0010681152,-0.0032043457,-19.754028,6.7886353,5.215454,0,0.0,0.0,0.0,0.0
0.197448731,0.12215028,0.8032864,-0.58293253,-0.17003408,0.59558433,0.785091,0.97783834,0.003219322,0.20933683,0.5910079,0.5428789,-0.5966508,-0.38297158,0.8398103,0.38477454,0.70995945,0.0010955231,0.7042417,9.574402,0.07899475,2.1164703,9.589218,0.031570435,2.0528717,0.0021362305,-0.010650635,0.0021209717,-19.754028,6.7886353,5.215454,0,0.0,0.0,0.0,0.0
0.202850342,0.12216156,0.8033014,-0.58290935,-0.17000708,0.5955641,0.7851121,0.9778416,0.003188213,0.20932198,0.5814129,0.54889363,-0.60056204,-0.3827661,0.8358914,0.39341536,0.71794784,0.0011379992,0.69609594,9.603134,-0.02154541,2.039856,9.589218,0.03126526,2.052719,-0.004257202,0.007446289,-0.0021362305,-19.754028,6.7886353,5.215454,0,0.0,0.0,0.0,0.0
0.208221436,0.11527242,0.82645243,-0.5510796,-0.17475162,0.5629976,0.80777204,0.9778416,0.003188213,0.20932198,0.57196915,0.554761,-0.6042281,-0.38240188,0.8320089,0.40190795,0.72568595,0.0011790035,0.68802506,9.636658,0.02154541,2.0494232,9.589218,0.03126526,2.052719,-0.014892578,0.0053253174,-0.0032043457,-18.499756,7.3257446,7.116699,0,0.0,0.0,0.0,0.0
0.213623047,0.115268454,0.8264486,-0.551086,-0.17471625,0.5630031,0.8077757,0.9778483,0.0031726244,0.20929052,0.56237257,0.56114614,-0.60733193,-0.3823378,0.8277159,0.41073623,0.73318136,0.0012191876,0.6800321,9.68454,-0.011962891,1.9919739,9.589371,0.03111267,2.0524292,0.007461548,0.004257202,0.0021209717,-18.499756,7.3257446,7.116699,0,0.0,0.0,0.0,0.0
0.218994141,0.11532011,0.82649744,-0.55100197,-0.1747728,0.5629316,0.8078132,0.9778321,0.0031430589,0.20936662,0.5529364,0.56737125,-0.6102059,-0.3821089,0.8234612,0.4194097,0.74044186,0.0012582564,0.6721192,9.583984,-0.007171631,2.1452026,9.589218,0.030822754,2.0531769,0.0021362305,0.0063934326,-0.0010681152,-18.499756,7.3257446,7.116699,0,0.0,0.0,0.0,0.0
0.224395752,0.11372313,0.8315654,-0.54365987,-0.17579843,0.55541795,0.8127765,0.9778353,0.0031430693,0.20935175,0.54366225,0.5734419,-0.61285853,-0.38172632,0.8192452,0.42792794,0.7474733,0.0012959525,0.6642906,9.579193,0.03590393,2.0254822,9.589218,0.030822754,2.0530243,-0.024490356,0.010635376,0.0,-19.754028,6.7886353,6.251526,0,0.0,0.0,0.0,0.0
0.229766846,0.11377619,0.8316253,-0.5435573,-0.1758362,0.55532867,0.81282943,0.9778223,0.0030963982,0.20941299,0.53448117,0.57950854,-0.61522335,-0.3812946,0.81496507,0.43640167,0.754284,0.0013328949,0.65654695,9.536102,0.01675415,1.9345093,9.589066,0.03036499,2.0536194,-0.0021362305,0.004257202,-0.004272461,-19.754028,6.7886353,6.251526,0,0.0,0.0,0.0,0.0
0.234558106,0.113772966,0.83162165,-0.54356354,-0.17585628,0.5553341,0.81282145,0.9778191,0.0031119478,0.20942786,0.5254645,0.58542454,-0.6173858,-0.3807216,0.81072575,0.44471878,0.7608798,0.001368165,0.6488914,9.631866,0.05505371,2.1020966,9.589066,0.030517578,2.053772,-0.0095825195,0.023422241,0.0053253174,-19.754028,6.7886353,6.251526,0,0.0,0.0,0.0,0.0
0.238983155,0.10605723,0.85503644,-0.5076068,-0.18082772,0.5185584,0.8357024,0.9777797,0.0031570895,0.20961113,0.5166121,0.59119207,-0.61935765,-0.3800152,0.8065295,0.45287803,0.7672681,0.0014030407,0.6413249,9.540894,0.14604187,2.173935,9.588623,0.030960083,2.0555573,-0.007461548,0.022354126,0.0053253174,-19.216919,6.6085815,7.116699,0,0.0,0.0,0.0,0.0
0.243377686,0.10601565,0.85499674,-0.50768214,-0.1808164,0.51862335,0.83566445,0.9777863,0.0032037396,0.20957966,0.5089815,0.59716934,-0.6199409,-0.38066515,0.8021132,0.4601179,0.772031,0.0017983756,0.6355823,9.631866,0.15083313,1.953659,9.588776,0.031417847,2.0552673,0.008529663,0.034072876,0.0,-19.216919,6.6085815,7.116699,0,0.0,0.0,0.0,0.0
0.247772217,0.10606334,0.8550422,-0.50759566,-0.18093032,0.5185485,0.8356863,0.9777601,0.0032037557,0.20970206,0.5001069,0.60333705,-0.6211904,-0.3801381,0.7974842,0.4685232,0.77806693,0.0018264829,0.6281787,9.516937,-0.026321411,2.0446472,9.58847,0.031417847,2.0564575,-0.0063934326,0.02128601,-0.008529663,-19.216919,6.6085815,7.116699,0,0.0,0.0,0.0,0.0
0.252166748,0.13992666,0.7352473,-0.66319823,-0.15640965,0.6777914,0.71842533,0.9777304,0.0032037604,0.20984085,0.49140394,0.60934806,-0.6222677,-0.37947935,0.7929007,0.47676402,0.7839117,0.0018540284,0.6208695,9.598343,0.002380371,2.1643524,9.588165,0.031417847,2.0578156,0.010650635,0.029815674,0.0,-19.395447,7.147217,3.831482,0,0.0,0.0,0.0,0.0
0.25656128,0.13995428,0.73529243,-0.66314244,-0.15657015,0.67774206,0.71843684,0.97770065,0.0032800029,0.20997775,0.48438072,0.612053,-0.62511307,-0.3767658,0.79081446,0.4823483,0.7895712,0.0018810229,0.613656,9.765945,0.07421875,2.197876,9.587875,0.032165527,2.0591583,-0.012786865,0.022354126,-0.008529663,-19.395447,7.147217,3.831482,0,0.0,0.0,0.0,0.0
0.260955811,0.13997635,0.7353283,-0.66309786,-0.15658802,0.67770314,0.7184697,0.9776947,0.003264423,0.21000603,0.4774826,0.61469793,-0.62781906,-0.37403676,0.7887603,0.487805,0.79505146,0.0019090027,0.6065389,9.641449,0.011962891,2.1643524,9.587875,0.03201294,2.0594482,0.0010681152,0.025543213,-0.010650635,-19.395447,7.147217,3.831482,0,0.0,0.0,0.0,0.0
0.265350342,0.11301284,0.8346605,-0.5390455,-0.17709167,0.55075514,0.8156637,0.97768426,0.0032799998,0.2100538,0.47070813,0.6172841,-0.6303921,-0.37129292,0.786738,0.49313787,0.80035955,0.0019361111,0.59951717,9.651016,0.02154541,2.1020966,9.587723,0.032165527,2.059906,-0.007461548,0.011703491,-0.0021362305,-18.319702,6.071472,5.5603027,0,0.0,0.0,0.0,0.0
0.269744873,0.1130188,0.8346674,-0.5390335,-0.1771055,0.55074453,0.81566787,0.9776811,0.0032799894,0.21006869,0.47070813,0.6172841,-0.6303921,-0.37129292,0.786738,0.49313787,0.80035955,0.0019361111,0.59951717,9.651016,0.02154541,2.1020966,9.587723,0.032165527,2.0600586,-0.007461548,0.011703491,-0.0021362305,-18.319702,6.071472,5.5603027,0,0.0,0.0,0.0,0.0
0.274139405,0.11303341,0.8346845,-0.53900397,-0.17711179,0.5507188,0.81568384,0.97767824,0.0032644202,0.21008208,0.45518005,0.6272731,-0.63193315,-0.3686899,0.7787968,0.5074871,0.8104806,0.0019893288,0.5857621,9.631866,0.04548645,2.1452026,9.587723,0.03201294,2.060196,0.007461548,0.011703491,-0.007461548,-18.319702,6.071472,5.5603027,0,0.0,0.0,0.0,0.0
0.278533936,0.11304064,0.83469296,-0.5389894,-0.17712864,0.550706,0.81568897,0.9776744,0.0032644593,0.21010016,0.45518005,0.6272731,-0.63193315,-0.3686899,0.7787968,0.5074871,0.8104806,0.0019893288,0.5857621,9.631866,0.04548645,2.1452026,9.58757,0.03201294,2.0603485,0.007461548,0.011703491,-0.007461548,-18.319702,6.071472,5.5603027,0,0.0,0.0,0.0,0.0
0.282928467,0.102016725,0.86675924,-0.48818117,-0.18373327,0.49871585,0.84706813,0.977668,0.0032799975,0.2101299,0.44027936,0.6367719,-0.6329895,-0.3657743,0.77104956,0.5212406,0.8199776,0.002039824,0.572392,9.564835,0.04069519,2.1308289,9.58757,0.032165527,2.0606537,-0.0053253174,0.0063934326,0.0010681152,-19.5755,5.532837,5.732727,0,0.0,0.0,0.0,0.0
0.287322998,0.10202366,0.8667674,-0.48816535,-0.18378268,0.4987017,0.84706587,0.977658,0.003295576,0.21017621,0.43261442,0.6422819,-0.6327075,-0.36474258,0.7664657,0.5286711,0.82450444,0.0020646276,0.5658517,9.627075,0.06942749,2.197876,9.587418,0.032318115,2.0610962,-0.0010681152,-0.007461548,0.0021209717,-19.5755,5.532837,5.732727,0,0.0,0.0,0.0,0.0
0.29171753,0.10505113,0.85854197,-0.50186634,-0.18215628,0.5127327,0.83900183,0.9776417,0.0032800084,0.21025197,0.42511305,0.64764994,-0.63231987,-0.3636218,0.7619351,0.53594226,0.82888967,0.0020892464,0.5594082,9.6558075,0.007171631,2.2553253,9.58728,0.032165527,2.0618439,-0.0021362305,0.0063934326,-0.0021362305,-19.754028,6.071472,6.251526,0,0.0,0.0,0.0,0.0
0.296112061,0.10504357,0.8585336,-0.50188226,-0.18210725,0.5127468,0.8390039,0.97765166,0.003264435,0.21020597,0.41789192,0.6526332,-0.63200974,-0.36228198,0.7576711,0.5428501,0.8331375,0.0021130617,0.5530619,9.502579,0.007171631,1.9201355,9.587418,0.03201294,2.0614014,-0.0010681152,0.0084991455,0.003189087,-19.754028,6.071472,6.251526,0,0.0,0.0,0.0,0.0
0.300506592,0.10503966,0.8585294,-0.5018904,-0.18212697,0.5127539,0.8389954,0.97764844,0.003279984,0.21022084,0.41082624,0.6574893,-0.6316088,-0.36087117,0.7534609,0.5496078,0.83725375,0.0021360891,0.5468104,9.6558075,0.05027771,2.1212616,9.587418,0.032165527,2.061554,-0.008514404,-0.010650635,-0.0032043457,-19.754028,6.071472,6.251526,0,0.0,0.0,0.0,0.0
0.304901123,0.15337053,0.6727889,-0.72376263,-0.14378694,0.7398271,0.65725255,0.97765166,0.003264435,0.21020597,0.40391412,0.6622218,-0.6311225,-0.35939574,0.7493048,0.5562167,0.84124196,0.002158967,0.5406545,9.612717,0.011962891,2.0254822,9.587418,0.03201294,2.0614014,-0.004257202,-0.0053253174,0.0,-17.782593,9.477234,5.041504,0,0.0,0.0,0.0,0.0
0.309295655,0.15344094,0.67287207,-0.72367054,-0.1438437,0.7397518,0.6573251,0.9776323,0.003234854,0.21029662,0.39925364,0.66243446,-0.633859,-0.35551548,0.7491167,0.558957,0.84510666,0.0021810764,0.5345933,9.603134,-0.06463623,2.3175812,9.58728,0.031723022,2.0623016,0.004257202,-0.0053253174,0.0053253174,-17.782593,9.477234,5.041504,0,0.0,0.0,0.0,0.0
0.313690186,0.15345183,0.6728849,-0.72365636,-0.14385854,0.7397402,0.657335,0.9776284,0.0032348926,0.2103147,0.39463633,0.66315323,-0.6359953,-0.35128248,0.7484823,0.56247216,0.84903646,0.0014420578,0.5283324,9.512161,0.04548645,2.0781555,9.587128,0.031723022,2.0624542,-0.014892578,-0.0053253174,0.004257202,-17.782593,9.477234,5.041504,0,0.0,0.0,0.0,0.0
0.318084717,0.12453068,0.796711,-0.5913914,-0.16947351,0.60435164,0.77848434,0.9776353,0.0032799873,0.21028171,0.39013073,0.663349,-0.6385657,-0.34752095,0.7483088,0.5650338,0.8526589,0.0014779145,0.52246594,9.674957,0.12689209,2.0254822,9.58728,0.032165527,2.062149,-0.008514404,-0.008529663,0.0010681152,-20.292664,7.684326,6.0791016,0,0.0,0.0,0.0,0.0
0.322479248,0.12451251,0.7966892,-0.5914245,-0.16948743,0.6043802,0.7784592,0.97763526,0.0033111065,0.2102817,0.38443205,0.66628546,-0.63896453,-0.34523177,0.7456953,0.5698716,0.85617,0.001513956,0.51669204,9.674957,0.11730957,2.0542145,9.58728,0.032470703,2.062149,-0.014892578,-0.0138549805,0.007446289,-20.292664,7.684326,6.0791016,0,0.0,0.0,0.0,0.0
0.32687378,0.12450342,0.79667836,-0.59144104,-0.16951708,0.6043942,0.7784417,0.9776312,0.003340709,0.21029975,0.3788535,0.6691527,-0.6393002,-0.3429351,0.74312335,0.57459825,0.8595729,0.001549899,0.5110108,9.646225,0.12210083,2.1499786,9.587128,0.03276062,2.0623016,-0.0010681152,0.0063934326,-0.0053253174,-20.292664,7.684326,6.0791016,0,0.0,0.0,0.0,0.0
0.331268311,0.11621006,0.8247835,-0.553378,-0.17534092,0.5654384,0.8059372,0.977625,0.0033718075,0.21032797,0.37339306,0.67195266,-0.63957584,-0.3406337,0.74059236,0.57921636,0.862871,0.0015857152,0.50542176,9.708481,0.10293579,2.1452026,9.587128,0.033065796,2.0625916,-0.010650635,0.0010681152,-0.0138549805,-18.858337,6.967163,6.42395,0,0.0,0.0,0.0,0.0
0.335662842,0.11620695,0.8247802,-0.5533836,-0.17536113,0.56544316,0.8059295,0.9776218,0.0033873562,0.21034284,0.36772338,0.67539626,-0.6392334,-0.33868355,0.7374532,0.58434254,0.8660675,0.0016214371,0.49992436,9.646225,0.06463623,2.221817,9.587128,0.033218384,2.0627441,-0.007461548,-0.0021362305,-0.014923096,-18.858337,6.967163,6.42395,0,0.0,0.0,0.0,0.0
0.340057373,0.116218805,0.8247928,-0.5533624,-0.17541088,0.5654248,0.80593157,0.9776114,0.003401378,0.21039064,0.36772338,0.67539626,-0.6392334,-0.33868355,0.7374532,0.58434254,0.8660675,0.0016214371,0.49992436,9.646225,0.06463623,2.221817,9.586975,0.033355713,2.063202,-0.007461548,-0.0021362305,-0.014923096,-18.858337,6.967163,6.42395,0,0.0,0.0,0.0,0.0
0.344451905,0.09944267,0.8737793,-0.47604707,-0.18545185,0.4863109,0.853879,0.97760874,0.003371805,0.21040405,0.35675576,0.68203676,-0.63839734,-0.33473384,0.7313159,0.59424764,0.8721689,0.0016919229,0.489202,9.607925,-0.03111267,2.1212616,9.586975,0.033065796,2.0633392,0.0021362305,-0.015975952,0.0,-20.11261,6.071472,6.942749,0,0.0,0.0,0.0,0.0
0.348846436,0.09946921,0.87380564,-0.47599322,-0.18549159,0.4862637,0.85389715,0.9775984,0.0033562633,0.21045187,0.3508333,0.68659246,-0.63679415,-0.33339196,0.72704047,0.60021824,0.8750804,0.0017255206,0.48397443,9.617508,-0.03111267,2.1691437,9.5868225,0.032913208,2.063797,-0.0021362305,-0.017044067,0.01171875,-20.11261,6.071472,6.942749,0,0.0,0.0,0.0,0.0
0.353240967,0.099437945,0.8737747,-0.47605672,-0.1854392,0.48631936,0.85387695,0.97761154,0.0033718147,0.21039066,0.3450474,0.69103175,-0.63515145,-0.3320072,0.72282225,0.60605216,0.87790287,0.0017581354,0.47883546,9.674957,0.08378601,1.9440765,9.586975,0.033065796,2.063202,-0.004257202,-0.004257202,-0.0021362305,-20.11261,6.071472,6.942749,0,0.0,0.0,0.0,0.0
0.357635498,0.099421054,0.8737579,-0.47609094,-0.18539402,0.4863494,0.8538696,0.97762185,0.0033717966,0.21034285,0.33939442,0.69535625,-0.63347536,-0.33058158,0.718663,0.611751,0.8806402,0.0017904091,0.47378215,9.612717,0.03111267,1.9440765,9.587128,0.033065796,2.0627441,0.0032043457,-0.017044067,0.004257202,-20.11261,6.071472,6.942749,0,0.0,0.0,0.0,0.0
0.36203003,0.09942432,0.8737611,-0.47608432,-0.18546219,0.48634338,0.8538582,0.97760856,0.0034013682,0.21040402,0.33387193,0.6995694,-0.63176906,-0.32911897,0.7145623,0.6173179,0.88329506,0.0018220368,0.4688139,9.52652,0.10772705,2.2074432,9.586975,0.033355713,2.0633392,-0.0063934326,-0.010650635,0.0063934326,-20.11261,6.071472,6.942749,0,0.0,0.0,0.0,0.0
0.366424561,0.099428274,0.87376505,-0.47607628,-0.18544464,0.48633638,0.85386586,0.9776114,0.003387374,0.21039064,0.32847822,0.70367503,-0.63003457,-0.327625,0.71051955,0.622755,0.88586897,0.0018536235,0.4639317,9.574402,0.002380371,1.9919739,9.586975,0.033218384,2.063202,-0.0053253174,-0.007461548,0.003189087,-20.11261,6.071472,6.942749,0,0.0,0.0,0.0,0.0
0.370819092,0.105728865,0.85649276,-0.50521433,-0.18188825,0.5161478,0.83696365,0.9776186,0.0034013486,0.2103577,0.32321012,0.70767593,-0.62827545,-0.32610142,0.7065347,0.6280658,0.8883654,0.0018842985,0.45913324,9.674957,0.06942749,2.0015411,9.587128,0.033355713,2.0628967,0.0010681152,-0.0053253174,0.0063934326,-19.934082,6.25,6.42395,0,0.0,0.0,0.0,0.0
0.375213623,0.10570328,0.856465,-0.5052667,-0.18185352,0.51619375,0.8369428,0.9776278,0.0034169406,0.21031456,0.318288,0.7110906,-0.62693137,-0.32433206,0.70309776,0.6328209,0.89078695,0.0019146396,0.45441705,9.674957,0.04548645,1.9871826,9.587128,0.0335083,2.0624542,-0.0021362305,0.0,0.0021209717,-19.934082,6.25,6.42395,0,0.0,0.0,0.0,0.0
0.379608155,0.10572329,0.85648674,-0.5052258,-0.18187432,0.51615787,0.8369605,0.9776218,0.00340136,0.21034284,0.31337744,0.7142021,-0.6258673,-0.32264975,0.69993585,0.63717103,0.8931359,0.0022609055,0.44978124,9.569611,0.02154541,2.1212616,9.587128,0.033355713,2.0627441,0.0063934326,0.0,-0.0021362305,-19.934082,6.25,6.42395,0,0.0,0.0,0.0,0.0
0.384002686,0.115931325,0.82568854,-0.5520855,-0.17563549,0.5641159,0.80679953,0.9776053,0.0034324762,0.21041888,0.30868047,0.71745527,-0.62447923,-0.32085708,0.6966008,0.641715,0.89541453,0.0022837145,0.44522765,9.469055,0.09336853,2.2313843,9.586975,0.03366089,2.0634918,0.0010681152,0.0053253174,0.0,-19.934082,7.3257446,6.7703247,0,0.0,0.0,0.0,0.0
0.388397217,0.115947835,0.82570595,-0.5520559,-0.17569816,0.5640902,0.8068038,0.9775921,0.0034480442,0.21048006,0.30445662,0.7198374,-0.62381107,-0.31871116,0.6941389,0.6454413,0.8976243,0.0023066897,0.44075537,9.670166,0.07421875,2.2505493,9.5868225,0.033813477,2.064087,-0.004257202,-0.0053253174,-0.0138549805,-19.934082,7.3257446,6.7703247,0,0.0,0.0,0.0,0.0
0.392791748,0.1159447,0.8257026,-0.5520615,-0.17571834,0.56409496,0.80679613,0.9775889,0.0034635926,0.21049494,0.30032802,0.7221641,-0.6231228,-0.3165773,0.6917178,0.6490803,0.8997677,0.002329517,0.436363,9.603134,0.08378601,2.1068878,9.5868225,0.033966064,2.0642395,0.0010681152,-0.0063934326,0.0,-19.934082,7.3257446,6.7703247,0,0.0,0.0,0.0,0.0
0.39718628,0.12552528,0.7932463,-0.595822,-0.16906668,0.60889125,0.7750278,0.9775785,0.0034480512,0.21054274,0.29629233,0.72443634,-0.622417,-0.3144558,0.68933773,0.6526339,0.90184724,0.0023521986,0.4320487,9.660599,-0.011962891,2.2361755,9.58667,0.033813477,2.0646973,-0.007461548,0.0,0.003189087,-19.395447,7.5057983,5.9066772,0,0.0,0.0,0.0,0.0
0.401580811,0.12554961,0.793275,-0.5957785,-0.16906464,0.60885394,0.77505744,0.9775758,0.003416922,0.21055613,0.29269367,0.72589487,-0.6224204,-0.31202415,0.68780166,0.65541583,0.90386474,0.0023741156,0.4278119,9.622284,-0.05027771,2.0829468,9.58667,0.0335083,2.0648346,-0.0063934326,-0.008529663,0.0,-19.395447,7.5057983,5.9066772,0,0.0,0.0,0.0,0.0
0.405975342,0.12554574,0.79327047,-0.59578544,-0.16903207,0.60886,0.7750599,0.977582,0.0034013838,0.21052791,0.2891722,0.7273216,-0.62240076,-0.30962104,0.6862926,0.65813166,0.90582246,0.002394972,0.4236508,9.627075,-0.01675415,1.9919739,9.58667,0.033355713,2.0645447,-0.013839722,-0.014923096,0.0053253174,-19.395447,7.5057983,5.9066772,0,0.0,0.0,0.0,0.0
0.410369873,0.119303316,0.8148475,-0.5672656,-0.17341982,0.5796654,0.7961868,0.9775951,0.0033873715,0.21046671,0.28572613,0.72871673,-0.62236035,-0.30724633,0.68481094,0.6607826,0.9077226,0.0024151,0.41956392,9.564835,0.007171631,2.178711,9.5868225,0.033218384,2.0639496,0.0021362305,-0.01171875,0.0021209717,-20.292664,7.684326,6.7703247,0,0.0,0.0,0.0,0.0
0.414764405,0.11929138,0.8148346,-0.5672867,-0.17344482,0.5796835,0.79616827,0.9775922,0.003416925,0.21048008,0.2821317,0.730577,-0.62181896,-0.3051046,0.6828259,0.6638222,0.9095674,0.0024345454,0.41554925,9.54567,0.09336853,2.0781555,9.5868225,0.0335083,2.064087,-0.019165039,-0.02130127,-0.0032043457,-20.292664,7.684326,6.7703247,0,0.0,0.0,0.0,0.0
0.419158936,0.11927898,0.8148211,-0.56730855,-0.17341906,0.5797023,0.7961601,0.97759825,0.0034169462,0.21045183,0.27861705,0.7323946,-0.6212654,-0.3029836,0.68087596,0.66678995,0.91135806,0.0024541928,0.4116072,9.564835,0.04548645,1.9823914,9.5868225,0.0335083,2.063797,-0.008514404,-0.019180298,0.0010681152,-20.292664,7.684326,6.7703247,0,0.0,0.0,0.0,0.0
0.423553467,0.11079713,0.84179306,-0.5283072,-0.1789746,0.5397896,0.8225541,0.97759503,0.003416935,0.2104667,0.27518028,0.7341705,-0.62070084,-0.30088302,0.6789607,0.6696878,0.9130965,0.002473448,0.40773603,9.641449,0.026321411,2.1404114,9.5868225,0.0335083,2.0639496,-0.015960693,-0.010650635,0.003189087,-20.651245,6.967163,6.7703247,0,0.0,0.0,0.0,0.0
0.427947998,0.11083269,0.8418316,-0.5282383,-0.17905776,0.5397295,0.82257545,0.9775758,0.003416922,0.21055613,0.2715322,0.736558,-0.61947775,-0.2990659,0.67636985,0.6731148,0.9147841,0.0024923177,0.40393552,9.641449,0.04069519,2.2840576,9.58667,0.0335083,2.0648346,0.0010681152,-0.010650635,0.0053253174,-20.651245,6.967163,6.7703247,0,0.0,0.0,0.0,0.0
0.43234253,0.11081552,0.84181297,-0.5282715,-0.1790177,0.5397585,0.8225652,0.97758514,0.0034169545,0.21051304,0.26796883,0.7388898,-0.6182512,-0.29726028,0.67382157,0.67646194,0.91642183,0.00251081,0.4002058,9.411606,0.02154541,1.9440765,9.58667,0.0335083,2.064392,0.0053253174,-0.015975952,0.0053253174,-20.651245,6.967163,6.7703247,0,0.0,0.0,0.0,0.0
0.436737061,0.11063096,0.8426132,-0.5270329,-0.17925522,0.53850853,0.82333237,0.9775625,0.0033873608,0.21061854,0.26448742,0.741166,-0.6170246,-0.29546496,0.67131704,0.6797307,0.9180124,0.0025289326,0.39654347,9.603134,-0.026321411,2.3511047,9.586533,0.033218384,2.065445,-0.008514404,-0.015975952,0.0010681152,-20.292664,6.25,5.732727,0,0.0,0.0,0.0,0.0
0.441131592,0.11060801,0.84258485,-0.5270832,-0.17925245,0.5385528,0.82330394,0.9775655,0.0034169352,0.21060364,0.2610793,0.7434083,-0.6157774,-0.29369035,0.6688331,0.68294096,0.9195562,0.002546101,0.39295033,9.612717,0.07899475,2.0302734,9.586533,0.0335083,2.0652924,-0.0010681152,-0.014923096,-0.0021362305,-20.292664,6.25,5.732727,0,0.0,0.0,0.0,0.0
0.445526123,0.11059552,0.84256935,-0.5271105,-0.17927817,0.5385768,0.82328266,0.97756225,0.0034480433,0.21061848,0.25784522,0.74557865,-0.6145147,-0.2919293,0.66641295,0.6860547,0.9210283,0.002498923,0.38948765,9.603134,0.11251831,2.0925293,9.586533,0.033813477,2.065445,0.0,0.0010681152,0.0010681152,-20.292664,6.25,5.732727,0,0.0,0.0,0.0,0.0
0.449920655,0.105686426,0.8569771,-0.5044012,-0.1822302,0.51534307,0.83738494,0.97755945,0.0034169138,0.21063189,0.25459042,0.7477158,-0.61327386,-0.2901806,0.66401416,0.6891157,0.9224852,0.0025179056,0.38602427,9.583984,-0.03590393,2.0973206,9.586533,0.0335083,2.0655823,-0.01171875,-0.0063934326,-0.0021362305,-19.395447,6.071472,6.251526,0,0.0,0.0,0.0,0.0
0.454315186,0.10569314,0.85698444,-0.5043875,-0.18224722,0.5153311,0.8373888,0.97755563,0.0034169548,0.21064998,0.25125355,0.75016433,-0.6116577,-0.28858274,0.66124654,0.6924399,0.92390025,0.0025358857,0.38262504,9.674957,0.026321411,2.1595612,9.58638,0.0335083,2.0657349,-0.007461548,-0.0063934326,0.0095825195,-19.395447,6.071472,6.251526,0,0.0,0.0,0.0,0.0
0.458709717,0.105671994,0.8569615,-0.5044308,-0.18222341,0.515369,0.8373706,0.9775623,0.0034324836,0.21061851,0.24799505,0.75255424,-0.61004966,-0.2869934,0.65852535,0.69568616,0.92527467,0.002553507,0.3792891,9.531311,0.07421875,1.953659,9.586533,0.03366089,2.065445,0.004257202,-0.0138549805,0.0,-19.395447,6.071472,6.251526,0,0.0,0.0,0.0,0.0
0.463104248,0.119748585,0.81335425,-0.56931114,-0.17318791,0.5817586,0.7947092,0.97758174,0.0034325027,0.21052787,0.24481262,0.75488615,-0.60845184,-0.28541255,0.6558508,0.69885576,0.92661023,0.0025710864,0.37601456,9.627075,0.03111267,1.8435211,9.58667,0.03366089,2.0645447,0.0032043457,-0.012786865,-0.0053253174,-19.216919,7.3257446,6.42395,0,0.0,0.0,0.0,0.0
0.46749878,0.119775735,0.8133836,-0.56926334,-0.17316826,0.5817177,0.7947434,0.977582,0.00338738,0.21052791,0.2421545,0.75612324,-0.60797936,-0.28345585,0.65442413,0.7009863,0.9279084,0.0025883147,0.3727993,9.636658,-0.06463623,2.0590057,9.58667,0.033218384,2.0645447,0.0053253174,-0.0010681152,0.0063934326,-19.216919,7.3257446,6.42395,0,0.0,0.0,0.0,0.0
0.471893311,0.119782306,0.8133908,-0.5692519,-0.17318183,0.5817079,0.7947478,0.97757876,0.0033873687,0.21054278,0.23955496,0.75733364,-0.6075024,-0.28152588,0.65302294,0.7030677,0.92916983,0.0026042957,0.36964393,9.607925,0.03590393,2.1068878,9.58667,0.033218384,2.0646973,0.0,-0.007461548,0.0,-19.216919,7.3257446,6.42395,0,0.0,0.0,0.0,0.0
0.476287842,0.0971393,0.87985206,-0.46521428,-0.18684065,0.47523555,0.85979176,0.9775759,0.0034013626,0.21055618,0.23701267,0.75851744,-0.60702246,-0.27962333,0.65164745,0.7051003,0.9303955,0.0026199573,0.36654785,9.550461,0.05505371,2.111679,9.58667,0.033355713,2.0648346,0.0010681152,-0.0021362305,0.0063934326,-19.216919,6.25,7.8079224,0,0.0,0.0,0.0,0.0
0.480682373,0.09712072,0.87983644,-0.46524757,-0.18688786,0.47526398,0.8597657,0.9775687,0.0034480658,0.21058875,0.23382752,0.76130635,-0.60476226,-0.2783363,0.648387,0.7086065,0.9315866,0.0026355854,0.36350992,9.622284,0.12689209,2.13562,9.586533,0.033813477,2.0651398,0.0021362305,-0.015975952,-0.010650635,-19.216919,6.25,7.8079224,0,0.0,0.0,0.0,0.0
0.485076905,0.09713138,0.8798454,-0.46522847,-0.18691583,0.47524744,0.8597687,0.97756225,0.0034480433,0.21061848,0.23071866,0.7640254,-0.60252315,-0.27705163,0.64518076,0.7120282,0.93274397,0.002651835,0.3605297,9.569611,0.05984497,2.1499786,9.586533,0.033813477,2.065445,-0.003189087,-0.0032043457,-0.0010681152,-19.216919,6.25,7.8079224,0,0.0,0.0,0.0,0.0
0.489471436,0.12122363,0.8084955,-0.5758819,-0.17226976,0.58849233,0.7899367,0.97756225,0.0034480433,0.21061848,0.22768436,0.7666772,-0.60030484,-0.27576986,0.6420272,0.71536845,0.9338687,0.002667759,0.357606,9.617508,0.03590393,2.0781555,9.586533,0.033813477,2.065445,-0.013839722,0.0021209717,-0.0063934326,-19.754028,6.4300537,4.8690796,0,0.0,0.0,0.0,0.0
0.493865967,0.12121742,0.80848676,-0.5758955,-0.17225596,0.5885044,0.78993076,0.97756547,0.0034480544,0.21060362,0.22545727,0.767549,-0.6000314,-0.27388847,0.6409848,0.7170242,0.93496215,0.0026833648,0.35473746,9.583984,0.026321411,2.0350647,9.586533,0.033813477,2.0652924,-0.017028809,0.003189087,0.0063934326,-19.754028,6.4300537,4.8690796,0,0.0,0.0,0.0,0.0
0.498260498,0.12122363,0.8084955,-0.5758819,-0.17226976,0.58849233,0.7899367,0.97756225,0.0034480433,0.21061848,0.22327793,0.7684017,-0.59975487,-0.2720366,0.6399622,0.71864074,0.93602514,0.0026986587,0.3519228,9.646225,0.026321411,2.0973206,9.586533,0.033813477,2.065445,-0.0010681152,-0.009597778,-0.0010681152,-19.754028,6.4300537,4.8690796,0,0.0,0.0,0.0,0.0
0.50265503,0.097241916,0.87963235,-0.46560803,-0.18685783,0.4756419,0.8595633,0.9775625,0.0034169243,0.21061854,0.22114538,0.7692362,-0.5994751,-0.27021444,0.63895875,0.7202194,0.9370586,0.0027136465,0.34916148,9.583984,-0.03590393,2.0590057,9.586533,0.0335083,2.065445,0.0021362305,-0.0138549805,0.010650635,-19.216919,5.8914185,7.116699,0,0.0,0.0,0.0,0.0
0.507049561,0.097222224,0.87961435,-0.46564633,-0.18686861,0.47567505,0.85954255,0.97756225,0.0034480433,0.21061848,0.21834159,0.77175343,-0.59726346,-0.26900503,0.6359161,0.7233582,0.93806356,0.0027277118,0.34645247,9.646225,0.10772705,2.0925293,9.586533,0.033813477,2.065445,0.0095825195,-0.008529663,0.012771606,-19.216919,5.8914185,7.116699,0,0.0,0.0,0.0,0.0
0.511444092,0.09720037,0.8795943,-0.46568868,-0.18680969,0.47571203,0.85953486,0.97757566,0.0034480412,0.21055612,0.21512891,0.7744963,-0.59487396,-0.268104,0.6325705,0.72661877,0.93906325,0.0031713569,0.34372973,9.593552,0.01675415,1.905777,9.58667,0.033813477,2.0648346,-0.004257202,-0.0010681152,-0.008529663,-19.216919,5.8914185,7.116699,0,0.0,0.0,0.0,0.0
0.515838623,0.109933175,0.8445519,-0.52406746,-0.17962883,0.5354627,0.8252351,0.97757256,0.0034169108,0.210571,0.21246554,0.776883,-0.5927151,-0.26689538,0.6296369,0.7296055,0.9400134,0.0031768905,0.34112266,9.627075,0.01675415,1.9871826,9.58667,0.0335083,2.0649872,-0.003189087,-0.0021362305,0.0,-19.5755,5.8914185,5.3878784,0,0.0,0.0,0.0,0.0
0.520233155,0.10992254,0.8445384,-0.5240914,-0.17960224,0.53548396,0.8252271,0.9775786,0.003416932,0.21054275,0.21246554,0.776883,-0.5927151,-0.26689538,0.6296369,0.7296055,0.9400134,0.0031768905,0.34112266,9.627075,0.01675415,1.9871826,9.58667,0.0335083,2.0646973,-0.003189087,-0.0021362305,0.0,-19.5755,5.8914185,5.3878784,0,0.0,0.0,0.0,0.0
0.524627686,0.10991855,0.84453344,-0.52410036,-0.17962064,0.53549176,0.825218,0.97757566,0.0034324813,0.21055612,0.20805356,0.77976733,-0.59048855,-0.26392686,0.6260614,0.7337506,0.9418367,0.0031863966,0.33605585,9.588776,0.10772705,2.1068878,9.58667,0.03366089,2.0648346,-0.0021362305,-0.0021362305,0.0010681152,-19.5755,5.8914185,5.3878784,0,0.0,0.0,0.0,0.0
0.529022217,0.122511275,0.80410486,-0.5817271,-0.17135614,0.5944776,0.7856421,0.9775623,0.0034324836,0.21061851,0.2059228,0.78116024,-0.5893934,-0.26247203,0.6243225,0.7357512,0.9427111,0.0031913181,0.33359495,9.497787,0.026321411,2.202652,9.586533,0.03366089,2.065445,-0.0021362305,-0.0053253174,-0.0021362305,-19.216919,7.3257446,6.0791016,0,0.0,0.0,0.0,0.0
0.533416748,0.12252649,0.80412227,-0.5816999,-0.17136142,0.5944542,0.78565866,0.97755945,0.0034169138,0.21063189,0.2042146,0.78163004,-0.5893648,-0.26074573,0.6237341,0.7368632,0.9435614,0.0031961414,0.3311823,9.555252,-0.002380371,2.1260376,9.586533,0.0335083,2.0655823,-0.0095825195,0.013824463,-0.007461548,-19.216919,7.3257446,6.0791016,0,0.0,0.0,0.0,0.0
0.53781128,0.12254123,0.804139,-0.58167356,-0.17139137,0.5944315,0.7856693,0.9775524,0.0034169436,0.21066484,0.20254205,0.7820905,-0.58933115,-0.25905007,0.62315667,0.737949,0.94438857,0.0032005569,0.328816,9.5217285,0.13645935,2.0254822,9.58638,0.0335083,2.0658875,-0.0010681152,0.013824463,0.003189087,-19.216919,7.3257446,6.0791016,0,0.0,0.0,0.0,0.0
0.542205811,0.122516125,0.80411035,-0.5817183,-0.17139164,0.59447,0.7856401,0.9775556,0.0034480745,0.21064997,0.20254205,0.7820905,-0.58933115,-0.25905007,0.62315667,0.737949,0.94438857,0.0032005569,0.328816,9.5217285,0.13645935,2.0254822,9.58638,0.033813477,2.0657349,-0.0010681152,0.013824463,0.003189087,-19.216919,7.3257446,6.0791016,0,0.0,0.0,0.0,0.0
0.546600342,0.10969818,0.8453385,-0.522847,-0.17986521,0.5342199,0.8259889,0.9775556,0.0034325146,0.21064997,0.19930018,0.7829822,-0.5892524,-0.25574955,0.622036,0.74004287,0.94597656,0.0032103586,0.3242192,9.612717,-0.03590393,2.0733643,9.58638,0.03366089,2.0657349,0.0053253174,0.0010681152,0.0,-19.754028,6.4300537,6.251526,0,0.0,0.0,0.0,0.0
0.550994873,0.109713316,0.84535545,-0.5228165,-0.17987311,0.5341932,0.8260043,0.9775524,0.0034169436,0.21066484,0.19735841,0.78432083,-0.5881246,-0.2544316,0.6203471,0.7419124,0.9467387,0.0032148017,0.3219867,9.651016,0.01675415,2.1020966,9.58638,0.0335083,2.0658875,-0.0010681152,0.003189087,0.007446289,-19.754028,6.4300537,6.251526,0,0.0,0.0,0.0,0.0
0.555389405,0.105089575,0.8586548,-0.5016654,-0.1825422,0.51254314,0.83903396,0.97756565,0.0034013758,0.21060367,0.19546112,0.78562963,-0.58701026,-0.2531319,0.6186887,0.74373955,0.9474805,0.0032188445,0.3197975,9.588776,-0.011962891,1.9009857,9.586533,0.033355713,2.0652924,-0.0095825195,0.004257202,0.004257202,-19.395447,6.4300537,6.942749,0,0.0,0.0,0.0,0.0
0.559783936,0.10507421,0.8586397,-0.5016943,-0.18253416,0.5125682,0.8390204,0.9775688,0.0034169466,0.21058878,0.19347847,0.7872224,-0.5855315,-0.2519475,0.61666083,0.74582297,0.94820285,0.003222495,0.3176493,9.718063,0.05027771,2.0590057,9.586533,0.0335083,2.0651398,0.0021362305,0.007446289,0.004257202,-19.395447,6.4300537,6.942749,0,0.0,0.0,0.0,0.0
0.564178467,0.10507421,0.8586397,-0.5016943,-0.18253416,0.5125682,0.8390204,0.9775688,0.0034169466,0.21058878,0.19154139,0.78877777,-0.58407325,-0.25077704,0.61467004,0.74785805,0.94890606,0.0032263843,0.3155421,9.694122,0.03111267,2.063797,9.586533,0.0335083,2.0651398,-0.007461548,0.011703491,-0.009597778,-19.395447,6.4300537,6.942749,0,0.0,0.0,0.0,0.0
0.568572998,0.10506641,0.8586321,-0.50170904,-0.18248528,0.51258105,0.8390231,0.97757876,0.0034013726,0.21054278,0.18964913,0.7902971,-0.5826351,-0.24962088,0.61271524,0.7498463,0.94959074,0.0032301955,0.31347558,9.70369,-0.002380371,1.9871826,9.58667,0.033355713,2.0646973,-0.0021362305,0.0053253174,0.003189087,-19.395447,6.4300537,6.942749,0,0.0,0.0,0.0,0.0
0.57296753,0.10508025,0.8586456,-0.50168306,-0.18249251,0.5125586,0.8390353,0.9775759,0.0033873587,0.21055618,0.18780024,0.7917813,-0.58121717,-0.24847817,0.6107961,0.75178903,0.95025766,0.003233619,0.311448,9.641449,-0.002380371,2.0973206,9.58667,0.033218384,2.0648346,-0.0053253174,0.011703491,-0.0032043457,-19.395447,6.4300537,6.942749,0,0.0,0.0,0.0,0.0
0.577362061,0.10508592,0.8586512,-0.5016724,-0.18250641,0.5125492,0.83903795,0.9775726,0.0033873476,0.21057102,0.18599418,0.7932316,-0.5798187,-0.24735004,0.6089114,0.7536875,0.950907,0.0032366938,0.30945987,9.617508,0.026321411,2.1308289,9.58667,0.033218384,2.0649872,-0.004257202,0.007446289,-0.0053253174,-19.395447,6.4300537,6.942749,0,0.0,0.0,0.0,0.0
0.581756592,0.11061934,0.8425966,-0.52706194,-0.17927864,0.5385343,0.8233103,0.97755945,0.0034169138,0.21063189,0.18338014,0.7951572,-0.57801104,-0.24604689,0.606393,0.75614053,0.9517524,0.0035566702,0.30684638,9.583984,0.11251831,2.2505493,9.586533,0.0335083,2.0655823,-0.010650635,-0.010650635,-0.008529663,-19.754028,6.071472,5.5603027,0,0.0,0.0,0.0,0.0
0.586151123,0.11063188,0.84261215,-0.52703434,-0.1793096,0.53850996,0.82331955,0.9775524,0.0034169436,0.21066484,0.18182452,0.7961605,-0.57712066,-0.24483916,0.60507506,0.7575869,0.9523621,0.003553875,0.30494875,9.583984,0.02154541,2.111679,9.58638,0.0335083,2.0658875,0.0,-0.0032043457,0.0021209717,-19.754028,6.071472,5.5603027,0,0.0,0.0,0.0,0.0
0.590545655,0.110596076,0.8425677,-0.5271131,-0.17927784,0.5385794,0.823281,0.97756225,0.0034480433,0.21061848,0.18030392,0.797142,-0.57624227,-0.24365091,0.6037814,0.7590008,0.9529558,0.0035511365,0.30308855,9.598343,0.12210083,1.9823914,9.586533,0.033813477,2.065445,-0.01171875,0.0010681152,-0.0010681152,-19.754028,6.071472,5.5603027,0,0.0,0.0,0.0,0.0
0.594940186,0.10678903,0.8536724,-0.50974476,-0.18157187,0.520799,0.8341465,0.97756225,0.0034776067,0.21061848,0.17881669,0.7981008,-0.5753778,-0.24248078,0.6025134,0.76038194,0.9535343,0.0035490745,0.30126357,9.598343,0.09336853,2.0590057,9.586533,0.034103394,2.065445,-0.003189087,-0.0021362305,0.0063934326,-18.858337,6.6085815,7.116699,0,0.0,0.0,0.0,0.0
0.599334717,0.10684148,0.85372144,-0.50965136,-0.18161112,0.5207185,0.8341878,0.977549,0.0034324916,0.21067968,0.17726095,0.7992906,-0.5742064,-0.24140383,0.60093415,0.7619726,0.95409787,0.003547645,0.299474,9.636658,-0.05984497,2.226593,9.58638,0.03366089,2.06604,-0.004257202,-0.017044067,0.0063934326,-18.858337,6.6085815,7.116699,0,0.0,0.0,0.0,0.0
0.603729248,0.10683169,0.8537124,-0.5096688,-0.18161722,0.52073354,0.8341773,0.977549,0.0034480514,0.21067968,0.17574154,0.8004547,-0.5730508,-0.24034336,0.5993828,0.76352817,0.9546465,0.0035453418,0.29772043,9.66539,0.05984497,2.0733643,9.58638,0.033813477,2.06604,-0.010650635,0.0063934326,-0.0053253174,-18.858337,6.6085815,7.116699,0,0.0,0.0,0.0,0.0
0.60812378,0.089184344,0.8991457,-0.42846587,-0.19093584,0.43763566,0.87864584,0.9775427,0.003448029,0.21070942,0.17425646,0.8015923,-0.57191306,-0.23929861,0.5978606,0.76504827,0.9551811,0.003543396,0.296001,9.670166,0.02154541,2.1643524,9.58638,0.033813477,2.0663452,-0.0053253174,0.0010681152,-0.0010681152,-19.934082,5.532837,7.461548,0,0.0,0.0,0.0,0.0
0.612518311,0.08917546,0.8991381,-0.42848393,-0.19097523,0.43765128,0.87862957,0.9775358,0.0034776232,0.21074085,0.17235348,0.803833,-0.569339,-0.23859683,0.5948446,0.7676142,0.95570177,0.0035414887,0.29431552,9.636658,0.13645935,2.1595612,9.586227,0.034103394,2.0666351,-0.018096924,-0.0063934326,0.0053253174,-19.934082,5.532837,7.461548,0,0.0,0.0,0.0,0.0
0.616912842,0.08916033,0.899125,-0.42851463,-0.19099925,0.43767804,0.878611,0.9775325,0.003508731,0.2107557,0.17049555,0.8060176,-0.5668041,-0.23789851,0.591881,0.77011764,0.956209,0.0035402114,0.29266348,9.574402,0.08857727,2.13562,9.586227,0.03440857,2.0667877,0.0,-0.004257202,0.0010681152,-19.934082,5.532837,7.461548,0,0.0,0.0,0.0,0.0
0.621307373,0.10777606,0.8508831,-0.51418114,-0.18114856,0.5253431,0.83138424,0.9775323,0.0035398502,0.21075568,0.16868143,0.8081476,-0.56430846,-0.23720391,0.58896935,0.7725603,0.9567032,0.0035395818,0.29104397,9.555252,0.11251831,2.0446472,9.586227,0.034713745,2.0667877,-0.022354126,-0.0021362305,-0.0053253174,-19.754028,6.071472,5.9066772,0,0.0,0.0,0.0,0.0
0.625701905,0.10780742,0.8509197,-0.51411384,-0.18111144,0.5252841,0.83142954,0.9775358,0.0034776232,0.21074085,0.16738287,0.8090497,-0.56340176,-0.23617852,0.5877296,0.7738176,0.95718473,0.0035395871,0.289456,9.622284,-0.09815979,2.039856,9.586227,0.034103394,2.0666351,0.0063934326,-0.007461548,0.004257202,-19.754028,6.071472,5.9066772,0,0.0,0.0,0.0,0.0
0.630096436,0.1077982,0.850909,-0.5141337,-0.18111724,0.5253015,0.8314174,0.9775357,0.0034931828,0.21074083,0.16611372,0.80993277,-0.5625079,-0.235169,0.586512,0.77504784,0.9576543,0.0035383478,0.28789878,9.52652,0.06942749,2.0446472,9.586227,0.03425598,2.0666351,-0.008514404,0.003189087,-0.0021362305,-19.754028,6.071472,5.9066772,0,0.0,0.0,0.0,0.0
0.634490967,0.13359757,0.76310647,-0.63231343,-0.16305898,0.6462633,0.74549013,0.9775292,0.0035087194,0.21077056,0.16487269,0.81079614,-0.5616285,-0.234176,0.58531797,0.77625024,0.95811194,0.0035374444,0.28637195,9.617508,0.07421875,2.1595612,9.586227,0.03440857,2.0669403,0.007461548,0.007446289,-0.0021362305,-19.216919,8.401489,6.0791016,0,0.0,0.0,0.0,0.0
0.638885498,0.13361335,0.7631244,-0.63228834,-0.16308673,0.646242,0.7455025,0.9775225,0.003508751,0.21080203,0.16435643,0.809889,-0.5630868,-0.2327091,0.58657247,0.77574426,0.95855796,0.0035368698,0.28487548,9.598343,-0.002380371,2.1452026,9.586075,0.03440857,2.0672302,-0.015960693,-0.0021362305,-0.008529663,-19.216919,8.401489,6.0791016,0,0.0,0.0,0.0,0.0
0.64328003,0.13359602,0.7631047,-0.6323158,-0.1630798,0.64626527,0.7454839,0.977526,0.0035242673,0.21078542,0.16384631,0.80899847,-0.56451374,-0.23127374,0.5878,0.7752441,0.9589926,0.0035363075,0.28340897,9.588776,0.09336853,2.039856,9.586227,0.034561157,2.067093,-0.004257202,-0.0021362305,-0.0021362305,-19.216919,8.401489,6.0791016,0,0.0,0.0,0.0,0.0
0.647674561,0.09294827,0.8902747,-0.445838,-0.1892011,0.4554105,0.869945,0.97752935,0.00349316,0.21077059,0.16375528,0.80842865,-0.56535596,-0.23031408,0.5885849,0.77493435,0.9592391,0.0033098354,0.28257638,9.579193,-0.06463623,2.039856,9.586227,0.03425598,2.0669403,-0.008514404,0.009567261,0.0010681152,-18.858337,5.532837,7.116699,0,0.0,0.0,0.0,0.0
0.652069092,0.09294328,0.8902703,-0.4458478,-0.18915358,0.45541918,0.8699507,0.977539,0.0034776346,0.210726,0.16219623,0.8102666,-0.56316996,-0.22967589,0.58605206,0.77704054,0.95965695,0.0033135018,0.28115413,9.579193,0.02154541,1.9393005,9.586227,0.034103394,2.0664825,0.0,0.007446289,-0.0032043457,-18.858337,5.532837,7.116699,0,0.0,0.0,0.0,0.0
0.656463623,0.09289962,0.8902319,-0.44593364,-0.18922636,0.4554936,0.869896,0.97752905,0.0035694018,0.21077053,0.16067329,0.81206006,-0.56101924,-0.22904184,0.58356446,0.77909714,0.9600646,0.0033167845,0.27975896,9.50737,0.24659729,2.15477,9.586227,0.035003662,2.0669403,-0.008514404,0.003189087,0.0053253174,-18.858337,5.532837,7.116699,0,0.0,0.0,0.0,0.0
0.660858155,0.1251548,0.79462755,-0.5940567,-0.16959012,0.6070867,0.77632785,0.9775354,0.0035849847,0.21074077,0.15918514,0.81380916,-0.5589048,-0.22841449,0.58112264,0.78110385,0.9604618,0.003321837,0.2783919,9.598343,0.06942749,1.9919739,9.586227,0.03515625,2.0666351,-0.0095825195,-0.004257202,0.0010681152,-19.934082,7.684326,6.0791016,0,0.0,0.0,0.0,0.0
0.665252686,0.12517071,0.79464626,-0.5940283,-0.16959652,0.6070622,0.7763455,0.9775322,0.0035694132,0.21075565,0.15854758,0.81343377,-0.55963224,-0.22722468,0.58164805,0.7810599,0.96084946,0.0033270998,0.2770511,9.636658,-0.011962891,2.111679,9.586227,0.035003662,2.0667877,-0.0063934326,-0.0021362305,0.003189087,-19.934082,7.684326,6.0791016,0,0.0,0.0,0.0,0.0
0.669647217,0.12523414,0.794721,-0.59391475,-0.16962452,0.6069646,0.7764157,0.9775193,0.0035087396,0.2108169,0.15792128,0.81306595,-0.5603434,-0.22605935,0.5821621,0.7810151,0.9612274,0.0033319462,0.27573696,9.555252,-0.12689209,2.2170258,9.586075,0.03440857,2.0673828,0.0063934326,0.0,0.0010681152,-19.934082,7.684326,6.0791016,0,0.0,0.0,0.0,0.0
0.674041748,0.1280898,0.78420794,-0.6071334,-0.1674393,0.62048817,0.76613224,0.977526,0.0035242673,0.21078542,0.15730691,0.81270653,-0.56103706,-0.22491834,0.58266366,0.7809704,0.9615957,0.003335482,0.27444965,9.579193,0.09336853,1.9967499,9.586227,0.034561157,2.067093,-0.007461548,-0.0010681152,-0.0063934326,-19.036865,7.147217,5.215454,0,0.0,0.0,0.0,0.0
0.67843628,0.12809542,0.7842152,-0.60712284,-0.16747493,0.62047887,0.766132,0.97751915,0.0035398586,0.21081686,0.15677936,0.81215423,-0.56198376,-0.22374667,0.5834332,0.78073245,0.96195513,0.0033392578,0.2731871,9.679749,0.05027771,2.1691437,9.586075,0.034713745,2.0673828,-0.0010681152,-0.01171875,-0.009597778,-19.036865,7.147217,5.215454,0,0.0,0.0,0.0,0.0
0.682830811,0.12809125,0.78420985,-0.60713065,-0.16744223,0.6204857,0.7661335,0.9775253,0.003524321,0.21078862,0.15626007,0.8116124,-0.5629103,-0.22259985,0.5841867,0.7804968,0.9623056,0.00334327,0.27194986,9.502579,0.026321411,1.9823914,9.586075,0.034561157,2.067093,-0.013839722,0.0,-0.0010681152,-19.036865,7.147217,5.215454,0,0.0,0.0,0.0,0.0
0.687225342,0.110582955,0.8425538,-0.527138,-0.17941393,0.53860044,0.82323754,0.9775387,0.003539873,0.21072593,0.15574896,0.81108063,-0.56381774,-0.2214761,0.58492476,0.78026366,0.96264774,0.003346891,0.2707364,9.622284,0.05984497,1.8770447,9.586227,0.034713745,2.0664825,0.0053253174,-0.018112183,0.003189087,-20.292664,6.25,5.732727,0,0.0,0.0,0.0,0.0
0.691619873,0.11055939,0.8425246,-0.5271896,-0.17940953,0.5386459,0.8232087,0.97754216,0.003569393,0.21070932,0.15480138,0.81173545,-0.56313604,-0.22068664,0.5840158,0.7811677,0.96298176,0.0033507505,0.26954558,9.636658,0.12210083,2.063797,9.58638,0.035003662,2.0663452,-0.012786865,0.004257202,0.0063934326,-20.292664,6.25,5.732727,0,0.0,0.0,0.0,0.0
0.696014405,0.110568464,0.8425358,-0.5271697,-0.17940365,0.5386285,0.8232215,0.97754234,0.0035538338,0.21070935,0.15387401,0.8123755,-0.56246686,-0.21991076,0.5831251,0.7820514,0.96330786,0.0033551233,0.26837793,9.646225,-0.03590393,2.0829468,9.58638,0.034851074,2.0663452,-0.004257202,-0.009597778,0.007446289,-20.292664,6.25,5.732727,0,0.0,0.0,0.0,0.0
0.700408936,0.10452326,0.8601016,-0.49929976,-0.18299112,0.51011074,0.8404174,0.9775424,0.0035242706,0.21070936,0.15296696,0.813002,-0.5618086,-0.21914826,0.58225125,0.782916,0.96362597,0.0033590975,0.26723316,9.660599,-0.026321411,2.0733643,9.58638,0.034561157,2.0663452,0.0095825195,-0.01171875,-0.0053253174,-19.395447,6.7886353,7.633972,0,0.0,0.0,0.0,0.0
0.704803467,0.10442375,0.8600127,-0.49947357,-0.18292782,0.5102598,0.8403406,0.9775649,0.0036160983,0.21060349,0.15193374,0.81400436,-0.56063634,-0.21850061,0.58084905,0.78413767,0.9639365,0.003362401,0.26611102,9.627075,0.10293579,2.0350647,9.586533,0.035461426,2.0652924,0.0021362305,-0.007461548,-0.004272461,-19.395447,6.7886353,7.633972,0,0.0,0.0,0.0,0.0
0.709197998,0.104421064,0.86001027,-0.49947825,-0.1828915,0.510264,0.8403459,0.97757196,0.003600513,0.21057089,0.15092169,0.81498235,-0.55948764,-0.2178616,0.579476,0.7853304,0.9642401,0.003367475,0.26500887,9.674957,0.03111267,1.9823914,9.58667,0.035308838,2.0649872,0.007461548,-0.020248413,-0.01171875,-19.395447,6.7886353,7.633972,0,0.0,0.0,0.0,0.0
0.71359253,0.11704421,0.8219729,-0.5573699,-0.1750817,0.5695153,0.80311805,0.97757196,0.0035849533,0.21057089,0.14912157,0.81586635,-0.5586813,-0.2170597,0.57822675,0.78647244,0.96470094,0.003987201,0.2633178,9.713272,-0.011962891,2.0973206,9.58667,0.03515625,2.0649872,0.004257202,-0.009597778,-0.008529663,-18.678284,6.4300537,5.5603027,0,0.0,0.0,0.0,0.0
0.717987061,0.11702724,0.82195264,-0.5574033,-0.17496672,0.56954485,0.8031223,0.9775947,0.003539856,0.21046662,0.1484751,0.8159893,-0.5586738,-0.21623257,0.5780532,0.78682774,0.9649863,0.0039791563,0.26226997,9.560043,0.01675415,2.0302734,9.5868225,0.034713745,2.0639496,0.0010681152,-0.018112183,0.0,-18.678284,6.4300537,5.5603027,0,0.0,0.0,0.0,0.0
0.722381592,0.1170619,0.8219941,-0.5573349,-0.17501684,0.56948507,0.80315363,0.97758144,0.0035243048,0.21052781,0.14784136,0.8161095,-0.55866647,-0.21541913,0.57788366,0.7871754,0.9652656,0.0039703706,0.26124072,9.670166,0.007171631,2.2601166,9.58667,0.034561157,2.0645447,-0.0095825195,-0.02130127,0.007446289,-18.678284,6.4300537,5.5603027,0,0.0,0.0,0.0,0.0
0.726776123,0.12323925,0.8007727,-0.5861528,-0.17058983,0.5989576,0.78239936,0.9776048,0.0035694,0.21041878,0.14722118,0.816228,-0.55865705,-0.2146226,0.5777163,0.7875157,0.9655377,0.003961449,0.26023304,9.66539,0.05984497,2.1308289,9.586975,0.035003662,2.0634918,-0.0010681152,-0.009597778,0.0053253174,-19.036865,7.5057983,6.251526,0,0.0,0.0,0.0,0.0
0.731170655,0.123176634,0.8007036,-0.58626044,-0.17046577,0.59905016,0.7823557,0.97763443,0.0035693944,0.21028152,0.14676687,0.8159244,-0.5592199,-0.21373369,0.5781451,0.7874428,0.965804,0.003953608,0.25924307,9.531311,0.002380371,2.063797,9.58728,0.035003662,2.062149,0.0021362305,-0.029830933,-0.0063934326,-19.036865,7.5057983,6.251526,0,0.0,0.0,0.0,0.0
0.735565186,0.12311663,0.80063725,-0.5863636,-0.17032152,0.5991389,0.7823192,0.97766715,0.0035538462,0.21012971,0.1463195,0.81562525,-0.55977315,-0.21286023,0.57856697,0.7873695,0.9660647,0.003945924,0.25826982,9.569611,0.02154541,2.087738,9.58757,0.034851074,2.0606537,-0.004257202,-0.029830933,-0.0053253174,-19.036865,7.5057983,6.251526,0,0.0,0.0,0.0,0.0
0.739959717,0.11520157,0.82674134,-0.5506608,-0.1755552,0.5625707,0.8078952,0.977706,0.003600554,0.20994778,0.14587909,0.8153307,-0.560317,-0.21200159,0.5789822,0.78729594,0.9663201,0.003938082,0.2573128,9.713272,0.05027771,2.087738,9.587875,0.035308838,2.0588531,-0.0021362305,-0.03729248,0.0021209717,-19.754028,7.147217,6.5979004,0,0.0,0.0,0.0,0.0
0.744354248,0.115083784,0.82661444,-0.5508759,-0.17543082,0.56275666,0.80779266,0.9777422,0.003676764,0.20977782,0.1452539,0.81556207,-0.56014264,-0.21128865,0.5786562,0.7877271,0.9665704,0.0039313314,0.25637108,9.583984,0.11251831,2.111679,9.588318,0.03605652,2.0572052,0.010650635,-0.041549683,-0.0063934326,-19.754028,7.147217,6.5979004,0,0.0,0.0,0.0,0.0
0.74874878,0.11498695,0.8265101,-0.55105275,-0.17516574,0.56291014,0.8077432,0.977801,0.0036456375,0.20950356,0.14463954,0.8157862,-0.5599754,-0.21058685,0.57834035,0.788147,0.9668157,0.0039262404,0.2554447,9.583984,0.07421875,2.0685883,9.588913,0.035751343,2.0545197,-0.008514404,-0.04473877,-0.01171875,-19.754028,7.147217,6.5979004,0,0.0,0.0,0.0,0.0
0.753143311,0.11378682,0.82999045,-0.54604805,-0.17571335,0.5577657,0.81118566,0.9778432,0.0036456787,0.20930678,0.14403598,0.81600344,-0.5598142,-0.20989317,0.5780337,0.78855675,0.9670566,0.003920628,0.2545312,9.722839,-0.01675415,2.0590057,9.589218,0.035751343,2.0525665,-0.013839722,-0.06285095,0.0063934326,-20.471191,7.147217,6.5979004,0,0.0,0.0,0.0,0.0
0.757537842,0.113786556,0.82999015,-0.54604846,-0.17576729,0.55776584,0.81117386,0.97783357,0.0036767623,0.20935139,0.14341663,0.8162881,-0.5595583,-0.20922735,0.5776317,0.7890283,0.9672929,0.0039151297,0.2536318,9.536102,0.09336853,2.1499786,9.589218,0.03605652,2.0530243,0.0032043457,-0.041549683,-0.0053253174,-20.471191,7.147217,6.5979004,0,0.0,0.0,0.0,0.0
0.761932373,0.11371746,0.8299133,-0.5461796,-0.17561303,0.55788016,0.8111286,0.9778693,0.0036767793,0.20918432,0.14281023,0.8165668,-0.5593065,-0.20857522,0.5772376,0.7894891,0.96752346,0.0039103623,0.25275105,9.631866,0.03590393,2.0063324,9.589523,0.03605652,2.0513763,-0.010650635,-0.018112183,0.0021209717,-20.471191,7.147217,6.5979004,0,0.0,0.0,0.0,0.0
0.766326905,0.115735225,0.82331795,-0.5556553,-0.17414057,0.5675687,0.8046991,0.9778959,0.003630089,0.20906077,0.14221519,0.8168382,-0.5590618,-0.20793237,0.5768536,0.7899393,0.9677494,0.0039056903,0.25188446,9.68454,0.002380371,2.13562,9.589813,0.035598755,2.050171,0.0021362305,-0.03515625,0.0010681152,-20.829773,7.147217,6.251526,0,0.0,0.0,0.0,0.0
0.770721436,0.11569437,0.8232694,-0.5557359,-0.1740767,0.5676392,0.8046634,0.9779121,0.0036456513,0.20898467,0.14221519,0.8168382,-0.5590618,-0.20793237,0.5768536,0.7899393,0.9677494,0.0039056903,0.25188446,9.68454,0.002380371,2.13562,9.589966,0.035751343,2.0494232,0.0021362305,-0.03515625,0.0010681152,-20.829773,7.147217,6.251526,0,0.0,0.0,0.0,0.0
0.775115967,0.115677536,0.8232494,-0.555769,-0.17396168,0.56766856,0.80466753,0.9779346,0.0036005536,0.20888034,0.14115511,0.81709486,-0.5589555,-0.20660993,0.5764901,0.7905514,0.9681878,0.0038953926,0.25019443,9.54567,0.011962891,2.0111237,9.590118,0.035308838,2.0483856,-0.019165039,-0.0234375,-0.01171875,-20.829773,7.147217,6.251526,0,0.0,0.0,0.0,0.0
0.779510498,0.11566385,0.823233,-0.555796,-0.17393123,0.5676922,0.8046574,0.9779417,0.0036005222,0.2088474,0.14064084,0.8172189,-0.5589038,-0.20596565,0.5763143,0.7908477,0.9683999,0.003889496,0.24937235,9.598343,0.02154541,1.9776001,9.590271,0.035308838,2.0480804,0.004257202,-0.02130127,0.0095825195,-20.829773,7.147217,6.251526,0,0.0,0.0,0.0,0.0
0.78390503,0.115638115,0.8232024,-0.5558467,-0.17382061,0.56773674,0.8046498,0.9779643,0.0035694286,0.20874156,0.13964866,0.8173892,-0.5589035,-0.20476386,0.5760724,0.7913358,0.9687982,0.003934259,0.24781951,9.670166,0.002380371,2.0925293,9.590424,0.035003662,2.0470276,-0.0010681152,-0.01171875,-0.0010681152,-20.829773,7.147217,6.251526,0,0.0,0.0,0.0,0.0
0.788299561,0.11564432,0.82320976,-0.55583453,-0.17383434,0.567726,0.80465436,0.97796106,0.003569417,0.20875643,0.13916416,0.8175064,-0.5588531,-0.20415269,0.5759063,0.7916146,0.96899694,0.003926962,0.24704164,9.785095,0.06463623,2.1452026,9.590424,0.035003662,2.0471802,-0.02128601,-0.02557373,0.0,-20.829773,7.147217,6.251526,0,0.0,0.0,0.0,0.0
0.792694092,0.098932184,0.8725256,-0.47844693,-0.18374076,0.4885556,0.8529669,0.9779835,0.0035243237,0.2086524,0.13868971,0.8176212,-0.55880296,-0.20355374,0.5757432,0.79188734,0.9691909,0.003919811,0.24627951,9.627075,0.03111267,2.0207062,9.590561,0.034561157,2.0461426,-0.01171875,-0.0138549805,-0.0010681152,-19.216919,5.8914185,6.7703247,0,0.0,0.0,0.0,0.0
0.797088623,0.09888005,0.87247473,-0.47855067,-0.18366252,0.4886465,0.852932,0.97800356,0.0035538475,0.20855826,0.13784541,0.8188064,-0.5572744,-0.20322189,0.57405645,0.79319614,0.96938103,0.0039119017,0.24553043,9.631866,0.06942749,2.0685883,9.590866,0.034851074,2.0452423,-0.017028809,-0.02130127,0.008514404,-19.216919,5.8914185,6.7703247,0,0.0,0.0,0.0,0.0
0.801483155,0.09881831,0.87241435,-0.47867343,-0.18359327,0.48875386,0.85288525,0.9780227,0.0036005399,0.20846722,0.13701874,0.81996334,-0.55577517,-0.20289256,0.5724027,0.7944745,0.9695672,0.0039047406,0.24479437,9.641449,0.08857727,2.1404114,9.591019,0.035308838,2.044342,0.004257202,-0.0234375,-0.004272461,-19.216919,5.8914185,6.7703247,0,0.0,0.0,0.0,0.0
0.805877686,0.10950972,0.84177345,-0.5286067,-0.17731708,0.5398189,0.82289386,0.9780421,0.003616114,0.20837623,0.13620903,0.8210925,-0.5543051,-0.20256591,0.57078177,0.7957231,0.9697495,0.0038986567,0.24407099,9.627075,0.026321411,1.9871826,9.591171,0.035461426,2.0434418,0.0,-0.026641846,-0.0053253174,-19.754028,7.147217,7.2891235,0,0.0,0.0,0.0,0.0
0.810272217,0.10949636,0.84176046,-0.5286301,-0.17728697,0.53983897,0.822887,0.978049,0.0036160876,0.2083436,0.13620903,0.8210925,-0.5543051,-0.20256591,0.57078177,0.7957231,0.9697495,0.0038986567,0.24407099,9.627075,0.026321411,1.9871826,9.591309,0.035461426,2.0431366,0.0,-0.026641846,-0.0053253174,-19.754028,7.147217,7.2891235,0,0.0,0.0,0.0,0.0
0.814666748,0.10943401,0.84169984,-0.5287397,-0.17714663,0.5399337,0.8228553,0.97808146,0.0036160925,0.2081914,0.1351157,0.8219328,-0.55332655,-0.20160298,0.56957126,0.79683423,0.9701031,0.0038874669,0.24266212,9.727631,0.06942749,2.1068878,9.591614,0.035461426,2.0416412,-0.0021362305,-0.0138549805,0.0,-19.754028,7.147217,7.2891235,0,0.0,0.0,0.0,0.0
0.81906128,0.12476722,0.7902019,-0.60001177,-0.16674536,0.61283565,0.7724174,0.97807425,0.003676807,0.2082243,0.13458516,0.82233846,-0.55285287,-0.20113204,0.5689854,0.7973717,0.9702746,0.0038820393,0.2419756,9.603134,0.17477417,2.1212616,9.591461,0.03605652,2.0419464,-0.0053253174,-0.036224365,0.0,-20.651245,8.401489,6.7703247,0,0.0,0.0,0.0,0.0
0.823455811,0.124756515,0.79019,-0.60002965,-0.1667497,0.6128508,0.77240425,0.9780747,0.00369231,0.20822108,0.13442339,0.8217192,-0.5538121,-0.20043121,0.5698793,0.79690963,0.97044206,0.0038779348,0.2413033,9.694122,0.09336853,2.0446472,9.591614,0.036209106,2.0419464,0.0021362305,-0.0063934326,0.0010681152,-20.651245,8.401489,6.7703247,0,0.0,0.0,0.0,0.0
0.827850342,0.124726914,0.7901571,-0.6000791,-0.1667183,0.61289316,0.7723775,0.97808397,0.0037079048,0.20817792,0.13426329,0.82111126,-0.55475193,-0.19974495,0.570755,0.796455,0.9706057,0.003874222,0.24064429,9.598343,0.05027771,1.9488678,9.591614,0.036361694,2.041504,-0.0021362305,-0.017044067,0.0021209717,-20.651245,8.401489,6.7703247,0,0.0,0.0,0.0,0.0
0.832244873,0.11843991,0.81251645,-0.57077926,-0.17125751,0.58292663,0.7942716,0.9780812,0.003676775,0.20819135,0.1341045,0.8205139,-0.5556734,-0.1990722,0.57161343,0.79600775,0.9707658,0.0038708956,0.23999745,9.713272,-0.026321411,2.087738,9.591614,0.03605652,2.0416412,-0.007461548,-0.008529663,-0.004272461,-18.499756,6.967163,6.0791016,0,0.0,0.0,0.0,0.0
0.836639405,0.118415326,0.81248933,-0.57082313,-0.1712589,0.5829644,0.79424375,0.97808397,0.0037079048,0.20817792,0.13379991,0.82035553,-0.5559806,-0.19851342,0.5718408,0.7959841,0.9709223,0.0038670134,0.23936382,9.670166,0.10293579,2.015915,9.591614,0.036361694,2.041504,0.004257202,-0.019180298,0.0010681152,-18.499756,6.967163,6.0791016,0,0.0,0.0,0.0,0.0
0.841033936,0.11840034,0.8124728,-0.5708498,-0.17125145,0.5829873,0.79422843,0.978087,0.0037219203,0.20816302,0.13350053,0.8201996,-0.55628246,-0.19796576,0.57206434,0.7959597,0.9710753,0.0038638313,0.23874235,9.636658,0.05505371,2.0111237,9.591614,0.036499023,2.0413513,0.004257202,-0.019180298,0.0010681152,-18.499756,6.967163,6.0791016,0,0.0,0.0,0.0,0.0
0.845428467,0.10185742,0.8634316,-0.49407583,-0.18155782,0.50445217,0.84413546,0.9780909,0.0037218756,0.20814496,0.13320652,0.82004654,-0.5565786,-0.19742905,0.5722838,0.79593533,0.9712249,0.003860993,0.23813294,9.694122,0.03590393,2.0302734,9.591766,0.036499023,2.0411987,0.004257202,-0.019180298,-0.007461548,-20.829773,6.4300537,6.942749,0,0.0,0.0,0.0,0.0
0.849822998,0.10184786,0.8634216,-0.49409527,-0.18156351,0.5044692,0.8441242,0.9780909,0.0037374354,0.20814496,0.13287579,0.8213095,-0.5547925,-0.19700736,0.570473,0.7973385,0.97135586,0.0033512358,0.23760608,9.607925,0.07899475,2.0207062,9.591766,0.03665161,2.0411987,-0.010650635,0.0010681152,0.0053253174,-20.829773,6.4300537,6.942749,0,0.0,0.0,0.0,0.0
0.85421753,0.10185854,0.8634328,-0.49407354,-0.18156083,0.50445014,0.84413606,0.97809017,0.0037219322,0.20814812,0.1322263,0.822202,-0.55362445,-0.19673707,0.56918585,0.79832447,0.9714992,0.00335896,0.23701894,9.459488,0.01675415,2.0494232,9.591614,0.036499023,2.0411987,-0.0021362305,-0.0021362305,0.004257202,-20.829773,6.4300537,6.942749,0,0.0,0.0,0.0,0.0
0.858612061,0.117388204,0.81579137,-0.5663078,-0.17190726,0.5783343,0.79748195,0.97809404,0.0037374473,0.20813008,0.13159102,0.823075,-0.55247754,-0.19647042,0.5679228,0.7992891,0.97163945,0.0033662193,0.23644343,9.588776,0.07421875,1.9632416,9.591766,0.03665161,2.0410461,-0.0021362305,-0.009597778,-0.0010681152,-19.934082,6.6085815,5.3878784,0,0.0,0.0,0.0,0.0
0.863006592,0.11739442,0.8157995,-0.5662947,-0.17192104,0.57832277,0.79748726,0.9780909,0.0037374354,0.20814496,0.131314,0.82293063,-0.5527584,-0.19597691,0.56813186,0.7992617,0.9717766,0.003373644,0.23587908,9.536102,0.03590393,2.087738,9.591766,0.03665161,2.0411987,-0.0063934326,-0.007461548,0.003189087,-19.934082,6.6085815,5.3878784,0,0.0,0.0,0.0,0.0
0.867401123,0.117376514,0.815776,-0.5663322,-0.17193389,0.5783556,0.7974606,0.9780907,0.0037685542,0.20814493,0.13104235,0.8227892,-0.5530333,-0.19549362,0.56833655,0.7992345,0.9719106,0.0033809198,0.23532622,9.583984,0.08378601,2.039856,9.591766,0.036956787,2.0411987,0.004257202,0.012771606,-0.009597778,-19.934082,6.6085815,5.3878784,0,0.0,0.0,0.0,0.0
0.871795655,0.090896204,0.8917653,-0.44327477,-0.18728694,0.45248252,0.8718848,0.9780907,0.0037685542,0.20814493,0.13077548,0.8226502,-0.55330324,-0.19502032,0.5685378,0.79920703,0.9720416,0.0033886726,0.2347843,9.646225,0.05027771,2.0446472,9.591766,0.036956787,2.0411987,-0.0095825195,0.0010681152,-0.007461548,-19.5755,5.532837,7.116699,0,0.0,0.0,0.0,0.0
0.876190186,0.09091728,0.8917845,-0.44323173,-0.18738165,0.4524445,0.8718842,0.9780707,0.0037841566,0.2082391,0.12994054,0.82418424,-0.55121297,-0.19493985,0.56631154,0.8008056,0.9721697,0.0033962703,0.23425318,9.646225,0.08378601,2.0063324,9.591461,0.037109375,2.042099,-0.013839722,0.010635376,0.0,-19.5755,5.532837,7.116699,0,0.0,0.0,0.0,0.0
0.880584717,0.09091728,0.8917845,-0.44323173,-0.18738165,0.4524445,0.8718842,0.9780707,0.0037841566,0.2082391,0.12912424,0.8256823,-0.54915905,-0.19485982,0.5641251,0.8023668,0.9722945,0.003404028,0.23373453,9.694122,0.01675415,2.0973206,9.591461,0.037109375,2.042099,-0.020217896,0.025543213,-0.0053253174,-19.5755,5.532837,7.116699,0,0.0,0.0,0.0,0.0
0.884979248,0.117411464,0.8158815,-0.5661731,-0.17209877,0.5782067,0.7975331,0.97805756,0.00379817,0.20830029,0.1283255,0.8271447,-0.5471418,-0.19477841,0.5619786,0.80389136,0.9724165,0.0034116306,0.23322614,9.617508,0.08378601,2.2170258,9.591309,0.037246704,2.042694,-0.014892578,0.012771606,0.010650635,-18.678284,7.5057983,6.942749,0,0.0,0.0,0.0,0.0
0.88937378,0.117398895,0.8158691,-0.56619346,-0.172126,0.5782239,0.7975147,0.9780542,0.0038292767,0.20831513,0.12811638,0.82692266,-0.54752636,-0.1943211,0.56230533,0.80377364,0.9725356,0.0034193613,0.23272903,9.646225,0.10772705,2.0781555,9.591309,0.03755188,2.0428467,-0.0021362305,0.0053253174,0.0021209717,-18.678284,7.5057983,6.942749,0,0.0,0.0,0.0,0.0
0.893768311,0.11741813,0.81588805,-0.56616217,-0.17211221,0.5781973,0.79753685,0.9780543,0.0037981572,0.20831515,0.12791085,0.82670456,-0.5479036,-0.19387364,0.56262577,0.8036574,0.97265196,0.0034275597,0.23224217,9.660599,-0.04069519,2.039856,9.591309,0.037246704,2.0428467,0.0010681152,0.009567261,-0.0053253174,-18.678284,7.5057983,6.942749,0,0.0,0.0,0.0,0.0
0.898162842,0.11406495,0.8269234,-0.5506242,-0.17440483,0.56230164,0.80833155,0.97804505,0.0038292408,0.20835832,0.12770946,0.8264911,-0.54827243,-0.19343501,0.5629392,0.80354357,0.97276574,0.003434972,0.231765,9.50737,0.05505371,2.0590057,9.591309,0.03755188,2.0432892,0.004257202,0.0084991455,-0.0053253174,-19.036865,6.7886353,6.251526,0,0.0,0.0,0.0,0.0
0.902557373,0.11406924,0.8269281,-0.5506163,-0.17444134,0.5622947,0.8083286,0.97803813,0.0038448283,0.20839094,0.12743703,0.8264998,-0.5483228,-0.19305564,0.56292653,0.80364376,0.97287685,0.0034428574,0.23129812,9.48822,0.05984497,2.1212616,9.591171,0.037704468,2.0435944,-0.028747559,0.0084991455,-0.01171875,-19.036865,6.7886353,6.251526,0,0.0,0.0,0.0,0.0
0.906951905,0.11405868,0.82691646,-0.5506358,-0.17439114,0.5623117,0.8083274,0.9780482,0.0038292531,0.20834342,0.12717006,0.82650834,-0.54837185,-0.19268452,0.5629139,0.8037417,0.9729853,0.003450897,0.23084114,9.593552,0.01675415,1.9201355,9.591309,0.03755188,2.0431366,0.0021362305,0.0010681152,0.007446289,-19.036865,6.7886353,6.251526,0,0.0,0.0,0.0,0.0
0.911346436,0.086477876,0.902242,-0.42247003,-0.18955527,0.43121326,0.88211316,0.9780543,0.0037981572,0.20831515,0.12690823,0.8265165,-0.5484202,-0.19231977,0.56290185,0.8038374,0.9730917,0.003458464,0.23039235,9.641449,-0.05027771,1.9823914,9.591309,0.037246704,2.0428467,0.0032043457,-0.004257202,0.003189087,-19.216919,5.1742554,7.116699,0,0.0,0.0,0.0,0.0
0.915740967,0.08646793,0.9022333,-0.42249057,-0.18956013,0.4312313,0.8821034,0.9780543,0.003813717,0.20831515,0.12599379,0.82864505,-0.54541075,-0.19223052,0.5597647,0.8060464,0.9732281,0.0032877468,0.22981775,9.636658,0.06463623,2.063797,9.591309,0.037399292,2.0428467,-0.01171875,-0.0021362305,0.0,-19.216919,5.1742554,7.116699,0,0.0,0.0,0.0,0.0
0.920135498,0.08648672,0.90224975,-0.42245176,-0.18958235,0.43119717,0.88211536,0.9780483,0.0037981342,0.20834345,0.12517549,0.830301,-0.5430758,-0.19225298,0.55730546,0.80774343,0.97332925,0.0032982659,0.22938883,9.66539,0.007171631,2.1260376,9.591309,0.037246704,2.0431366,-0.010650635,0.004257202,-0.0021362305,-19.216919,5.1742554,7.116699,0,0.0,0.0,0.0,0.0
0.92453003,0.13987397,0.7291945,-0.6698588,-0.15448008,0.6842961,0.71265346,0.97804457,0.003798174,0.2083612,0.12437489,0.8319171,-0.5407816,-0.19227228,0.55489,0.8094001,0.9734281,0.0033082634,0.228969,9.531311,0.05505371,2.0781555,9.591171,0.037246704,2.0432892,0.0,0.0063934326,0.004257202,-18.319702,8.9401245,5.9066772,0,0.0,0.0,0.0,0.0
0.928924561,0.13988954,0.7292117,-0.6698366,-0.15452652,0.6842775,0.712661,0.97803503,0.0038136968,0.20840584,0.12477283,0.83007693,-0.5435109,-0.19152398,0.5576391,0.8076863,0.9735247,0.0033180616,0.22855784,9.670166,0.06463623,2.1691437,9.591171,0.037399292,2.043747,0.008529663,0.004257202,0.0010681152,-18.319702,8.9401245,5.9066772,0,0.0,0.0,0.0,0.0
0.933319092,0.13985546,0.72917384,-0.6698849,-0.15451796,0.6843176,0.71262443,0.9780413,0.0038448407,0.20837605,0.12515941,0.8282649,-0.5461798,-0.190791,0.5603269,0.80599785,0.9736189,0.0033279744,0.22815567,9.574402,0.09336853,1.9440765,9.591171,0.037704468,2.0434418,-0.015960693,-0.008529663,0.0095825195,-18.319702,8.9401245,5.9066772,0,0.0,0.0,0.0,0.0
0.937713623,0.09745406,0.8753791,-0.47351244,-0.18418533,0.48342195,0.8557914,0.9780483,0.003813694,0.20834345,0.12553428,0.8264801,-0.5487913,-0.19007188,0.56295615,0.804334,0.9737114,0.0033383116,0.22776091,9.622284,0.15083313,2.0111237,9.591309,0.037399292,2.0431366,-0.003189087,-0.014923096,0.0010681152,-19.395447,5.354309,5.9066772,0,0.0,0.0,0.0,0.0
0.942108155,0.09735908,0.875273,-0.47372812,-0.18413648,0.48361322,0.8556938,0.9780669,0.0039210683,0.20825385,0.12553428,0.8264801,-0.5487913,-0.19007188,0.56295615,0.804334,0.9737114,0.0033383116,0.22776091,9.622284,0.15083313,2.0111237,9.591461,0.03845215,2.0422516,-0.003189087,-0.014923096,0.0010681152,-19.395447,5.354309,5.9066772,0,0.0,0.0,0.0,0.0
0.946502686,0.09733624,0.8752474,-0.47377998,-0.18413235,0.48365918,0.85566866,0.97807,0.0039506448,0.20823896,0.12438132,0.8285516,-0.5459226,-0.18990797,0.5599026,0.80650115,0.97389126,0.003361389,0.22698997,9.6558075,0.08857727,2.0494232,9.591461,0.038742065,2.042099,-0.008514404,-0.017044067,-0.018112183,-19.395447,5.354309,5.9066772,0,0.0,0.0,0.0,0.0
0.950897217,0.1267087,0.78220236,-0.61000353,-0.16533598,0.62301165,0.76453936,0.9780639,0.0039817393,0.20826721,0.12382269,0.82955176,-0.54452896,-0.1898263,0.55841964,0.8075478,0.9739784,0.0033731742,0.22661577,9.660599,0.13645935,2.1068878,9.591461,0.03904724,2.042389,-0.01171875,-0.0010681152,0.003189087,-20.11261,7.86438,5.9066772,0,0.0,0.0,0.0,0.0
0.955291748,0.12664677,0.78212667,-0.61011356,-0.16528861,0.62310654,0.7644724,0.9780799,0.004026864,0.20819105,0.12391162,0.82865596,-0.5458711,-0.18933098,0.559748,0.80674404,0.97406346,0.0033853452,0.22624953,9.612717,0.09336853,2.111679,9.591614,0.039489746,2.0416412,0.010650635,-0.012786865,-0.0010681152,-20.11261,7.86438,5.9066772,0,0.0,0.0,0.0,0.0
0.95968628,0.12661782,0.78209126,-0.610165,-0.16533104,0.62315065,0.7644273,0.97807646,0.004089089,0.2082059,0.12399645,0.8277747,-0.5471873,-0.1888448,0.5610504,0.8059529,0.9741471,0.0033981758,0.22588919,9.694122,0.19871521,2.1164703,9.591614,0.040100098,2.0417938,-0.0053253174,-0.022369385,-0.0063934326,-20.11261,7.86438,5.9066772,0,0.0,0.0,0.0,0.0
0.964080811,0.1257295,0.78537804,-0.6061134,-0.1660309,0.61900276,0.76763886,0.9780725,0.0041187014,0.20822392,0.12407772,0.82690835,-0.54847723,-0.18836921,0.5623263,0.8051746,0.9742288,0.0034119943,0.22553626,9.689331,0.10293579,2.1020966,9.591461,0.040390015,2.0419464,-0.015960693,-0.014923096,0.0021209717,-19.216919,6.967163,5.041504,0,0.0,0.0,0.0,0.0
0.968475342,0.1257187,0.78536344,-0.6061344,-0.16605848,0.61902094,0.7676181,0.97806925,0.004149807,0.2082388,0.124136,0.82611716,-0.54965514,-0.18791701,0.563488,0.80446786,0.9743088,0.0034261283,0.22519062,9.612717,0.11730957,2.0781555,9.591461,0.04069519,2.042099,0.0010681152,-0.017044067,0.0,-19.216919,6.967163,5.041504,0,0.0,0.0,0.0,0.0
0.972869873,0.12571402,0.7853571,-0.60614365,-0.16609824,0.61902887,0.7676032,0.9780631,0.0041809008,0.20826705,0.124191925,0.82533985,-0.5508089,-0.18747465,0.5646258,0.8037729,0.9743868,0.003440602,0.22485226,9.631866,0.12210083,2.1452026,9.591461,0.041000366,2.042389,-0.02128601,-0.0053253174,-0.0032043457,-19.216919,6.967163,5.041504,0,0.0,0.0,0.0,0.0
0.977264405,0.12158959,0.80026674,-0.5871874,-0.1691415,0.5996294,0.7821994,0.97806305,0.0042104637,0.20826703,0.1242456,0.82457656,-0.551939,-0.18704207,0.5657399,0.80309004,0.9744631,0.0034554077,0.22452118,9.627075,0.13645935,2.0494232,9.591461,0.041290283,2.042389,-0.012786865,-0.014923096,-0.0010681152,-18.858337,7.3257446,6.0791016,0,0.0,0.0,0.0,0.0
0.981658936,0.12158607,0.8002627,-0.5871936,-0.16918533,0.5996345,0.7821859,0.97805583,0.0042416197,0.20829993,0.12366196,0.8240481,-0.5528585,-0.1856442,0.56650996,0.8028715,0.9748046,0.0033502928,0.22303548,9.8138275,0.12210083,2.1643524,9.591309,0.04159546,2.042694,0.0010681152,-0.018112183,0.0021209717,-18.858337,7.3257446,6.0791016,0,0.0,0.0,0.0,0.0
0.986053467,0.121608905,0.8002885,-0.5871538,-0.16920519,0.5996003,0.7822079,0.9780496,0.0042260326,0.2083297,0.12363197,0.8235857,-0.55355376,-0.18531092,0.5671819,0.802474,0.97487175,0.0033681195,0.22274123,9.564835,-0.02154541,2.1499786,9.591309,0.04144287,2.0429993,-0.0053253174,-0.01171875,0.018096924,-18.858337,7.3257446,6.0791016,0,0.0,0.0,0.0,0.0
0.990447998,0.121615015,0.8002954,-0.5871432,-0.16921732,0.5995911,0.7822123,0.9780467,0.00422602,0.2083431,0.12360253,0.8231325,-0.554234,-0.18498491,0.56783926,0.8020843,0.97493744,0.0033852775,0.22245347,9.6558075,0.05027771,2.0925293,9.591309,0.04144287,2.0431366,-0.008514404,0.0021209717,-0.010650635,-18.858337,7.3257446,6.0791016,0,0.0,0.0,0.0,0.0
0.99484253,0.12158818,0.80026513,-0.5871899,-0.16923766,0.5996311,0.78217715,0.9780465,0.004271142,0.20834306,0.12357338,0.822688,-0.5549001,-0.18466583,0.568483,0.8017017,0.9750016,0.0034020925,0.22217172,9.646225,0.16519165,2.0590057,9.591309,0.041885376,2.0431366,0.0063934326,-0.0032043457,0.0021209717,-18.858337,7.3257446,6.0791016,0,0.0,0.0,0.0,0.0
0.999237061,0.12158818,0.80026513,-0.5871899,-0.16923766,0.5996311,0.78217715,0.9780465,0.004271142,0.20834306,0.12354387,0.82225126,-0.55555344,-0.1843537,0.56911427,0.8013255,0.9750644,0.0034194733,0.22189565,9.689331,0.01675415,2.0542145,9.591309,0.041885376,2.0431366,-0.0021362305,-0.018112183,-0.010650635,-18.858337,7.3257446,6.0791016,0,0.0,0.0,0.0,0.0
1.003631592,0.11167654,0.8333717,-0.5413132,-0.17597483,0.5526963,0.8145916,0.9780394,0.0042867325,0.20837565,0.123514526,0.82182294,-0.55619353,-0.1840479,0.56973267,0.80095637,0.9751259,0.0034365067,0.22162503,9.727631,0.06463623,1.905777,9.591171,0.042037964,2.0434418,0.0021362305,-0.017044067,-0.0053253174,-18.678284,6.7886353,6.5979004,0,0.0,0.0,0.0,0.0
1.008026123,0.111651115,0.8333457,-0.5413584,-0.17591888,0.5527355,0.81457716,0.97805244,0.004286728,0.20831476,0.123514526,0.82182294,-0.55619353,-0.1840479,0.56973267,0.80095637,0.9751259,0.0034365067,0.22162503,9.727631,0.06463623,1.905777,9.591309,0.042037964,2.0428467,0.0021362305,-0.017044067,-0.0053253174,-18.678284,6.7886353,6.5979004,0,0.0,0.0,0.0,0.0
1.012420655,0.11163736,0.8333317,-0.54138285,-0.17588858,0.5527566,0.8145694,0.9780595,0.0042866906,0.20828183,0.123038,0.82228583,-0.55561465,-0.18373443,0.56906414,0.8015034,0.97524524,0.0034701754,0.22109874,9.641449,0.04069519,1.9776001,9.591461,0.042037964,2.0425415,0.0021362305,0.004257202,0.003189087,-18.678284,6.7886353,6.5979004,0,0.0,0.0,0.0,0.0
1.016815186,0.106381275,0.8492484,-0.51716554,-0.17908397,0.52797604,0.8301629,0.9780655,0.0043022768,0.20825355,0.12280675,0.8225099,-0.5553341,-0.18358149,0.5687401,0.80176836,0.97530323,0.003486506,0.22084272,9.612717,0.05984497,2.0015411,9.591461,0.04219055,2.0422516,-0.01171875,0.0084991455,0.003189087,-19.754028,6.071472,5.9066772,0,0.0,0.0,0.0,0.0
1.021209717,0.10636075,0.8492242,-0.51720935,-0.17906189,0.52801466,0.8301429,0.9780717,0.0043178643,0.20822375,0.12280675,0.8225099,-0.5553341,-0.18358149,0.5687401,0.80176836,0.97530323,0.003486506,0.22084272,9.612717,0.05984497,2.0015411,9.591461,0.04234314,2.0419464,-0.01171875,0.0084991455,0.003189087,-19.754028,6.071472,5.9066772,0,0.0,0.0,0.0,0.0
1.025604248,0.10634879,0.8492102,-0.5172348,-0.17908697,0.52803695,0.8301233,0.9780684,0.0043474133,0.2082386,0.12214261,0.82360524,-0.5538552,-0.18342544,0.5671525,0.80292785,0.975416,0.003519428,0.22034365,9.6558075,0.13645935,2.0733643,9.591461,0.042633057,2.042099,-0.007461548,0.014892578,0.0,-19.754028,6.071472,5.9066772,0,0.0,0.0,0.0,0.0
1.02999878,0.11189193,0.83249575,-0.54261494,-0.17573087,0.5540147,0.81374836,0.97805876,0.004302316,0.20828499,0.12182065,0.8241351,-0.55313736,-0.1833496,0.56638217,0.80348873,0.9754705,0.0035359876,0.2201019,9.674957,-0.03111267,2.1212616,9.591309,0.04219055,2.0425415,-0.0021362305,0.004257202,-0.0063934326,-21.368408,6.6085815,5.732727,0,0.0,0.0,0.0,0.0
1.034393311,0.111884885,0.8324865,-0.54263055,-0.17571396,0.5540286,0.8137426,0.9780626,0.004302264,0.20826694,0.12161986,0.82430416,-0.5529297,-0.18320002,0.56613606,0.8036963,0.97552365,0.0035513144,0.21986593,9.550461,0.05027771,2.0111237,9.591461,0.04219055,2.042389,-0.029815674,0.0063934326,-0.0010681152,-21.368408,6.6085815,5.732727,0,0.0,0.0,0.0,0.0
1.038787842,0.111882985,0.83248407,-0.54263484,-0.17573695,0.5540323,0.8137352,0.9780587,0.0043178755,0.20828497,0.121422976,0.8244695,-0.5527264,-0.18305296,0.5658951,0.8038994,0.97557575,0.0035663336,0.21963425,9.54567,0.07899475,2.0733643,9.591309,0.04234314,2.0425415,0.0053253174,0.013824463,-0.009597778,-21.368408,6.6085815,5.732727,0,0.0,0.0,0.0,0.0
1.043182373,0.116533436,0.81740063,-0.56415963,-0.17268823,0.5760534,0.7989626,0.9780587,0.0043178755,0.20828497,0.121230096,0.82463145,-0.55252707,-0.18290918,0.565659,0.8040983,0.9756267,0.0035813644,0.21940756,9.612717,0.05505371,2.0254822,9.591309,0.04234314,2.0425415,0.004257202,0.0084991455,-0.0010681152,-20.292664,8.042908,7.461548,0,0.0,0.0,0.0,0.0
1.047576905,0.116533436,0.81740063,-0.56415963,-0.17268823,0.5760534,0.7989626,0.9780587,0.0043178755,0.20828497,0.121138714,0.82448816,-0.552761,-0.18270355,0.56586784,0.8039982,0.97567666,0.0035960947,0.21918541,9.579193,0.026321411,2.0494232,9.591309,0.04234314,2.0425415,-0.013839722,0.011703491,-0.004272461,-20.292664,8.042908,7.461548,0,0.0,0.0,0.0,0.0
1.051971436,0.11654669,0.81741387,-0.5641378,-0.17271522,0.57603467,0.7989702,0.97805226,0.004317847,0.20831473,0.12093491,0.8244374,-0.55288136,-0.18307804,0.56593907,0.80386287,0.97563165,0.004005346,0.21937814,9.583984,0.026321411,2.1308289,9.591309,0.04234314,2.0428467,-0.0010681152,0.0063934326,-0.0063934326,-20.292664,8.042908,7.461548,0,0.0,0.0,0.0,0.0
1.056365967,0.12303918,0.7949402,-0.59408027,-0.1681326,0.6066726,0.7769683,0.97805566,0.0042867423,0.20829988,0.12084964,0.82429814,-0.5531076,-0.18286967,0.56614184,0.80376744,0.9756813,0.004011596,0.21915716,9.569611,-0.002380371,1.9728088,9.591309,0.042037964,2.042694,0.010650635,0.013824463,-0.0138549805,-18.678284,6.7886353,5.215454,0,0.0,0.0,0.0,0.0
1.060760498,0.12301547,0.79491,-0.59412575,-0.16810957,0.6067122,0.77694255,0.9780626,0.004302264,0.20826694,0.12090506,0.82373095,-0.5539398,-0.18257305,0.56696665,0.8032533,0.97573,0.0040170993,0.21894023,9.583984,0.06942749,1.9919739,9.591461,0.04219055,2.042389,-0.014892578,0.011703491,-0.004272461,-18.678284,6.7886353,5.215454,0,0.0,0.0,0.0,0.0
1.06515503,0.123019025,0.7949145,-0.59411895,-0.16816695,0.606706,0.77693474,0.9780522,0.0043334067,0.20831472,0.12095849,0.82317376,-0.5547558,-0.18228202,0.5677753,0.8027481,0.97577775,0.0040228027,0.21872701,9.70369,0.12689209,2.15477,9.591309,0.042495728,2.0428467,0.004257202,-0.0010681152,0.0095825195,-18.678284,6.7886353,5.215454,0,0.0,0.0,0.0,0.0
1.069549561,0.11481339,0.82330155,-0.55587083,-0.17392664,0.56758803,0.80473197,0.9780427,0.004286747,0.20836079,0.121010445,0.822627,-0.5555549,-0.18199798,0.56856716,0.80225194,0.97582436,0.004029015,0.21851902,9.6558075,-0.04548645,1.9919739,9.591171,0.042037964,2.0432892,-0.0053253174,0.015960693,-0.008529663,-18.858337,6.967163,6.42395,0,0.0,0.0,0.0,0.0
1.073944092,0.1148271,0.82331616,-0.55584645,-0.1740095,0.56756663,0.80472904,0.9780263,0.004317863,0.20843686,0.12088649,0.8226404,-0.55556196,-0.18183692,0.56854755,0.8023023,0.9758697,0.00403417,0.21831612,9.598343,0.09336853,2.2409668,9.591019,0.04234314,2.0440369,0.0138549805,0.020217896,0.0063934326,-18.858337,6.967163,6.42395,0,0.0,0.0,0.0,0.0
1.078338623,0.11480912,0.823297,-0.5558784,-0.17402206,0.56759405,0.8047069,0.97802615,0.004347426,0.20843683,0.12076528,0.82265395,-0.55556834,-0.18168072,0.568528,0.80235153,0.9759138,0.004039843,0.21811882,9.641449,0.13166809,2.0590057,9.591019,0.042633057,2.0440369,0.0,0.010635376,0.007446289,-18.858337,6.967163,6.42395,0,0.0,0.0,0.0,0.0
1.082733155,0.12568878,0.7854694,-0.6060033,-0.16639034,0.61888504,0.76765573,0.9780166,0.0043473835,0.20848148,0.12064616,0.8226668,-0.55557513,-0.1815279,0.56850934,0.80239934,0.97595704,0.004045995,0.21792547,9.698898,0.03111267,2.1882935,9.591019,0.042633057,2.0444946,-0.019165039,0.004257202,-0.0053253174,-21.009827,9.118652,7.461548,0,0.0,0.0,0.0,0.0
1.087127686,0.12568156,0.7854619,-0.60601455,-0.16637714,0.61889464,0.7676509,0.9780198,0.0043473975,0.20846659,0.120761044,0.8219541,-0.5566042,-0.18122506,0.5695393,0.80173707,0.97599906,0.004052023,0.21773686,9.569611,0.04069519,1.9776001,9.591019,0.042633057,2.044342,-0.0010681152,0.0053253174,0.0,-21.009827,9.118652,7.461548,0,0.0,0.0,0.0,0.0
1.091522217,0.12571123,0.7854927,-0.60596853,-0.16643147,0.61885566,0.7676707,0.9780068,0.004347409,0.20852782,0.1208729,0.8212542,-0.5576122,-0.18092792,0.57054806,0.8010867,0.97604036,0.004057931,0.21755162,9.598343,0.05505371,2.2170258,9.590866,0.042633057,2.0449371,-0.003189087,-0.008529663,-0.0063934326,-21.009827,9.118652,7.461548,0,0.0,0.0,0.0,0.0
1.095916748,0.1244965,0.78996575,-0.6003788,-0.167361,0.61313546,0.77204615,0.97800356,0.0043629548,0.20854269,0.12098249,0.8205676,-0.5585983,-0.18063782,0.57153505,0.8004485,0.9760805,0.0040637203,0.21737126,9.536102,0.08378601,2.0781555,9.590866,0.042785645,2.0450897,-0.004257202,0.007446289,0.0010681152,-19.754028,7.86438,6.251526,0,0.0,0.0,0.0,0.0
1.10031128,0.12451392,0.7899857,-0.6003489,-0.16734731,0.6131098,0.77206933,0.9780036,0.0043333913,0.2085427,0.12106314,0.81997675,-0.55944777,-0.18037152,0.57238233,0.79990286,0.97611976,0.004069705,0.21719486,9.598343,-0.04069519,2.0542145,9.590866,0.042495728,2.0450897,-0.01171875,-0.0063934326,0.003189087,-19.754028,7.86438,6.251526,0,0.0,0.0,0.0,0.0
1.104705811,0.124502875,0.7899731,-0.60036784,-0.16730137,0.61312634,0.77206635,0.978013,0.004317873,0.20849958,0.12114208,0.8193973,-0.5602792,-0.1801103,0.5732116,0.7993677,0.9761582,0.0040749786,0.21702193,9.579193,-0.002380371,1.9249268,9.590866,0.04234314,2.0446472,-0.013839722,0.0021209717,0.003189087,-19.754028,7.86438,6.251526,0,0.0,0.0,0.0,0.0
1.109100342,0.1175691,0.8145551,-0.56804717,-0.1722958,0.58007056,0.7961359,0.9780039,0.004271154,0.20854276,0.12121894,0.8188282,-0.5610938,-0.17985345,0.5740241,0.7988424,0.976196,0.004079837,0.21685168,9.622284,-0.07421875,2.1643524,9.590866,0.041885376,2.0450897,-0.0010681152,-0.0010681152,0.0010681152,-17.60254,7.86438,7.633972,0,0.0,0.0,0.0,0.0
1.113494873,0.117545374,0.8145349,-0.568081,-0.17227633,0.5800988,0.7961196,0.97801024,0.004286741,0.20851299,0.12114705,0.81874317,-0.56123346,-0.17970176,0.5741454,0.7987893,0.9762329,0.004083663,0.21668562,9.569611,0.07899475,1.9776001,9.590866,0.042037964,2.0447845,-0.012786865,-0.004257202,0.007446289,-17.60254,7.86438,7.633972,0,0.0,0.0,0.0,0.0
1.117889405,0.11753547,0.81452644,-0.5680952,-0.17228346,0.58011055,0.79610944,0.9780101,0.0043023005,0.20851298,0.121860094,0.8189419,-0.560789,-0.17908691,0.57386833,0.7991264,0.97625715,0.003048346,0.21659341,9.622284,0.09815979,2.0542145,9.590866,0.04219055,2.0447845,-0.010650635,0.0010681152,0.013824463,-17.60254,7.86438,7.633972,0,0.0,0.0,0.0,0.0
1.122283936,0.11051755,0.83699685,-0.5359311,-0.17679584,0.5471905,0.8181232,0.978023,0.004333408,0.20845172,0.121774696,0.8188541,-0.5609358,-0.17895022,0.57399356,0.79906714,0.9762929,0.003073425,0.216432,9.555252,0.08378601,1.8722534,9.591019,0.042495728,2.0441895,-0.008514404,-0.0053253174,-0.0032043457,-19.934082,6.967163,6.7703247,0,0.0,0.0,0.0,0.0
1.126678467,0.110542536,0.8370232,-0.5358846,-0.17685239,0.5471501,0.818138,0.97801,0.0043334197,0.20851295,0.12154714,0.8192254,-0.56044275,-0.17891254,0.5734633,0.7994561,0.9763281,0.003098625,0.21627252,9.593552,0.05027771,2.1882935,9.590866,0.042495728,2.0447845,-0.008514404,0.0,-0.0021362305,-19.934082,6.967163,6.7703247,0,0.0,0.0,0.0,0.0
1.131072998,0.110548645,0.8370297,-0.5358734,-0.17686613,0.5471403,0.8181417,0.9780068,0.0043334053,0.20852782,0.12132478,0.8195895,-0.5599584,-0.17887655,0.5729427,0.7998374,0.97636235,0.0031233209,0.21611747,9.651016,0.04548645,2.0973206,9.590866,0.042495728,2.0449371,-0.019165039,-0.0032043457,0.0063934326,-19.934082,6.967163,6.7703247,0,0.0,0.0,0.0,0.0
1.13546753,0.13292767,0.7575692,-0.63907677,-0.16074498,0.6527406,0.7403316,0.9780038,0.004317832,0.20854273,0.12110706,0.81994617,-0.5594831,-0.17884131,0.572432,0.80021083,0.97639585,0.003147523,0.21596579,9.555252,-0.002380371,2.0781555,9.590866,0.04234314,2.0450897,0.0,0.009567261,0.0053253174,-19.934082,8.042908,5.3878784,0,0.0,0.0,0.0,0.0
1.139862061,0.13292767,0.7575692,-0.63907677,-0.16074498,0.6527406,0.7403316,0.9780038,0.004317832,0.20854273,0.12136675,0.8187797,-0.56113267,-0.17848629,0.57409906,0.79909503,0.97642857,0.0031709292,0.2158175,9.598343,0.05984497,2.0446472,9.590866,0.04234314,2.0450897,-0.012786865,0.0063934326,0.012771606,-19.934082,8.042908,5.3878784,0,0.0,0.0,0.0,0.0
1.144256592,0.1329465,0.75759375,-0.63904375,-0.16070887,0.6527124,0.7403642,0.9780071,0.0042711673,0.20852788,0.1216203,0.81763333,-0.56274706,-0.17813803,0.57573044,0.79799825,0.9764606,0.0031938674,0.21567209,9.689331,-0.07899475,2.0494232,9.590866,0.041885376,2.0449371,-0.0063934326,0.007446289,-0.0053253174,-19.934082,8.042908,5.3878784,0,0.0,0.0,0.0,0.0
1.148651123,0.10677759,0.84858376,-0.5181738,-0.17916659,0.52904373,0.82946485,0.9780071,0.0042711673,0.20852788,0.1218683,0.8165071,-0.5643264,-0.17779571,0.5773264,0.79692084,0.97649205,0.0032154133,0.21552925,9.550461,0.011962891,2.0350647,9.590866,0.041885376,2.0449371,0.0021362305,0.0021209717,-0.004272461,-19.754028,7.147217,7.633972,0,0.0,0.0,0.0,0.0
1.153045655,0.10676493,0.848572,-0.51819557,-0.17913751,0.5290625,0.8294591,0.97801375,0.0042711287,0.20849642,0.12156447,0.8171759,-0.56342304,-0.17783451,0.5763792,0.7975976,0.97652286,0.0032365285,0.21538931,9.627075,0.05984497,1.9440765,9.591019,0.041885376,2.0446472,0.0,0.0010681152,-0.004272461,-19.754028,7.147217,7.633972,0,0.0,0.0,0.0,0.0
1.157440186,0.106779784,0.84858584,-0.5181701,-0.1792003,0.52904046,0.82945985,0.9780007,0.0042866995,0.20855765,0.121266544,0.81783,-0.5625375,-0.17787153,0.5754506,0.79825956,0.9765532,0.0032572204,0.21525158,9.646225,0.09336853,2.2170258,9.590866,0.042037964,2.0452423,-0.010650635,-0.01171875,0.004257202,-19.754028,7.147217,7.633972,0,0.0,0.0,0.0,0.0
1.161834717,0.102863796,0.8598244,-0.50012094,-0.1814979,0.5105715,0.84046125,0.97799665,0.0043178694,0.20857565,0.120974995,0.8184703,-0.5616684,-0.17790857,0.5745394,0.79890734,0.9765826,0.00327781,0.21511781,9.674957,0.11730957,2.1212616,9.5907135,0.04234314,2.045395,0.0,-0.0063934326,0.003189087,-21.009827,6.25,6.42395,0,0.0,0.0,0.0,0.0
1.166229248,0.10287021,0.85983175,-0.5001071,-0.18154424,0.51055914,0.84045887,0.97798747,0.0043333885,0.20861882,0.120612085,0.81934476,-0.56047016,-0.17799728,0.5732916,0.7997835,0.9766113,0.0032986111,0.21498705,9.560043,0.05027771,2.1452026,9.5907135,0.042495728,2.0458374,-0.0063934326,-0.007461548,-0.0021362305,-21.009827,6.25,6.42395,0,0.0,0.0,0.0,0.0
1.17062378,0.10287021,0.85983175,-0.5001071,-0.18154424,0.51055914,0.84045887,0.97798747,0.0043333885,0.20861882,0.120256655,0.82020015,-0.55929434,-0.1780845,0.57206714,0.80064046,0.9766393,0.0033193068,0.2148598,9.531311,0.04548645,2.0494232,9.5907135,0.042495728,2.0458374,-0.007461548,-0.0063934326,0.003189087,-21.009827,6.25,6.42395,0,0.0,0.0,0.0,0.0
1.175018311,0.11923743,0.80872506,-0.5759742,-0.17120412,0.58817077,0.7904077,0.9779936,0.0043629794,0.208589,0.119908325,0.8210365,-0.55814064,-0.17816931,0.57086587,0.80147856,0.97666657,0.0033395882,0.21473508,9.660599,0.11730957,1.9871826,9.5907135,0.042785645,2.0455322,-0.012786865,-0.0053253174,0.004257202,-19.036865,7.5057983,6.5979004,0,0.0,0.0,0.0,0.0
1.179412842,0.11923743,0.80872506,-0.5759742,-0.17120412,0.58817077,0.7904077,0.9779936,0.0043629794,0.208589,0.11989733,0.8207939,-0.5584997,-0.178029,0.5712145,0.80126125,0.9766935,0.003360056,0.21461222,9.607925,0.04548645,2.039856,9.5907135,0.042785645,2.0455322,-0.004257202,0.004257202,0.0063934326,-19.036865,7.5057983,6.5979004,0,0.0,0.0,0.0,0.0
1.183807373,0.119262286,0.8087512,-0.57593226,-0.17127989,0.5881346,0.79041815,0.97797734,0.0043785363,0.2086651,0.120766014,0.8203034,-0.559033,-0.17719498,0.57192385,0.8009401,0.97673815,0.0023314976,0.21442261,9.612717,0.07421875,2.2601166,9.590561,0.042938232,2.04628,0.0032043457,-0.0010681152,0.017028809,-19.036865,7.5057983,6.5979004,0,0.0,0.0,0.0,0.0
1.188201905,0.106328465,0.85005,-0.5158579,-0.17968285,0.52668417,0.83085376,0.9779613,0.0043474077,0.20874092,0.12073787,0.8200756,-0.55937326,-0.17707546,0.57225037,0.8007334,0.97676337,0.0023724383,0.21430755,9.670166,-0.011962891,2.2553253,9.590424,0.042633057,2.0470276,0.008529663,0.010635376,-0.0053253174,-19.395447,6.4300537,6.5979004,0,0.0,0.0,0.0,0.0
1.192596436,0.10631516,0.85003614,-0.5158835,-0.17970875,0.5267063,0.8308341,0.97795796,0.004378512,0.20875576,0.120449364,0.82069933,-0.55852,-0.1771379,0.5713552,0.80135846,0.9767876,0.0024119378,0.21419632,9.550461,0.10293579,2.1068878,9.590424,0.042938232,2.0471802,-0.0021362305,-0.0053253174,0.0053253174,-19.395447,6.4300537,6.5979004,0,0.0,0.0,0.0,0.0
1.196990967,0.1063056,0.85002613,-0.51590186,-0.17971477,0.5267222,0.8308227,0.97795796,0.0043940716,0.20875576,0.12016641,0.8213094,-0.5576836,-0.17719923,0.5704778,0.80196977,0.9768114,0.0024512692,0.21408767,9.607925,0.07421875,2.0590057,9.590424,0.04309082,2.0471802,-0.013839722,-0.009597778,-0.010650635,-19.395447,6.4300537,6.5979004,0,0.0,0.0,0.0,0.0
1.201385498,0.10629458,0.8500146,-0.515923,-0.17968842,0.5267407,0.83081657,0.9779639,0.0043940987,0.20872748,0.1198889,0.8219061,-0.5568636,-0.17725903,0.56961757,0.8025678,0.9768346,0.0024901256,0.21398109,9.646225,0.03590393,1.9728088,9.590424,0.04309082,2.0468903,0.0021362305,-0.0063934326,-0.004272461,-19.395447,6.4300537,6.5979004,0,0.0,0.0,0.0,0.0
1.20578003,0.1063056,0.85002613,-0.51590186,-0.17971477,0.5267222,0.8308227,0.97795796,0.0043940716,0.20875576,0.11961674,0.82248974,-0.55605984,-0.17731676,0.56877434,0.80315286,0.9768575,0.002528205,0.21387614,9.607925,0.04548645,2.1068878,9.590424,0.04309082,2.0471802,-0.0021362305,-0.020248413,0.0053253174,-19.395447,6.4300537,6.5979004,0,0.0,0.0,0.0,0.0
1.210174561,0.106309354,0.85003,-0.5158946,-0.17969485,0.52671593,0.8308308,0.97796106,0.004378526,0.20874086,0.11935026,0.8230611,-0.55527097,-0.17737353,0.56794703,0.80372554,0.9768798,0.0025655227,0.21377389,9.497787,0.011962891,1.9823914,9.590424,0.042938232,2.0470276,-0.007461548,-0.0053253174,-0.007461548,-19.395447,6.4300537,6.5979004,0,0.0,0.0,0.0,0.0
1.214569092,0.10900482,0.8421532,-0.528106,-0.178128,0.53922075,0.8231107,0.97795105,0.004347431,0.20878872,0.119089134,0.8236203,-0.5544974,-0.17742832,0.56713563,0.8042863,0.9769017,0.0026017826,0.21367325,9.598343,-0.05027771,2.173935,9.590271,0.042633057,2.0474854,-0.0053253174,-0.008529663,-0.0063934326,-19.934082,6.6085815,6.42395,0,0.0,0.0,0.0,0.0
1.218963623,0.10904569,0.84219825,-0.5280257,-0.17817032,0.53915066,0.82314754,0.97793883,0.0043178136,0.2088468,0.11888675,0.8240001,-0.5539763,-0.17744702,0.56658345,0.80467117,0.976923,0.0026366957,0.21357563,9.54567,-0.02154541,2.202652,9.590271,0.04234314,2.0480804,-0.008514404,-0.0010681152,0.008514404,-19.934082,6.6085815,6.42395,0,0.0,0.0,0.0,0.0
1.223358155,0.10902509,0.8421756,-0.5280662,-0.17815018,0.53918606,0.8231288,0.9779448,0.0043333997,0.20881851,0.11868923,0.824373,-0.55346364,-0.17746595,0.5660407,0.8050489,0.9769435,0.0026703181,0.21348105,9.627075,0.07421875,1.9871826,9.590271,0.042495728,2.0477905,0.004257202,-0.0138549805,0.0,-19.934082,6.6085815,6.42395,0,0.0,0.0,0.0,0.0
1.227752686,0.101138644,0.864932,-0.49159285,-0.1827754,0.5018701,0.8454107,0.97793865,0.004347376,0.20884676,0.1184953,0.82473755,-0.5529619,-0.17748396,0.56550926,0.8054183,0.9769638,0.0027035798,0.21338788,9.627075,0.08857727,2.1452026,9.590271,0.042633057,2.0480804,-0.019165039,-0.004257202,-0.0053253174,-18.858337,6.25,7.116699,0,0.0,0.0,0.0,0.0
1.232147217,0.1011599,0.8649518,-0.49155387,-0.18288895,0.501836,0.84540665,0.9779153,0.00437853,0.20895578,0.11815016,0.82558805,-0.5517653,-0.17760544,0.5642667,0.8062626,0.9769835,0.0027364558,0.21329711,9.670166,0.11730957,2.336731,9.589966,0.042938232,2.0491333,-0.003189087,-0.014923096,-0.0032043457,-18.858337,6.25,7.116699,0,0.0,0.0,0.0,0.0
1.236541748,0.10113209,0.864926,-0.49160498,-0.18285005,0.5018803,0.84538877,0.9779254,0.0043940656,0.20890793,0.117812395,0.8264202,-0.5505906,-0.17772606,0.5630471,0.8070882,0.9770024,0.0027692975,0.21321033,9.74678,0.06942749,1.9632416,9.590118,0.04309082,2.0486755,-0.0010681152,-0.004257202,0.003189087,-18.858337,6.25,7.116699,0,0.0,0.0,0.0,0.0
1.24093628,0.11674387,0.8177559,-0.563601,-0.17333917,0.57554835,0.7991856,0.9779184,0.004394104,0.2089409,0.1174807,0.8272333,-0.5494391,-0.17784299,0.56185156,0.80789524,0.9770211,0.0028017927,0.21312436,9.593552,0.05505371,2.13562,9.589966,0.04309082,2.0489807,-0.014892578,-0.012786865,-0.0010681152,-19.036865,6.7886353,5.9066772,0,0.0,0.0,0.0,0.0
1.245330811,0.11674387,0.8177559,-0.563601,-0.17333917,0.57554835,0.7991856,0.9779184,0.004394104,0.2089409,0.11746716,0.82704604,-0.54972386,-0.1777522,0.56212705,0.8077235,0.9770393,0.002833639,0.21304072,9.66539,0.04548645,2.0781555,9.589966,0.04309082,2.0489807,-0.0095825195,-0.0032043457,0.0063934326,-19.036865,6.7886353,5.9066772,0,0.0,0.0,0.0,0.0
1.249725342,0.11669733,0.817702,-0.563689,-0.17331578,0.5756247,0.79913574,0.9779281,0.0044392007,0.2088945,0.11754983,0.8264087,-0.55066395,-0.17618978,0.56306684,0.80741125,0.97731227,0.002110302,0.21179317,9.598343,0.14604187,1.9249268,9.590118,0.043533325,2.0485382,0.0095825195,-0.018112183,0.013824463,-19.036865,6.7886353,5.9066772,0,0.0,0.0,0.0,0.0
1.254119873,0.12093949,0.8032646,-0.5832149,-0.17034546,0.59560597,0.785007,0.9779346,0.0044096666,0.20886478,0.11753334,0.8262365,-0.5509258,-0.17613156,0.5633193,0.8072478,0.9773247,0.00215688,0.21173511,9.631866,-0.04548645,1.9728088,9.590118,0.04324341,2.048233,-0.0021362305,-0.0021362305,-0.008529663,-20.292664,6.967163,5.3878784,0,0.0,0.0,0.0,0.0
1.258514405,0.12091731,0.803235,-0.5832601,-0.17032115,0.59564567,0.78498197,0.9779415,0.0044236314,0.20883182,0.117604114,0.82578963,-0.5515802,-0.17601576,0.5639739,0.8068159,0.97733706,0.0022019355,0.21167764,9.598343,0.10772705,1.9632416,9.590271,0.043380737,2.0479279,-0.0095825195,-0.017044067,-0.007461548,-20.292664,6.967163,5.3878784,0,0.0,0.0,0.0,0.0
1.262908936,0.1209251,0.8032455,-0.5832444,-0.17033781,0.5956319,0.7849891,0.9779377,0.0044236844,0.20884988,0.11767301,0.82535076,-0.55222213,-0.17590186,0.5646159,0.80639166,0.9773493,0.0022463696,0.21162078,9.66539,0.07899475,1.9105682,9.590118,0.043380737,2.0480804,0.0,0.0010681152,0.012771606,-20.292664,6.967163,5.3878784,0,0.0,0.0,0.0,0.0
1.267303467,0.10440514,0.85558504,-0.5070244,-0.18095234,0.5176432,0.8362426,0.9779345,0.0044392296,0.20886475,0.11774056,0.8249203,-0.5528505,-0.17579058,0.56524444,0.80597544,0.97736114,0.0022899157,0.21156542,9.603134,0.07899475,2.0733643,9.590118,0.043533325,2.048233,0.012786865,0.011703491,0.007446289,-19.395447,6.071472,6.251526,0,0.0,0.0,0.0,0.0
1.271697998,0.104401305,0.8555809,-0.50703233,-0.18097213,0.51765007,0.8362342,0.9779312,0.004454775,0.2088796,0.11774056,0.8249203,-0.5528505,-0.17579058,0.56524444,0.80597544,0.97736114,0.0022899157,0.21156542,9.603134,0.07899475,2.0733643,9.590118,0.043685913,2.0483856,0.012786865,0.011703491,0.007446289,-19.395447,6.071472,6.251526,0,0.0,0.0,0.0,0.0
1.27609253,0.104433715,0.8556162,-0.50696605,-0.18102372,0.51759183,0.83625907,0.9779182,0.0044392264,0.20894085,0.117217004,0.8261855,-0.55106956,-0.1760137,0.5633932,0.807222,0.977384,0.0023756444,0.21145923,9.593552,0.08857727,2.1930847,9.589966,0.043533325,2.0489807,-0.015960693,0.0053253174,0.004257202,-19.395447,6.071472,6.251526,0,0.0,0.0,0.0,0.0
1.280487061,0.10444725,0.85563093,-0.50693846,-0.18108693,0.5175674,0.83626056,0.9779051,0.0044547976,0.20900205,0.117217004,0.8261855,-0.55106956,-0.1760137,0.5633932,0.807222,0.977384,0.0023756444,0.21145923,9.593552,0.08857727,2.1930847,9.589813,0.043685913,2.0495758,-0.015960693,0.0053253174,0.004257202,-19.395447,6.071472,6.251526,0,0.0,0.0,0.0,0.0
1.284881592,0.115088,0.8231943,-0.555973,-0.17451741,0.56774247,0.80449504,0.97790515,0.004439238,0.20900206,0.11671582,0.82739884,-0.5493528,-0.17623098,0.5616093,0.80841666,0.9774047,0.0024579791,0.21136202,9.603134,0.002380371,2.0733643,9.589813,0.043533325,2.0495758,0.004257202,0.010650635,-0.0032043457,-19.5755,6.6085815,5.732727,0,0.0,0.0,0.0,0.0
1.289276123,0.115078874,0.8231831,-0.5559913,-0.17452379,0.56775844,0.8044823,0.9779051,0.0044547976,0.20900205,0.116683446,0.8273153,-0.5494856,-0.17619637,0.56173235,0.80833876,0.97741485,0.0024976046,0.21131481,9.617508,0.07899475,2.0542145,9.589813,0.043685913,2.0495758,0.0021209717,0.010650635,0.0053253174,-19.5755,6.6085815,5.732727,0,0.0,0.0,0.0,0.0
1.293670655,0.09726752,0.8752763,-0.47374102,-0.18502179,0.48360297,0.8555088,0.97790897,0.004439185,0.208984,0.1166516,0.827233,-0.5496161,-0.17616263,0.56185323,0.8082621,0.97742474,0.0025367483,0.21126863,9.583984,-0.011962891,1.9871826,9.589966,0.043533325,2.0494232,0.004257202,0.003189087,0.014892578,-21.72699,5.8914185,6.42395,0,0.0,0.0,0.0,0.0
1.298065186,0.097234435,0.87523824,-0.47381803,-0.1849911,0.48367143,0.85547656,0.977918,0.0044703456,0.2089408,0.116271384,0.8282637,-0.54814243,-0.17635965,0.5603326,0.80927414,0.97743446,0.0025747973,0.21122295,9.588776,0.12210083,1.9393005,9.589966,0.0438385,2.0489807,-0.0021362305,-0.004257202,-0.01171875,-21.72699,5.8914185,6.42395,0,0.0,0.0,0.0,0.0
1.302459717,0.097269304,0.8752783,-0.4737368,-0.18505837,0.48359907,0.855503,0.97790194,0.004454783,0.20901693,0.11589768,0.82927024,-0.5466979,-0.17655137,0.5588417,0.8102626,0.9774443,0.0026127084,0.21117726,9.627075,-0.01675415,2.2601166,9.589813,0.043685913,2.0497284,0.0010681152,0.013839722,-0.0021362305,-21.72699,5.8914185,6.42395,0,0.0,0.0,0.0,0.0
1.306854248,0.11451938,0.82521737,-0.55308366,-0.1749816,0.5647979,0.8064644,0.97788894,0.004423675,0.20907816,0.11553195,0.8302549,-0.5452789,-0.1767398,0.5573775,0.8112295,0.97745353,0.00264955,0.211134,9.780304,-0.007171631,2.2361755,9.589661,0.043380737,2.0503235,0.0010681152,0.007461548,0.0021209717,-19.934082,6.6085815,5.732727,0,0.0,0.0,0.0,0.0
1.31124878,0.11451202,0.8252083,-0.55309874,-0.17496483,0.56481117,0.80645865,0.97789276,0.004423622,0.2090601,0.11551198,0.83015484,-0.5454355,-0.17670435,0.55752647,0.8111349,0.9774623,0.0026850326,0.21109296,9.670166,0.04548645,2.0207062,9.589813,0.043380737,2.050171,0.012786865,0.0063934326,-0.008529663,-19.934082,6.6085815,5.732727,0,0.0,0.0,0.0,0.0
1.315643311,0.11451202,0.8252083,-0.55309874,-0.17496483,0.56481117,0.80645865,0.97789276,0.004423622,0.2090601,0.11549228,0.83005655,-0.5455893,-0.17666931,0.5576726,0.811042,0.97747093,0.0027198044,0.2110524,9.560043,0.04069519,2.063797,9.589813,0.043380737,2.050171,-0.0032043457,-0.0053253174,0.0,-19.934082,6.6085815,5.732727,0,0.0,0.0,0.0,0.0
1.320037842,0.10424586,0.85637957,-0.5057142,-0.18125336,0.516328,0.83699024,0.97789574,0.0044096317,0.20904672,0.11543863,0.82972056,-0.5461114,-0.17583296,0.5581738,0.81087905,0.9776281,0.002417622,0.21032703,9.765945,-0.007171631,2.0542145,9.589813,0.04324341,2.0500336,0.0053253174,-0.010650635,0.006378174,-18.499756,6.25,6.7703247,0,0.0,0.0,0.0,0.0
1.324432373,0.10422972,0.8563641,-0.5057439,-0.18129998,0.5163535,0.83696455,0.9778888,0.0044547943,0.20907813,0.11521743,0.830274,-0.54531646,-0.17594783,0.55735004,0.8114205,0.9776335,0.002457462,0.21030135,9.627075,0.14125061,2.111679,9.589661,0.043685913,2.0503235,0.0063934326,-0.0032043457,0.0010528564,-18.499756,6.25,6.7703247,0,0.0,0.0,0.0,0.0
1.328826905,0.104219966,0.8563546,-0.5057618,-0.18130594,0.51636887,0.8369536,0.9778887,0.004470354,0.20907812,0.115000285,0.83081526,-0.54453737,-0.17606115,0.5565427,0.81194997,0.9776387,0.002497409,0.21027687,9.483429,0.08857727,2.0590057,9.589661,0.0438385,2.0503235,0.0,-0.0063934326,0.0053253174,-18.499756,6.25,6.7703247,0,0.0,0.0,0.0,0.0
1.333221436,0.10189186,0.8628634,-0.49506044,-0.18265925,0.5054172,0.84332037,0.97788227,0.004499888,0.20910786,0.11478724,0.8313447,-0.5437738,-0.17617218,0.5557513,0.8124678,0.9776437,0.0025368677,0.21025297,9.612717,0.10772705,2.1452026,9.589661,0.044128418,2.0506287,0.018112183,-0.010650635,0.010650635,-19.036865,6.4300537,7.2891235,0,0.0,0.0,0.0,0.0
1.337615967,0.10184667,0.862822,-0.49514186,-0.18266886,0.50548726,0.84327614,0.97788507,0.00456214,0.2090929,0.11453327,0.8320042,-0.5428178,-0.1763107,0.5547633,0.8131126,0.9776485,0.0025761283,0.2102301,9.631866,0.20350647,1.9919739,9.589661,0.04473877,2.050476,0.014907837,-0.0053253174,-0.004272461,-19.036865,6.4300537,7.2891235,0,0.0,0.0,0.0,0.0
1.342010498,0.101833284,0.8628098,-0.49516606,-0.18260592,0.5055084,0.8432772,0.9778983,0.004546569,0.20903172,0.11428329,0.8326486,-0.5418817,-0.17644632,0.55379564,0.81374264,0.9776533,0.0026158486,0.21020736,9.727631,0.007171631,1.9393005,9.589813,0.04458618,2.049881,0.0021209717,-0.0032043457,0.007446289,-19.036865,6.4300537,7.2891235,0,0.0,0.0,0.0,0.0
1.34640503,0.11057815,0.8373695,-0.53533626,-0.17744577,0.5466188,0.8183648,0.9778985,0.004499891,0.20903176,0.114037834,0.83327866,-0.5409641,-0.17657772,0.5528469,0.81435907,0.9776583,0.002654463,0.21018389,9.560043,-0.05027771,2.039856,9.589813,0.044128418,2.049881,0.0063934326,-0.01171875,0.010650635,-19.5755,6.25,5.732727,0,0.0,0.0,0.0,0.0
1.350799561,0.11060806,0.8374056,-0.5352735,-0.17751677,0.5465635,0.81838644,0.97788227,0.004499888,0.20910786,0.113968745,0.8333609,-0.5408518,-0.17659554,0.55272263,0.8144395,0.97766304,0.0026913716,0.21016093,9.598343,0.04069519,2.2409668,9.589661,0.044128418,2.0506287,0.007461548,-0.0063934326,0.003189087,-19.5755,6.25,5.732727,0,0.0,0.0,0.0,0.0
1.355194092,0.11059635,0.8373915,-0.53529805,-0.17748903,0.54658514,0.8183779,0.97788864,0.0044999174,0.2090781,0.11390164,0.8334423,-0.5407406,-0.17661439,0.5525998,0.81451875,0.9776675,0.0027275418,0.21013993,9.631866,0.04548645,1.9919739,9.589661,0.044128418,2.0503235,0.004257202,-0.017044067,0.004257202,-19.5755,6.25,5.732727,0,0.0,0.0,0.0,0.0
1.359588623,0.12483363,0.789504,-0.60091597,-0.1677814,0.6137288,0.7714832,0.9778885,0.0045154765,0.20907807,0.1138356,0.8335217,-0.54063207,-0.17663224,0.5524798,0.8145963,0.977672,0.0027629896,0.21011868,9.660599,0.06942749,2.0446472,9.589661,0.044281006,2.0503235,-0.010635376,-0.018112183,-0.008529663,-19.036865,7.5057983,5.9066772,0,0.0,0.0,0.0,0.0
1.363983155,0.124808446,0.7894746,-0.6009598,-0.1677824,0.6137663,0.77145314,0.97789156,0.0045466106,0.20906317,0.11406195,0.8326871,-0.54186904,-0.17646201,0.5537367,0.81377935,0.9776763,0.0027980392,0.21009792,9.588776,0.09815979,2.0254822,9.589661,0.04458618,2.050171,0.0021209717,-0.010650635,0.007446289,-19.036865,7.5057983,5.9066772,0,0.0,0.0,0.0,0.0
1.368377686,0.12476054,0.78941876,-0.6010432,-0.16766511,0.61383843,0.77142143,0.97791785,0.004531028,0.20894076,0.11428295,0.8318668,-0.54308105,-0.17629477,0.5549681,0.81297636,0.9776807,0.0028330109,0.21007717,9.617508,0.05984497,1.953659,9.589966,0.044433594,2.0489807,-0.008529663,-0.012786865,0.006378174,-19.036865,7.5057983,5.9066772,0,0.0,0.0,0.0,0.0
1.372772217,0.120894395,0.80315065,-0.58338106,-0.170417,0.5957587,0.7848755,0.9779277,0.0045310017,0.20889442,0.114498556,0.8310601,-0.54426944,-0.17612825,0.5561753,0.81218714,0.9776855,0.002866971,0.21005441,9.612717,0.02154541,1.9440765,9.590118,0.044433594,2.0485382,0.014907837,-0.020248413,0.004257202,-19.5755,6.6085815,5.041504,0,0.0,0.0,0.0,0.0
1.377166748,0.12088562,0.80313873,-0.58339953,-0.17042366,0.5957749,0.7848619,0.9779276,0.004546561,0.2088944,0.114629164,0.8305208,-0.54506457,-0.1760161,0.55698,0.8116598,0.9776904,0.002900252,0.21003118,9.617508,0.06942749,2.0350647,9.590118,0.04458618,2.0485382,0.015975952,-0.008529663,0.0095825195,-19.5755,6.6085815,5.041504,0,0.0,0.0,0.0,0.0
1.38156128,0.120873,0.80312145,-0.58342594,-0.17031991,0.5957985,0.7848665,0.97794724,0.0044999006,0.20880347,0.11475689,0.82999134,-0.5458436,-0.17590624,0.5577686,0.81114197,0.9776952,0.002933178,0.21000846,9.516937,-0.04548645,2.1260376,9.590271,0.044128418,2.047638,0.0010681152,-0.007461548,0.004257202,-19.5755,6.6085815,5.041504,0,0.0,0.0,0.0,0.0
1.385955811,0.12943721,0.7714725,-0.6229576,-0.16386394,0.6362467,0.75388235,0.9779542,0.004499861,0.20877053,0.11394305,0.82915723,-0.54727983,-0.17428133,0.55900735,0.8106398,0.97808135,0.0030138884,0.20820163,9.555252,0.02154541,1.9632416,9.590424,0.044128418,2.0473328,0.008514404,-0.027694702,0.0010528564,-20.11261,7.86438,5.5603027,0,0.0,0.0,0.0,0.0
1.390350342,0.1294309,0.7714644,-0.62296903,-0.16383065,0.6362568,0.75388134,0.97796077,0.004485887,0.20874079,0.11426137,0.8280773,-0.5488463,-0.17408697,0.5606056,0.80957717,0.9780788,0.003043608,0.20821303,9.660599,0.007171631,1.9871826,9.590424,0.04399109,2.0470276,-0.018096924,0.004257202,-0.0138549805,-20.11261,7.86438,5.5603027,0,0.0,0.0,0.0,0.0
1.394744873,0.12940174,0.7714269,-0.62302136,-0.16377608,0.636302,0.7538547,0.97797364,0.0044858824,0.20867988,0.1145729,0.827016,-0.5503795,-0.17389528,0.56217,0.80853283,0.97807646,0.0030724537,0.20822363,9.622284,0.05505371,1.8866272,9.590561,0.04399109,2.0464325,0.004257202,0.0,-0.005340576,-20.11261,7.86438,5.5603027,0,0.0,0.0,0.0,0.0
1.399139405,0.10165205,0.86283046,-0.49516723,-0.18225402,0.5054734,0.8433744,0.9779828,0.004515488,0.2086367,0.11487744,0.82597226,-0.55188125,-0.17370577,0.56370217,0.80750614,0.9780744,0.0031007223,0.20823282,9.646225,0.09336853,1.9345093,9.590561,0.044281006,2.04599,0.0063934326,-0.0053253174,-0.014923096,-19.395447,6.071472,6.5979004,0,0.0,0.0,0.0,0.0
1.403533936,0.10165501,0.86283344,-0.49516132,-0.1822313,0.5054683,0.8433822,0.97798663,0.004499874,0.20861864,0.11461953,0.8267485,-0.55077153,-0.17388618,0.562563,0.8082614,0.9780726,0.0031290175,0.20824085,9.588776,0.011962891,2.0015411,9.5907135,0.044128418,2.0458374,0.014907837,-0.007461548,-0.012786865,-19.395447,6.071472,6.5979004,0,0.0,0.0,0.0,0.0
1.407928467,0.101643994,0.8628222,-0.49518335,-0.18220338,0.5054877,0.84337664,0.977993,0.0044999034,0.20858888,0.11436656,0.8275077,-0.54968286,-0.1740622,0.5614454,0.8090002,0.97807086,0.0031564345,0.2082484,9.612717,0.03590393,1.9776001,9.5907135,0.044128418,2.0455322,-0.0032043457,0.008514404,0.0021209717,-19.395447,6.071472,6.5979004,0,0.0,0.0,0.0,0.0
1.412322998,0.1016758,0.8628548,-0.49511987,-0.1822571,0.505432,0.8433984,0.9779797,0.0044859103,0.20865162,0.11411816,0.8282501,-0.5486154,-0.17423384,0.5603496,0.8097228,0.97806937,0.003183304,0.20825526,9.631866,0.026321411,2.221817,9.590561,0.04399109,2.0461426,-0.0032043457,0.023422241,0.004257202,-19.395447,6.071472,6.5979004,0,0.0,0.0,0.0,0.0
1.41671753,0.10166716,0.8628459,-0.4951371,-0.18226226,0.50544703,0.84338826,0.97797966,0.0044999137,0.2086516,0.11387514,0.8289769,-0.5475671,-0.1744027,0.55927366,0.81042993,0.9780676,0.0032093562,0.20826317,9.722839,0.07421875,2.0781555,9.590561,0.044128418,2.0461426,0.0063934326,0.017028809,-0.0021362305,-19.395447,6.071472,6.5979004,0,0.0,0.0,0.0,0.0
1.421112061,0.10165501,0.86283344,-0.49516132,-0.1822313,0.5054683,0.8433822,0.97798663,0.004499874,0.20861864,0.113636605,0.82968765,-0.5465392,-0.17456801,0.55821854,0.8111215,0.9780658,0.0032351676,0.20827098,9.694122,0.026321411,1.953659,9.5907135,0.044128418,2.0458374,0.010650635,0.019165039,0.008514404,-19.395447,6.071472,6.5979004,0,0.0,0.0,0.0,0.0
1.425506592,0.10573327,0.8513358,-0.51385564,-0.17994907,0.52460176,0.8321124,0.9779768,0.004485897,0.20866498,0.11340233,0.8303826,-0.5455316,-0.17472906,0.5571841,0.81179774,0.97806424,0.0032604616,0.20827796,9.588776,0.026321411,2.173935,9.590561,0.04399109,2.04628,-0.0010681152,0.008514404,-0.0032043457,-19.5755,5.8914185,5.732727,0,0.0,0.0,0.0,0.0
1.429901123,0.10571078,0.851309,-0.5139048,-0.1799475,0.5246451,0.83208555,0.9779796,0.0045154733,0.20865159,0.11325135,0.83081394,-0.5449057,-0.1748367,0.5565405,0.8122159,0.97806245,0.0032849705,0.20828573,9.794678,0.09815979,2.0542145,9.590561,0.044281006,2.0461426,0.007461548,0.007461548,0.0010528564,-19.5755,5.8914185,5.732727,0,0.0,0.0,0.0,0.0
1.434295655,0.10571966,0.8513196,-0.51388544,-0.17988575,0.5246284,0.8321095,0.97799003,0.004470326,0.2086038,0.11310281,0.8312357,-0.5442931,-0.17494202,0.5559103,0.8126248,0.97806084,0.0033095805,0.20829307,9.641449,-0.05505371,1.9393005,9.5907135,0.0438385,2.0456848,0.010650635,0.0053253174,0.007446289,-19.5755,5.8914185,5.732727,0,0.0,0.0,0.0,0.0
1.438690186,0.11092143,0.8355663,-0.5380757,-0.17674436,0.54937106,0.8166718,0.97798663,0.0045154337,0.20861864,0.112957336,0.83164877,-0.54369205,-0.17504391,0.55529207,0.8130254,0.9780595,0.0033327956,0.20829937,9.68454,0.14125061,2.1260376,9.5907135,0.044281006,2.0458374,-0.011703491,-0.0053253174,0.0053253174,-20.292664,6.6085815,6.0791016,0,0.0,0.0,0.0,0.0
1.443084717,0.11093985,0.8355881,-0.53803796,-0.17678745,0.54933786,0.8166848,0.97797674,0.0045154598,0.20866497,0.11291679,0.8317275,-0.54357994,-0.17507812,0.5551739,0.8130988,0.978058,0.0033564484,0.20830575,9.651016,0.06463623,2.1499786,9.590561,0.044281006,2.04628,0.004257202,0.0053253174,0.0,-20.292664,6.6085815,6.0791016,0,0.0,0.0,0.0,0.0
1.447479248,0.11095172,0.8356022,-0.53801364,-0.17681517,0.54931647,0.8166933,0.9779705,0.004515431,0.20869476,0.11287745,0.8318051,-0.5434693,-0.17511252,0.55505747,0.81317085,0.9780564,0.0033796285,0.20831296,9.641449,0.04548645,2.1499786,9.590561,0.044281006,2.046585,-0.0032043457,0.0010681152,-0.0021362305,-20.292664,6.6085815,6.0791016,0,0.0,0.0,0.0,0.0
1.45187378,0.09673074,0.87611276,-0.47230244,-0.18501604,0.4820848,0.85636634,0.9779633,0.0045465822,0.20872733,0.113533325,0.8320465,-0.542963,-0.175178,0.55469894,0.81340134,0.97796875,0.0027670136,0.20873308,9.646225,0.11251831,2.1499786,9.590424,0.04458618,2.0468903,-0.0063934326,0.0063934326,0.008514404,-20.829773,6.7886353,8.326721,0,0.0,0.0,0.0,0.0
1.456268311,0.09673074,0.87611276,-0.47230244,-0.18501604,0.4820848,0.85636634,0.9779633,0.0045465822,0.20872733,0.113206476,0.83298784,-0.54158616,-0.17538996,0.5532841,0.8143188,0.97796863,0.0028026048,0.20873305,9.689331,0.04548645,2.0733643,9.590424,0.04458618,2.0468903,-0.0063934326,0.007461548,-0.005340576,-20.829773,6.7886353,8.326721,0,0.0,0.0,0.0,0.0
1.460662842,0.09675104,0.87613016,-0.4722658,-0.18503693,0.48205313,0.8563795,0.9779573,0.0045309947,0.20875561,0.11288578,0.833908,-0.5402352,-0.17559707,0.55189604,0.8152156,0.9779685,0.0028374845,0.20873302,9.689331,0.007171631,2.15477,9.590424,0.044433594,2.0471802,0.007461548,0.0063934326,-0.0032043457,-20.829773,6.7886353,8.326721,0,0.0,0.0,0.0,0.0
1.465057373,0.09188684,0.88852096,-0.44954106,-0.18753593,0.4588138,0.86851597,0.9779504,0.004499915,0.20878859,0.11257159,0.834808,-0.53890926,-0.17579988,0.5505337,0.81609255,0.97796834,0.0028713546,0.20873359,9.622284,-0.026321411,2.1212616,9.590271,0.044128418,2.0474854,0.0010681152,0.0063934326,0.0021209717,-20.292664,5.1742554,6.0791016,0,0.0,0.0,0.0,0.0
1.469451905,0.09187184,0.8885044,-0.44957703,-0.18752354,0.45884585,0.8685017,0.97795415,0.00451542,0.20877051,0.1121714,0.8359769,-0.53717804,-0.17605725,0.54875696,0.8172329,0.97796804,0.0029039257,0.20873463,9.718063,0.07899475,2.0350647,9.590424,0.044281006,2.0473328,-0.0032043457,-0.0021362305,0.0010528564,-20.292664,5.1742554,6.0791016,0,0.0,0.0,0.0,0.0
1.473846436,0.091848485,0.8884786,-0.449633,-0.18751915,0.45889574,0.86847645,0.97795725,0.004546554,0.2087556,0.11177832,0.8371184,-0.53547966,-0.17630841,0.54701394,0.81834656,0.9779678,0.002936156,0.20873532,9.70369,0.09336853,2.039856,9.590424,0.04458618,2.0471802,-0.0095825195,0.01171875,-0.0021362305,-20.292664,5.1742554,6.0791016,0,0.0,0.0,0.0,0.0
1.478240967,0.11677799,0.8169031,-0.56482935,-0.17313686,0.57675683,0.7983578,0.97795016,0.0045621535,0.20878854,0.11139215,0.8382329,-0.53381413,-0.17655373,0.5453044,0.8194339,0.9779676,0.002968364,0.20873575,9.593552,0.11251831,2.1068878,9.590271,0.04473877,2.0474854,-0.0032043457,0.012786865,0.003189087,-21.009827,6.967163,5.732727,0,0.0,0.0,0.0,0.0
1.482635498,0.1167643,0.81688535,-0.5648578,-0.17310634,0.576782,0.7983463,0.97795725,0.004562114,0.2087556,0.11150076,0.83781797,-0.53444225,-0.17648688,0.54594135,0.8190241,0.97796726,0.0030002398,0.20873678,9.660599,0.011962891,1.9871826,9.590424,0.04473877,2.0471802,0.0053253174,0.013839722,-0.004272461,-21.009827,6.967163,5.732727,0,0.0,0.0,0.0,0.0
1.48703003,0.116767086,0.816889,-0.56485206,-0.17308614,0.57677704,0.7983542,0.97796047,0.004546569,0.20874073,0.111607,0.8374107,-0.53505814,-0.17642081,0.54656583,0.8186217,0.9779671,0.0030314773,0.20873724,9.622284,0.03111267,2.0015411,9.590424,0.04458618,2.0470276,0.0053253174,0.014892578,-0.004272461,-21.009827,6.967163,5.732727,0,0.0,0.0,0.0,0.0
