Time,Rot1,Rot2,Rot3,Rot4,Rot5,Rot6,Rot7,Rot8,Rot9,FRot1,FRot2,FRot3,FRot4,FRot5,FRot6,FRot7,FRot8,FRot9,AccX,AccY,AccZ,GravX,GravY,GravZ,GyroX,GyroY,GyroZ,MagX,MagY,MagZ,Imid
0.0,0.0,0.0,0.0,0.0,0.0,0.0,0.0,0.0,0.0,0.0,0.0,0.0,0.0,0.0,0.0,0.0,0.0,0.0,0.1918335,0.10757446,-0.17358398,9.660294,-0.016601563,1.6867065,0.0,0.0,0.0,0.0,0.0,0.0,0,0.0,0.0,0.0,0.0
0.004425048,0.0,0.0,0.0,0.0,0.0,0.0,0.0,0.0,0.0,1.0,0.0,0.0,0.0,1.0,0.0,0.0,0.0,1.0,0.11013794,0.049957275,-0.23956299,9.660599,-0.016448975,1.6856537,0.0,0.0,0.0,0.0,0.0,0.0,0,0.0,0.0,0.0,0.0
0.00881958,0.17102738,0.11373353,-0.97867984,-0.017900031,0.9935098,0.112328865,0.9851037,-0.0016929095,0.17195323,1.0,0.0,0.0,0.0,1.0,0.0,0.0,0.0,1.0,0.20605469,-0.031280518,-0.07736206,9.660446,-0.016601563,1.686264,0.004257202,-0.010650635,0.0063934326,-27.105713,21.669006,-2.218628,0,0.0,0.0,0.0,0.0
0.013244628,0.1709834,0.11367705,-0.97869414,-0.017885132,0.99351627,0.112274036,0.98511153,-0.001692923,0.17190793,0.99960655,0.0022796027,-0.027955862,-0.0022777652,0.9999974,9.757346E-5,0.02795601,-3.3858174E-5,0.9996092,0.10070801,0.002243042,-0.096069336,9.660446,-0.016601563,1.6858063,-0.009567261,0.024490356,0.0,-27.105713,21.669006,-2.218628,0,0.0,0.0,0.0,0.0
0.01763916,0.17099312,0.11368953,-0.978691,-0.017933166,0.99351496,0.112278335,0.985109,-0.0016477947,0.17192303,0.9984578,0.004512465,-0.055331893,-0.0045018424,0.9999898,3.166232E-4,0.055332758,-6.703945E-5,0.998468,0.19168091,0.13586426,0.047439575,9.660446,-0.016159058,1.6859589,-0.014892578,0.015960693,0.003189087,-27.105713,21.669006,-2.218628,0,0.0,0.0,0.0,0.0
0.022033691,0.17072685,0.13050917,-0.97663695,-0.020807065,0.9914458,0.12885079,0.9850987,-0.0016773412,0.17198193,0.9966,0.0067008995,-0.08211899,-0.0066701644,0.9999775,6.486069E-4,0.08212149,-9.865455E-5,0.9966223,0.057617188,-0.08888245,0.2048645,9.660446,-0.016448975,1.686554,-0.0021362305,0.013839722,-0.0063934326,-27.822876,22.38617,-1.8722534,0,0.0,0.0,0.0,0.0
0.02645874,0.17082383,0.13063249,-0.9766035,-0.020795044,0.99142945,0.12897824,0.98508215,-0.0017240458,0.17207627,0.9940747,0.009184453,-0.10831018,-0.009116312,0.9999578,0.0011242793,0.108315945,-1.3022826E-4,0.99411654,0.053131104,-0.11236572,0.2518463,9.660141,-0.016906738,1.6874542,-0.0053253174,0.0,0.012771606,-27.822876,22.38617,-1.8722534,0,0.0,0.0,0.0,0.0
0.030853271,0.17083842,0.13065104,-0.9765985,-0.020800222,0.99142706,0.12899621,0.9850796,-0.0017240413,0.17209138,0.99092656,0.011620768,-0.13390104,-0.011494397,0.99993247,0.0017167935,0.13391195,-1.6210461E-4,0.99099326,0.13453674,-0.021392822,0.064941406,9.660141,-0.016906738,1.6876068,-0.0010681152,0.003189087,0.008514404,-27.822876,22.38617,-1.8722534,0,0.0,0.0,0.0,0.0
0.03527832,0.17036636,0.15222038,-0.97355235,-0.02447574,0.98834497,0.15025017,0.9850768,-0.0017691602,0.17210644,0.98719674,0.014008665,-0.15889122,-0.013799939,0.9999019,0.0024169774,0.15890947,-1.9334332E-4,0.9872932,0.15847778,0.012573242,0.23716736,9.660141,-0.017349243,1.6877594,-0.0010681152,0.008514404,0.0053253174,-26.567078,23.283386,-1.008606,0,0.0,0.0,0.0,0.0
0.039672851,0.17037861,0.15223452,-0.97354805,-0.024495633,0.9883429,0.15026106,0.98507416,-0.0017535957,0.17212155,0.98274535,0.016670693,-0.18421103,-0.015987583,0.99985874,0.0051930337,0.18427156,-0.0021583405,0.982873,0.10101318,0.108169556,0.05027771,9.660141,-0.017196655,1.687912,-0.028747559,-0.014907837,0.0063934326,-26.567078,23.283386,-1.008606,0,0.0,0.0,0.0,0.0
0.044067382,0.17025717,0.1520941,-0.97359127,-0.024481617,0.9883646,0.15012074,0.9850955,-0.001724042,0.17199963,0.98274535,0.016670693,-0.18421103,-0.015987583,0.99985874,0.0051930337,0.18427156,-0.0021583405,0.982873,0.100860596,0.10787964,0.051483154,9.660294,-0.016906738,1.6867065,-0.028747559,-0.014907837,0.0063934326,-26.567078,23.283386,-1.008606,0,0.0,0.0,0.0,0.0
0.048492431,0.17051136,0.13576059,-0.97595847,-0.021575022,0.99073994,0.13404736,0.9851194,-0.0018002726,0.17186145,0.97267145,0.02205587,-0.23113607,-0.020963147,0.9997545,0.007182777,0.23123774,-0.0021411423,0.97289497,0.1197052,-0.13557434,0.09112549,9.660599,-0.017654419,1.6853638,-0.008514404,-0.028762817,-0.0010681152,-28.54004,22.38617,-1.8722534,0,0.0,0.0,0.0,0.0
0.052886962,0.17036779,0.1355733,-0.97600955,-0.021493152,0.9907657,0.13387126,0.98514616,-0.001829831,0.17170848,0.9669738,0.02433772,-0.2537112,-0.022999035,0.9997015,0.008241626,0.25383607,-0.0021343247,0.9672449,0.25828552,-0.010772705,-0.09413147,9.660889,-0.017944336,1.6838684,-0.008514404,-0.03515625,0.004257202,-28.54004,22.38617,-1.8722534,0,0.0,0.0,0.0,0.0
0.057312011,0.17028144,0.13546062,-0.9760403,-0.021446135,0.99078107,0.1337649,0.9851621,-0.0018453915,0.17161675,0.9608763,0.026570033,-0.27570075,-0.024952302,0.9996447,0.009374363,0.27585188,-0.0021282348,0.9611978,0.13363647,-0.058517456,-0.2416687,9.661041,-0.018096924,1.6829681,-0.020217896,-0.02130127,0.0010681152,-28.54004,22.38617,-1.8722534,0,0.0,0.0,0.0,0.0
0.061706543,0.17005455,0.1459959,-0.97455966,-0.02318259,0.98928326,0.14415638,0.9851619,-0.0019216341,0.1716167,0.95441043,0.028755296,-0.29710916,-0.02682449,0.9995842,0.010574464,0.29728967,-0.002122578,0.954785,0.119262695,-0.043395996,-0.16505432,9.661041,-0.018844604,1.6829681,0.004257202,-0.004257202,0.010650635,-28.361511,24.00055,-1.3534546,0,0.0,0.0,0.0,0.0
0.066131591,0.1701595,0.14612204,-0.9745225,-0.02320476,0.98926467,0.14428078,0.9851433,-0.0019371879,0.17172354,0.94760084,0.031109445,-0.31793866,-0.02881932,0.99951375,0.011905156,0.31815442,-0.002118559,0.94803655,0.10505676,0.004638672,-0.06555176,9.660889,-0.018997192,1.684021,-0.017028809,0.018096924,0.007446289,-28.361511,24.00055,-1.3534546,0,0.0,0.0,0.0,0.0
0.070526123,0.17035574,0.14635783,-0.9744528,-0.023244226,0.9892297,0.14451365,0.9851084,-0.001968328,0.17192294,0.9404819,0.03341889,-0.33819664,-0.030731296,0.9994392,0.013299726,0.33845142,-0.0021149316,0.94098145,0.048034668,-0.038146973,-0.1776123,9.660446,-0.019302368,1.6859589,0.0095825195,0.031936646,0.007446289,-28.361511,24.00055,-1.3534546,0,0.0,0.0,0.0,0.0
0.074920654,0.17072615,0.14493191,-0.97460115,-0.023018727,0.9894397,0.14310622,0.98504966,-0.0019978955,0.17225936,0.93308175,0.03568674,-0.35788944,-0.032562967,0.9993608,0.0147532,0.35818717,-0.0021119996,0.9336474,-0.0758667,0.091415405,0.10159302,9.659851,-0.019592285,1.6892548,0.007461548,0.06283569,0.0021209717,-27.105713,21.669006,-1.5258789,0,0.0,0.0,0.0,0.0
0.079345703,0.171073,0.14537473,-0.9744743,-0.02307184,0.98937446,0.1435472,0.98498815,-0.0020741376,0.17260933,0.93308175,0.03568674,-0.35788944,-0.032562967,0.9993608,0.0147532,0.35818717,-0.0021119996,0.9336474,-0.07527161,0.092163086,0.09815979,9.659256,-0.020339966,1.692688,0.007461548,0.06283569,0.0021209717,-27.105713,21.669006,-1.5258789,0,0.0,0.0,0.0,0.0
0.083740234,0.17137523,0.1457606,-0.97436357,-0.023213984,0.9893178,0.1439147,0.9849323,-0.0020445546,0.17292824,0.93308175,0.03568674,-0.35788944,-0.032562967,0.9993608,0.0147532,0.35818717,-0.0021119996,0.9336474,-0.07481384,0.09187317,0.09501648,9.658798,-0.020050049,1.6958313,0.007461548,0.06283569,0.0021209717,-27.105713,21.669006,-1.5258789,0,0.0,0.0,0.0,0.0
0.088165283,0.1719664,0.13038935,-0.9764354,-0.020631079,0.9914609,0.1287623,0.9848868,-0.0019978746,0.17318803,0.9094646,0.04218521,-0.41363588,-0.03752654,0.9991076,0.019385424,0.41408452,-0.0021080335,0.910236,0.10758972,0.077041626,0.06852722,9.658356,-0.019592285,1.6983795,0.0095825195,0.06283569,0.004257202,-28.720093,22.566223,-2.0446777,0,0.0,0.0,0.0,0.0
0.092559814,0.1722028,0.1306977,-0.9763526,-0.020716649,0.99142027,0.12906083,0.9848437,-0.0019978818,0.17343293,0.9094646,0.04218521,-0.41363588,-0.03752654,0.9991076,0.019385424,0.41408452,-0.0021080335,0.910236,0.108047485,0.077041626,0.06613159,9.657898,-0.019592285,1.7007751,0.0095825195,0.06283569,0.004257202,-28.720093,22.566223,-2.0446777,0,0.0,0.0,0.0,0.0
0.096954345,0.17233779,0.13087378,-0.9763052,-0.02075012,0.9913971,0.12923403,0.98481935,-0.0020134524,0.17357078,0.89278215,0.045701254,-0.4481645,-0.039899085,0.9989529,0.02238511,0.44871828,-0.0021036717,0.8936708,0.07481384,-0.15742493,-0.0118255615,9.657608,-0.019744873,1.7021179,-0.008514404,0.053253174,0.0021209717,-28.720093,22.566223,-2.0446777,0,0.0,0.0,0.0,0.0
0.101379394,0.17142606,0.17506672,-0.9695178,-0.028422749,0.98455447,0.17275631,0.9847869,-0.0020585733,0.17375417,0.88421416,0.04741006,-0.46466944,-0.04098887,0.9988733,0.023917446,0.46527985,-0.0021018672,0.88516116,0.05117798,-0.051635742,0.1587677,9.657303,-0.020187378,1.7039185,-0.0063934326,0.03514099,-0.01171875,-27.464294,24.180603,-0.48980713,0,0.0,0.0,0.0,0.0
0.105773925,0.17157891,0.17524154,-0.9694592,-0.028526483,0.9845234,0.17291586,0.9847573,-0.0020134528,0.17392248,0.87548286,0.04997792,-0.48065796,-0.04279707,0.9987481,0.025896287,0.48135045,-0.0021010013,0.87652576,0.051483154,-0.013763428,0.14753723,9.656998,-0.019744873,1.7055664,-0.008514404,0.030883789,0.004257202,-27.464294,24.180603,-0.48980713,0,0.0,0.0,0.0,0.0
0.110198974,0.17163499,0.17530563,-0.9694376,-0.028548012,0.9845119,0.17297725,0.9847469,-0.0020134314,0.17398132,0.87548286,0.04997792,-0.48065796,-0.04279707,0.9987481,0.025896287,0.48135045,-0.0021010013,0.87652576,0.051483154,-0.013763428,0.14694214,9.656998,-0.019744873,1.7061615,-0.008514404,0.030883789,0.004257202,-27.464294,24.180603,-0.48980713,0,0.0,0.0,0.0,0.0
0.114593505,0.17175949,0.17544802,-0.9693898,-0.028550657,0.9844865,0.17312165,0.9847252,-0.002058571,0.17410408,0.85852444,0.05529704,-0.5097823,-0.046606097,0.9984683,0.029816378,0.5106502,-0.0018391256,0.8597866,-0.010482788,-0.061203003,0.006881714,9.656708,-0.020187378,1.7073517,0.0053253174,0.023422241,-0.0021362305,-27.464294,24.180603,-0.48980713,0,0.0,0.0,0.0,0.0
0.119018554,0.1719005,0.17560929,-0.9693356,-0.028634401,0.9844578,0.17327093,0.98469806,-0.0020290157,0.17425728,0.8495172,0.057713877,-0.52439445,-0.048140753,0.9983314,0.03188665,0.5253598,-0.0018435146,0.8508781,0.17178345,-0.06628418,0.13946533,9.656403,-0.019897461,1.708847,-0.023422241,0.030883789,-0.0021362305,-27.464294,24.180603,-0.48980713,0,0.0,0.0,0.0,0.0
0.123413086,0.17191228,0.17562276,-0.9693311,-0.028654495,0.9844555,0.17328107,0.9846955,-0.0020134503,0.17427237,0.84044564,0.060085323,-0.5385545,-0.04959133,0.99819154,0.033975855,0.53962195,-0.0018472247,0.8419054,0.032928467,0.048461914,0.062698364,9.656403,-0.019744873,1.7089996,0.008529663,0.024490356,-0.009597778,-27.464294,24.180603,-0.48980713,0,0.0,0.0,0.0,0.0
0.127807617,0.17339468,0.11229976,-0.97842884,-0.017585501,0.9936723,0.11093288,0.98469543,-0.00202901,0.17427236,0.83132213,0.062409285,-0.5522758,-0.05095746,0.9980489,0.03607882,0.5534499,-0.0018505491,0.8328804,-0.029327393,-0.02798462,0.010025024,9.656403,-0.019897461,1.7089996,0.01171875,0.0021362305,-0.01171875,-27.642822,21.84906,-2.3910522,0,0.0,0.0,0.0,0.0
0.132232666,0.17351139,0.112451546,-0.97839075,-0.01764097,0.99365515,0.11107746,0.98467386,-0.002013438,0.17439424,0.8222257,0.063409045,-0.56561846,-0.051188633,0.9979859,0.037468243,0.5668551,-0.0018541183,0.82381546,0.16236877,-0.032913208,0.13331604,9.65625,-0.019744873,1.7102051,0.01171875,0.012786865,0.0021209717,-27.642822,21.84906,-2.3910522,0,0.0,0.0,0.0,0.0
0.136627197,0.17352772,0.11247281,-0.97838545,-0.017631168,0.99365276,0.111100815,0.9846711,-0.0020289922,0.1744093,0.8131039,0.06439179,-0.57854617,-0.051387005,0.99792296,0.038847506,0.57984596,-0.0018573047,0.81472397,0.028289795,-0.03755188,0.061340332,9.65625,-0.019897461,1.7103577,0.018112183,0.018096924,-0.0010681152,-27.642822,21.84906,-2.3910522,0,0.0,0.0,0.0,0.0
0.141052246,0.17252374,0.16006704,-0.97191256,-0.02596768,0.98710406,0.15795945,0.984663,-0.0020134444,0.17445548,0.8039669,0.065355256,-0.59107184,-0.051551398,0.9978603,0.04021474,0.5924354,-0.0018607385,0.80561584,0.12898254,0.034103394,0.15666199,9.656113,-0.019744873,1.7108002,0.015975952,-0.0021362305,0.0053253174,-27.28424,23.283386,-1.008606,0,0.0,0.0,0.0,0.0
0.145446777,0.17255265,0.16010137,-0.9719019,-0.025978532,0.98709863,0.15799247,0.9846577,-0.0020134335,0.17448565,0.79477525,0.06725819,-0.6031656,-0.05244708,0.9977339,0.042147852,0.6046335,-0.0018637927,0.79650164,0.13856506,0.014968872,0.09890747,9.656113,-0.019744873,1.7111053,-0.012771606,-0.012786865,-0.0053253174,-27.28424,23.283386,-1.008606,0,0.0,0.0,0.0,0.0
0.149841308,0.17248645,0.16002275,-0.97192657,-0.02590869,0.9871113,0.15792486,0.9846711,-0.0020585556,0.1744093,0.7855885,0.06912352,-0.61487615,-0.05327939,0.9976064,0.0440778,0.6164512,-0.0018667855,0.7873909,0.18151855,-0.018112183,0.24330139,9.65625,-0.020187378,1.7103577,0.0010681152,-0.0095825195,-0.0053253174,-27.28424,23.283386,-1.008606,0,0.0,0.0,0.0,0.0
0.154266357,0.17249686,0.15262224,-0.97311413,-0.024572395,0.9882823,0.15064542,0.9847035,-0.002074118,0.17422591,0.7764146,0.070949726,-0.626216,-0.054048136,0.9974781,0.046001747,0.6279006,-0.0018706209,0.7782913,0.11418152,0.015563965,0.09187317,9.656555,-0.020339966,1.7085571,-0.018096924,-0.034088135,0.0053253174,-27.28424,22.207642,-1.3534546,0,0.0,0.0,0.0,0.0
0.158660888,0.17226699,0.15233459,-0.9732001,-0.024470033,0.98832685,0.1503709,0.9847463,-0.0020897025,0.17398368,0.76726884,0.07258971,-0.63720435,-0.054642152,0.99736017,0.047822755,0.6389936,-0.0018746909,0.7692098,0.032470703,0.010925293,-0.13078308,9.65686,-0.020492554,1.7061615,-0.015960693,-0.046875,0.0010681152,-27.28424,22.207642,-1.3534546,0,0.0,0.0,0.0,0.0
0.163085937,0.17196895,0.15196167,-0.97331095,-0.024388704,0.98838425,0.15000592,0.98480046,-0.002058569,0.17367756,0.75815034,0.0741909,-0.64784557,-0.055179164,0.9972423,0.04962943,0.64974105,-0.0018789911,0.7601533,0.10369873,0.029754639,-0.12779236,9.657455,-0.020187378,1.7031708,-0.017028809,-0.043670654,0.0,-27.28424,22.207642,-1.3534546,0,0.0,0.0,0.0,0.0
0.167480468,0.17141359,0.16702977,-0.9709369,-0.026967406,0.9859497,0.16485146,0.98483,-0.002074129,0.17350952,0.7490653,0.07575237,-0.658151,-0.05566071,0.99712485,0.05141839,0.66015375,-0.0018825826,0.7511281,0.17044067,0.0011901855,0.02229309,9.657745,-0.020339966,1.7015228,0.0010681152,-0.057525635,-0.0032043457,-27.105713,20.951843,-1.1810303,0,0.0,0.0,0.0,0.0
0.171905517,0.17117333,0.16671349,-0.97103363,-0.026915325,0.9860033,0.16453896,0.98487324,-0.0020289982,0.17326462,0.74000514,0.077586785,-0.6681114,-0.056320142,0.9969838,0.05339766,0.67023915,-0.0018864135,0.7421428,0.14604187,0.1060791,-0.13812256,9.658203,-0.019897461,1.6991272,0.0,-0.038345337,0.0021209717,-27.105713,20.951843,-1.1810303,0,0.0,0.0,0.0,0.0
0.176300048,0.1709979,0.16648258,-0.9711042,-0.026768327,0.9860422,0.16432998,0.9849077,-0.0021052484,0.1730676,0.729233,0.07942485,-0.6796403,-0.056774884,0.9968389,0.05557597,0.681906,-0.0019413357,0.73143727,0.088272095,-0.03201294,-0.13139343,9.658508,-0.020645142,1.6971893,-0.0010681152,-0.039413452,0.0,-27.105713,20.951843,-1.1810303,0,0.0,0.0,0.0,0.0
0.18069458,0.17145945,0.14114772,-0.9750277,-0.022366872,0.98998636,0.13937995,0.98493725,-0.0020896886,0.17289954,0.72028553,0.08117423,-0.68891186,-0.057313547,0.996698,0.05751691,0.691306,-0.0019446139,0.7225595,0.13108826,-0.027389526,0.080947876,9.658798,-0.020492554,1.6955414,-0.0053253174,-0.030899048,0.01171875,-27.105713,22.38617,-1.5258789,0,0.0,0.0,0.0,0.0
0.185119628,0.17130342,0.14095503,-0.975083,-0.022265717,0.9900137,0.1392017,0.98496664,-0.0021348083,0.1727312,0.7114276,0.08237732,-0.69791454,-0.05743677,0.9965993,0.059083275,0.7004083,-0.0019475154,0.71373975,0.030227661,-0.041305542,-0.065841675,9.659103,-0.020935059,1.6938934,-0.004257202,-0.043670654,-0.0063934326,-27.105713,22.38617,-1.5258789,0,0.0,0.0,0.0,0.0
0.18951416,0.17133316,0.14099173,-0.97507244,-0.02226096,0.9900084,0.13923988,0.9849616,-0.0021503572,0.17275988,0.7026346,0.08355236,-0.7066284,-0.05752415,0.99650145,0.060628183,0.70922184,-0.0019512612,0.70498264,0.07331848,-0.036361694,0.06794739,9.659103,-0.021087646,1.6941833,-0.004257202,-0.029830933,0.0063934326,-27.105713,22.38617,-1.5258789,0,0.0,0.0,0.0,0.0
0.193939209,0.17082238,0.1606983,-0.97210896,-0.025695957,0.9870013,0.15864474,0.98496664,-0.0021208045,0.1727312,0.6939133,0.08470453,-0.715059,-0.057581276,0.9964042,0.062153663,0.7177525,-0.0019552433,0.69629556,0.006286621,0.09262085,-0.080215454,9.659103,-0.02079773,1.6938934,0.0,-0.01171875,-0.0010681152,-27.105713,21.669006,-1.1810303,0,0.0,0.0,0.0,0.0
0.19833374,0.17080045,0.1606704,-0.97211736,-0.025642395,0.9870057,0.15862577,0.98497194,-0.0021659397,0.17270102,0.6852441,0.08623077,-0.72319067,-0.057882912,0.9962733,0.06394646,0.7260097,-0.0019585546,0.6876817,-0.0032958984,-0.13676453,-0.07991028,9.659103,-0.021240234,1.6935883,-0.010635376,0.0,-0.0021362305,-27.105713,21.669006,-1.1810303,0,0.0,0.0,0.0,0.0
0.202728271,0.17076576,0.16062626,-0.9721307,-0.025659984,0.987013,0.15857781,0.98497754,-0.002134798,0.1726697,0.67665386,0.08772572,-0.7310565,-0.058143597,0.99614275,0.06571891,0.73400193,-0.0019627023,0.67914456,0.1593628,0.08317566,-0.017364502,9.659256,-0.020935059,1.6932983,-0.014892578,-0.01171875,0.0,-27.105713,21.669006,-1.1810303,0,0.0,0.0,0.0,0.0
0.20715332,0.17073004,0.16241844,-0.9718392,-0.025985882,0.9867197,0.1603402,0.98497516,-0.0021207894,0.17268328,0.6681461,0.089189686,-0.73866504,-0.058366098,0.99601275,0.06746899,0.7417373,-0.0019661442,0.6706877,0.058807373,0.04473877,0.02558899,9.659256,-0.02079773,1.6934357,-0.003189087,0.003189087,0.0021209717,-26.38855,22.744751,-0.83465576,0,0.0,0.0,0.0,0.0
0.211547851,0.17074703,0.16243838,-0.97183293,-0.025992196,0.9867165,0.1603594,0.98497206,-0.0021208161,0.17270103,0.6597221,0.09066035,-0.74602103,-0.05857658,0.9958799,0.069224,0.74922323,-0.001969237,0.66231453,0.17866516,-0.017501831,0.06375122,9.659103,-0.02079773,1.6935883,0.0,0.01171875,-0.0053253174,-26.38855,22.744751,-0.83465576,0,0.0,0.0,0.0,0.0
0.2159729,0.1707492,0.16244093,-0.9718322,-0.025979029,0.98671615,0.16036429,0.98497206,-0.00213482,0.17270103,0.651387,0.09210182,-0.75313497,-0.058751803,0.9957476,0.07095676,0.7564676,-0.0019722688,0.6540282,0.12599182,-0.041305542,0.04937744,9.659103,-0.020935059,1.6935883,0.0063934326,0.012786865,0.0095825195,-26.38855,22.744751,-0.83465576,0,0.0,0.0,0.0,0.0
0.220367431,0.17178956,0.12502012,-0.9771685,-0.019541642,0.9921519,0.12350162,0.9849398,-0.0021208138,0.17288445,0.6431428,0.093514316,-0.7600147,-0.058892988,0.99561596,0.07266668,0.76347816,-0.0019755196,0.64583063,0.14065552,0.03515625,0.1912384,9.658798,-0.02079773,1.6953888,-0.003189087,0.012786865,0.0010681152,-27.464294,23.104858,-1.8722534,0,0.0,0.0,0.0,0.0
0.22479248,0.17183366,0.12507372,-0.97715396,-0.019542746,0.9921452,0.12355595,0.9849321,-0.002134801,0.17292821,0.6350392,0.09414546,-0.7667215,-0.058522206,0.9955565,0.073772855,0.77026,-0.0019784253,0.637727,0.22685242,-0.012573242,0.18121338,9.658798,-0.020935059,1.6958313,0.004257202,0.027679443,0.0,-27.464294,23.104858,-1.8722534,0,0.0,0.0,0.0,0.0
0.229187011,0.17183007,0.12506938,-0.977155,-0.019570883,0.9921457,0.1235466,0.9849322,-0.0021052377,0.17292823,0.62703013,0.094765015,-0.7732094,-0.058142986,0.9954977,0.074858055,0.7768221,-0.0019815527,0.629717,-0.017349243,0.04458618,-0.03425598,9.658798,-0.020645142,1.6958313,0.0,0.019165039,-0.008529663,-27.464294,23.104858,-1.8722534,0,0.0,0.0,0.0,0.0
0.233581543,0.17161797,0.13949192,-0.9752381,-0.022081776,0.99022096,0.13774912,0.9849161,-0.0021052363,0.17301993,0.6191167,0.095372066,-0.7794861,-0.05775599,0.9954397,0.075921096,0.7831722,-0.0019840263,0.6218017,-0.012420654,0.04458618,0.12763977,9.658646,-0.020645142,1.6967316,0.0053253174,0.022354126,-0.0053253174,-28.001404,22.566223,-1.6998291,0,0.0,0.0,0.0,0.0
0.238006591,0.17169978,0.13959563,-0.97520876,-0.022158075,0.99020636,0.13784121,0.9849001,-0.002058553,0.1731114,0.6112852,0.09625661,-0.7855349,-0.057539597,0.9953546,0.07719116,0.78931594,-0.0019864505,0.6139841,0.006881714,-0.018112183,-0.055221558,9.658508,-0.020187378,1.6976318,0.024505615,0.012786865,0.0053253174,-28.001404,22.566223,-1.6998291,0,0.0,0.0,0.0,0.0
0.242401123,0.17182447,0.13975371,-0.9751642,-0.022157187,0.99018407,0.13800216,0.9848784,-0.0021052524,0.17323442,0.6049317,0.09718168,-0.79032487,-0.058085214,0.9952659,0.07792242,0.794156,-0.0012315519,0.6077127,-0.0071868896,-0.0368042,-0.089920044,9.658203,-0.020645142,1.698822,0.0063934326,0.027679443,-0.009597778,-28.001404,22.566223,-1.6998291,0,0.0,0.0,0.0,0.0
0.246826171,0.17120078,0.170382,-0.9703918,-0.0275294,0.9853759,0.16815604,0.9848514,-0.0020741413,0.17338763,0.59728366,0.09803514,-0.7960159,-0.057834275,0.99518216,0.07916846,0.7999422,-0.0012490259,0.60007584,0.084106445,0.10652161,0.028289795,9.657898,-0.020339966,1.7003174,-0.0063934326,0.036209106,0.004257202,-26.92566,23.283386,-0.66223145,0,0.0,0.0,0.0,0.0
0.251220703,0.17118528,0.1703639,-0.9703978,-0.02752351,0.9853791,0.1681387,0.98485434,-0.0020741145,0.17337139,0.58970296,0.099488504,-0.8014689,-0.057936717,0.9950379,0.0808882,0.8055395,-0.0012655283,0.5925408,0.12225342,-0.022750854,0.004486084,9.658051,-0.020339966,1.70018,0.004257202,0.034072876,0.0021209717,-26.92566,23.283386,-0.66223145,0,0.0,0.0,0.0,0.0
0.255615234,0.17131028,0.1705098,-0.9703501,-0.027524563,0.98535365,0.1682869,0.98483247,-0.0021208138,0.1734944,0.58222413,0.10091221,-0.8067415,-0.058010295,0.9948945,0.08258162,0.8109562,-0.0012817,0.58510554,-0.0019378662,-0.07496643,0.008087158,9.657745,-0.02079773,1.7013702,-0.0063934326,0.023422241,-0.0021362305,-26.92566,23.283386,-0.66223145,0,0.0,0.0,0.0,0.0
0.260040283,0.17061982,0.1931255,-0.96622527,-0.03144056,0.98117167,0.19056104,0.9848352,-0.0021348237,0.17347932,0.57485,0.1023102,-0.81183743,-0.058057908,0.9947517,0.08425166,0.8161965,-0.0012984823,0.577773,0.117767334,-0.05088806,-0.0013427734,9.657745,-0.020935059,1.7012177,-0.004257202,0.027679443,0.0010681152,-26.92566,22.207642,-0.31585693,0,0.0,0.0,0.0,0.0
0.264434814,0.17070615,0.19323069,-0.9661891,-0.031476557,0.981151,0.19066168,0.98481905,-0.002134819,0.17357074,0.5675522,0.10413753,-0.81672513,-0.0583406,0.99456203,0.086271256,0.82126784,-0.0013152092,0.57054126,-0.020950317,0.1071167,-0.0692749,9.657608,-0.020935059,1.7021179,-0.0021362305,0.023422241,0.0053253174,-26.92566,22.207642,-0.31585693,0,0.0,0.0,0.0,0.0
0.268859863,0.17063408,0.19314288,-0.9662194,-0.031446505,0.9811683,0.19057766,0.98483247,-0.0021348177,0.1734944,0.56035966,0.105930105,-0.82144743,-0.05858852,0.99437267,0.08826294,0.8261746,-0.0013316014,0.56341267,0.15608215,-0.026947021,-0.15951538,9.657745,-0.020935059,1.7013702,0.0,0.024490356,0.007446289,-26.92566,22.207642,-0.31585693,0,0.0,0.0,0.0,0.0
0.273254394,0.17273016,0.10569608,-0.97928166,-0.01624549,0.99439615,0.104461975,0.9848352,-0.0021348237,0.17347932,0.55327,0.107684724,-0.8260123,-0.058800895,0.9941842,0.09022345,0.8309241,-0.0013476657,0.55638427,0.07467651,0.0017852783,-0.010925293,9.657745,-0.020935059,1.7012177,-0.010635376,0.012786865,0.0063934326,-26.92566,21.84906,-2.3910522,0,0.0,0.0,0.0,0.0
0.277679443,0.17283396,0.10582753,-0.97924924,-0.016279647,0.9943822,0.104589656,0.9848164,-0.0021348132,0.17358583,0.5463878,0.107644945,-0.83058584,-0.058013882,0.9941884,0.090684526,0.8355206,-0.0013634089,0.5494573,0.11790466,-0.017364502,0.2849121,9.657608,-0.020935059,1.7022705,0.004257202,0.012786865,-0.0021362305,-26.92566,21.84906,-2.3910522,0,0.0,0.0,0.0,0.0
0.282073974,0.17280456,0.105790295,-0.9792585,-0.01626996,0.9943863,0.1045535,0.9848218,-0.0021348249,0.17355566,0.53960824,0.10760861,-0.835011,-0.057240747,0.99419236,0.091131836,0.8399682,-0.0013788369,0.54263395,0.09875488,0.02571106,-0.035614014,9.657608,-0.020935059,1.7019653,0.010650635,-0.0032043457,0.0095825195,-26.92566,21.84906,-2.3910522,0,0.0,0.0,0.0,0.0
0.286468505,0.17203875,0.14702612,-0.9740565,-0.023446672,0.9891303,0.14516023,0.9848111,-0.0021348018,0.17361602,0.53292894,0.10757224,-0.8392944,-0.05647927,0.9941963,0.09156322,0.844273,-0.0013939567,0.53591156,0.16101074,0.0017852783,0.16488647,9.657608,-0.020935059,1.7025757,0.0095825195,-0.0138549805,-0.0032043457,-27.464294,22.027588,-1.5258789,0,0.0,0.0,0.0,0.0
0.290893554,0.17205179,0.14704272,-0.97405165,-0.023451567,0.9891279,0.14517626,0.98480874,-0.0021347967,0.17362961,0.5263049,0.108363196,-0.8433626,-0.05616763,0.99411035,0.09268098,0.8484388,-0.0014087736,0.5292916,0.031723022,-0.026947021,0.064193726,9.657608,-0.020935059,1.702713,0.004257202,-0.01171875,0.008514404,-27.464294,22.027588,-1.5258789,0,0.0,0.0,0.0,0.0
0.295288086,0.171893,0.14684069,-0.9741102,-0.023392048,0.9891579,0.14498124,0.9848379,-0.0021348293,0.17346422,0.519783,0.1091386,-0.8472983,-0.055848736,0.9940255,0.093777284,0.8524709,-0.0014232941,0.5227728,0.10820007,0.05444336,-0.039489746,9.657745,-0.020935059,1.7010651,-0.012771606,-0.008529663,0.008514404,-27.464294,22.027588,-1.5258789,0,0.0,0.0,0.0,0.0
0.299713134,0.17139784,0.16806245,-0.9707614,-0.027072929,0.985774,0.16588148,0.98482984,-0.0021503717,0.17350948,0.51336014,0.10989437,-0.85110784,-0.055520657,0.99394226,0.094848804,0.8563754,-0.0014375248,0.5163517,0.069885254,-0.0076293945,0.11328125,9.657745,-0.021087646,1.7015228,0.0010681152,-0.031951904,0.0053253174,-27.28424,24.00055,-0.66223145,0,0.0,0.0,0.0,0.0
0.304107666,0.17142195,0.1680901,-0.9707524,-0.027111534,0.9857693,0.16590282,0.98482454,-0.0021207968,0.17353968,0.50701547,0.111062124,-0.8547517,-0.05540428,0.9938124,0.09626666,0.86015445,-0.0014517817,0.5100316,-0.035461426,0.06388855,0.093811035,9.657745,-0.02079773,1.701828,-0.011703491,-0.010650635,-0.0010681152,-27.28424,24.00055,-0.66223145,0,0.0,0.0,0.0,0.0
0.308502197,0.17139784,0.16806245,-0.9707614,-0.027072929,0.985774,0.16588148,0.98482984,-0.0021503717,0.17350948,0.49998194,0.1119431,-0.8587706,-0.055257086,0.99371386,0.0973623,0.8642712,-0.0012262351,0.5030246,0.026794434,-0.093826294,-0.05911255,9.657745,-0.021087646,1.7015228,0.0053253174,-0.0138549805,-0.0010681152,-27.28424,24.00055,-0.66223145,0,0.0,0.0,0.0,0.0
0.312927246,0.17159402,0.16238502,-0.9716926,-0.026092965,0.98672515,0.16028935,0.9848222,-0.0021503551,0.17355326,0.49385142,0.11306962,-0.86216366,-0.05511291,0.9935863,0.0987363,0.86779803,-0.0012447179,0.49691558,0.089035034,0.006729126,0.098464966,9.657745,-0.021087646,1.7019653,-0.003189087,0.003189087,0.0095825195,-28.001404,21.490479,-1.3534546,0,0.0,0.0,0.0,0.0
0.317321777,0.17159635,0.16238809,-0.97169185,-0.02609386,0.98672485,0.16029233,0.9848218,-0.0021503847,0.17355566,0.48782766,0.11405909,-0.8654564,-0.054899305,0.9934732,0.09998569,0.871212,-0.0012628306,0.49090546,0.09396362,0.016311646,0.055374146,9.657608,-0.021087646,1.7019653,0.0010681152,-0.012786865,0.0,-28.001404,21.490479,-1.3534546,0,0.0,0.0,0.0,0.0
0.321746826,0.17162268,0.16242309,-0.97168124,-0.026119988,0.9867189,0.1603233,0.9848164,-0.0021348132,0.17358583,0.48190263,0.11502872,-0.8686415,-0.05467573,0.9933613,0.10121171,0.8745172,-0.0012805817,0.48499274,0.170578,0.006576538,0.10295105,9.657608,-0.020935059,1.7022705,-0.010635376,-0.0138549805,0.003189087,-28.001404,21.490479,-1.3534546,0,0.0,0.0,0.0,0.0
0.326141357,0.17162989,0.16243266,-0.9716783,-0.026076296,0.98671716,0.16034074,0.9848163,-0.0021814925,0.17358582,0.47607616,0.11597956,-0.8717226,-0.05444357,0.9932507,0.10241504,0.8777172,-0.0012976663,0.47917736,0.036514282,-0.10310364,-0.0023956299,9.657608,-0.021392822,1.7022705,0.010650635,0.0,0.0,-28.001404,21.490479,-1.3534546,0,0.0,0.0,0.0,0.0
0.330566406,0.17163232,0.16243586,-0.9716774,-0.026061736,0.98671675,0.16034657,0.9848163,-0.0021970524,0.17358582,0.4703468,0.11691147,-0.87470305,-0.054202113,0.9931414,0.103596106,0.8808155,-0.0013153428,0.47345778,0.031723022,0.0071868896,-0.05506897,9.657608,-0.02154541,1.7022705,0.0021362305,-0.015975952,-0.012786865,-28.001404,21.490479,-1.3534546,0,0.0,0.0,0.0,0.0
0.334960937,0.17160113,0.16239445,-0.97168976,-0.026064724,0.9867234,0.1603039,0.9848216,-0.0021815044,0.17355563,0.4703468,0.11691147,-0.87470305,-0.054202113,0.9931414,0.103596106,0.8808155,-0.0013153428,0.47345778,0.031723022,0.0070343018,-0.054763794,9.657608,-0.021392822,1.7019653,0.0021362305,-0.015975952,-0.012786865,-28.001404,21.490479,-1.3534546,0,0.0,0.0,0.0,0.0
0.339355468,0.1723923,0.12776528,-0.9767072,-0.020041678,0.99180204,0.12620245,0.9848245,-0.0021814797,0.17353967,0.45917442,0.118717946,-0.8803777,-0.053695265,0.99292713,0.10588952,0.8867219,-0.0013496429,0.4623013,0.0028533936,0.002243042,-0.049835205,9.657745,-0.021392822,1.701828,-0.008514404,-0.0021362305,-0.0010681152,-27.464294,22.744751,-1.8722534,0,0.0,0.0,0.0,0.0
0.343780517,0.17239422,0.12776764,-0.97670656,-0.02002689,0.9918018,0.12620746,0.9848245,-0.0021970395,0.17353967,0.45376712,0.11889899,-0.88315254,-0.05311392,0.9929054,0.10638491,0.889536,-0.0013662796,0.456863,0.093826294,-0.04069519,0.021987915,9.657745,-0.02154541,1.701828,0.0010681152,-0.004257202,-0.0021362305,-27.464294,22.744751,-1.8722534,0,0.0,0.0,0.0,0.0
0.348175048,0.17230909,0.12766248,-0.9767353,-0.019967992,0.99181515,0.12611084,0.9848405,-0.002226604,0.17344794,0.44845176,0.11907646,-0.88583964,-0.05254001,0.9928841,0.1068675,0.8922615,-0.0013828947,0.45151693,0.079315186,-0.06913757,-0.21174622,9.657898,-0.021835327,1.7009277,-0.0010681152,-0.0021362305,-0.0053253174,-27.464294,22.744751,-1.8722534,0,0.0,0.0,0.0,0.0
0.352600097,0.17079464,0.18587244,-0.9676159,-0.030046148,0.9825713,0.1834418,0.9848485,-0.0022577418,0.17340267,0.44322565,0.11924828,-0.88844293,-0.05197214,0.9928635,0.10733595,0.8949022,-0.001399769,0.44626018,0.122406006,-0.07841492,-0.09635925,9.657898,-0.022140503,1.70047,0.0053253174,-0.015975952,0.0010681152,-26.747131,22.027588,-0.48980713,0,0.0,0.0,0.0,0.0
0.356994628,0.17081168,0.18589328,-0.9676089,-0.03003753,0.9825672,0.1834645,0.98484564,-0.0022732953,0.17341773,0.43802774,0.12058709,-0.89083695,-0.051927835,0.9927017,0.10884279,0.8974604,-0.0014169285,0.44109273,0.13198853,-0.02558899,0.04234314,9.657898,-0.02229309,1.7006226,-0.0010681152,-0.0053253174,0.0,-26.747131,22.027588,-0.48980713,0,0.0,0.0,0.0,0.0
0.36138916,0.17088424,0.18598206,-0.96757907,-0.030067239,0.98255044,0.1835496,0.98483217,-0.0022733002,0.17349434,0.43292096,0.12189934,-0.8931517,-0.051869087,0.99254143,0.11032272,0.8999384,-0.0014340559,0.4360148,-0.049819946,-0.03515625,0.19961548,9.657745,-0.02229309,1.7013702,0.0053253174,-0.0138549805,-0.0053253174,-26.747131,22.027588,-0.48980713,0,0.0,0.0,0.0,0.0
0.365814209,0.17275988,0.10380677,-0.97947854,-0.015780097,0.99459493,0.10262555,0.9848376,-0.0022733125,0.17346418,0.4279051,0.123186916,-0.89538944,-0.05179774,0.9923824,0.11177709,0.9023382,-0.0014508407,0.4310263,0.045944214,0.01751709,-0.063446045,9.657745,-0.02229309,1.7010651,-0.0063934326,0.007461548,-0.0053253174,-26.029968,22.38617,-2.218628,0,0.0,0.0,0.0,0.0
0.37020874,0.17275415,0.10379994,-0.97948027,-0.015809147,0.9945957,0.10261348,0.9848381,-0.0022421584,0.17346153,0.42306253,0.12279974,-0.8977407,-0.051010694,0.9924304,0.11171319,0.9046635,-0.0014672901,0.42612422,0.041000366,0.074645996,-0.0011901855,9.657898,-0.021987915,1.7010651,0.0063934326,-0.0053253174,-0.0010681152,-26.029968,22.38617,-2.218628,0,0.0,0.0,0.0,0.0
0.374633789,0.17277148,0.10382061,-0.97947496,-0.015814558,0.99459344,0.10263355,0.98483497,-0.0022421868,0.17347927,0.4183041,0.12242016,-0.90001947,-0.050242044,0.9924773,0.11164512,0.9069165,-0.0014827875,0.42130792,0.13693237,-0.021102905,0.084854126,9.657745,-0.021987915,1.7012177,-0.011703491,0.0063934326,0.003189087,-26.029968,22.38617,-2.218628,0,0.0,0.0,0.0,0.0
0.37902832,0.17095223,0.18288049,-0.9681581,-0.029585315,0.9831326,0.18048508,0.98483497,-0.002211067,0.17347927,0.41386458,0.12229611,-0.9020863,-0.049660686,0.99249256,0.11176889,0.90898293,-0.0014589593,0.41683084,0.12734985,0.07913208,0.017807007,9.657745,-0.02168274,1.7012177,-0.003189087,0.004257202,-0.0021362305,-27.105713,22.744751,-0.48980713,0,0.0,0.0,0.0,0.0
0.383453369,0.17096032,0.18289022,-0.96815485,-0.029541813,0.98313075,0.18050265,0.9848349,-0.0022577464,0.17347926,0.409189,0.123513065,-0.9040514,-0.049576882,0.9923419,0.11313613,0.9111019,-0.0014740013,0.41217873,0.022003174,-0.0975647,-0.015701294,9.657745,-0.022140503,1.7012177,-0.012771606,0.013839722,-0.0032043457,-27.105713,22.744751,-0.48980713,0,0.0,0.0,0.0,0.0
0.3878479,0.1709433,0.18286979,-0.9681617,-0.029550552,0.98313457,0.18048033,0.9848376,-0.0022421926,0.17346418,0.40459746,0.12470569,-0.9059522,-0.049481623,0.9921926,0.11447837,0.9131552,-0.0014896763,0.40760928,0.14649963,0.0076293945,0.008392334,9.657745,-0.021987915,1.7010651,-0.019165039,0.013839722,-0.0021362305,-27.105713,22.744751,-0.48980713,0,0.0,0.0,0.0,0.0
0.392242431,0.17052472,0.19670556,-0.9655197,-0.031959463,0.9804601,0.19410487,0.98483497,-0.0022421868,0.17347927,0.40008843,0.12587388,-0.90779126,-0.049376424,0.9920451,0.115794934,0.91514546,-0.0015047267,0.403121,0.09861755,0.012420654,0.051330566,9.657745,-0.021987915,1.7012177,0.0063934326,0.007461548,-0.0032043457,-27.464294,23.104858,-0.14343262,0,0.0,0.0,0.0,0.0
0.39666748,0.17052762,0.196709,-0.9655184,-0.03194504,0.9804592,0.1941109,0.9848349,-0.0022577464,0.17347926,0.3956474,0.1272981,-0.9095374,-0.049373426,0.99186337,0.117343,0.9170744,-0.001519476,0.39871332,0.055526733,-0.035308838,0.027389526,9.657745,-0.022140503,1.7012177,0.0010681152,0.01171875,-0.0021362305,-27.464294,23.104858,-0.14343262,0,0.0,0.0,0.0,0.0
0.401062011,0.17055029,0.19673604,-0.965509,-0.031985752,0.980454,0.19413126,0.9848297,-0.0022266149,0.17350948,0.39128715,0.12869366,-0.91122574,-0.04935678,0.9916832,0.1188626,0.9189441,-0.0015342414,0.3943848,0.022003174,0.07449341,0.07496643,9.657745,-0.021835327,1.7015228,-0.009567261,-0.010650635,-0.008529663,-27.464294,23.104858,-0.14343262,0,0.0,0.0,0.0,0.0
0.40548706,0.17191502,0.14357476,-0.97459304,-0.022770176,0.9896371,0.14177443,0.98484856,-0.0021814986,0.17340268,0.38700703,0.13006161,-0.91285795,-0.049328398,0.9915047,0.12035417,0.9207564,-0.0015480887,0.390135,0.050582886,-0.0121154785,-5.950928E-4,9.657898,-0.021392822,1.70047,0.0021362305,-0.0095825195,0.003189087,-26.747131,21.669006,-1.5258789,0,0.0,0.0,0.0,0.0
0.409881591,0.17184539,0.14348707,-0.9746182,-0.02271511,0.9896497,0.14169493,0.984862,-0.0022110576,0.17332606,0.38285607,0.13033213,-0.9145681,-0.048875567,0.9914692,0.120830774,0.92251426,-0.001560757,0.38596004,0.021697998,-0.08843994,0.08634949,9.658051,-0.02168274,1.6997223,0.004257202,-0.02130127,-0.010650635,-26.747131,21.669006,-1.5258789,0,0.0,0.0,0.0,0.0
0.414276123,0.17174627,0.14336218,-0.974654,-0.02266312,0.9896678,0.14157702,0.9848805,-0.0022266242,0.17322078,0.3787795,0.13059545,-0.9162264,-0.04842718,0.99143445,0.12129491,0.9242191,-0.001573763,0.38185942,0.02154541,-0.006881714,-0.017959595,9.658203,-0.021835327,1.6986847,-0.017028809,-0.026626587,-0.0053253174,-26.747131,21.669006,-1.5258789,0,0.0,0.0,0.0,0.0
0.418701171,0.17178597,0.14152123,-0.9749161,-0.022358816,0.9899328,0.13976133,0.9848805,-0.0022110643,0.17322078,0.37477568,0.13085102,-0.9178351,-0.047983203,0.9914008,0.12174613,0.92587304,-0.0015868202,0.37783155,0.16519165,0.06956482,0.058654785,9.658203,-0.02168274,1.6986847,0.007461548,-0.02130127,0.0053253174,-26.567078,22.924805,-1.3534546,0,0.0,0.0,0.0,0.0
0.423095703,0.17172329,0.14144728,-0.97493786,-0.022350706,0.98994344,0.13968754,0.9848917,-0.0021970505,0.17315777,0.37084708,0.1310646,-0.919399,-0.04753168,0.9913726,0.122152455,0.9274768,-0.0015993051,0.37387732,0.15068054,0.04069519,-0.14663696,9.658356,-0.02154541,1.6980743,0.014907837,-0.007461548,0.0010681152,-26.567078,22.924805,-1.3534546,0,0.0,0.0,0.0,0.0
0.427520752,0.17176059,0.14149128,-0.9749248,-0.02241029,0.9899371,0.13972181,0.98488384,-0.002150354,0.17320307,0.36698967,0.13127236,-0.9209159,-0.047086217,0.991345,0.12254763,0.92903256,-0.00161126,0.3699945,0.050125122,-0.0028533936,-0.07527161,9.658356,-0.021087646,1.6985321,-0.0010681152,-0.008529663,0.003189087,-26.567078,22.924805,-1.3534546,0,0.0,0.0,0.0,0.0
0.431915283,0.16996467,0.20616275,-0.9636435,-0.033645403,0.97851527,0.20341015,0.9848756,-0.0021503698,0.17324948,0.3632039,0.13147688,-0.9223865,-0.046648543,0.9913179,0.12293379,0.9305412,-0.0016220419,0.36618373,0.15562439,0.025863647,0.18765259,9.658203,-0.021087646,1.6989746,0.019180298,0.017028809,-0.0053253174,-27.642822,22.924805,0.0289917,0,0.0,0.0,0.0,0.0
0.436340332,0.1699505,0.20614567,-0.9636497,-0.03363931,0.97851896,0.20339385,0.9848783,-0.0021503756,0.17323439,0.359428,0.13297942,-0.9236493,-0.046689652,0.9911175,0.12452417,0.9320041,-0.0016326085,0.36244413,0.14604187,0.06896973,-0.022888184,9.658203,-0.021087646,1.698822,0.0010681152,0.0021362305,-0.004272461,-27.642822,22.924805,0.0289917,0,0.0,0.0,0.0,0.0
0.440734863,0.16987549,0.20605527,-0.96368223,-0.033622794,0.978538,0.20330478,0.9848918,-0.0021348114,0.17315778,0.359428,0.13297942,-0.9236493,-0.046689652,0.9911175,0.12452417,0.9320041,-0.0016326085,0.36244413,0.14588928,0.06881714,-0.022140503,9.658356,-0.020935059,1.6980743,0.0010681152,0.0021362305,-0.004272461,-27.642822,22.924805,0.0289917,0,0.0,0.0,0.0,0.0
0.445129394,0.17154539,0.1517543,-0.9734181,-0.024224628,0.98841596,0.14982334,0.9848783,-0.002120812,0.17323439,0.35137084,0.13731426,-0.926112,-0.046628583,0.99052507,0.1291737,0.9350745,-0.0022045816,0.35444438,0.05986023,0.04951477,0.2021637,9.658203,-0.02079773,1.698822,-0.023422241,-0.01171875,0.0,-27.642822,22.566223,-1.3534546,0,0.0,0.0,0.0,0.0
0.449554443,0.17154314,0.1517515,-0.97341895,-0.02423929,0.9884165,0.14981793,0.9848784,-0.0021052524,0.17323442,0.34786862,0.13760334,-0.92739034,-0.046245106,0.99048495,0.12961839,0.9364021,-0.0022029062,0.3509221,0.06463623,0.035003662,0.015411377,9.658203,-0.020645142,1.698822,-0.0021362305,-0.0010681152,-0.0010681152,-27.642822,22.566223,-1.3534546,0,0.0,0.0,0.0,0.0
0.453948974,0.17155848,0.15177065,-0.9734133,-0.024139619,0.9884133,0.14985491,0.9848781,-0.002211059,0.17323436,0.34443197,0.1378866,-0.9286302,-0.045866974,0.99044555,0.130053,0.9376902,-0.0022009532,0.34746554,0.07421875,-0.12675476,0.115982056,9.658203,-0.02168274,1.698822,0.007461548,-0.008529663,0.0010681152,-27.642822,22.566223,-1.3534546,0,0.0,0.0,0.0,0.0
0.458374023,0.17153955,0.15137203,-0.9734787,-0.024050552,0.9884744,0.14946578,0.98488367,-0.002226596,0.17320304,0.34105998,0.13816456,-0.92983264,-0.045492064,0.9904068,0.130479,0.93894017,-0.0022011553,0.3440735,0.13632202,-0.040405273,-0.041748047,9.658356,-0.021835327,1.6985321,-0.020217896,-0.0095825195,0.007446289,-27.464294,21.310425,-1.5258789,0,0.0,0.0,0.0,0.0
0.462768554,0.1715718,0.15141448,-0.9734663,-0.024047507,0.9884678,0.1495095,0.9848781,-0.0022421787,0.17323436,0.337751,0.13842896,-0.93100035,-0.045119118,0.99036986,0.13088809,0.9401534,-0.002201664,0.3407442,0.10295105,-0.035461426,0.106399536,9.658203,-0.021987915,1.698822,0.0,-0.01171875,-0.0063934326,-27.464294,21.310425,-1.5258789,0,0.0,0.0,0.0,0.0
0.467163086,0.17161743,0.15147452,-0.973449,-0.024049673,0.98845863,0.14957018,0.9848701,-0.00225772,0.17327963,0.33450502,0.13868892,-0.93213296,-0.044751473,0.9903335,0.1312889,0.9413308,-0.0022024745,0.33747807,0.11730957,-0.06404114,0.13946533,9.658203,-0.022140503,1.6992798,-0.009567261,-0.0010681152,-0.009597778,-27.464294,21.310425,-1.5258789,0,0.0,0.0,0.0,0.0
0.471588134,0.17064935,0.18657629,-0.9675062,-0.030160569,0.98243797,0.18413603,0.98487014,-0.0022421605,0.17327964,0.33132103,0.13894488,-0.9332313,-0.044389226,0.9902976,0.13168193,0.9424733,-0.0022035795,0.33427408,0.06463623,0.045928955,0.024536133,9.658203,-0.021987915,1.6992798,0.0053253174,-0.012786865,-0.007461548,-27.642822,21.84906,-0.66223145,0,0.0,0.0,0.0,0.0
0.475982666,0.17061532,0.1865328,-0.96752053,-0.030177468,0.9824464,0.18408883,0.98487556,-0.0022110532,0.17324947,0.3281657,0.13990106,-0.9342028,-0.044266187,0.99016297,0.13273157,0.94358236,-0.0022043511,0.33113045,0.03591919,0.07434082,-0.06613159,9.658203,-0.02168274,1.6989746,-0.007461548,-0.012786865,-0.0021362305,-27.642822,21.84906,-0.66223145,0,0.0,0.0,0.0,0.0
0.480407714,0.17059581,0.18650788,-0.96752876,-0.030198917,0.9824511,0.18405971,0.98487824,-0.0021814953,0.17323437,0.32506984,0.14083713,-0.9351441,-0.044139475,0.9900303,0.13375974,0.94465935,-0.0022044852,0.3280455,0.11730957,0.035751343,-0.008529663,9.658203,-0.021392822,1.698822,0.0063934326,-0.019180298,-0.008529663,-27.642822,21.84906,-0.66223145,0,0.0,0.0,0.0,0.0
0.484802246,0.1706341,0.1854341,-0.9677284,-0.029983854,0.98265415,0.18300727,0.9848781,-0.002211059,0.17323436,0.32203278,0.14175384,-0.93605596,-0.04400954,0.98989946,0.13476709,0.94570506,-0.0022040254,0.32501858,0.08857727,-0.08843994,0.034576416,9.658203,-0.02168274,1.698822,-0.027679443,-0.0010681152,-0.008529663,-27.105713,22.38617,-0.48980713,0,0.0,0.0,0.0,0.0
0.489227294,0.17057063,0.18535665,-0.96775436,-0.0299876,0.9826689,0.18292783,0.98488903,-0.0021814848,0.17317286,0.31905487,0.14263046,-0.9369421,-0.043868836,0.9897735,0.13573441,0.94672036,-0.0022041663,0.3220491,0.050125122,0.0740509,-0.18510437,9.658356,-0.021392822,1.6982269,0.015975952,-0.012786865,-0.0021362305,-27.105713,22.38617,-0.48980713,0,0.0,0.0,0.0,0.0
0.493621826,0.170567,0.18535224,-0.96775585,-0.029925298,0.98266953,0.18293428,0.98489153,-0.0022421738,0.17315774,0.31613263,0.14348786,-0.93780136,-0.043725297,0.9896496,0.1366811,0.9477068,-0.0022037127,0.3191346,0.12194824,-0.14559937,-0.012557983,9.658356,-0.021987915,1.6980743,-0.0010681152,-0.008529663,-0.004272461,-27.105713,22.38617,-0.48980713,0,0.0,0.0,0.0,0.0
0.498016357,0.17127624,0.1590751,-0.97229606,-0.025360458,0.98726404,0.15705657,0.98489666,-0.0022421854,0.17312908,0.31326637,0.14432792,-0.9386339,-0.043578144,0.9895274,0.13760944,0.9486649,-0.002204482,0.3162752,0.06448364,-0.021102905,-0.14634705,9.658356,-0.021987915,1.6977844,0.003189087,0.0021362305,-0.009597778,-27.642822,21.490479,-1.3534546,0,0.0,0.0,0.0,0.0
0.502441406,0.17126165,0.15905596,-0.9723017,-0.025339207,0.987267,0.15704082,0.9848997,-0.0022577166,0.17311132,0.31047767,0.14462319,-0.93951464,-0.04326313,0.9894843,0.13801824,0.94959563,-0.002205236,0.31346965,0.107437134,-0.011367798,-0.03605652,9.658508,-0.022140503,1.6976318,-0.028747559,0.008514404,-0.0063934326,-27.642822,21.490479,-1.3534546,0,0.0,0.0,0.0,0.0
0.506835937,0.17120542,0.15898226,-0.97232366,-0.025317015,0.9872788,0.15696976,0.98491,-0.0022577401,0.17305245,0.30774212,0.14491217,-0.9403698,-0.04295199,0.98944205,0.13841797,0.95049983,-0.0022062855,0.31071725,0.17926025,-0.006576538,-0.116867065,9.658508,-0.022140503,1.6970367,0.007461548,0.008514404,-0.0063934326,-27.642822,21.490479,-1.3534546,0,0.0,0.0,0.0,0.0
0.511260986,0.17265321,0.09365069,-0.9805204,-0.013977857,0.99560237,0.09262992,0.9848834,-0.0022872784,0.17320299,0.30569652,0.14484179,-0.9410476,-0.042881798,0.9894529,0.13836211,0.9511629,-0.0019429999,0.30868337,0.16026306,0.02720642,0.068374634,9.658356,-0.02243042,1.6985321,0.0063934326,0.010650635,-0.0021362305,-26.208496,23.283386,-2.3910522,0,0.0,0.0,0.0,0.0
0.515655517,0.1727444,0.093756005,-0.9804944,-0.014018703,0.99559265,0.09272989,0.984867,-0.0022733086,0.17329738,0.30311003,0.1438213,-0.9420402,-0.0421759,0.98960173,0.13751203,0.95202184,-0.0019498854,0.30602401,0.09831238,0.0031433105,-0.028289795,9.658051,-0.02229309,1.6994324,-0.0063934326,0.031936646,0.007446289,-26.208496,23.283386,-2.3910522,0,0.0,0.0,0.0,0.0
0.520050048,0.1728207,0.09384415,-0.98047245,-0.014027483,0.99558425,0.09281804,0.98485345,-0.0022873173,0.17337398,0.30057362,0.14282316,-0.94300425,-0.041490175,0.9897463,0.13667789,0.95285577,-0.001956354,0.30341738,0.122406006,0.02243042,-0.057769775,9.657898,-0.02243042,1.70018,0.008529663,0.026611328,-0.0021362305,-26.208496,23.283386,-2.3910522,0,0.0,0.0,0.0,0.0
0.524475097,0.171443,0.16668835,-0.9709903,-0.026698537,0.98600686,0.1645522,0.98483217,-0.002287304,0.17349434,0.2980861,0.1418466,-0.9439408,-0.040823337,0.9898867,0.13585936,0.9536656,-0.0019629733,0.30086213,0.022003174,-0.030227661,0.07511902,9.657745,-0.02243042,1.7013702,-0.014892578,0.027679443,0.0021209717,-28.001404,22.924805,-1.008606,0,0.0,0.0,0.0,0.0
0.528869628,0.1714936,0.16675103,-0.97097063,-0.026671695,0.9859962,0.16462068,0.98482406,-0.0023339645,0.1735396,0.2955883,0.14234436,-0.94465107,-0.04060917,0.9898152,0.136443,0.9544519,-0.00196946,0.2983583,0.065093994,-0.11117554,0.1560669,9.657745,-0.022888184,1.701828,-0.014892578,0.02128601,-0.004272461,-28.001404,22.924805,-1.008606,0,0.0,0.0,0.0,0.0
0.533294677,0.1715426,0.16681169,-0.97095156,-0.026659735,0.9859859,0.16468452,0.9848159,-0.0023650979,0.17358574,0.29313973,0.14283338,-0.94534,-0.040396187,0.9897447,0.13701616,0.95521575,-0.0019767499,0.2959034,0.055664063,-0.1013031,0.13647461,9.657608,-0.02319336,1.7022705,0.0053253174,-0.0032043457,0.0053253174,-28.001404,22.924805,-1.008606,0,0.0,0.0,0.0,0.0
0.537689209,0.17155701,0.16682954,-0.970946,-0.02666537,0.9859829,0.16470169,0.9848132,-0.0023650916,0.17360084,0.2907395,0.14331383,-0.9460083,-0.040184774,0.9896753,0.13757898,0.955958,-0.0019845169,0.29349676,0.12748718,0.008834839,0.06448364,9.657608,-0.02319336,1.7024231,-0.0021362305,-0.019180298,-0.012786865,-28.001404,22.924805,-1.008606,0,0.0,0.0,0.0,0.0
0.542114257,0.17137258,0.16660114,-0.9710178,-0.026563805,0.9860214,0.16448718,0.984848,-0.002394668,0.17340259,0.28838593,0.14378498,-0.94665694,-0.0399752,0.9896069,0.13813064,0.9566794,-0.0019921283,0.29113656,0.069732666,-0.067489624,-0.024536133,9.657898,-0.023483276,1.70047,0.012786865,-0.015975952,-0.0010681152,-28.001404,22.924805,-1.008606,0,0.0,0.0,0.0,0.0
0.546508789,0.17122903,0.16642332,-0.9710736,-0.026400564,0.9860512,0.164335,0.9848774,-0.0025020267,0.17323424,0.2860744,0.1442421,-0.9472886,-0.039764963,0.98954034,0.13866699,0.9573819,-0.0020001791,0.28881794,0.08857727,-0.018554688,-0.09950256,9.658203,-0.024536133,1.698822,0.0063934326,-0.042617798,0.0,-28.001404,22.924805,-1.008606,0,0.0,0.0,0.0,0.0
0.55090332,0.17133294,0.15955871,-0.97220683,-0.025196327,0.98718524,0.15757659,0.9848909,-0.0025020216,0.17315763,0.28380504,0.14468648,-0.9479033,-0.03955311,0.9894755,0.1391897,0.95806587,-0.002010216,0.28654096,0.13632202,0.11071777,0.049682617,9.658356,-0.024536133,1.6980743,-0.043655396,-0.027694702,0.014892578,-28.361511,22.207642,-1.3534546,0,0.0,0.0,0.0,0.0
0.555328369,0.17130014,0.1595161,-0.9722195,-0.025107399,0.9871919,0.15754889,0.9848989,-0.002578245,0.17311117,0.28158382,0.14498426,-0.94851995,-0.0393039,0.9894319,0.13956976,0.9587313,-0.0020200522,0.28430647,0.117004395,-0.017807007,-0.026489258,9.658508,-0.025283813,1.6976318,0.026626587,-0.017044067,0.013824463,-28.361511,22.207642,-1.3534546,0,0.0,0.0,0.0,0.0
0.5597229,0.17126282,0.15946753,-0.9722341,-0.025063207,0.9871996,0.15750721,0.98490644,-0.0026078285,0.17306738,0.279405,0.14527522,-0.9491196,-0.039056335,0.9893892,0.13994148,0.95937866,-0.0020312162,0.28211418,0.040390015,-0.07975769,-0.12660217,9.658508,-0.02557373,1.6971893,-0.023422241,-0.007461548,0.012771606,-28.361511,22.207642,-1.3534546,0,0.0,0.0,0.0,0.0
0.564147949,0.17091063,0.1727167,-0.9700301,-0.027361955,0.98496795,0.1705555,0.98490644,-0.0026078285,0.17306738,0.27726766,0.14555937,-0.9497027,-0.03881129,0.9893474,0.14030463,0.9600085,-0.0020427485,0.27996337,0.17926025,0.0016326904,0.060150146,9.658508,-0.02557373,1.6971893,0.003189087,-0.012786865,0.0021209717,-26.92566,22.924805,-0.66223145,0,0.0,0.0,0.0,0.0
0.56854248,0.17086287,0.17266008,-0.97004855,-0.027357478,0.9849779,0.17049868,0.9849149,-0.00259381,0.17301972,0.27516147,0.14610368,-0.9502315,-0.038643695,0.9892672,0.14091545,0.96062106,-0.00205405,0.27785423,0.097717285,0.0206604,-0.10220337,9.658646,-0.025436401,1.6967316,0.004257202,0.010650635,-0.0021362305,-26.92566,22.924805,-0.66223145,0,0.0,0.0,0.0,0.0
0.572937011,0.17083897,0.17263174,-0.9700579,-0.027318647,0.98498297,0.17047668,0.9849202,-0.0026233874,0.17298953,0.2730956,0.1466359,-0.9507453,-0.038476855,0.9891883,0.14151283,0.96121705,-0.0020648453,0.2757851,0.045043945,0.0017852783,0.056121826,9.658646,-0.025726318,1.6964264,0.0010681152,-0.0095825195,0.0053253174,-26.92566,22.924805,-0.66223145,0,0.0,0.0,0.0,0.0
0.57736206,0.17086774,0.17266586,-0.9700467,-0.027329806,0.9849769,0.17050943,0.98491484,-0.0026233734,0.17301972,0.2730956,0.1466359,-0.9507453,-0.038476855,0.9891883,0.14151283,0.96121705,-0.0020648453,0.2757851,0.045043945,0.0017852783,0.05581665,9.658646,-0.025726318,1.6967316,0.0010681152,-0.0095825195,0.0053253174,-26.92566,22.924805,-0.66223145,0,0.0,0.0,0.0,0.0
0.581756591,0.17075935,0.17703263,-0.96927845,-0.028105509,0.9842016,0.17480685,0.98491186,-0.0026078427,0.17303722,0.26964107,0.14681186,-0.9517037,-0.03844127,0.9891631,0.14169906,0.9621933,-0.0016231863,0.27236262,0.083496094,0.06866455,-0.049682617,9.658508,-0.02557373,1.6968842,0.012786865,-0.0010681152,-0.0138549805,-27.105713,23.46344,-0.48980713,0,0.0,0.0,0.0,0.0
0.58618164,0.17072335,0.17699073,-0.9692924,-0.028121134,0.98420906,0.17476144,0.9849176,-0.0025782571,0.17300464,0.26964107,0.14681186,-0.9517037,-0.03844127,0.9891631,0.14169906,0.9621933,-0.0016231863,0.27236262,0.083358765,0.068374634,-0.04937744,9.658646,-0.025283813,1.696579,0.012786865,-0.0010681152,-0.0138549805,-27.105713,23.46344,-0.48980713,0,0.0,0.0,0.0,0.0
0.590576171,0.17212684,0.11892057,-0.9778703,-0.018058265,0.9929005,0.11756977,0.9849093,-0.002578272,0.17305231,0.26575536,0.14800976,-0.9526108,-0.038154658,0.9889845,0.14301704,0.9632852,-0.001661007,0.2684752,-0.041000366,0.015716553,0.112976074,9.658508,-0.025283813,1.6970367,0.0,0.008514404,-0.007461548,-27.822876,22.027588,-2.218628,0,0.0,0.0,0.0,0.0
0.59500122,0.17212684,0.11892057,-0.9778703,-0.018058265,0.9929005,0.11756977,0.9849093,-0.002578272,0.17305231,0.26391485,0.14742914,-0.95321226,-0.037702207,0.98907113,0.14253671,0.96380883,-0.0016793523,0.266589,0.083496094,0.0013427734,0.031570435,9.658508,-0.025283813,1.6970367,0.007461548,0.017028809,-0.004272461,-27.822876,22.027588,-2.218628,0,0.0,0.0,0.0,0.0
0.599395752,0.17211041,0.11889926,-0.9778757,-0.018067976,0.99290293,0.11754638,0.9849119,-0.0025627192,0.17303722,0.26210976,0.1468601,-0.95379806,-0.037260756,0.9891558,0.14206478,0.9643185,-0.0016973307,0.26473948,0.13616943,0.025131226,-0.044891357,9.658508,-0.025131226,1.6968842,-0.003189087,0.013839722,-0.0053253174,-27.822876,22.027588,-2.218628,0,0.0,0.0,0.0,0.0
0.603790283,0.17155065,0.14625841,-0.9742581,-0.02278108,0.98924303,0.14449662,0.98491186,-0.0025938388,0.17303722,0.26033902,0.14630194,-0.95436853,-0.03683015,0.98923844,0.14160064,0.96481454,-0.0017146386,0.2629257,0.18405151,-0.09906006,0.031723022,9.658508,-0.025436401,1.6968842,0.0063934326,0.014892578,-0.0053253174,-26.92566,22.566223,-1.3534546,0,0.0,0.0,0.0,0.0
0.608215332,0.17154847,0.14625578,-0.9742589,-0.022795781,0.98924345,0.14449136,0.9849119,-0.002578279,0.17303722,0.2585823,0.14630108,-0.95484614,-0.036552113,0.98923856,0.14167199,0.96529746,-0.0017322225,0.26114723,0.064331055,0.039642334,0.036514282,9.658508,-0.025283813,1.6968842,0.0053253174,0.019165039,0.0,-26.92566,22.566223,-1.3534546,0,0.0,0.0,0.0,0.0
0.612609863,0.17153163,0.14623533,-0.9742649,-0.022789698,0.98924637,0.14447162,0.9849149,-0.0025782501,0.17301972,0.25685987,0.14630017,-0.95531106,-0.036279794,0.9892387,0.14174123,0.96576744,-0.0017491436,0.25940347,0.011520386,0.010925293,-0.05911255,9.658646,-0.025283813,1.6967316,0.004257202,0.024490356,-0.0021362305,-26.92566,22.566223,-1.3534546,0,0.0,0.0,0.0,0.0
0.617034912,0.1724529,0.099188596,-0.98001105,-0.014622832,0.9950654,0.09813908,0.9849093,-0.0025938319,0.17305231,0.2551707,0.14629889,-0.9557639,-0.03601264,0.98923886,0.14180821,0.96622515,-0.0017657258,0.2576934,0.107437134,-0.02722168,0.1273346,9.658508,-0.025436401,1.6970367,-0.009567261,0.015960693,-0.004272461,-26.567078,22.566223,-2.3910522,0,0.0,0.0,0.0,0.0
0.621429443,0.17240764,0.09913389,-0.9800246,-0.014594894,0.9950707,0.09808831,0.9849175,-0.0026078206,0.17300463,0.25354907,0.14535955,-0.9563386,-0.035510108,0.98937726,0.14096668,0.9666705,-0.001782288,0.25601742,0.097717285,-0.06539917,-0.10684204,9.658646,-0.02557373,1.696579,0.003189087,0.012786865,-0.007461548,-26.567078,22.566223,-2.3910522,0,0.0,0.0,0.0,0.0
0.625823974,0.17254104,0.09929517,-0.97998464,-0.014665699,0.9950546,0.09823999,0.98489314,-0.0025782706,0.17314401,0.2519576,0.14443778,-0.9568987,-0.03501985,0.98951226,0.14013964,0.96710443,-0.0017987986,0.2543733,0.07406616,0.010925293,0.12643433,9.658356,-0.025283813,1.697937,0.0010681152,0.022354126,-0.0010681152,-26.567078,22.566223,-2.3910522,0,0.0,0.0,0.0,0.0
0.630249023,0.17277554,0.08998237,-0.9808424,-0.013060515,0.9959401,0.089066826,0.9848747,-0.002578263,0.17324932,0.25039908,0.14353752,-0.95744306,-0.03454396,0.98964316,0.13933064,0.9675262,-0.001814388,0.2527641,-0.0023956299,0.020507813,0.05836487,9.658203,-0.025283813,1.6989746,0.019180298,0.02128601,-0.0021362305,-27.28424,22.566223,-2.7359009,0,0.0,0.0,0.0,0.0
0.634643554,0.17283584,0.09005737,-0.98082495,-0.013079082,0.9959333,0.089139864,0.9848638,-0.0025782753,0.17331083,0.24887887,0.14246999,-0.9579987,-0.034034006,0.9897974,0.13835725,0.96793646,-0.0018296655,0.2511885,0.14619446,0.010925293,-0.076309204,9.658051,-0.025283813,1.6995697,0.0234375,0.020217896,0.004257202,-27.28424,22.566223,-2.7359009,0,0.0,0.0,0.0,0.0
0.639068603,0.17283177,0.0900523,-0.9808261,-0.0131239835,0.9959338,0.0891268,0.9848639,-0.0025315958,0.17331083,0.24738881,0.14142515,-0.9585393,-0.03353792,0.9899472,0.13740335,0.9683356,-0.0018446377,0.24964496,0.016906738,0.11100769,0.014663696,9.658051,-0.02482605,1.6995697,-0.014892578,0.024490356,-0.0032043457,-27.28424,22.566223,-2.7359009,0,0.0,0.0,0.0,0.0
0.643463134,0.17207353,0.13513544,-0.97577107,-0.020952225,0.99082386,0.13352527,0.9848612,-0.002531589,0.17332593,0.24592704,0.14040095,-0.959066,-0.033055615,0.990093,0.13646686,0.96872455,-0.0018583769,0.24813166,0.12225342,0.015258789,0.07676697,9.658051,-0.02482605,1.6997223,-0.003189087,0.0010681152,-0.014923096,-27.642822,22.924805,-1.6998291,0,0.0,0.0,0.0,0.0
0.647888183,0.17209011,0.13515586,-0.9757653,-0.020942641,0.99082106,0.13354774,0.9848586,-0.0025471419,0.17334102,0.24542545,0.14020774,-0.9592226,-0.03230785,0.990119,0.13645753,0.968877,-0.0024997303,0.2475302,0.15098572,-0.046844482,0.04309082,9.658051,-0.024978638,1.6998749,-0.0010681152,0.013839722,0.0095825195,-27.642822,22.924805,-1.6998291,0,0.0,0.0,0.0,0.0
0.652282714,0.17212129,0.13519426,-0.9757545,-0.020938236,0.99081576,0.13358758,0.98485315,-0.0025626877,0.1733712,0.24397235,0.14010672,-0.9596081,-0.03207485,0.9901333,0.13640876,0.9692517,-0.0025006786,0.24605905,0.1366272,-0.046691895,0.10983276,9.658051,-0.025131226,1.70018,-0.009567261,0.0,-0.0032043457,-27.642822,22.924805,-1.6998291,0,0.0,0.0,0.0,0.0
0.656677246,0.1709303,0.18389961,-0.9679689,-0.029380685,0.9829415,0.18155596,0.98484486,-0.0025938263,0.1734176,0.24254821,0.1400085,-0.9599832,-0.03184669,0.9901471,0.13636139,0.9696165,-0.0025019187,0.24461722,0.012268066,-0.10862732,0.13812256,9.657898,-0.025436401,1.7006226,0.017044067,0.0010681152,-0.0021362305,-27.642822,22.207642,-0.66223145,0,0.0,0.0,0.0,0.0
0.661102294,0.17083973,0.18378574,-0.9680065,-0.02928246,0.9829627,0.18145739,0.9848636,-0.0026545182,0.17331079,0.24112174,0.14088932,-0.96021384,-0.031860806,0.9900222,0.13726237,0.9699718,-0.002503757,0.24320471,0.1078949,-0.031417847,0.029037476,9.658051,-0.026031494,1.6995697,0.003189087,-0.0021362305,0.0063934326,-27.642822,22.207642,-0.66223145,0,0.0,0.0,0.0,0.0
0.665496826,0.17081276,0.18375185,-0.9680178,-0.029255765,0.9829693,0.18142761,0.9848692,-0.002670051,0.17327946,0.23972163,0.14175013,-0.96043766,-0.03187011,0.98989934,0.1381437,0.97031844,-0.002506772,0.24181785,0.04069519,-0.026473999,-0.09516907,9.658203,-0.026184082,1.6992798,-0.007461548,-0.0234375,0.007446289,-27.642822,22.207642,-0.66223145,0,0.0,0.0,0.0,0.0
0.669921875,0.17188527,0.14110884,-0.9749584,-0.021858972,0.9899907,0.13943078,0.9848745,-0.0026545057,0.17324927,0.23834857,0.14259294,-0.9606546,-0.03187627,0.9897783,0.139007,0.97065645,-0.0025100377,0.24045755,0.11730957,0.030807495,-0.06613159,9.658203,-0.026031494,1.6989746,-0.003189087,-0.018112183,-0.004272461,-27.28424,21.490479,-1.6998291,0,0.0,0.0,0.0,0.0
0.674316406,0.17171021,0.14088154,-0.9750221,-0.021793796,0.9900229,0.13921094,0.9849064,-0.0026545078,0.17306738,0.2370295,0.14256327,-0.9609853,-0.031675324,0.9897825,0.13902256,0.97098595,-0.002512927,0.23912339,0.14094543,0.13615417,-0.15054321,9.658508,-0.026031494,1.6971893,-0.011703491,-0.017044067,0.004257202,-27.28424,21.490479,-1.6998291,0,0.0,0.0,0.0,0.0
0.678710937,0.17169964,0.14086784,-0.9750259,-0.021760453,0.9900248,0.13920285,0.984909,-0.0026840784,0.17305227,0.23573305,0.14252964,-0.96130913,-0.03147683,0.9897874,0.13903321,0.971308,-0.0025157586,0.23781197,0.13137817,-0.10295105,-0.016311646,9.658508,-0.026321411,1.6970367,-0.008514404,-0.0234375,0.010650635,-27.28424,21.490479,-1.6998291,0,0.0,0.0,0.0,0.0
0.683135986,0.1714188,0.1512733,-0.9735153,-0.0235277,0.98848826,0.14945713,0.9849173,-0.0027151825,0.17300458,0.23446186,0.1424964,-0.9616249,-0.031281654,0.98979217,0.13904326,0.97162193,-0.0025191251,0.23652603,0.16474915,-0.06913757,-0.09246826,9.658646,-0.026626587,1.696579,-0.0063934326,-0.01171875,-0.0053253174,-27.28424,22.207642,-1.3534546,0,0.0,0.0,0.0,0.0
0.687530517,0.1714188,0.1512733,-0.9735153,-0.0235277,0.98848826,0.14945713,0.9849173,-0.0027151825,0.17300458,0.23320831,0.14267206,-0.96190363,-0.031138739,0.98976684,0.13925537,0.9719281,-0.0025230462,0.23526448,-0.026779175,-0.006881714,-0.030227661,9.658646,-0.026626587,1.696579,0.0010681152,-0.017044067,0.0021209717,-27.28424,22.207642,-1.3534546,0,0.0,0.0,0.0,0.0
0.691955566,0.17137107,0.15121359,-0.9735329,-0.023449311,0.9884972,0.14941011,0.9849275,-0.0027758942,0.17294568,0.23197953,0.1428442,-0.9621752,-0.030998208,0.989742,0.13946313,0.97222656,-0.0025268886,0.23402779,0.073776245,-0.05895996,-0.03919983,9.658646,-0.02722168,1.6959839,-0.003189087,0.012786865,-0.0053253174,-27.28424,22.207642,-1.3534546,0,0.0,0.0,0.0,0.0
0.696350097,0.17262459,0.080110215,-0.9817246,-0.011130769,0.9967822,0.07938172,0.9849248,-0.0027758868,0.17296077,0.23077415,0.14301169,-0.96244013,-0.030858407,0.9897178,0.13966572,0.97251785,-0.0025318689,0.23281439,0.12644958,-0.011077881,0.08035278,9.658646,-0.02722168,1.6961365,-0.029815674,-0.008529663,0.0021209717,-28.001404,22.566223,-3.0822754,0,0.0,0.0,0.0,0.0
0.700775146,0.17268483,0.0801873,-0.98170763,-0.011118346,0.9967758,0.07946234,0.98491436,-0.002806977,0.17301963,0.22963652,0.14175843,-0.9628976,-0.030392177,0.9898981,0.13848539,0.9728018,-0.0025367492,0.23162508,-0.026779175,-0.053863525,0.15637207,9.658646,-0.027526855,1.6967316,0.0053253174,-0.0021362305,-0.0021362305,-28.001404,22.566223,-3.0822754,0,0.0,0.0,0.0,0.0
0.705169677,0.17259352,0.08007047,-0.9817332,-0.011105994,0.9967852,0.079345636,0.9849305,-0.0027914187,0.17292793,0.2285217,0.14053155,-0.9633425,-0.02993799,0.99007297,0.13732915,0.97307837,-0.002542154,0.23046038,0.11193848,0.03694153,0.08065796,9.658798,-0.027374268,1.6958313,0.0010681152,-0.0063934326,0.010650635,-28.001404,22.566223,-3.0822754,0,0.0,0.0,0.0,0.0
0.709564209,0.17072974,0.17540729,-0.9695791,-0.027626319,0.984492,0.17324057,0.9849305,-0.0027914187,0.17292793,0.22742642,0.13932669,-0.96377665,-0.029495096,0.99024326,0.13619271,0.9733485,-0.0025471393,0.22931692,0.030532837,-0.006134033,0.013626099,9.658798,-0.027374268,1.6958313,0.004257202,-0.024505615,0.0010681152,-26.208496,21.84906,-0.66223145,0,0.0,0.0,0.0,0.0
0.713989257,0.17073649,0.17541547,-0.96957636,-0.027689662,0.98449063,0.17323779,0.9849276,-0.002730771,0.17294571,0.22576371,0.14088753,-0.9639407,-0.029846959,0.9900229,0.13770923,0.9737248,-0.0023190486,0.2277163,0.107299805,0.17042542,0.03262329,9.658646,-0.026779175,1.6959839,-0.011703491,-0.007461548,-0.0063934326,-26.208496,21.84906,-0.66223145,0,0.0,0.0,0.0,0.0
0.718383789,0.17071441,0.1753887,-0.9695851,-0.027712103,0.98449546,0.17320658,0.98493075,-0.002699617,0.17292798,0.22466601,0.14157993,-0.96409553,-0.029842159,0.9899241,0.13841869,0.97397876,-0.0023272831,0.22662735,0.0975647,0.05519104,-0.010314941,9.658798,-0.026473999,1.6958313,0.0010681152,-0.0138549805,-0.018112183,-26.208496,21.84906,-0.66223145,0,0.0,0.0,0.0,0.0
0.722808837,0.17169416,0.13108142,-0.9763907,-0.02001974,0.99136806,0.12957175,0.9849469,-0.0026996187,0.17283627,0.22358976,0.14225787,-0.964246,-0.029836373,0.98982686,0.13911343,0.97422653,-0.0023347298,0.22555959,0.13093567,-0.04534912,-0.042938232,9.658951,-0.026473999,1.694931,0.0010681152,-0.02130127,-0.0010681152,-27.464294,22.027588,-1.8722534,0,0.0,0.0,0.0,0.0
0.727203369,0.17168882,0.13107465,-0.97639245,-0.019956008,0.9913686,0.12957604,0.9849491,-0.0027618639,0.17282267,0.2225596,0.14203452,-0.9645172,-0.029629383,0.9898589,0.13892943,0.9744687,-0.0023420276,0.224511,0.11656189,-0.14050293,-0.018859863,9.658951,-0.02708435,1.6947937,0.022369385,-0.012786865,0.0,-27.464294,22.027588,-1.8722534,0,0.0,0.0,0.0,0.0
0.7315979,0.17167601,0.13105828,-0.9763969,-0.019937504,0.9913707,0.12956262,0.9849517,-0.002775875,0.17280754,0.22154969,0.1418155,-0.96478194,-0.029425692,0.98989034,0.13874902,0.97470504,-0.0023504242,0.22348292,0.10220337,-0.03981018,-0.028289795,9.658951,-0.02722168,1.6946411,0.0,-0.019180298,0.004257202,-27.464294,22.027588,-1.8722534,0,0.0,0.0,0.0,0.0
0.736022949,0.17107531,0.15566814,-0.9728827,-0.02422135,0.98780555,0.15379673,0.98496014,-0.0027462915,0.17275962,0.22055937,0.14160049,-0.9650403,-0.02922608,0.98992103,0.13857165,0.97493553,-0.0023589332,0.2224748,0.13078308,0.055648804,-0.11880493,9.659103,-0.026931763,1.6941833,-0.011703491,0.0,-0.0063934326,-26.92566,21.131897,-1.3534546,0,0.0,0.0,0.0,0.0
0.74041748,0.17108998,0.15568718,-0.97287697,-0.024242522,0.9878025,0.1538124,0.98495704,-0.0027307663,0.17277737,0.21957316,0.14188214,-0.9652238,-0.029140495,0.9898807,0.13887756,0.9751607,-0.0023666804,0.22148575,0.01600647,0.065078735,0.04385376,9.658951,-0.026779175,1.6943359,0.0,-0.0010681152,0.014892578,-26.92566,21.131897,-1.3534546,0,0.0,0.0,0.0,0.0
0.744842529,0.1710998,0.15569994,-0.9728732,-0.024277372,0.9878006,0.15381926,0.98495454,-0.0026996396,0.1727925,0.21860678,0.14215852,-0.96540254,-0.029056484,0.98984104,0.1391776,0.97538036,-0.002373962,0.2205166,0.03994751,0.07435608,0.058059692,9.658951,-0.026473999,1.6944885,-0.0053253174,0.0063934326,-0.01171875,-26.92566,21.131897,-1.3534546,0,0.0,0.0,0.0,0.0
0.74923706,0.17115638,0.15577342,-0.97285163,-0.024314838,0.9877893,0.15388747,0.9849438,-0.0026840928,0.17285402,0.21765965,0.14242962,-0.9655765,-0.02897428,0.989802,0.1394717,0.9755945,-0.0023804754,0.21956676,0.10235596,0.011962891,0.20111084,9.658798,-0.026321411,1.6950836,0.0,0.013839722,0.007446289,-26.92566,21.131897,-1.3534546,0,0.0,0.0,0.0,0.0
0.753662109,0.17112869,0.15573746,-0.9728621,-0.024288602,0.9877948,0.15385549,0.9849493,-0.0026996252,0.17282268,0.21673256,0.14269678,-0.9657457,-0.028894007,0.98976356,0.13976122,0.9758033,-0.0023865479,0.21863706,0.13572693,-0.026184082,-0.08589172,9.658951,-0.026473999,1.6947937,0.007461548,0.01171875,0.0053253174,-26.92566,21.131897,-1.3534546,0,0.0,0.0,0.0,0.0
0.75805664,0.17124878,0.15589345,-0.9728161,-0.024319705,0.9877702,0.15400875,0.98492765,-0.0027152111,0.17294572,0.21582338,0.14295785,-0.9659106,-0.028814288,0.9897259,0.1400443,0.97600716,-0.0023928094,0.21772522,0.025894165,0.026626587,-0.03919983,9.658646,-0.026626587,1.6959839,-0.019165039,0.0063934326,-0.0053253174,-26.92566,21.131897,-1.3534546,0,0.0,0.0,0.0,0.0
0.762451171,0.17152874,0.14400852,-0.9745971,-0.02225942,0.9895728,0.1423037,0.98492765,-0.0027152111,0.17294572,0.21493454,0.14321682,-0.9660704,-0.02873639,0.9896884,0.14032473,0.9762056,-0.0023992574,0.21683377,0.059417725,-0.030822754,0.008682251,9.658646,-0.026626587,1.6959839,0.0095825195,0.034072876,0.0063934326,-27.464294,22.38617,-1.5258789,0,0.0,0.0,0.0,0.0
0.76687622,0.17151165,0.14398713,-0.97460324,-0.022253184,0.98957586,0.14228305,0.98493075,-0.002715177,0.17292798,0.21407035,0.14323266,-0.96625996,-0.028608125,0.98968613,0.14036722,0.9763992,-0.0024055764,0.21596007,0.16938782,0.017059326,-0.0055389404,9.658798,-0.026626587,1.6958313,0.01171875,0.014892578,-0.0010681152,-27.464294,22.38617,-1.5258789,0,0.0,0.0,0.0,0.0
0.771270752,0.17156872,0.14405853,-0.97458255,-0.022289598,0.98956543,0.14234929,0.98491997,-0.00269963,0.17298949,0.21322292,0.14324775,-0.966445,-0.028482225,0.9896839,0.14040834,0.9765883,-0.0024117685,0.21510331,0.1408081,-0.05014038,-0.020492554,9.658646,-0.026473999,1.6964264,-0.004257202,0.012786865,0.007446289,-27.464294,22.38617,-1.5258789,0,0.0,0.0,0.0,0.0
0.7756958,0.1727,0.07075048,-0.9824302,-0.009599062,0.9974904,0.07014765,0.98492765,-0.0026840912,0.17294572,0.21239334,0.14326398,-0.96662533,-0.028359568,0.9896816,0.1404498,0.97677267,-0.002417526,0.21426468,0.1695404,0.031097412,-0.08230591,9.658646,-0.026321411,1.6959839,0.019180298,0.019165039,-0.0053253174,-26.92566,22.924805,-3.0822754,0,0.0,0.0,0.0,0.0
0.780090332,0.17271489,0.07076849,-0.9824263,-0.009603262,0.9974892,0.07016525,0.9849251,-0.0026840842,0.17296083,0.21215479,0.14139184,-0.9669533,-0.027579587,0.9899499,0.13870338,0.97684675,-0.0027584154,0.21392213,0.054626465,-0.011978149,0.051620483,9.658646,-0.026321411,1.6961365,0.0053253174,0.007461548,0.0063934326,-26.92566,22.924805,-3.0822754,0,0.0,0.0,0.0,0.0
0.784484863,0.17273083,0.07078779,-0.9824221,-0.009592399,0.99748784,0.07018679,0.9849224,-0.0026996369,0.17297591,0.21138585,0.13998519,-0.96732634,-0.02716488,0.9901498,0.13735183,0.9770251,-0.0027569288,0.21310632,0.016311646,-0.030975342,0.051467896,9.658646,-0.026473999,1.6962891,-0.010635376,0.01171875,0.0010681152,-26.92566,22.924805,-3.0822754,0,0.0,0.0,0.0,0.0
0.788909912,0.171349,0.15397939,-0.97310317,-0.024027271,0.9880703,0.15211688,0.9849173,-0.002684063,0.17300458,0.2106318,0.13860677,-0.9676892,-0.026760451,0.9903437,0.13602687,0.9771991,-0.002755783,0.21230705,0.116867065,0.01675415,0.0942688,9.658646,-0.026321411,1.696579,-0.0053253174,-0.0021362305,0.010650635,-27.642822,22.207642,-1.3534546,0,0.0,0.0,0.0,0.0
0.793304443,0.17135456,0.15398644,-0.9731012,-0.024089884,0.98806953,0.15211305,0.98491484,-0.0026233734,0.17301972,0.20984803,0.13891456,-0.96781534,-0.026718086,0.99030054,0.13634875,0.97736883,-0.0027543486,0.21152416,0.1360321,0.15499878,0.06539917,9.658646,-0.025726318,1.6967316,-0.004257202,0.007461548,0.007446289,-27.642822,22.207642,-1.3534546,0,0.0,0.0,0.0,0.0
0.797729492,0.1713325,0.15395844,-0.9731094,-0.024034925,0.9880736,0.1520942,0.98491997,-0.0026700664,0.17298949,0.20908,0.13921632,-0.9679382,-0.026677325,0.99025816,0.1366641,0.97753453,-0.002751729,0.21075709,0.116867065,-0.08872986,-0.044433594,9.658646,-0.026184082,1.6964264,0.004257202,0.0010681152,-0.012786865,-27.642822,22.207642,-1.3534546,0,0.0,0.0,0.0,0.0
0.802124023,0.1706086,0.17961277,-0.96883017,-0.02846283,0.98373365,0.17736351,0.98492765,-0.0026840912,0.17294572,0.20832673,0.1395115,-0.9680581,-0.026635801,0.9902167,0.13697283,0.97769654,-0.0027500957,0.2100046,0.097717285,-0.07423401,-0.13018799,9.658646,-0.026321411,1.6959839,0.0095825195,0.0053253174,-0.0021362305,-27.105713,23.104858,-0.48980713,0,0.0,0.0,0.0,0.0
0.806549072,0.1706139,0.17961906,-0.968828,-0.028433776,0.98373246,0.17737502,0.98492765,-0.0027152111,0.17294572,0.2075738,0.140316,-0.9681036,-0.026702292,0.990103,0.13777924,0.97785485,-0.0027487758,0.20926619,0.112091064,-0.07392883,0.04698181,9.658646,-0.026626587,1.6959839,-0.0021362305,-0.0032043457,0.0,-27.105713,23.104858,-0.48980713,0,0.0,0.0,0.0,0.0
0.810943603,0.17060621,0.17960995,-0.9688312,-0.028475912,0.9837343,0.17735834,0.9849277,-0.0026700874,0.17294574,0.20683596,0.14110443,-0.9681469,-0.026765699,0.98999095,0.13856988,0.97800946,-0.0027481045,0.20854247,0.18870544,0.11236572,0.023040771,9.658646,-0.026184082,1.6959839,-0.009567261,0.007461548,0.0,-27.105713,23.104858,-0.48980713,0,0.0,0.0,0.0,0.0
0.815338134,0.17074971,0.17331885,-0.96995103,-0.02739433,0.98486215,0.1711608,0.98493356,-0.0026545012,0.17291291,0.20611264,0.14187683,-0.9681883,-0.02682753,0.98988056,0.13934441,0.97816044,-0.0027465443,0.2078331,0.08798218,0.040390015,-0.08677673,9.658798,-0.026031494,1.6956787,0.01171875,-0.004257202,0.003189087,-27.464294,22.38617,-0.83465576,0,0.0,0.0,0.0,0.0
0.819763183,0.17081231,0.17339656,-0.96992624,-0.027403655,0.9848485,0.17123823,0.9849224,-0.002670073,0.17297591,0.20540647,0.14250718,-0.96824586,-0.026860982,0.98979,0.1399797,0.9783081,-0.0027447036,0.20713714,0.116867065,-0.021697998,0.19033813,9.658646,-0.026184082,1.6962891,-0.0053253174,0.010650635,0.007446289,-27.464294,22.38617,-0.83465576,0,0.0,0.0,0.0,0.0
0.824157714,0.17078586,0.17336373,-0.96993667,-0.027379118,0.9848541,0.17120914,0.98492765,-0.0026840912,0.17294572,0.20471556,0.14312643,-0.9683007,-0.02689309,0.9897006,0.14060391,0.97845197,-0.002743211,0.20645624,0.1408081,-0.05029297,-0.029632568,9.658646,-0.026321411,1.6959839,-0.008514404,-0.0138549805,0.004257202,-27.464294,22.38617,-0.83465576,0,0.0,0.0,0.0,0.0
0.828582763,0.17270653,0.071414486,-0.982381,-0.009744159,0.9974432,0.07079638,0.98492515,-0.0026545206,0.17296085,0.20403796,0.14373258,-0.96835405,-0.02692323,0.9896128,0.14121513,0.9785927,-0.0027420288,0.20578831,0.064193726,0.064331055,0.037261963,9.658646,-0.026031494,1.6961365,0.0010681152,-0.0032043457,-0.009597778,-26.567078,21.84906,-3.0822754,0,0.0,0.0,0.0,0.0
0.832977294,0.17270967,0.07141842,-0.9823802,-0.009700512,0.9974428,0.070808046,0.984925,-0.0026996438,0.17296082,0.20342901,0.1422924,-0.96869475,-0.026534505,0.9898209,0.1398233,0.9787301,-0.0027402786,0.20513393,0.064193726,0.016906738,-0.005844116,9.658646,-0.026473999,1.6961365,0.017044067,-0.014907837,-0.0010681152,-26.567078,21.84906,-3.0822754,0,0.0,0.0,0.0,0.0
0.837371826,0.17270967,0.07141842,-0.9823802,-0.009700512,0.9974428,0.070808046,0.984925,-0.0026996438,0.17296082,0.20342901,0.1422924,-0.96869475,-0.026534505,0.9898209,0.1398233,0.9787301,-0.0027402786,0.20513393,0.064193726,0.016906738,-0.005844116,9.658646,-0.026473999,1.6961365,0.017044067,-0.014907837,-0.0010681152,-26.567078,21.84906,-3.0822754,0,0.0,0.0,0.0,0.0
0.841796875,0.17106931,0.1608416,-0.9720418,-0.025229111,0.9869767,0.15887277,0.98493594,-0.0026545078,0.17289932,0.20224535,0.13949716,-0.9693489,-0.025783706,0.9902187,0.13712096,0.9789954,-0.0027386697,0.20386389,0.0688324,0.040390015,-0.19677734,9.658798,-0.026031494,1.6955414,-0.009567261,-0.0010681152,0.003189087,-26.747131,21.310425,-1.1810303,0,0.0,0.0,0.0,0.0
0.846191406,0.17099372,0.16074508,-0.9720711,-0.025215164,0.9869925,0.15877701,0.9849494,-0.0026389423,0.17282271,0.20224535,0.13949716,-0.9693489,-0.025783706,0.9902187,0.13712096,0.9789954,-0.0027386697,0.20386389,0.06867981,0.040237427,-0.19602966,9.658951,-0.025878906,1.6947937,-0.009567261,-0.0010681152,0.003189087,-26.747131,21.310425,-1.1810303,0,0.0,0.0,0.0,0.0
0.850616455,0.17097928,0.16072667,-0.97207665,-0.025209527,0.98699534,0.15875925,0.984952,-0.002638949,0.17280759,0.20064715,0.14114292,-0.96944284,-0.026427807,0.9899867,0.13866416,0.97930706,-0.0022023153,0.20236811,0.06867981,-0.0076293945,-0.033065796,9.658951,-0.025878906,1.6946411,-0.012771606,0.0,0.0095825195,-26.747131,21.310425,-1.1810303,0,0.0,0.0,0.0,0.0
0.855010986,0.17098139,0.16122635,-0.9719935,-0.02529854,0.9869139,0.159251,0.9849494,-0.0026389423,0.17282271,0.20005436,0.14153518,-0.9695082,-0.026415145,0.98993075,0.13906594,0.97942865,-0.002211048,0.20177864,0.21234131,0.021102905,0.067337036,9.658951,-0.025878906,1.6947937,0.0021362305,0.013839722,0.004257202,-27.822876,22.38617,-1.1810303,0,0.0,0.0,0.0,0.0
0.859436035,0.17093332,0.16116564,-0.9720121,-0.02531093,0.98692393,0.15918706,0.9849574,-0.0026078438,0.17277743,0.19947349,0.1419296,-0.96957016,-0.026404344,0.98987424,0.13946952,0.97954744,-0.0022196057,0.20120123,0.19317627,0.04951477,-0.07107544,9.658951,-0.02557373,1.6943359,-0.0021362305,0.0063934326,0.014892578,-27.822876,22.38617,-1.1810303,0,0.0,0.0,0.0,0.0
0.863830566,0.17095491,0.16119292,-0.9720037,-0.02527273,0.9869193,0.15922152,0.98495466,-0.0026545164,0.17279251,0.19890323,0.14231487,-0.96963084,-0.026393529,0.9898189,0.13986374,0.97966367,-0.0022273704,0.20063438,-0.02229309,-0.08888245,0.024536133,9.658951,-0.026031494,1.6944885,0.0053253174,0.0010681152,0.0021209717,-27.822876,22.38617,-1.1810303,0,0.0,0.0,0.0,0.0
0.868225097,0.17142744,0.1456962,-0.9743641,-0.022558138,0.9893257,0.14396456,0.9849384,-0.002699638,0.1728842,0.19834471,0.14269297,-0.96968967,-0.02638173,0.98976445,0.1402508,0.9797772,-0.0022359132,0.20007902,0.035324097,0.07435608,0.047576904,9.658798,-0.026473999,1.6953888,0.007461548,0.0095825195,0.004257202,-26.567078,22.207642,-1.3534546,0,0.0,0.0,0.0,0.0
0.872650146,0.17142524,0.14569353,-0.97436476,-0.02257284,0.9893262,0.14395928,0.98493856,-0.0026840784,0.17288421,0.19780757,0.14275303,-0.9697906,-0.026307093,0.9897558,0.14032608,0.97988784,-0.0022451878,0.19953659,0.030532837,0.04547119,0.033218384,9.658798,-0.026321411,1.6953888,-0.0063934326,0.019165039,0.018096924,-26.567078,22.207642,-1.3534546,0,0.0,0.0,0.0,0.0
0.877044677,0.17148666,0.14576831,-0.9743429,-0.02257962,0.98931515,0.14403419,0.98492765,-0.0026996513,0.17294572,0.19728106,0.14281185,-0.96988916,-0.02623417,0.9897472,0.1403997,0.9799959,-0.0022539657,0.19900495,-0.017196655,-0.026184082,0.12838745,9.658646,-0.026473999,1.6959839,0.0095825195,0.012786865,-0.0021362305,-26.567078,22.207642,-1.3534546,0,0.0,0.0,0.0,0.0
0.881469726,0.17097987,0.16603686,-0.97118366,-0.026137333,0.98611593,0.16398817,0.9849277,-0.0026545275,0.17294574,0.19676633,0.14287099,-0.96998495,-0.026162814,0.9897387,0.1404733,0.9801013,-0.0022628794,0.19848517,0.083358765,0.112213135,0.018249512,9.658646,-0.026031494,1.6959839,-0.007461548,0.022354126,-0.0010681152,-27.642822,22.566223,-1.008606,0,0.0,0.0,0.0,0.0
0.885864257,0.1710192,0.16608569,-0.97116834,-0.026168222,0.9861077,0.16403244,0.9849201,-0.0026389472,0.17298952,0.19625099,0.14333512,-0.97002095,-0.026174236,0.9896716,0.14094333,0.98020434,-0.0022707123,0.19797572,0.059417725,0.07376099,-0.13542175,9.658646,-0.025878906,1.6964264,-0.008514404,0.01171875,0.007446289,-27.642822,22.566223,-1.008606,0,0.0,0.0,0.0,0.0
0.890258789,0.17102866,0.16609746,-0.9711646,-0.026203007,0.9861058,0.1640383,0.9849175,-0.0026078206,0.17300463,0.19574668,0.14379093,-0.9700554,-0.026185572,0.9896054,0.14140487,0.98030484,-0.002278077,0.1974772,0.059417725,0.07823181,0.036819458,9.658646,-0.02557373,1.696579,0.015975952,0.025543213,0.004257202,-27.642822,22.566223,-1.008606,0,0.0,0.0,0.0,0.0
0.894683837,0.1709413,0.1681236,-0.97083133,-0.026578277,0.98576254,0.16602948,0.9849227,-0.0025782706,0.17297597,0.19525261,0.14423782,-0.97008866,-0.02619692,0.9895404,0.14185728,0.98040307,-0.0022846716,0.19698893,0.083358765,0.054000854,-0.058670044,9.658646,-0.025283813,1.6962891,-0.009567261,0.012786865,0.003189087,-27.464294,23.104858,-0.83465576,0,0.0,0.0,0.0,0.0
0.899078369,0.17093381,0.16811459,-0.9708342,-0.026622033,0.98576415,0.16601261,0.98492277,-0.002531591,0.17297599,0.19476674,0.14471641,-0.970115,-0.026216106,0.9894705,0.14234045,0.9804992,-0.0022905436,0.19650984,0.083358765,0.10621643,0.022735596,9.658646,-0.02482605,1.6962891,0.0,0.008514404,-0.0053253174,-27.464294,23.104858,-0.83465576,0,0.0,0.0,0.0,0.0
0.903503418,0.17091939,0.16809727,-0.9708398,-0.026616476,0.9857672,0.16599599,0.98492545,-0.002531598,0.17296089,0.19429043,0.14518522,-0.9701404,-0.026235327,0.9894018,0.1428136,0.98059314,-0.0022953646,0.19604029,0.23658752,0.010467529,0.008529663,9.658646,-0.02482605,1.6961365,-0.0021362305,-0.007461548,0.0053253174,-27.464294,23.104858,-0.83465576,0,0.0,0.0,0.0,0.0
0.907897949,0.17040472,0.18626367,-0.9676095,-0.029736616,0.98249656,0.1838925,0.9849254,-0.0025627175,0.17296088,0.19382328,0.14564426,-0.9701651,-0.026253598,0.98933434,0.14327696,0.9806851,-0.0023000895,0.19557972,0.1360321,-0.065841675,0.0037384033,9.658646,-0.025131226,1.6961365,-0.0021362305,-0.007461548,0.0021209717,-27.642822,21.84906,-0.66223145,0,0.0,0.0,0.0,0.0
0.912322998,0.17042173,0.1862854,-0.9676023,-0.02972816,0.9824923,0.18391612,0.9849227,-0.0025782706,0.17297597,0.19438067,0.14640474,-0.9699391,-0.02691915,0.989223,0.14392076,0.9805568,-0.0018654793,0.19622692,0.15997314,-0.051330566,0.089782715,9.658646,-0.025283813,1.6962891,0.0021362305,0.017028809,-0.0063934326,-27.642822,21.84906,-0.66223145,0,0.0,0.0,0.0,0.0
0.916717529,0.17030832,0.18614045,-0.96765006,-0.029574594,0.9825194,0.18379559,0.9849469,-0.0026840589,0.17283627,0.193902,0.14720492,-0.9699138,-0.02699409,0.9891042,0.14472093,0.9806495,-0.001879735,0.19576295,0.04473877,-0.07423401,-0.047729492,9.658951,-0.026321411,1.694931,-0.0010681152,-0.014907837,0.0021209717,-27.642822,21.84906,-0.66223145,0,0.0,0.0,0.0,0.0
0.92111206,0.16881914,0.22663578,-0.95923734,-0.0366455,0.973976,0.22366868,0.9849655,-0.002607824,0.172731,0.19343056,0.14798608,-0.96988904,-0.027063759,0.9889876,0.14550267,0.98074067,-0.0018958215,0.1953055,0.039794922,0.17880249,-0.032318115,9.659103,-0.02557373,1.6938934,-0.009567261,-0.02557373,0.014892578,-27.464294,21.310425,0.20141602,0,0.0,0.0,0.0,0.0
0.925537109,0.16868697,0.22646601,-0.9593007,-0.036536597,0.9740155,0.22351505,0.98499227,-0.0026544959,0.17257802,0.19294366,0.14957006,-0.969743,-0.027292207,0.98874927,0.14707138,0.9808302,-0.0019100616,0.19485499,0.068237305,0.006881714,-0.035614014,9.659393,-0.026031494,1.6923981,-0.012771606,-0.022369385,-0.004272461,-27.464294,21.310425,0.20141602,0,0.0,0.0,0.0,0.0
0.92993164,0.16856597,0.22631063,-0.9593587,-0.036450237,0.9740516,0.22337209,0.9850162,-0.0026840824,0.17244102,0.19246344,0.15111855,-0.96959835,-0.027512593,0.98851377,0.14860545,0.9809184,-0.0019249503,0.19441043,0.21174622,-0.01676941,0.02798462,9.659546,-0.026321411,1.69104,-0.0063934326,-0.028762817,0.0095825195,-27.464294,21.310425,0.20141602,0,0.0,0.0,0.0,0.0
0.934356689,0.17046523,0.1675162,-0.9710201,-0.026267791,0.98586565,0.1654659,0.9850135,-0.0026996348,0.1724561,0.19199008,0.15263255,-0.96945506,-0.027725572,0.9882811,0.1501058,0.98100513,-0.0019401329,0.19397199,0.082458496,-0.05970764,0.05656433,9.659546,-0.026473999,1.6911926,0.0,-0.029830933,0.0053253174,-27.105713,22.744751,-0.83465576,0,0.0,0.0,0.0,0.0
0.93875122,0.1703721,0.1674039,-0.9710557,-0.026185364,0.98588455,0.16536607,0.98503184,-0.0027463222,0.17235078,0.19155964,0.15293057,-0.96949327,-0.027702903,0.988235,0.15041322,0.98108995,-0.001955323,0.19354255,0.08708191,-0.059249878,0.019302368,9.6596985,-0.026931763,1.690155,-0.007461548,-0.018112183,-0.010650635,-27.105713,22.744751,-0.83465576,0,0.0,0.0,0.0,0.0
0.943145752,0.1703776,0.16741054,-0.9710536,-0.026234124,0.98588353,0.16536428,0.9850296,-0.0026996362,0.17236438,0.19113587,0.15322037,-0.9695311,-0.02767876,0.98819005,0.15071248,0.9811733,-0.0019711428,0.19311951,0.21636963,0.10786438,0.07661438,9.6596985,-0.026473999,1.6902924,0.0063934326,-0.022369385,0.004257202,-27.105713,22.744751,-0.83465576,0,0.0,0.0,0.0,0.0
0.9475708,0.1698228,0.18211974,-0.9685002,-0.028794922,0.98327273,0.17984854,0.9850538,-0.002654494,0.17222625,0.19072083,0.1535045,-0.96956795,-0.02765585,0.98814595,0.15100572,0.9812547,-0.0019857124,0.19270532,0.13467407,0.040390015,-0.08963013,9.660004,-0.026031494,1.6889496,-0.004257202,-0.01171875,0.0063934326,-28.361511,22.924805,-0.66223145,0,0.0,0.0,0.0,0.0
0.951965332,0.16983692,0.18213741,-0.96849436,-0.028816253,0.9832696,0.1798628,0.9850508,-0.002638968,0.17224401,0.19030283,0.15407816,-0.9695591,-0.027690452,0.9880566,0.1515827,0.98133487,-0.001999088,0.19229646,0.07736206,0.054595947,0.077804565,9.659851,-0.025878906,1.6891022,-0.008514404,-0.02130127,-0.008529663,-28.361511,22.924805,-0.66223145,0,0.0,0.0,0.0,0.0
0.95639038,0.16980308,0.18209514,-0.96850824,-0.028818049,0.9832774,0.17981946,0.9850566,-0.002623382,0.17221117,0.18989347,0.15464064,-0.9695497,-0.027724318,0.9879687,0.15214841,0.9814132,-0.0020118859,0.19189613,0.12030029,0.03050232,-0.08947754,9.660004,-0.025726318,1.688797,0.0063934326,-0.019180298,0.007446289,-28.361511,22.924805,-0.66223145,0,0.0,0.0,0.0,0.0
0.960784912,0.16977587,0.18206114,-0.9685194,-0.028806932,0.98328364,0.17978682,0.9850615,-0.002623395,0.17218249,0.18949164,0.15519099,-0.9695405,-0.027757095,0.98788244,0.15270194,0.98148996,-0.0020241158,0.19150312,0.12030029,-0.026931763,-0.041305542,9.660004,-0.025726318,1.6885071,-0.003189087,-0.015975952,0.0095825195,-28.361511,22.924805,-0.66223145,0,0.0,0.0,0.0,0.0
0.965209961,0.16970883,0.18197744,-0.96854687,-0.028748408,0.98329914,0.1797119,0.9850749,-0.002654513,0.17210612,0.18909739,0.15572958,-0.969531,-0.02778858,0.98779756,0.15324374,0.98156506,-0.0020361014,0.19111745,0.057922363,-0.064941406,-0.17941284,9.660141,-0.026031494,1.6877594,0.01171875,-0.0053253174,-0.01171875,-28.361511,22.924805,-0.66223145,0,0.0,0.0,0.0,0.0
0.969604492,0.16977206,0.18205638,-0.96852094,-0.028744575,0.9832844,0.17979288,0.9850641,-0.0026840856,0.17216736,0.18870968,0.15625569,-0.969522,-0.027817858,0.9877145,0.15377323,0.9816389,-0.0020484696,0.19073798,0.048477173,-0.01676941,-0.1560669,9.660004,-0.026321411,1.6883545,0.0021362305,0.017028809,0.008514404,-28.361511,22.924805,-0.66223145,0,0.0,0.0,0.0,0.0
0.973999023,0.17101902,0.13873264,-0.9754515,-0.02128796,0.9903263,0.13711593,0.9850378,-0.0026840563,0.17231797,0.1883309,0.1567728,-0.96951216,-0.027846066,0.9876325,0.15429376,0.9817108,-0.002061182,0.19036724,0.0055389404,-0.11253357,-0.057006836,9.659851,-0.026321411,1.6898499,-0.007461548,0.027679443,0.0021209717,-28.001404,22.566223,-1.6998291,0,0.0,0.0,0.0,0.0
0.978424072,0.17116882,0.13892253,-0.97539824,-0.02132692,0.9902995,0.13730228,0.9850108,-0.0026996275,0.17247118,0.18798707,0.1564125,-0.96963704,-0.027708776,0.9876896,0.15395257,0.9817806,-0.0020736395,0.1900069,0.06329346,0.05041504,0.018112183,9.659546,-0.026473999,1.6913452,0.003189087,0.04258728,-0.007461548,-28.001404,22.566223,-1.6998291,0,0.0,0.0,0.0,0.0
0.982818603,0.17129484,0.13908228,-0.97535336,-0.02132633,0.99027705,0.13746494,0.984989,-0.0027463285,0.17259546,0.18983391,0.15610677,-0.96932644,-0.027425136,0.9877368,0.15370072,0.98143315,-0.0025936984,0.19178718,0.17851257,-0.07839966,-0.0070343018,9.659256,-0.026931763,1.6925507,-0.0021362305,0.03300476,0.007446289,-28.001404,22.566223,-1.6998291,0,0.0,0.0,0.0,0.0
0.987243652,0.16995828,0.19774733,-0.9654067,-0.03161872,0.9802494,0.19522119,0.98494387,-0.0026545292,0.17285404,0.18946533,0.1557667,-0.9694533,-0.027296942,0.98779047,0.15337825,0.9815079,-0.0025967509,0.19140399,0.08320618,0.078689575,0.22027588,9.658798,-0.026031494,1.6950836,-0.0010681152,0.03514099,0.0,-26.92566,23.283386,0.0289917,0,0.0,0.0,0.0,0.0
0.991638183,0.17009763,0.19790843,-0.9653492,-0.031691577,0.980217,0.19537236,0.9849175,-0.0026389402,0.17300463,0.18907642,0.15660934,-0.96939343,-0.027399264,0.9876572,0.15421581,0.98158,-0.0025979064,0.19103366,0.016311646,0.006729126,0.022445679,9.658646,-0.025878906,1.696579,0.0138549805,0.043655396,-0.009597778,-26.92566,23.283386,0.0289917,0,0.0,0.0,0.0,0.0
0.996032714,0.1702564,0.19809192,-0.9652835,-0.03175678,0.98017985,0.19554766,0.98488796,-0.0026389402,0.17317267,0.18869805,0.15743826,-0.9693329,-0.027500307,0.9875254,0.15503965,0.98165,-0.002598727,0.19067372,-0.0025482178,-0.0028381348,0.14051819,9.658356,-0.025878906,1.6982269,0.004257202,0.034072876,-0.0032043457,-26.92566,23.283386,0.0289917,0,0.0,0.0,0.0,0.0
1.000457763,0.17212074,0.12841621,-0.97666967,-0.019666944,0.99171686,0.12692873,0.9848796,-0.0026389596,0.17322062,0.18833037,0.1582542,-0.96927154,-0.027599966,0.987395,0.15585054,0.9817178,-0.002599531,0.19032428,0.16041565,-0.017211914,0.14962769,9.658203,-0.025878906,1.6986847,-0.007461548,0.025543213,-0.0032043457,-27.28424,23.641968,-1.6998291,0,0.0,0.0,0.0,0.0
1.004852294,0.1721042,0.12839672,-0.97667515,-0.019676806,0.9917194,0.12690715,0.98488224,-0.0026234067,0.17320552,0.1880098,0.15765877,-0.96943074,-0.027431604,0.98749024,0.15527575,0.981784,-0.0026003197,0.18998267,0.18435669,0.03050232,-0.0034484863,9.658203,-0.025726318,1.6985321,0.008529663,0.018096924,0.003189087,-27.28424,23.641968,-1.6998291,0,0.0,0.0,0.0,0.0
1.009277343,0.17222084,0.12853412,-0.9766366,-0.019716192,0.9917016,0.12704004,0.984861,-0.0026233916,0.1733259,0.18769526,0.1570748,-0.9695865,-0.02726719,0.9875833,0.15471184,0.9818487,-0.0026007814,0.18964769,0.16534424,0.03050232,0.048034668,9.658051,-0.025726318,1.6997223,-0.0053253174,0.020217896,0.004257202,-27.28424,23.641968,-1.6998291,0,0.0,0.0,0.0,0.0
1.013671875,0.1706288,0.19000679,-0.96684194,-0.030406278,0.9817794,0.18757623,0.98486614,-0.0026078452,0.17329723,0.18738906,0.1565052,-0.9697378,-0.027107317,0.9876737,0.15416174,0.98191166,-0.0026012338,0.1893217,0.021697998,0.03993225,-0.100112915,9.658051,-0.02557373,1.6994324,0.012786865,0.029815674,0.0021209717,-27.28424,21.131897,-0.66223145,0,0.0,0.0,0.0,0.0
1.018096923,0.17072561,0.19013312,-0.9668,-0.030461846,0.9817549,0.18769498,0.9848476,-0.0025938335,0.17340252,0.18705459,0.15717714,-0.9696937,-0.027184213,0.987567,0.15483035,0.9819733,-0.002601366,0.18900166,0.112838745,0.04937744,0.008987427,9.657898,-0.025436401,1.70047,0.0021362305,0.019165039,-0.0021362305,-27.28424,21.131897,-0.66223145,0,0.0,0.0,0.0,0.0
1.022491455,0.17087804,0.190332,-0.96673393,-0.030481983,0.98171633,0.18789381,0.9848206,-0.002638964,0.17355546,0.18672861,0.15783809,-0.9696492,-0.027260209,0.98746157,0.15548798,0.98203325,-0.0026012154,0.18869004,0.14663696,-0.022003174,0.12719727,9.657608,-0.025878906,1.7019653,-0.0063934326,0.025543213,0.0010681152,-27.28424,21.131897,-0.66223145,0,0.0,0.0,0.0,0.0
1.026885986,0.17089292,0.19292092,-0.966218,-0.03092028,0.98121065,0.19044565,0.9848043,-0.0026700818,0.17364712,0.18641227,0.15848978,-0.9696038,-0.027334657,0.9873572,0.15613647,0.98209125,-0.0026019702,0.18838777,0.09411621,-0.06958008,0.006591797,9.657455,-0.026184082,1.7028656,-0.0063934326,0.029815674,0.0053253174,-29.257202,23.46344,-0.48980713,0,0.0,0.0,0.0,0.0
1.031311035,0.17100222,0.1930582,-0.96617115,-0.030997857,0.9811837,0.19057167,0.9847829,-0.0026389463,0.17376901,0.18610267,0.15918043,-0.9695501,-0.027416715,0.9872461,0.15682317,0.9821477,-0.0026033323,0.18809332,0.15652466,0.016311646,0.058059692,9.657303,-0.025878906,1.704071,-0.008514404,0.023422241,-0.0010681152,-29.257202,23.46344,-0.48980713,0,0.0,0.0,0.0,0.0
1.035705566,0.17109874,0.1931794,-0.9661299,-0.03105441,0.98116004,0.19068505,0.9847644,-0.0026233788,0.1738743,0.18580152,0.15985996,-0.969496,-0.027498253,0.9871363,0.15749866,0.9822024,-0.0026040445,0.18780728,0.07527161,0.006576538,-0.038757324,9.65715,-0.025726318,1.7051086,-0.0021362305,0.026611328,-0.0063934326,-29.257202,23.46344,-0.48980713,0,0.0,0.0,0.0,0.0
1.040130615,0.17052191,0.21282898,-0.9620946,-0.034406617,0.97708565,0.21004698,0.984753,-0.002715193,0.17393728,0.18550822,0.16052826,-0.96944183,-0.027578853,0.9870278,0.15816294,0.98225564,-0.0026044312,0.18752895,0.108947754,-0.054763794,0.065979004,9.656998,-0.026626587,1.705719,0.008529663,0.028747559,-0.0010681152,-28.001404,22.566223,0.0289917,0,0.0,0.0,0.0,0.0
1.044525146,0.17058554,0.21290785,-0.962066,-0.034403503,0.97706854,0.2101278,0.9847421,-0.0027463213,0.1739985,0.18521114,0.16157922,-0.96932405,-0.02773022,0.98685634,0.15920325,0.98230743,-0.0026066464,0.1872574,-0.005844116,-0.05445862,0.15637207,9.65686,-0.026931763,1.7063141,-0.019165039,0.012786865,0.012771606,-28.001404,22.566223,0.0289917,0,0.0,0.0,0.0,0.0
1.048919677,0.17059147,0.21291521,-0.9620632,-0.034376353,0.97706676,0.21014012,0.9847421,-0.002775885,0.1739985,0.18554331,0.16190897,-0.96920544,-0.027484361,0.9868012,0.15958683,0.98225164,-0.0029722776,0.18754433,0.07077026,-0.06375122,0.09411621,9.65686,-0.02722168,1.7063141,0.0095825195,0.008514404,0.007446289,-28.001404,22.566223,0.0289917,0,0.0,0.0,0.0,0.0
1.053344726,0.17247812,0.15078004,-0.97340477,-0.023555974,0.9885636,0.14895424,0.9847317,-0.0027618518,0.17405735,0.18524706,0.16293383,-0.96909034,-0.027636623,0.9866325,0.1606003,0.98230326,-0.0029683497,0.18727373,0.065979004,0.04623413,0.16055298,9.65686,-0.02708435,1.7069092,-0.028747559,-0.0053253174,-0.0010681152,-28.181458,22.38617,-1.5258789,0,0.0,0.0,0.0,0.0
1.057739257,0.17247587,0.15077715,-0.97340554,-0.023570616,0.988564,0.1489487,0.98473173,-0.0027462924,0.17405736,0.1849928,0.162691,-0.9691797,-0.027551947,0.9866726,0.16036846,0.98235357,-0.0029642198,0.18700978,0.118652344,0.041290283,0.026489258,9.65686,-0.026931763,1.7069092,0.010650635,-0.0063934326,0.008514404,-28.181458,22.38617,-1.5258789,0,0.0,0.0,0.0,0.0
1.062164306,0.17235048,0.15061606,-0.9734526,-0.02349328,0.98858845,0.14879844,0.9847555,-0.0027758833,0.17392217,0.1847435,0.16245297,-0.96926713,-0.027469369,0.98671186,0.16014105,0.9824028,-0.0029598612,0.18675108,0.13768005,-0.025436401,0.14753723,9.656998,-0.02722168,1.7055664,0.01171875,-0.015975952,0.003189087,-28.181458,22.38617,-1.5258789,0,0.0,0.0,0.0,0.0
1.066558837,0.17302714,0.110738315,-0.97867185,-0.016573565,0.9938459,0.10952511,0.9847776,-0.0027307346,0.17379765,0.18449667,0.16221645,-0.96935385,-0.027386945,0.9867508,0.1599152,0.9824515,-0.002956182,0.18649486,-0.04458618,0.026779175,0.024246216,9.657303,-0.026779175,1.704361,0.0,-0.040481567,0.003189087,-27.105713,22.744751,-2.218628,0,0.0,0.0,0.0,0.0
1.070983886,0.17289191,0.11057299,-0.97871447,-0.016560175,0.99386436,0.109359205,0.9848016,-0.0026996383,0.17366222,0.18427409,0.16119073,-0.96956724,-0.027158523,0.98691887,0.15891375,0.9824996,-0.002951673,0.18624128,0.11805725,0.026473999,-0.0031433105,9.657455,-0.026473999,1.7030182,0.003189087,-0.030899048,-0.007461548,-27.105713,22.744751,-2.218628,0,0.0,0.0,0.0,0.0
1.075378418,0.17283197,0.11049974,-0.9787333,-0.016540617,0.9938724,0.1092881,0.9848124,-0.0026996252,0.17360067,0.18405299,0.16018206,-0.96977633,-0.026934696,0.9870831,0.15792878,0.98254716,-0.0029466322,0.18599005,0.036514282,0.0073242188,-0.12704468,9.657608,-0.026473999,1.7024231,-0.011703491,-0.028762817,-0.007461548,-27.105713,22.744751,-2.218628,0,0.0,0.0,0.0,0.0
1.079772949,0.17282894,0.10096475,-0.97976345,-0.014882365,0.99488634,0.099897936,0.9848393,-0.0026840584,0.17344774,0.18383482,0.15919195,-0.9699808,-0.026715335,0.98724324,0.15696186,0.982594,-0.002941692,0.18574256,0.117614746,0.011962891,-0.111190796,9.657898,-0.026321411,1.7009277,-0.010635376,-0.012786865,0.010650635,-24.77417,22.566223,-2.0446777,0,0.0,0.0,0.0,0.0
1.084197998,0.17278466,0.10091495,-0.9797764,-0.014869103,0.99489146,0.09984959,0.98484737,-0.0026840803,0.17340247,0.18362275,0.15803213,-0.97021055,-0.026465412,0.9874296,0.15582798,0.98264045,-0.0029365392,0.18549693,0.064941406,-0.07901001,-0.014953613,9.657898,-0.026321411,1.70047,-0.008514404,-0.024505615,-0.0032043457,-24.77417,22.566223,-2.0446777,0,0.0,0.0,0.0,0.0
1.088592529,0.17277293,0.10090177,-0.9797798,-0.014834789,0.9948927,0.09984221,0.98485,-0.0027152072,0.17338738,0.18362275,0.15803213,-0.97021055,-0.026465412,0.9874296,0.15582798,0.98264045,-0.0029365392,0.18549693,0.064941406,-0.078704834,-0.014801025,9.657898,-0.026626587,1.7003174,-0.008514404,-0.024505615,-0.0032043457,-24.77417,22.566223,-2.0446777,0,0.0,0.0,0.0,0.0
1.093017578,0.1709898,0.18006319,-0.96867937,-0.028582178,0.98365134,0.17780097,0.98485816,-0.0027151867,0.17334095,0.1832082,0.15577848,-0.97065324,-0.025979958,0.98778766,0.15362471,0.98273075,-0.0029277746,0.18501793,0.08395386,0.021850586,-0.12449646,9.658051,-0.026626587,1.6998749,0.02130127,0.0,0.0010681152,-27.105713,23.104858,-0.48980713,0,0.0,0.0,0.0,0.0
1.097412109,0.17106393,0.18015078,-0.96865004,-0.028687816,0.9836355,0.17787151,0.9848421,-0.0026389426,0.17343266,0.18296434,0.15626515,-0.97062105,-0.026037771,0.9877108,0.15410833,0.9827747,-0.0029235228,0.18478467,0.050582886,0.030654907,-9.0026855E-4,9.657898,-0.025878906,1.7007751,0.004257202,0.017028809,0.0095825195,-27.105713,23.104858,-0.48980713,0,0.0,0.0,0.0,0.0
1.10180664,0.17105491,0.18014012,-0.9686536,-0.028653089,0.98363733,0.17786679,0.98484474,-0.0026700692,0.17341757,0.18272685,0.15674382,-0.9705886,-0.026096292,0.987635,0.15458372,0.98281735,-0.002917831,0.18455787,0.093673706,-0.06958008,-0.015106201,9.657898,-0.026184082,1.7006226,-0.019165039,0.022354126,-0.015975952,-27.105713,23.104858,-0.48980713,0,0.0,0.0,0.0,0.0
1.106231689,0.17061251,0.19819556,-0.96519935,-0.031847656,0.9801589,0.19563787,0.9848234,-0.002638934,0.17353947,0.18249384,0.15721266,-0.9705567,-0.026152723,0.9875605,0.15504949,0.98285913,-0.0029128757,0.18433525,0.19438171,0.06417847,0.060302734,9.657745,-0.025878906,1.701828,-0.0021362305,0.020217896,0.0010681152,-28.001404,22.566223,-0.31585693,0,0.0,0.0,0.0,0.0
1.11062622,0.17068443,0.19828524,-0.9651683,-0.031878434,0.98014086,0.1957237,0.98480994,-0.0026389353,0.17361581,0.18225816,0.15803522,-0.9704673,-0.026275836,0.9874292,0.15586266,0.98289955,-0.002907397,0.18411954,0.07481384,-0.036361694,-0.098464966,9.657608,-0.025878906,1.7025757,0.008529663,0.027679443,0.0,-28.001404,22.566223,-0.31585693,0,0.0,0.0,0.0,0.0
1.115051269,0.17065598,0.19824976,-0.9651805,-0.031866245,0.98014796,0.19568974,0.98481524,-0.0026389495,0.17358562,0.1837045,0.15778115,-0.970236,-0.026808856,0.9874708,0.15550794,0.9826159,-0.00255659,0.18563275,0.18016052,0.0019378662,-0.011978149,9.657608,-0.025878906,1.7022705,0.017044067,0.026611328,-0.0021362305,-28.001404,22.566223,-0.31585693,0,0.0,0.0,0.0,0.0
1.1194458,0.17304161,0.0944872,-0.9803717,-0.013797779,0.99552244,0.09351202,0.9848178,-0.0026545164,0.17357053,0.1834451,0.15859339,-0.9701526,-0.02692009,0.9873407,0.15631288,0.9826613,-0.0025582372,0.18539216,0.036514282,-0.050582886,-0.0357666,9.657608,-0.026031494,1.7021179,-0.0021362305,0.020217896,-0.0010681152,-26.747131,22.38617,-2.5634766,0,0.0,0.0,0.0,0.0
1.123870849,0.17309776,0.09455622,-0.98035514,-0.013830651,0.99551594,0.09357647,0.9848075,-0.0026389288,0.17362937,0.18324684,0.15731686,-0.9703979,-0.026643785,0.9875449,0.15506536,0.98270583,-0.0025601627,0.18515599,0.055664063,0.045028687,0.15039063,9.657608,-0.025878906,1.702713,0.003189087,0.02128601,0.0095825195,-26.747131,22.38617,-2.5634766,0,0.0,0.0,0.0,0.0
1.12826538,0.1731166,0.09457932,-0.98034966,-0.013821066,0.9955138,0.09360167,0.98480433,-0.0026545222,0.17364714,0.18305318,0.156067,-0.97063625,-0.026374277,0.9877432,0.15384364,0.98274916,-0.002561738,0.18492566,0.15158081,-0.045791626,0.0688324,9.657455,-0.026031494,1.7028656,-0.0021362305,-0.0053253174,-0.007461548,-26.747131,22.38617,-2.5634766,0,0.0,0.0,0.0,0.0
1.132659912,0.17096025,0.19191124,-0.96640706,-0.030798275,0.9814088,0.18944201,0.98479646,-0.002623381,0.17369242,0.18286346,0.15484233,-0.97086805,-0.026110524,0.9879359,0.15264653,0.98279154,-0.0025635937,0.18470037,0.04623413,0.06402588,0.14019775,9.657455,-0.025726318,1.7033234,0.0021362305,0.0063934326,-0.007461548,-26.747131,23.104858,-0.14343262,0,0.0,0.0,0.0,0.0
1.137084961,0.17089054,0.19183037,-0.96643543,-0.030754425,0.9814245,0.18936741,0.98480994,-0.0026389353,0.17361581,0.18262672,0.15558603,-0.9707938,-0.026212703,0.9878191,0.15338345,0.98283285,-0.0025647895,0.18448047,0.06523132,-0.012420654,0.054763794,9.657608,-0.025878906,1.7025757,0.008529663,-0.0010681152,-0.0063934326,-26.747131,23.104858,-0.14343262,0,0.0,0.0,0.0,0.0
1.141479492,0.17092882,0.19187479,-0.9664199,-0.03080114,0.98141587,0.18940438,0.98480177,-0.0026078355,0.17366223,0.18239328,0.15631317,-0.97072077,-0.026311673,0.9877042,0.15410414,0.98287356,-0.0025662724,0.18426348,0.16593933,0.06866455,0.12614441,9.657455,-0.02557373,1.7030182,0.012786865,-0.019180298,0.003189087,-26.747131,23.104858,-0.14343262,0,0.0,0.0,0.0,0.0
1.145904541,0.17163564,0.16764325,-0.97079194,-0.026581634,0.98584425,0.16554298,0.98480177,-0.0026078355,0.17366223,0.1821653,0.15702656,-0.97064847,-0.026409259,0.9875911,0.15481111,0.9829132,-0.0025671036,0.18405177,0.09411621,-0.01272583,0.030380249,9.657455,-0.02557373,1.7030182,0.008529663,-0.014907837,-0.014923096,-26.38855,24.180603,-0.48980713,0,0.0,0.0,0.0,0.0
1.150299072,0.1716164,0.16762213,-0.97079897,-0.026498452,0.98584765,0.16553614,0.9848074,-0.0026840519,0.17362937,0.1819548,0.15723906,-0.9706536,-0.026414938,0.9875573,0.1550257,0.98295206,-0.002567918,0.18384425,0.0029907227,0.011962891,0.107299805,9.657608,-0.026321411,1.702713,0.0021362305,-0.0138549805,0.0053253174,-26.38855,24.180603,-0.48980713,0,0.0,0.0,0.0,0.0
1.154693603,0.1716164,0.16762213,-0.97079897,-0.026498452,0.98584765,0.16553614,0.9848074,-0.0026840519,0.17362937,0.18174803,0.15744689,-0.9706586,-0.02641874,0.98752415,0.15523589,0.9829902,-0.0025702405,0.18364012,0.1083374,-0.02633667,0.016311646,9.657608,-0.026321411,1.702713,-0.003189087,-0.015975952,0.015960693,-26.38855,24.180603,-0.48980713,0,0.0,0.0,0.0,0.0
1.159118652,0.17214079,0.14549679,-0.97426814,-0.02262818,0.9893551,0.14375176,0.9848124,-0.0026996252,0.17360067,0.18154542,0.15765056,-0.9706635,-0.026422383,0.9874916,0.15544187,0.9830275,-0.0025725167,0.18344007,0.07481384,-0.030975342,-0.036071777,9.657608,-0.026473999,1.7024231,0.0,-0.019180298,0.004257202,-27.642822,23.641968,-1.3534546,0,0.0,0.0,0.0,0.0
1.163513183,0.17214295,0.14549935,-0.9742672,-0.02261347,0.98935455,0.14375697,0.9848124,-0.002715185,0.17360067,0.18135811,0.15740772,-0.9707379,-0.026344221,0.98753035,0.1552089,0.9830642,-0.0025750587,0.18324342,0.09875488,-0.049987793,-0.012130737,9.657608,-0.026626587,1.7024231,0.008529663,-0.015975952,-0.007461548,-27.642822,23.641968,-1.3534546,0,0.0,0.0,0.0,0.0
1.167938232,0.1721473,0.14550452,-0.97426575,-0.02258405,0.9893537,0.1437674,0.98481226,-0.0027463043,0.17360066,0.18117465,0.15716976,-0.9708107,-0.02626743,0.98756826,0.15498064,0.98310006,-0.0025778613,0.18305077,0.017349243,-0.05445862,0.021392822,9.657608,-0.026931763,1.7024231,0.01171875,-0.018112183,0.004257202,-27.642822,23.641968,-1.3534546,0,0.0,0.0,0.0,0.0
1.172332763,0.17216183,0.14552179,-0.97426057,-0.022589266,0.9893512,0.14378408,0.98480964,-0.0027462968,0.17361575,0.18099491,0.15693668,-0.97088194,-0.026191676,0.98760533,0.15475717,0.9831352,-0.0025812301,0.18286195,0.022140503,-0.030517578,0.026031494,9.657608,-0.026931763,1.7025757,-0.0053253174,-0.019180298,-0.0010681152,-27.642822,23.641968,-1.3534546,0,0.0,0.0,0.0,0.0
1.176757812,0.1722044,0.14557241,-0.97424555,-0.022619994,0.9893438,0.14383018,0.9848015,-0.0027307577,0.17366219,0.18081905,0.15670857,-0.97095156,-0.026117636,0.9876415,0.15453842,0.98316956,-0.0025845314,0.18267725,0.17073059,0.041137695,0.16923523,9.657455,-0.026779175,1.7030182,-0.011703491,-0.008529663,-0.0053253174,-27.642822,23.641968,-1.3534546,0,0.0,0.0,0.0,0.0
1.181152343,0.17221892,0.1455897,-0.97424036,-0.022625215,0.98934126,0.14384684,0.9847988,-0.0027307502,0.17367728,0.18006161,0.15572761,-0.97125006,-0.026662303,0.9877985,0.15343799,0.9832939,-0.0017325241,0.18201664,0.07496643,0.022003174,0.07810974,9.657455,-0.026779175,1.7031708,0.0138549805,-0.007461548,-0.010650635,-27.642822,23.641968,-1.3534546,0,0.0,0.0,0.0,0.0
1.185546875,0.17272949,0.12006264,-0.9776244,-0.018180685,0.99276257,0.11870955,0.9848015,-0.0027307577,0.17366219,0.17990546,0.15552503,-0.97131145,-0.026580006,0.98783034,0.1532469,0.9833247,-0.0017524885,0.18184994,0.16593933,-0.016311646,-0.04144287,9.657455,-0.026779175,1.7030182,-0.007461548,-0.004257202,0.0095825195,-28.720093,21.84906,-2.3910522,0,0.0,0.0,0.0,0.0
1.189971923,0.17267509,0.119989105,-0.977643,-0.018116381,0.99277127,0.11864606,0.9848122,-0.0027758677,0.17360066,0.1797659,0.1548176,-0.9714504,-0.02640679,0.9879415,0.1525592,0.9833549,-0.001772054,0.18168642,0.11790466,-0.0206604,0.14109802,9.657608,-0.02722168,1.7024231,0.0,-0.007461548,0.0053253174,-28.720093,21.84906,-2.3910522,0,0.0,0.0,0.0,0.0
1.194366455,0.17264766,0.11995199,-0.9776524,-0.018091064,0.99277574,0.118612766,0.98481756,-0.0027914427,0.17357047,0.17962773,0.15412274,-0.97158635,-0.026235882,0.98805004,0.15188389,0.9833847,-0.0017921304,0.18152474,0.19451904,-0.034866333,-0.050125122,9.657608,-0.027374268,1.7021179,-0.004257202,-0.02130127,0.007446289,-28.720093,21.84906,-2.3910522,0,0.0,0.0,0.0,0.0
1.198791503,0.17258799,0.12152169,-0.97746915,-0.018360274,0.9925848,0.120159104,0.9848229,-0.0027914182,0.17353939,0.17949173,0.153441,-0.9717194,-0.026068076,0.9881561,0.1512213,0.983414,-0.0018121165,0.18136577,-0.011520386,-0.015716553,-0.088150024,9.657745,-0.027374268,1.701828,-0.010635376,0.003189087,-0.007461548,-27.822876,21.669006,-2.218628,0,0.0,0.0,0.0,0.0
1.203186035,0.1725277,0.12144216,-0.9774897,-0.018354267,0.9925947,0.12007924,0.98483366,-0.0027758887,0.17347904,0.17935689,0.15280408,-0.9718447,-0.025909401,0.9882548,0.1506026,0.98344284,-0.0018317025,0.18120939,0.065093994,0.07987976,0.027389526,9.657745,-0.02722168,1.7012177,-0.018096924,0.0010681152,-0.0021362305,-27.822876,21.669006,-2.218628,0,0.0,0.0,0.0,0.0
1.207580566,0.17257157,0.12150001,-0.97747475,-0.018369867,0.9925877,0.12013537,0.98482573,-0.0027758663,0.17352432,0.17922339,0.15217823,-0.97196746,-0.025753899,0.9883513,0.14999458,0.9834712,-0.0018505863,0.18105486,0.0076446533,0.017654419,0.09396362,9.657745,-0.02722168,1.7016754,0.020233154,-0.012786865,0.0063934326,-27.822876,21.669006,-2.218628,0,0.0,0.0,0.0,0.0
1.212005615,0.17107354,0.18474576,-0.96778244,-0.02937716,0.9827824,0.18241623,0.9848202,-0.0027758903,0.17355537,0.17909327,0.151566,-0.9720871,-0.025602022,0.98844534,0.14939974,0.98349893,-0.0018690919,0.18090431,0.07002258,-0.01586914,0.108047485,9.657608,-0.02722168,1.7019653,-0.013839722,-0.0021362305,0.003189087,-26.567078,21.131897,-0.66223145,0,0.0,0.0,0.0,0.0
1.216400146,0.17113341,0.1848218,-0.96775734,-0.029386554,0.982768,0.18249196,0.98480946,-0.0027914199,0.17361572,0.17893353,0.15223141,-0.9720126,-0.025682542,0.98834306,0.15006122,0.9835259,-0.0018872278,0.18075739,0.026931763,-0.049240112,0.15052795,9.657608,-0.027374268,1.7025757,0.004257202,0.0010681152,-0.0010681152,-26.567078,21.131897,-0.66223145,0,0.0,0.0,0.0,0.0
1.220825195,0.17102738,0.18468711,-0.96780175,-0.029371975,0.98279345,0.18235745,0.98482835,-0.00276187,0.17350923,0.17877822,0.15288498,-0.97193855,-0.025761427,0.98824215,0.15071097,0.9835521,-0.0019053116,0.18061471,0.022003174,-0.06388855,-0.03517151,9.657745,-0.02708435,1.7015228,-0.0063934326,-0.008529663,0.003189087,-26.567078,21.131897,-0.66223145,0,0.0,0.0,0.0,0.0
1.225219726,0.17206256,0.14403334,-0.9744993,-0.022295311,0.98956895,0.14232409,0.98483366,-0.0027618848,0.17347904,0.17862384,0.15352269,-0.97186637,-0.025838297,0.9881432,0.15134494,0.98357815,-0.0019224428,0.18047272,0.022003174,-0.00642395,-0.039642334,9.657745,-0.02708435,1.7012177,0.014907837,-0.020248413,-0.010650635,-26.029968,23.104858,-1.1810303,0,0.0,0.0,0.0,0.0
1.229644775,0.17192286,0.1438735,-0.97454756,-0.022293089,0.9895924,0.1421618,0.98485816,-0.0027151867,0.17334095,0.1784931,0.15333304,-0.9719203,-0.025766201,0.9881726,0.1511651,0.9836037,-0.0019392316,0.18033281,0.1414032,0.16069031,-0.0909729,9.658051,-0.026626587,1.6998749,0.0021362305,0.0021362305,-0.0032043457,-26.029968,23.104858,-1.1810303,0,0.0,0.0,0.0,0.0
1.234039306,0.1718744,0.14381805,-0.97456425,-0.022321094,0.9896004,0.14210042,0.9848659,-0.0026700844,0.17329718,0.17836227,0.15314399,-0.9719742,-0.025695516,0.9882019,0.15098557,0.98362935,-0.0019547509,0.18019305,0.04084778,0.12194824,-0.104904175,9.658051,-0.026184082,1.6994324,-0.004257202,-0.0234375,0.0010681152,-26.029968,23.104858,-1.1810303,0,0.0,0.0,0.0,0.0
1.238433837,0.17070766,0.18816045,-0.96718895,-0.030042812,0.98213464,0.18576552,0.9848636,-0.0026545182,0.17331079,0.178233,0.1529576,-0.9720273,-0.025626827,0.98823076,0.1508084,0.98365456,-0.0019690576,0.18005514,0.15577698,0.030807495,0.062561035,9.658051,-0.026031494,1.6995697,0.007461548,-0.008529663,0.007446289,-27.822876,20.951843,-0.83465576,0,0.0,0.0,0.0,0.0
1.242858886,0.17072468,0.18818331,-0.96718156,-0.030034592,0.9821304,0.18579024,0.98486096,-0.0026700709,0.17332588,0.17808358,0.15366374,-0.97194326,-0.025720105,0.9881212,0.15150891,0.9836792,-0.0019827667,0.1799204,0.15098572,-0.050430298,0.07676697,9.658051,-0.026184082,1.6997223,-0.003189087,-0.014907837,-0.0010681152,-27.822876,20.951843,-0.83465576,0,0.0,0.0,0.0,0.0
1.247253418,0.17071043,0.18816417,-0.96718776,-0.030028416,0.982134,0.18577185,0.9848636,-0.002670078,0.17331079,0.17793737,0.15435612,-0.9718603,-0.025811136,0.98801327,0.15219587,0.9837033,-0.0019965128,0.17978859,0.18450928,0.0118255615,0.009887695,9.658051,-0.026184082,1.6995697,-0.008514404,-0.004257202,0.0053253174,-27.822876,20.951843,-0.83465576,0,0.0,0.0,0.0,0.0
1.251678466,0.17159265,0.15669414,-0.9726268,-0.024592437,0.9876437,0.15477479,0.984861,-0.0026389514,0.1733259,0.17663924,0.15442799,-0.9720857,-0.02614456,0.98800296,0.15220588,0.9839284,-0.0014707776,0.17855754,0.0791626,0.049819946,0.033676147,9.658051,-0.025878906,1.6997223,0.010650635,-0.017044067,-0.0063934326,-27.464294,22.744751,-1.1810303,0,0.0,0.0,0.0,0.0
1.256072998,0.17157818,0.15667641,-0.97263217,-0.024586976,0.98764634,0.15475768,0.9848636,-0.0026389584,0.17331079,0.17653823,0.1544733,-0.9720968,-0.026113763,0.9879958,0.15225738,0.9839473,-0.001494141,0.17845291,0.04084778,0.021102905,-0.018844604,9.658051,-0.025878906,1.6995697,-0.0010681152,-0.008529663,0.008514404,-27.464294,22.744751,-1.1810303,0,0.0,0.0,0.0,0.0
1.260467529,0.17158589,0.15668584,-0.97262925,-0.024634883,0.98764503,0.15475887,0.98486114,-0.0025938281,0.17332591,0.17643903,0.15451738,-0.9721079,-0.026083477,0.9879889,0.15230751,0.98396593,-0.0015170374,0.17835015,0.15098572,0.1164093,0.062408447,9.658051,-0.025436401,1.6997223,0.010650635,-0.007461548,-0.0063934326,-27.464294,22.744751,-1.1810303,0,0.0,0.0,0.0,0.0
1.264892578,0.17024972,0.20384406,-0.9640865,-0.032931823,0.97900015,0.20118187,0.98485047,-0.0025020374,0.17338747,0.17634185,0.15456077,-0.97211856,-0.026054723,0.98798203,0.15235664,0.98398405,-0.0015385732,0.17824963,0.098464966,5.950928E-4,0.080963135,9.657898,-0.024536133,1.7003174,-0.0053253174,0.0021362305,0.0,-27.28424,22.924805,0.0289917,0,0.0,0.0,0.0,0.0
1.269287109,0.17037317,0.20399089,-0.9640336,-0.032938786,0.97896945,0.2013301,0.9848289,-0.0025471456,0.17350931,0.17622267,0.15555067,-0.9719823,-0.026197545,0.9878267,0.15333663,0.98400164,-0.0015578425,0.1781525,0.14649963,-0.09472656,0.012710571,9.657745,-0.024978638,1.7015228,0.015975952,0.010650635,-0.017044067,-27.28424,22.924805,0.0289917,0,0.0,0.0,0.0,0.0
1.273712158,0.17030954,0.20391521,-0.9640608,-0.032941557,0.9789853,0.2012526,0.98483986,-0.00251757,0.17344782,0.1761082,0.15652357,-0.9718468,-0.02633733,0.9876729,0.1542999,0.9840184,-0.0015776284,0.17805971,0.2421112,0.0725708,-0.111190796,9.657898,-0.02468872,1.7009277,-0.008514404,0.028747559,0.0,-27.28424,22.924805,0.0289917,0,0.0,0.0,0.0,0.0
1.278106689,0.1718957,0.14584208,-0.9742596,-0.022834396,0.9893046,0.1440654,0.98485047,-0.0025175973,0.17338747,0.17599459,0.15747535,-0.97171366,-0.026474224,0.98752165,0.15524223,0.9840351,-0.0015964273,0.1779675,0.08888245,0.029464722,-0.124938965,9.657898,-0.02468872,1.7003174,0.007461548,0.012786865,-0.0063934326,-26.208496,21.84906,-1.3534546,0,0.0,0.0,0.0,0.0
1.282531738,0.17189138,0.14583676,-0.9742612,-0.022863789,0.98930556,0.14405483,0.9848506,-0.0024864776,0.17338747,0.17591332,0.15724291,-0.971766,-0.026400482,0.9875586,0.15501922,0.9840516,-0.0016148507,0.177876,0.036224365,0.077041626,-0.010025024,9.657898,-0.024383545,1.7003174,0.0,0.020217896,-0.0032043457,-26.208496,21.84906,-1.3534546,0,0.0,0.0,0.0,0.0
1.286926269,0.17188704,0.14583147,-0.9742629,-0.022893185,0.9893064,0.14404425,0.9848506,-0.002455358,0.17338747,0.17583346,0.15701501,-0.9718173,-0.026328828,0.98759484,0.15480042,0.9840678,-0.0016322833,0.17778625,0.055374146,0.04801941,-4.4250488E-4,9.657898,-0.02407837,1.7003174,0.0010681152,0.010650635,0.003189087,-26.208496,21.84906,-1.3534546,0,0.0,0.0,0.0,0.0
1.2913208,0.171292,0.16642465,-0.9710622,-0.026487611,0.9860511,0.16432118,0.9848642,-0.0024257891,0.17331089,0.17575517,0.15679154,-0.9718675,-0.026259238,0.9876303,0.15458575,0.9840836,-0.0016487448,0.17769837,0.09831238,0.07167053,-0.1672821,9.658051,-0.023788452,1.6995697,-0.0053253174,0.01171875,0.007446289,-27.642822,22.566223,-1.008606,0,0.0,0.0,0.0,0.0
1.295745849,0.17130148,0.16643642,-0.9710586,-0.026522398,0.98604935,0.16432706,0.9848616,-0.002394663,0.17332599,0.17566592,0.15698437,-0.9718525,-0.026264671,0.9875997,0.15478058,0.9840994,-0.0016642855,0.17761075,0.0791626,0.10487366,0.048034668,9.658051,-0.023483276,1.6997223,0.0010681152,0.0053253174,0.0021209717,-27.642822,22.566223,-1.008606,0,0.0,0.0,0.0,0.0
1.30014038,0.17129678,0.16643058,-0.97106034,-0.026550094,0.98605037,0.16431624,0.98486173,-0.0023650997,0.17332602,0.17557855,0.15717356,-0.97183776,-0.02627064,0.9875695,0.15497161,0.9841148,-0.0016788931,0.17752509,0.09831238,0.0471344,0.0049438477,9.658051,-0.02319336,1.6997223,-0.007461548,0.015960693,-0.004272461,-27.642822,22.566223,-1.008606,0,0.0,0.0,0.0,0.0
1.304565429,0.17176513,0.14667797,-0.9741572,-0.023114908,0.9891814,0.1448645,0.9848667,-0.0023651116,0.17329733,0.17549281,0.15735884,-0.9718233,-0.026277,0.98754,0.1551586,0.98412997,-0.0016926172,0.17744109,0.0121154785,0.02319336,-0.057022095,9.658051,-0.02319336,1.6994324,0.0095825195,0.004257202,0.0010681152,-27.464294,22.027588,-1.5258789,0,0.0,0.0,0.0,0.0
1.308959961,0.17173141,0.14663507,-0.9741697,-0.023117814,0.989188,0.14482036,0.98487264,-0.0023495287,0.1732645,0.17541866,0.15714541,-0.9718712,-0.02621294,0.987574,0.15495314,0.9841449,-0.0017060671,0.17735815,0.08857727,0.032608032,-0.08065796,9.658203,-0.023040771,1.6991272,-0.013839722,0.0063934326,-0.012786865,-27.464294,22.027588,-1.5258789,0,0.0,0.0,0.0,0.0
1.313354492,0.1717459,0.14665352,-0.97416437,-0.02312324,0.9891852,0.14483815,0.9848699,-0.0023495222,0.17327958,0.17534547,0.15693538,-0.9719184,-0.02615027,0.98760736,0.15475088,0.9841596,-0.0017189364,0.17727636,-0.02154541,-9.0026855E-4,0.07241821,9.658203,-0.023040771,1.6992798,0.007461548,-0.0063934326,-0.0053253174,-27.464294,22.027588,-1.5258789,0,0.0,0.0,0.0,0.0
1.317779541,0.17289999,0.08334393,-0.9814068,-0.012153824,0.9965181,0.08248602,0.9848644,-0.0023339863,0.17331092,0.17649896,0.15598089,-0.9718632,-0.026283363,0.9877588,0.15375878,0.98394984,-0.0015944325,0.17843811,0.11268616,0.032455444,0.086502075,9.658051,-0.022888184,1.6995697,0.01171875,0.019165039,0.0,-26.92566,23.641968,-2.7359009,0,0.0,0.0,0.0,0.0
1.322174072,0.17286427,0.083302125,-0.98141664,-0.012203527,0.9965217,0.082434736,0.9848701,-0.00227328,0.17327963,0.17643821,0.15453503,-0.9721052,-0.02599476,0.98798597,0.15234153,0.9839684,-0.0016092237,0.17833558,0.14604187,0.16114807,-0.037704468,9.658203,-0.02229309,1.6992798,0.0021362305,0.003189087,-0.0010681152,-26.92566,23.641968,-2.7359009,0,0.0,0.0,0.0,0.0
1.326599121,0.1728334,0.083265945,-0.9814252,-0.012209983,0.9965249,0.08239679,0.98487544,-0.0022577322,0.17324944,0.17637743,0.15311696,-0.9723406,-0.025713092,0.98820674,0.1509512,0.9839867,-0.0016225048,0.17823447,0.05986023,0.046081543,-0.07092285,9.658203,-0.022140503,1.6989746,-0.0053253174,0.0063934326,0.007446289,-26.92566,23.641968,-2.7359009,0,0.0,0.0,0.0,0.0
1.330993652,0.17072918,0.18453076,-0.9678842,-0.029808518,0.9828241,0.18212107,0.984867,-0.0022421887,0.17329738,0.1763168,0.1517262,-0.9725696,-0.025437355,0.9884212,0.14958762,0.98400474,-0.0016352093,0.17813477,0.09352112,0.021987915,0.120147705,9.658051,-0.021987915,1.6994324,0.0,0.0053253174,0.0095825195,-28.54004,22.027588,-0.83465576,0,0.0,0.0,0.0,0.0
1.335418701,0.17069544,0.1844865,-0.96789867,-0.029809844,0.9828326,0.18207581,0.9848729,-0.002226607,0.17326456,0.176206,0.15238406,-0.97248673,-0.025528125,0.98831993,0.15023959,0.9840222,-0.0016473489,0.17803799,0.011962891,0.0074768066,0.05342102,9.658203,-0.021835327,1.6991272,0.0010681152,0.0,-0.004272461,-28.54004,22.027588,-0.83465576,0,0.0,0.0,0.0,0.0
1.339813232,0.17072396,0.18452391,-0.9678865,-0.029821932,0.9828255,0.18211174,0.9848675,-0.0022265948,0.17329474,0.176206,0.15238406,-0.97248673,-0.025528125,0.98831993,0.15023959,0.9840222,-0.0016473489,0.17803799,0.011962891,0.0074768066,0.053115845,9.658203,-0.021835327,1.6994324,0.0010681152,0.0,-0.004272461,-28.54004,22.027588,-0.83465576,0,0.0,0.0,0.0,0.0
1.344207763,0.17203741,0.13285355,-0.9760907,-0.020832265,0.9911332,0.13122922,0.98487014,-0.0022421605,0.17327964,0.17599088,0.15366013,-0.9723249,-0.025704436,0.98812234,0.15150414,0.9840561,-0.0016702869,0.17785029,0.03112793,-0.040252686,-0.028137207,9.658203,-0.021987915,1.6992798,-0.0010681152,0.0063934326,0.0021209717,-27.642822,20.773315,-2.0446777,0,0.0,0.0,0.0,0.0
1.348632812,0.17204997,0.13287072,-0.97608614,-0.020852447,0.9911309,0.13124314,0.9848675,-0.0022265948,0.17329474,0.17591313,0.15324463,-0.97240454,-0.025605282,0.98818684,0.1510997,0.98407257,-0.0016817243,0.1777589,0.16998291,0.031402588,0.067474365,9.658203,-0.021835327,1.6994324,0.0063934326,-0.012786865,-0.008529663,-27.642822,20.773315,-2.0446777,0,0.0,0.0,0.0,0.0
1.353027343,0.17193256,0.1327103,-0.97612864,-0.020808365,0.99115247,0.13108774,0.98488903,-0.002226608,0.17317286,0.17583707,0.15283775,-0.9724824,-0.025508583,0.98824984,0.15070353,0.9840887,-0.0016926217,0.17766963,0.045333862,0.026611328,0.09741211,9.658356,-0.021835327,1.6982269,-0.008514404,-0.007461548,0.007446289,-27.642822,20.773315,-2.0446777,0,0.0,0.0,0.0,0.0
1.357452392,0.17122032,0.16085286,-0.9720133,-0.025636189,0.98697567,0.15881309,0.98489916,-0.0022733111,0.17311396,0.17576022,0.1524358,-0.9725593,-0.02541295,0.9883119,0.15031219,0.98410493,-0.0017033014,0.17757976,0.13632202,-0.14050293,-0.1366272,9.658356,-0.02229309,1.6976318,0.007461548,-0.031951904,0.003189087,-26.92566,22.566223,-1.008606,0,0.0,0.0,0.0,0.0
1.361846923,0.17122231,0.1608553,-0.97201264,-0.025607478,0.9869753,0.15882061,0.9848996,-0.0023028394,0.17311129,0.17566937,0.15260424,-0.9725493,-0.025418166,0.98828584,0.15048225,0.98412097,-0.0017147016,0.17749047,0.006881714,-0.08274841,-0.031280518,9.658508,-0.022583008,1.6976318,0.0,-0.019180298,0.0010681152,-26.92566,22.566223,-1.008606,0,0.0,0.0,0.0,0.0
1.366241455,0.17121026,0.16084069,-0.9720171,-0.02558738,0.9869776,0.15880927,0.98490214,-0.0023184053,0.17309618,0.1755804,0.15276939,-0.9725395,-0.025422687,0.9882603,0.1506491,0.98413676,-0.0017264645,0.17740296,0.073913574,-0.034713745,0.0023956299,9.658508,-0.022735596,1.6974792,-0.0053253174,-0.012786865,-0.009597778,-26.92566,22.566223,-1.008606,0,0.0,0.0,0.0,0.0
1.370666503,0.17162234,0.14359383,-0.9746417,-0.02254826,0.9896338,0.14183216,0.98490477,-0.002365091,0.17308109,0.17549294,0.15293093,-0.9725298,-0.025426676,0.98823535,0.15081237,0.98415226,-0.0017383032,0.17731684,0.049972534,-0.05342102,-0.011810303,9.658508,-0.02319336,1.6973267,0.004257202,-0.004257202,-0.01171875,-26.567078,22.566223,-1.3534546,0,0.0,0.0,0.0,0.0
1.375061035,0.17162427,0.14359616,-0.974641,-0.022535015,0.9896335,0.14183685,0.98490477,-0.0023790947,0.17308109,0.17549294,0.15293093,-0.9725298,-0.025426676,0.98823535,0.15081237,0.98415226,-0.0017383032,0.17731684,0.049972534,-0.05328369,-0.011810303,9.658508,-0.023330688,1.6973267,0.004257202,-0.004257202,-0.01171875,-26.567078,22.566223,-1.3534546,0,0.0,0.0,0.0,0.0
1.379486084,0.17163688,0.14361127,-0.9746366,-0.022553464,0.98963135,0.14184897,0.9849021,-0.0023650844,0.17309618,0.17534065,0.15256152,-0.97261536,-0.025310785,0.9882924,0.15045762,0.9841824,-0.0017636785,0.1771493,0.117004395,0.03276062,0.08859253,9.658508,-0.02319336,1.6974792,-0.013839722,-0.0053253174,-0.0063934326,-26.567078,22.566223,-1.3534546,0,0.0,0.0,0.0,0.0
1.383880615,0.17158426,0.14354819,-0.9746552,-0.022505213,0.98964053,0.14179328,0.98491246,-0.0023946732,0.1730373,0.17563511,0.1517947,-0.9726822,-0.02467414,0.98840934,0.14979368,0.98414606,-0.0023089324,0.17734478,0.059555054,-0.057907104,-0.16938782,9.658508,-0.023483276,1.6968842,0.007461548,0.004257202,0.0095825195,-26.567078,22.566223,-1.3534546,0,0.0,0.0,0.0,0.0
1.388305664,0.17153618,0.1434906,-0.97467214,-0.022503544,0.9896488,0.14173496,0.98492074,-0.0023790996,0.17298964,0.17555436,0.15162988,-0.97272253,-0.024630092,0.9884347,0.14963394,0.9841616,-0.0023106472,0.17725867,0.025894165,-6.1035156E-4,-0.10189819,9.658646,-0.023330688,1.6964264,-0.0021362305,0.008514404,0.0,-26.567078,22.566223,-1.3534546,0,0.0,0.0,0.0,0.0
1.392700195,0.17152117,0.1434726,-0.9746773,-0.022512112,0.98965126,0.14171515,0.9849231,-0.0023651014,0.17297605,0.1754743,0.15146719,-0.9727622,-0.024586912,0.9884596,0.14947622,0.98417693,-0.0023120162,0.17717338,0.011520386,0.0471344,-0.044296265,9.658646,-0.02319336,1.6962891,-0.007461548,0.010650635,0.004257202,-26.567078,22.566223,-1.3534546,0,0.0,0.0,0.0,0.0
1.397094726,0.17205842,0.12105778,-0.97762,-0.018667594,0.9926427,0.11963257,0.98490983,-0.0023339833,0.17305242,0.17539553,0.1513074,-0.9728014,-0.024544787,0.9884841,0.14932124,0.9841921,-0.002313078,0.1770895,0.059555054,0.051605225,-0.116867065,9.658508,-0.022888184,1.6970367,0.0021362305,0.020217896,0.0010681152,-26.38855,22.38617,-1.8722534,0,0.0,0.0,0.0,0.0
1.401519775,0.17199571,0.12098213,-0.9776404,-0.01866208,0.9926519,0.119556576,0.9849208,-0.0023184163,0.17298965,0.17533076,0.1507037,-0.97290677,-0.024425061,0.9885763,0.14872919,0.98420656,-0.002313496,0.17700878,0.1695404,0.037094116,-0.13542175,9.658646,-0.022735596,1.6964264,0.0,0.029815674,-0.004272461,-26.38855,22.38617,-1.8722534,0,0.0,0.0,0.0,0.0
1.405914306,0.17193235,0.120905764,-0.977661,-0.018671822,0.99266136,0.11947719,0.9849318,-0.002287286,0.17292817,0.17526594,0.15011051,-0.9730101,-0.024307663,0.98866653,0.14814742,0.98422104,-0.0023135943,0.1769284,0.13587952,0.05593872,-0.13482666,9.658798,-0.02243042,1.6958313,0.007461548,0.020217896,0.010650635,-26.38855,22.38617,-1.8722534,0,0.0,0.0,0.0,0.0
1.410339355,0.17103326,0.16815549,-0.97080964,-0.026843783,0.98575765,0.16601545,0.98489946,-0.0023339589,0.17311127,0.17520116,0.1495276,-0.97311157,-0.024192858,0.98875487,0.1475756,0.9842354,-0.0023130681,0.1768485,0.026031494,-0.06329346,0.0980072,9.658508,-0.022888184,1.6976318,-0.008514404,0.020217896,-0.0063934326,-26.747131,22.38617,-0.83465576,0,0.0,0.0,0.0,0.0
1.414733886,0.17101884,0.16813806,-0.9708152,-0.026838208,0.9857607,0.1659987,0.98490214,-0.0023339652,0.17309618,0.17511818,0.14990069,-0.973069,-0.024247328,0.98869836,0.1479447,0.9842488,-0.002313486,0.17677376,0.021240234,-0.010620117,-0.011962891,9.658508,-0.022888184,1.6974792,0.004257202,0.034072876,0.0021209717,-26.747131,22.38617,-0.83465576,0,0.0,0.0,0.0,0.0
1.419128418,0.17101386,0.16813204,-0.9708171,-0.026867377,0.9857618,0.16598745,0.98490226,-0.002302846,0.17309621,0.17503656,0.15026596,-0.9730274,-0.024300542,0.98864293,0.14830609,0.984262,-0.0023138956,0.17670019,0.19841003,0.07524109,0.0071868896,9.658508,-0.022583008,1.6974792,0.0021362305,0.014892578,-0.0010681152,-26.747131,22.38617,-0.83465576,0,0.0,0.0,0.0,0.0
1.423553466,0.17207085,0.12221384,-0.97747403,-0.018947888,0.9925013,0.12075719,0.9849024,-0.0022577227,0.17309622,0.1749565,0.15062377,-0.9729864,-0.024353227,0.98858845,0.14865999,0.9842749,-0.0023136747,0.17662816,0.14094543,0.103530884,0.02633667,9.658508,-0.022140503,1.6974792,-0.010635376,0.0095825195,0.0063934326,-27.642822,22.566223,-2.0446777,0,0.0,0.0,0.0,0.0
1.427947998,0.1720412,0.12217664,-0.9774838,-0.018953122,0.9925057,0.12071842,0.9849074,-0.0022421745,0.17306754,0.17490044,0.1500567,-0.97308415,-0.024243327,0.9886747,0.14810342,0.9842876,-0.0023125557,0.17655751,0.083496094,0.045928955,-0.045196533,9.658508,-0.021987915,1.6971893,0.0095825195,0.0053253174,-0.008529663,-27.642822,22.566223,-2.0446777,0,0.0,0.0,0.0,0.0
