Time,Rot1,Rot2,Rot3,Rot4,Rot5,Rot6,Rot7,Rot8,Rot9,FRot1,FRot2,FRot3,FRot4,FRot5,FRot6,FRot7,FRot8,FRot9,AccX,AccY,AccZ,GravX,GravY,GravZ,GyroX,GyroY,GyroZ,MagX,MagY,MagZ,Imid
0.0,0.0,0.0,0.0,0.0,0.0,0.0,0.0,0.0,0.0,0.0,0.0,0.0,0.0,0.0,0.0,0.0,0.0,0.0,-0.13961792,-0.011230469,0.108795166,9.795425,0.12374878,0.45144653,0.0,0.0,0.0,0.0,0.0,0.0,0,0.0,0.0,0.0,0.0
0.004394531,0.0,0.0,0.0,0.0,0.0,0.0,0.0,0.0,0.0,1.0,0.0,0.0,0.0,1.0,0.0,0.0,0.0,1.0,0.00881958,-0.06359863,-0.0013427734,9.795425,0.1234436,0.45144653,0.0,0.0,0.0,0.0,0.0,0.0,0,0.0,0.0,0.0,0.0
0.00881958,0.0,0.0,0.0,0.0,0.0,0.0,0.0,0.0,0.0,1.0,0.0,0.0,0.0,1.0,0.0,0.0,0.0,1.0,-0.0103302,0.027236938,-0.053863525,9.795425,0.12359619,0.45129395,-0.004272461,-0.004257202,0.018096924,0.0,0.0,0.0,0,0.0,0.0,0.0,0.0
0.013214111,0.037344806,0.3944461,-0.91815984,-0.029715937,0.91883284,0.39352658,0.9988606,0.012587809,0.046034973,1.0,0.0,0.0,0.0,1.0,0.0,0.0,0.0,1.0,0.0040283203,-0.049224854,0.036956787,9.795425,0.1234436,0.45144653,-0.006378174,0.007461548,0.01171875,-27.642822,10.733032,3.4866333,0,0.0,0.0,0.0,0.0
0.01763916,0.037344806,0.3944461,-0.91815984,-0.029715937,0.91883284,0.39352658,0.9988606,0.012587809,0.046034973,0.9994852,0.008319523,-0.03098446,-0.008334182,0.9999652,-3.4399042E-4,0.03098052,6.020435E-4,0.9995198,0.0040283203,0.013015747,0.0034484863,9.795425,0.1234436,0.45144653,0.0053253174,-0.007461548,-0.003189087,-27.642822,10.733032,3.4866333,0,0.0,0.0,0.0,0.0
0.022033691,0.037391532,0.39455116,-0.9181129,-0.029758781,0.91878754,0.3936291,0.9988575,0.012603527,0.04609623,0.9980157,0.01626248,-0.06082863,-0.016283566,0.9998674,1.4903763E-4,0.060822986,8.417652E-4,0.9981482,0.023345947,0.017654419,0.17044067,9.795273,0.12359619,0.45204163,0.022369385,-0.008529663,0.0021362305,-27.642822,10.733032,3.4866333,0,0.0,0.0,0.0,0.0
0.026428223,0.03435589,0.48217002,-0.8754038,-0.033281833,0.87598705,0.48118508,0.9988553,0.012603499,0.04614281,0.99565005,0.024047865,-0.090014696,-0.024047174,0.9997102,0.001092344,0.09001488,0.0010770068,0.9959398,-0.010177612,-0.0014953613,0.11251831,9.795273,0.12359619,0.4524994,0.006378174,0.004257202,0.004272461,-26.567078,10.733032,4.8690796,0,0.0,0.0,0.0,0.0
0.030853272,0.034398306,0.48225337,-0.87535614,-0.033327866,0.87594086,0.48126584,0.9988524,0.012619022,0.04620336,0.9923817,0.03362629,-0.11852403,-0.03354412,0.99943364,0.0026887245,0.11854731,0.001307543,0.9929476,0.028121948,0.04144287,0.15023804,9.795273,0.12374878,0.45309448,-0.0095825195,-0.0010681152,-0.0063934326,-26.567078,10.733032,4.8690796,0,0.0,0.0,0.0,0.0
0.035369873,0.03439262,0.48224223,-0.87536263,-0.033306338,0.87594736,0.48125574,0.99885327,0.012603473,0.04618784,0.98829836,0.04301205,-0.1463433,-0.04277294,0.9990734,0.004781708,0.14641336,0.0015337788,0.9892223,-0.06764221,-0.04460144,-0.036361694,9.795273,0.12359619,0.4529419,0.0021209717,0.003189087,-0.0063934326,-26.567078,10.733032,4.8690796,0,0.0,0.0,0.0,0.0
0.039855957,0.037657794,0.38973114,-0.92015845,-0.029575452,0.9208429,0.38881066,0.99885297,0.01257235,0.046203386,0.9834555,0.052206155,-0.17346399,-0.051717754,0.99863476,0.007337382,0.17361023,0.0017551788,0.98481286,0.013763428,-0.053863525,0.030532837,9.795273,0.123291016,0.45309448,-0.0021362305,0.014892578,-0.0021209717,-26.92566,10.015869,3.1402588,0,0.0,0.0,0.0,0.0
0.045257568,0.037673123,0.38976738,-0.9201425,-0.029617634,0.92082703,0.38884476,0.99885106,0.012603446,0.046234418,0.9780289,0.05915816,-0.19989926,-0.058355283,0.99824667,0.009911412,0.2001351,0.0019715284,0.9797663,0.004180908,0.07511902,0.087677,9.795273,0.12359619,0.45339966,0.0010528564,-0.004257202,-0.0063934326,-26.92566,10.015869,3.1402588,0,0.0,0.0,0.0,0.0
0.050689697,0.03771168,0.38985845,-0.9201023,-0.029638872,0.92078865,0.38893446,0.9988491,0.012603421,0.04627945,0.9719755,0.065969124,-0.22563599,-0.06475518,0.99781924,0.012785227,0.22598739,0.0021841726,0.97412777,-0.0053863525,-0.01586914,0.13511658,9.795273,0.12359619,0.45384216,0.004257202,0.0021362305,0.0032043457,-26.92566,10.015869,3.1402588,0,0.0,0.0,0.0,0.0
0.056091309,0.037736244,0.38991645,-0.9200767,-0.029618654,0.92076445,0.3889931,0.9988487,0.012572296,0.046294987,0.96534234,0.072642855,-0.2506737,-0.07091371,0.99735516,0.015935943,0.25116834,0.0023925633,0.9679405,-5.950928E-4,-0.073013306,0.03919983,9.795273,0.123291016,0.45399475,-0.004272461,0.004257202,0.0021362305,-26.92566,10.015869,3.1402588,0,0.0,0.0,0.0,0.0
0.06149292,0.037743904,0.38993454,-0.9200687,-0.029639747,0.9207565,0.38901013,0.9988478,0.012587844,0.046310507,0.95817393,0.0791812,-0.27501455,-0.07682656,0.9968568,0.019341227,0.2756816,0.0025961634,0.9612455,-0.034118652,0.032165527,0.03904724,9.795273,0.1234436,0.45414734,0.015975952,0.0021362305,-0.0021209717,-26.92566,10.015869,3.1402588,0,0.0,0.0,0.0,0.0
0.066925049,0.037743904,0.38993454,-0.9200687,-0.029639747,0.9207565,0.38901013,0.9988478,0.012587844,0.046310507,0.95051354,0.08558587,-0.29866213,-0.08249102,0.99632686,0.022978041,0.29953167,0.0027960027,0.95408225,-0.0053863525,0.0034484863,-0.14768982,9.795273,0.1234436,0.45414734,-0.0021362305,-0.0021362305,0.0010681152,-26.92566,10.015869,3.1402588,0,0.0,0.0,0.0,0.0
0.07232666,0.03770402,0.38984033,-0.9201103,-0.029617777,0.92079645,0.38891742,0.99885,0.012587872,0.04626393,0.95051354,0.08558587,-0.29866213,-0.08249102,0.99632686,0.022978041,0.29953167,0.0027960027,0.95408225,-0.0053863525,0.0034484863,-0.14723206,9.795273,0.1234436,0.45368958,-0.0021362305,-0.0021362305,0.0010681152,-26.92566,10.015869,3.1402588,0,0.0,0.0,0.0,0.0
0.076660156,0.030909508,0.56688136,-0.8232194,-0.036536854,0.82370335,0.56584275,0.9988542,0.012587925,0.046172325,0.9338779,0.09799909,-0.3439015,-0.09306689,0.9951814,0.030862786,0.3452689,0.0031837716,0.9384984,0.09037781,0.051330566,-0.021835327,9.795273,0.1234436,0.4527893,0.003189087,-0.02130127,-0.003189087,-26.38855,8.760071,5.041504,0,0.0,0.0,0.0,0.0
0.08102417,0.030882886,0.5668244,-0.82325965,-0.036552418,0.82374203,0.56578535,0.9988544,0.012619047,0.04615833,0.9338779,0.09799909,-0.3439015,-0.09306689,0.9951814,0.030862786,0.3452689,0.0031837716,0.9384984,0.09037781,0.05102539,-0.021697998,9.795273,0.12374878,0.45265198,0.003189087,-0.02130127,-0.003189087,-26.38855,8.760071,5.041504,0,0.0,0.0,0.0,0.0
0.085357666,0.03330329,0.50926405,-0.85996574,-0.034391247,0.8605174,0.5082589,0.9988534,0.012648598,0.046172287,0.9148142,0.11779682,-0.38631448,-0.10990057,0.99303144,0.042549144,0.38863456,0.0035316197,0.92138517,0.09037781,0.089035034,0.021255493,9.795273,0.1240387,0.4527893,0.0,-0.003189087,0.0010681152,-27.105713,9.118652,4.350281,0,0.0,0.0,0.0,0.0
0.089691162,0.033329315,0.509324,-0.85992926,-0.034376044,0.86048234,0.50831926,0.998853,0.012619031,0.04618783,0.90494,0.12606065,-0.40643856,-0.11652775,0.9920156,0.048232373,0.40927356,0.0037139645,0.9124041,0.1478424,-0.05432129,0.054626465,9.795273,0.12374878,0.4529419,-0.004272461,-0.010650635,-0.010650635,-27.105713,9.118652,4.350281,0,0.0,0.0,0.0,0.0
0.094024658,0.03330329,0.50926405,-0.85996574,-0.034391247,0.8605174,0.5082589,0.9988534,0.012648598,0.046172287,0.89477295,0.13415208,-0.42589256,-0.122817636,0.9909531,0.05410875,0.42929837,0.0038920708,0.9031543,-0.07720947,0.060302734,-0.045776367,9.795273,0.1240387,0.4527893,0.013839722,-0.0138549805,0.004272461,-27.105713,9.118652,4.350281,0,0.0,0.0,0.0,0.0
0.098358154,0.03298615,0.51671743,-0.85552037,-0.034650624,0.85606277,0.51570904,0.9988549,0.012633057,0.04614279,0.8843459,0.14207162,-0.44468865,-0.1287728,0.98984796,0.06015361,0.4487203,0.0040672063,0.893663,-0.0053863525,-0.035308838,-0.08380127,9.795273,0.12388611,0.4524994,0.0,-0.014907837,0.0010681152,-28.361511,9.298706,4.522705,0,0.0,0.0,0.0,0.0
0.10269165,0.03301584,0.51678693,-0.85547715,-0.034656547,0.85602105,0.515778,0.99885386,0.01261904,0.046172306,0.8736659,0.14999565,-0.4628274,-0.13455127,0.98867756,0.06642756,0.46755093,0.0042385287,0.883956,0.042495728,-0.030380249,0.08351135,9.795273,0.12374878,0.4527893,0.0,-0.008529663,0.0021362305,-28.361511,9.298706,4.522705,0,0.0,0.0,0.0,0.0
0.107055664,0.03303533,0.51683265,-0.85544884,-0.03465301,0.8559937,0.51582366,0.99885327,0.012603473,0.04618784,0.86278445,0.15775345,-0.48032996,-0.14000215,0.98746866,0.07283521,0.48580083,0.0044061434,0.8740585,0.08079529,-0.04460144,0.040252686,9.795273,0.12359619,0.4529419,-0.0010681152,-0.004257202,-0.0053253174,-28.361511,9.298706,4.522705,0,0.0,0.0,0.0,0.0
0.11138916,0.035577573,0.45016634,-0.8922357,-0.032037478,0.89285576,0.4492017,0.99885327,0.012603473,0.04618784,0.85172904,0.16534771,-0.49720997,-0.14513163,0.9862247,0.07935716,0.50348234,0.004570095,0.86399347,0.10473633,-0.0206604,0.030685425,9.795273,0.12359619,0.4529419,0.01171875,0.004257202,0.012786865,-28.54004,10.194397,4.005432,0,0.0,0.0,0.0,0.0
0.115722656,0.035571113,0.45015135,-0.8922435,-0.032050762,0.8928631,0.44918615,0.998853,0.012619031,0.04618783,0.84075326,0.17127924,-0.5136121,-0.14866504,0.98521113,0.085191935,0.52060795,0.0047307666,0.8537827,0.13825989,0.03186035,-0.017211914,9.795273,0.12374878,0.4529419,0.0010528564,0.003189087,0.019165039,-28.54004,10.194397,4.005432,0,0.0,0.0,0.0,0.0
0.120056152,0.03557811,0.45016763,-0.89223504,-0.032070875,0.8928547,0.44920143,0.99885213,0.012633023,0.04620335,0.82966113,0.17708579,-0.52943647,-0.15195063,0.9841833,0.09107294,0.5371903,0.0048885364,0.8434469,0.047286987,0.06524658,0.054473877,9.795273,0.12388611,0.45309448,0.012771606,0.0010681152,-0.008514404,-28.54004,10.194397,4.005432,0,0.0,0.0,0.0,0.0
0.124389649,0.037551954,0.39381084,-0.91842407,-0.02983595,0.9191044,0.39288265,0.99884915,0.012648545,0.046263892,0.81847405,0.18277057,-0.5446972,-0.15499604,0.9831427,0.09698839,0.5532417,0.0050434303,0.83300555,-0.08200073,0.036361694,0.14485168,9.795273,0.1240387,0.45368958,0.013839722,0.011703491,-0.0021209717,-27.28424,10.733032,3.4866333,0,0.0,0.0,0.0,0.0
0.128753662,0.037551954,0.39381084,-0.91842407,-0.02983595,0.9191044,0.39288265,0.99884915,0.012648545,0.046263892,0.80740833,0.18711415,-0.55953556,-0.1568042,0.9823245,0.102230795,0.5687743,0.005195537,0.8224772,-0.010177612,-0.035461426,0.005996704,9.795273,0.1240387,0.45368958,0.0095825195,0.008514404,0.0010681152,-27.28424,10.733032,3.4866333,0,0.0,0.0,0.0,0.0
0.133087158,0.03757613,0.39386454,-0.91840017,-0.0298171,0.919082,0.39293697,0.99884886,0.012618978,0.046279438,0.7962876,0.19136728,-0.57385075,-0.15843399,0.9815039,0.10746476,0.583802,0.0053446013,0.81187844,0.06643677,-0.05432129,0.044143677,9.795273,0.12374878,0.45384216,0.0021209717,0.007461548,-0.010650635,-27.28424,10.733032,3.4866333,0,0.0,0.0,0.0,0.0
0.137420654,0.036287162,0.43200904,-0.90113896,-0.031343874,0.9017812,0.43105477,0.99884975,0.012603429,0.046263922,0.78512853,0.19553304,-0.5876563,-0.15989235,0.9806817,0.112684295,0.59833735,0.005490093,0.8012255,0.023345947,-0.03501892,-0.032318115,9.795273,0.12359619,0.45368958,-0.0021362305,0.0010681152,-0.004257202,-28.361511,10.374451,3.831482,0,0.0,0.0,0.0,0.0
0.14175415,0.036236577,0.4318922,-0.901197,-0.031313077,0.90183717,0.43093988,0.99885255,0.012603464,0.046203364,0.7738114,0.20043291,-0.6008682,-0.16183312,0.9796912,0.118385464,0.6123937,0.0056323633,0.79053295,-0.053268433,-0.006286621,-0.165802,9.795273,0.12359619,0.45309448,0.004257202,0.007461548,0.0032043457,-28.361511,10.374451,3.831482,0,0.0,0.0,0.0,0.0
0.146087647,0.036223065,0.43186095,-0.9012125,-0.031270403,0.9018526,0.4309108,0.9988544,0.012572369,0.046172332,0.7624859,0.20522739,-0.61359346,-0.16358075,0.97869736,0.124068245,0.62598443,0.005771789,0.7798142,0.06643677,-0.082595825,-0.060150146,9.795273,0.123291016,0.4527893,0.013839722,0.0053253174,0.008529663,-28.361511,10.374451,3.831482,0,0.0,0.0,0.0,0.0
0.15045166,0.037119374,0.40581283,-0.9132021,-0.03022473,0.9138697,0.40488094,0.9988536,0.012572358,0.046187855,0.75128347,0.20961125,-0.6258085,-0.16481148,0.9777679,0.12964194,0.63906986,0.005742574,0.7691272,0.07122803,-0.015563965,0.045043945,9.795273,0.123291016,0.4529419,0.0010528564,0.0010681152,0.0053253174,-27.642822,10.374451,3.4866333,0,0.0,0.0,0.0,0.0
0.154785156,0.037187833,0.4059707,-0.91312915,-0.030214466,0.9138002,0.4050385,0.99885136,0.012527206,0.046248436,0.74007785,0.21365182,-0.6376815,-0.16578169,0.9768922,0.13490032,0.65176773,0.005879173,0.75839585,-0.07720947,-0.12046814,0.14500427,9.795273,0.12284851,0.453537,0.012771606,-0.004257202,-0.004257202,-27.642822,10.374451,3.4866333,0,0.0,0.0,0.0,0.0
0.159118652,0.037220076,0.40604508,-0.91309476,-0.030215867,0.91376734,0.40511248,0.9988501,0.012511631,0.046279497,0.7289025,0.21761137,-0.64911205,-0.16660544,0.976017,0.14011952,0.664036,0.006012137,0.74767643,0.004180908,-0.053268433,0.07287598,9.795273,0.12269592,0.45384216,0.007446289,0.008514404,0.0053253174,-27.642822,10.374451,3.4866333,0,0.0,0.0,0.0,0.0
0.163452149,0.030026173,0.58822405,-0.80814034,-0.037298277,0.80860114,0.58717364,0.99885297,0.012511667,0.046218947,0.7177681,0.22148983,-0.6601145,-0.16728793,0.9751434,0.14529355,0.67588735,0.00614213,0.73697937,0.09516907,0.008972168,-0.15158081,9.795273,0.12269592,0.45324707,-0.007446289,0.0,0.009597778,-28.89862,8.401489,5.041504,0,0.0,0.0,0.0,0.0
0.167785645,0.030061405,0.5883078,-0.808078,-0.03727405,0.80854076,0.5872581,0.9988527,0.012466541,0.046234496,0.7059699,0.22939208,-0.67006403,-0.17081147,0.9733139,0.15324321,0.6873354,0.006269524,0.7263131,-0.0053863525,-0.10549927,0.030227661,9.795273,0.12225342,0.45339966,0.014907837,-0.003189087,-0.0010681152,-28.89862,8.401489,5.041504,0,0.0,0.0,0.0,0.0
0.172119141,0.03010557,0.5884129,-0.80799997,-0.037313543,0.8084645,0.5873609,0.99885005,0.012466506,0.046295054,0.6942306,0.23712364,-0.6795706,-0.17405131,0.97145844,0.16116646,0.69839096,0.0063934666,0.7156879,-0.11552429,-0.028884888,0.16848755,9.795273,0.12225342,0.45399475,0.010650635,0.0021362305,-0.0010681152,-28.89862,8.401489,5.041504,0,0.0,0.0,0.0,0.0
0.176483154,0.03450691,0.48326507,-0.8747937,-0.033290647,0.87538505,0.48227856,0.9988498,0.012480508,0.046295043,0.68256176,0.24468854,-0.6886487,-0.17701949,0.9695799,0.1690533,0.7090653,0.0065149306,0.70511276,-0.024536133,0.061950684,-0.023040771,9.795273,0.12239075,0.45399475,0.003189087,-0.012786865,-0.010650635,-27.464294,9.835815,4.350281,0,0.0,0.0,0.0,0.0
0.18081665,0.034494374,0.48323718,-0.8748098,-0.033282064,0.8754007,0.48225126,0.99885064,0.012480518,0.04627952,0.6714191,0.24967296,-0.6977533,-0.17805055,0.9683075,0.17515309,0.71937084,0.0066342447,0.69459456,-0.0053863525,-0.024230957,-0.027679443,9.795273,0.12239075,0.45384216,-0.0032043457,-0.0063934326,0.012786865,-27.464294,9.835815,4.350281,0,0.0,0.0,0.0,0.0
0.185150147,0.034530733,0.4833182,-0.8747634,-0.033306975,0.8753557,0.4823307,0.9988485,0.012480491,0.046324547,0.66036505,0.2545507,-0.70648557,-0.178918,0.9670359,0.18119042,0.72931904,0.0067511736,0.68414044,-0.029327393,0.004501343,0.10595703,9.795273,0.12239075,0.45428467,0.003189087,-0.012786865,-0.0010681152,-27.464294,9.835815,4.350281,0,0.0,0.0,0.0,0.0
0.189483643,0.033957087,0.49552184,-0.8679315,-0.03369375,0.8685063,0.49453175,0.9988552,0.012451011,0.046187926,0.6494069,0.25932634,-0.714857,-0.17963119,0.9657654,0.18716282,0.73892033,0.006865762,0.67375785,-0.07243347,-0.05267334,-0.079452515,9.795273,0.12210083,0.4529419,0.004257202,-0.017044067,0.0053253174,-27.105713,9.477234,4.350281,0,0.0,0.0,0.0,0.0
0.193817139,0.033908192,0.49541172,-0.8679962,-0.03365898,0.8685691,0.4944238,0.99885803,0.012450852,0.046126656,0.63849825,0.26427028,-0.7228286,-0.18037365,0.9644235,0.19326876,0.7481881,0.0069774697,0.66345006,0.01361084,-0.0287323,0.1126709,9.795425,0.12210083,0.4523468,0.008514404,-0.024505615,0.0010681152,-27.105713,9.477234,4.350281,0,0.0,0.0,0.0,0.0
0.198181152,0.033786517,0.4951377,-0.8681573,-0.03357308,0.8687253,0.49415505,0.998865,0.012450939,0.045974493,0.6276972,0.26910615,-0.7304643,-0.18096331,0.9630845,0.19930035,0.7571317,0.00708694,0.6532238,-0.0103302,0.0047912598,-0.13961792,9.795425,0.12210083,0.45085144,0.024490356,-0.020233154,0.0,-27.105713,9.477234,4.350281,0,0.0,0.0,0.0,0.0
0.202514649,0.031049132,0.5584456,-0.8289598,-0.03587996,0.8294479,0.5574305,0.9988737,0.012435313,0.045790646,0.6170085,0.27383265,-0.7377778,-0.18140481,0.9617505,0.20525198,0.76576287,0.0071942224,0.6430828,-0.0056762695,-0.014221191,-0.118652344,9.795563,0.12194824,0.4490509,-0.0053253174,-0.0234375,0.0010681152,-28.001404,9.298706,5.215454,0,0.0,0.0,0.0,0.0
0.206848145,0.031060917,0.5584712,-0.82894224,-0.035889573,0.82943076,0.55745554,0.998873,0.012435304,0.04580617,0.6061636,0.27988943,-0.74446464,-0.1826126,0.9600045,0.21223573,0.7740919,0.0072990465,0.63303113,0.01826477,0.03366089,0.024841309,9.795563,0.12194824,0.4492035,0.0010528564,-0.030899048,0.0021362305,-28.001404,9.298706,5.215454,0,0.0,0.0,0.0,0.0
0.211181641,0.031076944,0.558506,-0.8289181,-0.035921592,0.82940704,0.5574887,0.9988713,0.012451017,0.045837857,0.5954445,0.28581488,-0.7508367,-0.18364191,0.95825624,0.21913598,0.78212625,0.007401774,0.62307596,0.11416626,0.0335083,0.11073303,9.795425,0.12210083,0.44950867,0.0095825195,-0.0138549805,-0.010650635,-28.001404,9.298706,5.215454,0,0.0,0.0,0.0,0.0
0.215515137,0.037857343,0.3743802,-0.92650217,-0.028716315,0.92719144,0.37348536,0.99887043,0.012466567,0.04585182,0.5848557,0.29161203,-0.7569058,-0.18450166,0.9565073,0.22594911,0.7898753,0.007502761,0.6132216,-0.05342102,0.042938232,0.024398804,9.795425,0.12225342,0.449646,0.012771606,-0.0053253174,0.0063934326,-28.181458,10.194397,2.9678345,0,0.0,0.0,0.0,0.0
0.21987915,0.037865855,0.37440112,-0.9264933,-0.02873594,0.92718273,0.3735053,0.99886954,0.01248056,0.04586734,0.5747805,0.2928922,-0.76409525,-0.18254031,0.95611405,0.22918312,0.7976881,0.007748176,0.60302037,0.0471344,0.004501343,0.043395996,9.795425,0.12239075,0.44979858,0.006378174,-0.008529663,0.0021362305,-28.181458,10.194397,2.9678345,0,0.0,0.0,0.0,0.0
0.224212647,0.037865855,0.37440112,-0.9264933,-0.02873594,0.92718273,0.3735053,0.99886954,0.01248056,0.04586734,0.56521404,0.29454607,-0.77056843,-0.18082167,0.9556051,0.23264225,0.804883,0.007842826,0.5933817,-7.4768066E-4,-0.0050811768,-0.009277344,9.795425,0.12239075,0.44979858,0.0010528564,0.0053253174,0.0021362305,-28.181458,10.194397,2.9678345,0,0.0,0.0,0.0,0.0
0.228546143,0.033545196,0.49922475,-0.86582303,-0.03375423,0.86638224,0.49823943,0.99886703,0.012511648,0.045913905,0.5557666,0.29616597,-0.7767942,-0.17908156,0.9551036,0.23602341,0.811821,0.007935583,0.5838525,-7.4768066E-4,0.08558655,0.11476135,9.795425,0.12269592,0.45025635,0.006378174,0.004257202,0.004272461,-28.720093,10.374451,4.8690796,0,0.0,0.0,0.0,0.0
0.232879639,0.033507943,0.49914408,-0.8658709,-0.0337279,0.8664287,0.4981604,0.9988692,0.012511674,0.045867324,0.5459458,0.30040464,-0.78211266,-0.17884132,0.953778,0.2415019,0.8185102,0.008027105,0.5744359,0.03276062,0.023345947,-0.09068298,9.795425,0.12269592,0.44979858,-0.0010681152,-0.0010681152,0.0,-28.720093,10.374451,4.8690796,0,0.0,0.0,0.0,0.0
0.237213135,0.033530876,0.49919373,-0.8658414,-0.033779968,0.8663996,0.4982074,0.9988666,0.012542762,0.045913886,0.5362629,0.30455104,-0.78719157,-0.17850117,0.95246136,0.24688974,0.8249602,0.0081167985,0.5651325,-0.04864502,0.056549072,0.10519409,9.795425,0.1230011,0.45025635,0.0053253174,0.0053253174,0.0032043457,-28.720093,10.374451,4.8690796,0,0.0,0.0,0.0,0.0
0.241546631,0.032671083,0.52105826,-0.8528957,-0.034662038,0.8534286,0.52005607,0.99886495,0.012572304,0.045943372,0.5267203,0.30861002,-0.79203886,-0.17806935,0.9511533,0.252188,0.83117807,0.00820532,0.5559457,-0.01512146,0.065841675,0.071380615,9.795425,0.123291016,0.45054626,0.007446289,-0.0053253174,0.0053253174,-28.54004,9.477234,4.6966553,0,0.0,0.0,0.0,0.0
0.245910645,0.032700058,0.5211248,-0.85285383,-0.03470208,0.8533877,0.52012044,0.9988626,0.012587835,0.04598994,0.5172285,0.31306532,-0.79653305,-0.1778135,0.9496954,0.25780037,0.8371721,0.008292661,0.54687667,0.02319336,0.036956787,0.11401367,9.795425,0.1234436,0.45100403,0.0021209717,0.004257202,0.0,-28.54004,9.477234,4.6966553,0,0.0,0.0,0.0,0.0
0.250244141,0.032687932,0.52109694,-0.8528713,-0.03469294,0.8534047,0.5200932,0.99886334,0.012587844,0.04597442,0.50788105,0.3174263,-0.80081046,-0.17746189,0.9482459,0.26331908,0.8429496,0.008378567,0.5379272,0.0184021,-0.0013427734,-0.019897461,9.795425,0.1234436,0.45085144,0.0095825195,0.0010681152,0.0032043457,-28.54004,9.477234,4.6966553,0,0.0,0.0,0.0,0.0
0.254577637,0.033290982,0.5067359,-0.8614583,-0.03415651,0.8620094,0.5057401,0.9988619,0.012587826,0.04600547,0.49867824,0.32169294,-0.80488116,-0.17701836,0.9468062,0.2687424,0.848519,0.008462755,0.5290972,-0.03427124,-0.006134033,0.089920044,9.795425,0.1234436,0.45115662,0.008514404,0.0010681152,0.004272461,-28.181458,9.835815,4.6966553,0,0.0,0.0,0.0,0.0
0.258911133,0.03331944,0.5067992,-0.86142004,-0.03419514,0.86197215,0.5058014,0.9988597,0.012603358,0.046050493,0.4896801,0.32555133,-0.8088447,-0.17632492,0.9454857,0.2737996,0.85388696,0.008545257,0.52038836,-0.0390625,0.04638672,0.08947754,9.795425,0.12359619,0.45159912,0.012771606,-0.0138549805,0.0138549805,-28.181458,9.835815,4.6966553,0,0.0,0.0,0.0,0.0
0.263244629,0.033328857,0.50682014,-0.86140734,-0.03414789,0.8619605,0.5058244,0.99886096,0.012556694,0.046034988,0.48082608,0.3293287,-0.81261855,-0.17556097,0.94417596,0.27876538,0.85906035,0.008626421,0.5118017,-0.04864502,-0.09681702,-0.034866333,9.795425,0.12313843,0.45144653,-0.008514404,0.0021362305,-0.0010681152,-28.181458,9.835815,4.6966553,0,0.0,0.0,0.0,0.0
0.267608643,0.033353478,0.5068748,-0.86137414,-0.03416571,0.8619282,0.5058779,0.99885947,0.012556676,0.046066042,0.47211555,0.33302578,-0.81621116,-0.17472917,0.9428775,0.28364003,0.8640466,0.008705028,0.5033365,0.09022522,-0.034561157,0.08932495,9.795425,0.12313843,0.4517517,-0.0032043457,0.0063934326,0.0063934326,-28.181458,9.835815,4.6966553,0,0.0,0.0,0.0,0.0
0.271942139,0.033365786,0.50690216,-0.8613576,-0.03417463,0.8619122,0.50590473,0.9988588,0.012556668,0.046081573,0.46354884,0.33664522,-0.81962943,-0.17383544,0.9415906,0.28842396,0.86885196,0.008782063,0.49499407,-0.02947998,0.013320923,0.031723022,9.795425,0.12313843,0.4519043,-0.008514404,0.007461548,-0.01171875,-28.181458,9.835815,4.6966553,0,0.0,0.0,0.0,0.0
0.276275635,0.033433095,0.5070517,-0.8612669,-0.034207396,0.8618243,0.506052,0.99885535,0.012542817,0.046158373,0.45512524,0.340188,-0.82288104,-0.17288348,0.9403157,0.2931171,0.8734829,0.008857556,0.4867743,-0.014968872,-0.039215088,0.21292114,9.795273,0.1230011,0.45265198,0.006378174,-0.003189087,-0.0063934326,-28.181458,9.835815,4.6966553,0,0.0,0.0,0.0,0.0
0.280609131,0.037739333,0.38737506,-0.92114955,-0.029464725,0.92183673,0.38645688,0.9988531,0.012556792,0.046203393,0.4468448,0.34365854,-0.82597125,-0.17187881,0.9390522,0.2977224,0.877945,0.008931262,0.47867823,0.07601929,0.046844482,0.10235596,9.795273,0.12313843,0.45309448,0.012771606,0.0010681152,-0.004257202,-27.464294,10.5529785,3.312683,0,0.0,0.0,0.0,0.0
0.284942627,0.037763342,0.38742995,-0.9211255,-0.029445745,0.9218141,0.38651237,0.9988527,0.012527224,0.046218935,0.4397095,0.34462523,-0.82939076,-0.16976926,0.93869835,0.30003956,0.88194895,0.008874822,0.47126138,0.023345947,-0.1013031,0.05909729,9.795273,0.12284851,0.45324707,-0.0021362305,0.009567261,0.0010681152,-27.464294,10.5529785,3.312683,0,0.0,0.0,0.0,0.0
0.289306641,0.037755605,0.38741225,-0.92113316,-0.02942469,0.9218217,0.38649577,0.9988537,0.012511675,0.04620342,0.43214256,0.34548888,-0.83300066,-0.16755383,0.9383801,0.30227196,0.886103,0.008947872,0.463402,-0.019760132,-0.024536133,-0.050872803,9.795273,0.12269592,0.45309448,-0.015975952,-0.004257202,0.0,-27.464294,10.5529785,3.312683,0,0.0,0.0,0.0,0.0
0.293640137,0.031710453,0.54864043,-0.8354569,-0.035815023,0.83596414,0.54761416,0.9988552,0.012556817,0.046158362,0.42469785,0.3463346,-0.8364712,-0.16535644,0.93806773,0.30444413,0.8901062,0.0090191495,0.45566395,0.008972168,-0.044143677,0.13153076,9.795273,0.12313843,0.45265198,0.020233154,-0.012786865,0.0,-27.822876,8.760071,4.6966553,0,0.0,0.0,0.0,0.0
0.297973633,0.031763487,0.5487642,-0.8353735,-0.0358412,0.835883,0.54773617,0.99885255,0.0125427805,0.046218924,0.42469785,0.3463346,-0.8364712,-0.16535644,0.93806773,0.30444413,0.8901062,0.0090191495,0.45566395,0.008972168,-0.044006348,0.13093567,9.795273,0.1230011,0.45324707,0.020233154,-0.012786865,0.0,-27.822876,8.760071,4.6966553,0,0.0,0.0,0.0,0.0
0.302307129,0.0317753,0.54879177,-0.835355,-0.035850756,0.835865,0.5477631,0.9988519,0.012542772,0.046234455,0.40899444,0.35476217,-0.84075403,-0.16399124,0.9349117,0.3147173,0.8976806,0.009158688,0.44055158,0.018554688,0.023040771,0.06373596,9.795273,0.1230011,0.45339966,0.0021209717,-0.019180298,-0.0021209717,-27.822876,8.760071,4.6966553,0,0.0,0.0,0.0,0.0
0.306640625,0.035640527,0.4512623,-0.89167935,-0.032047424,0.8923034,0.4502972,0.9988507,0.012527198,0.046263963,0.40135658,0.3588403,-0.842702,-0.16321607,0.9333534,0.31970608,0.9012621,0.00922637,0.43317598,0.056854248,-0.0390625,0.082611084,9.795273,0.12284851,0.45368958,-0.013839722,-0.018112183,-0.003189087,-27.28424,11.091614,4.522705,0,0.0,0.0,0.0,0.0
0.310974121,0.03552729,0.45103294,-0.8918,-0.03201012,0.89241904,0.45007083,0.99885595,0.012556828,0.04614284,0.39422515,0.360728,-0.8452585,-0.1614958,0.9326248,0.322692,0.90471303,0.009292387,0.42592022,-0.024536133,0.003753662,-0.07901001,9.795273,0.12313843,0.4524994,-0.0095825195,-0.008529663,-0.004257202,-27.28424,11.091614,4.522705,0,0.0,0.0,0.0,0.0
0.315338135,0.035520747,0.4510197,-0.89180696,-0.032023467,0.8924255,0.45005703,0.9988557,0.012572384,0.04614283,0.38721848,0.36257175,-0.8477049,-0.15977058,0.93190885,0.3256059,0.9080392,0.009357678,0.4187806,-0.06285095,0.032318115,-0.0071868896,9.795273,0.123291016,0.4524994,0.007446289,-0.022369385,-0.0063934326,-27.28424,11.091614,4.522705,0,0.0,0.0,0.0,0.0
0.319671631,0.036767956,0.41253418,-0.9101998,-0.030557368,0.9108539,0.41159627,0.99885654,0.0126797585,0.046096187,0.3803366,0.36437696,-0.85004324,-0.15804447,0.93120384,0.3284529,0.9112442,0.0094219735,0.41175866,-5.950928E-4,0.15098572,0.055526733,9.795273,0.12434387,0.45204163,-0.004272461,-0.019180298,0.0032043457,-27.822876,10.5529785,3.6590576,0,0.0,0.0,0.0,0.0
0.324005127,0.03674243,0.4124763,-0.91022706,-0.030542416,0.9108801,0.41153935,0.9988579,0.012679579,0.04606597,0.37370992,0.3653504,-0.8525608,-0.15600137,0.9308217,0.3305064,0.9143328,0.009487131,0.40485248,-0.01512146,-0.016616821,-0.07347107,9.795425,0.12434387,0.4517517,0.018096924,-0.0138549805,-0.0095825195,-27.822876,10.5529785,3.6590576,0,0.0,0.0,0.0,0.0
0.328338623,0.036731634,0.4124518,-0.91023856,-0.030568806,0.91089076,0.41151375,0.9988575,0.012709334,0.046066668,0.3671991,0.3663028,-0.85497785,-0.15397684,0.9304467,0.33250573,0.9173091,0.009550981,0.39806134,-0.024536133,0.08364868,0.0031433105,9.795273,0.12463379,0.4517517,-0.0010681152,0.0063934326,0.0053253174,-27.822876,10.5529785,3.6590576,0,0.0,0.0,0.0,0.0
0.332672119,0.037243057,0.39782676,-0.9167044,-0.029988978,0.9173726,0.3968984,0.9988562,0.012709317,0.046096172,0.36080307,0.36723524,-0.8572978,-0.15197246,0.93007845,0.33445257,0.9201769,0.009614149,0.39138478,0.037704468,-0.016906738,0.089035034,9.795273,0.12463379,0.45204163,0.01171875,-0.012786865,-0.0021209717,-28.001404,11.450195,3.831482,0,0.0,0.0,0.0,0.0
0.337036133,0.037283037,0.39791164,-0.91666585,-0.030010909,0.9173357,0.3969818,0.998854,0.01270929,0.04614275,0.35456905,0.36785117,-0.8596315,-0.14987515,0.92983437,0.33607373,0.92293996,0.009676054,0.38482225,0.028121948,0.02619934,0.09815979,9.795273,0.12463379,0.4524994,0.012771606,-0.004257202,0.0063934326,-28.001404,11.450195,3.831482,0,0.0,0.0,0.0,0.0
0.341369629,0.037283037,0.39791164,-0.91666585,-0.030010909,0.9173357,0.3969818,0.998854,0.01270929,0.04614275,0.34844562,0.36845633,-0.86187327,-0.14780572,0.9295941,0.3376512,0.925602,0.00973672,0.37837294,0.09037781,-0.026473999,0.02154541,9.795273,0.12463379,0.4524994,-0.006378174,-0.0063934326,0.0,-28.001404,11.450195,3.831482,0,0.0,0.0,0.0,0.0
0.345703125,0.036584593,0.4192709,-0.9071238,-0.030881712,0.90777224,0.41832513,0.99885327,0.0127092805,0.046158276,0.3424308,0.36904925,-0.86402774,-0.1457633,0.92935824,0.33918488,0.92816716,0.009796171,0.3720347,-5.950928E-4,0.021408081,0.045333862,9.795273,0.12463379,0.45265198,-0.008514404,-0.0138549805,-0.003189087,-28.001404,10.733032,3.831482,0,0.0,0.0,0.0,0.0
0.350036621,0.036467355,0.41900977,-0.90724903,-0.030812943,0.9078927,0.41806853,0.9988597,0.012709164,0.04601937,0.33645636,0.37006506,-0.86593825,-0.14390564,0.9289536,0.34108126,0.9306386,0.009854435,0.36580676,0.0184021,0.04055786,-0.111328125,9.795425,0.12463379,0.45129395,0.004257202,-0.014907837,0.004272461,-28.001404,10.733032,3.831482,0,0.0,0.0,0.0,0.0
0.354370117,0.03645294,0.4189777,-0.90726453,-0.03073779,0.9079084,0.41804004,0.99886245,0.012648516,0.045974378,0.3295609,0.36990649,-0.8686534,-0.14129001,0.929015,0.34200636,0.93350244,0.010020122,0.3584311,0.0806427,0.0076293945,0.12374878,9.795425,0.1240387,0.45085144,0.018096924,-0.020233154,0.0053253174,-28.001404,10.733032,3.831482,0,0.0,0.0,0.0,0.0
0.358734131,0.031957738,0.53748196,-0.84266955,-0.035373688,0.8431802,0.5364662,0.99886304,0.012664083,0.045958843,0.3238171,0.37089878,-0.8703888,-0.13948588,0.9286187,0.3438183,0.93578106,0.01007269,0.35243773,0.109375,0.026641846,-0.019744873,9.795425,0.124191284,0.45069885,0.003189087,-0.022369385,0.012786865,-28.001404,9.298706,4.8690796,0,0.0,0.0,0.0,0.0
0.363067627,0.031962074,0.5374917,-0.8426631,-0.035395492,0.8431737,0.5364748,0.9988621,0.012679631,0.04597436,0.31780547,0.37437832,-0.87111455,-0.13856037,0.9272208,0.3479406,0.9379769,0.010124519,0.34654984,-0.02468872,0.0121154785,0.03755188,9.795425,0.12434387,0.45085144,0.013839722,-0.003189087,-0.0010681152,-28.001404,9.298706,4.8690796,0,0.0,0.0,0.0,0.0
0.367401123,0.031923003,0.53740406,-0.8427205,-0.035346575,0.8432298,0.5363898,0.99886507,0.0126641095,0.045913815,0.31191334,0.37778336,-0.87177396,-0.13760689,0.92583805,0.3519775,0.94009274,0.010175621,0.34076685,-0.0055389404,-0.016464233,-0.1869049,9.795425,0.124191284,0.45025635,0.013839722,-0.007461548,-0.004257202,-28.001404,9.298706,4.8690796,0,0.0,0.0,0.0,0.0
0.371734619,0.033851787,0.48935348,-0.8714282,-0.033503946,0.8719934,0.48836938,0.99886507,0.0126641095,0.045913815,0.30613786,0.38111344,-0.87237155,-0.13662606,0.92447174,0.35592884,0.9421321,0.010225393,0.33508584,-0.02468872,-0.006881714,0.009429932,9.795425,0.124191284,0.45025635,0.0021209717,0.007461548,-0.0010681152,-28.361511,10.015869,4.522705,0,0.0,0.0,0.0,0.0
0.376068115,0.033843953,0.48933592,-0.8714385,-0.033550166,0.8720029,0.48834985,0.9988639,0.012709217,0.045929316,0.30062953,0.38333774,-0.8733121,-0.13528484,0.9235511,0.35881945,0.94409734,0.010274168,0.32950652,0.0806427,0.11238098,0.066726685,9.795425,0.12463379,0.45040894,0.0021209717,0.0,0.0010681152,-28.361511,10.015869,4.522705,0,0.0,0.0,0.0,0.0
0.380401611,0.033925377,0.4895187,-0.8713326,-0.03355512,0.87190086,0.4885315,0.99886096,0.012664056,0.046005424,0.29522914,0.38551503,-0.8741956,-0.13394183,0.9226438,0.3616462,0.94599116,0.010322869,0.32402793,0.01361084,-0.11222839,0.19047546,9.795425,0.124191284,0.45115662,0.018096924,0.009567261,0.0063934326,-28.361511,10.015869,4.522705,0,0.0,0.0,0.0,0.0
0.384765625,0.03256142,0.5235478,-0.85137385,-0.034859765,0.8519022,0.5225395,0.9988616,0.012664065,0.045989897,0.28993595,0.38765058,-0.87502235,-0.13259849,0.9217481,0.36441478,0.9478158,0.010369693,0.3186498,-0.01512146,-0.006881714,-0.05836487,9.795425,0.124191284,0.45100403,-0.006378174,-0.007461548,0.014923096,-27.105713,8.760071,4.350281,0,0.0,0.0,0.0,0.0
0.389099121,0.032525193,0.5234624,-0.8514277,-0.03483216,0.8519545,0.5224557,0.99886376,0.012664093,0.04594332,0.28464314,0.39046827,-0.8755072,-0.13147956,0.92055744,0.36781394,0.94957435,0.010415582,0.31336898,0.01361084,0.0027008057,-0.124938965,9.795425,0.124191284,0.45054626,0.017044067,0.0010681152,0.007461548,-27.105713,8.760071,4.350281,0,0.0,0.0,0.0,0.0
0.393432617,0.032541923,0.5235019,-0.8514029,-0.034863137,0.85193014,0.52249354,0.9988621,0.012679631,0.04597436,0.27945638,0.39322424,-0.87594455,-0.13034807,0.9193831,0.37113893,0.95126945,0.010460552,0.30818346,0.06149292,0.03126526,0.104599,9.795425,0.12434387,0.45085144,-0.0053253174,-0.007461548,-0.003189087,-27.105713,8.760071,4.350281,0,0.0,0.0,0.0,0.0
0.397766113,0.036458373,0.4190417,-0.9072348,-0.030760966,0.90787876,0.41810295,0.9988616,0.012664065,0.045989897,0.2743746,0.3959225,-0.87633556,-0.12920734,0.91822386,0.37439343,0.952903,0.010504934,0.3030934,-0.0677948,-0.059555054,0.018249512,9.795425,0.124191284,0.45100403,-0.0010681152,0.0053253174,0.0021362305,-27.642822,11.450195,4.1778564,0,0.0,0.0,0.0,0.0
0.402099609,0.036430683,0.41898477,-0.9072621,-0.030678323,0.9079058,0.41805017,0.99886525,0.012603428,0.04592938,0.26969898,0.39638746,-0.8775759,-0.12741868,0.9180227,0.37549803,0.9544773,0.010548117,0.29809698,0.05670166,-0.1451416,-0.14874268,9.795425,0.12359619,0.45040894,-0.0010681152,0.019165039,-0.0010681152,-27.642822,11.450195,4.1778564,0,0.0,0.0,0.0,0.0
0.406982422,0.036436465,0.4189967,-0.9072564,-0.030698758,0.9079001,0.41806108,0.99886435,0.012618977,0.045943346,0.26511097,0.39684185,-0.8787677,-0.12565605,0.9178259,0.37657157,0.9559951,0.010589222,0.29319128,0.06149292,0.03186035,0.033081055,9.795425,0.12374878,0.45054626,0.008514404,0.017028809,0.007461548,-27.642822,11.450195,4.1778564,0,0.0,0.0,0.0,0.0
0.411834717,0.032294407,0.5308923,-0.8468238,-0.035053983,0.8473461,0.52988297,0.9988636,0.012572288,0.045974426,0.26060984,0.3972873,-0.8799121,-0.12392167,0.9176327,0.3776157,0.957458,0.010629818,0.2883766,-0.02947998,-0.116119385,0.104599,9.795425,0.123291016,0.45085144,-0.011703491,0.019165039,-0.0010681152,-26.747131,9.118652,4.6966553,0,0.0,0.0,0.0,0.0
0.416687012,0.032306477,0.53091884,-0.84680665,-0.03506322,0.8473294,0.5299089,0.99886274,0.012572277,0.04598995,0.2558828,0.40005878,-0.88004375,-0.12286625,0.9164274,0.38087365,0.958868,0.010668668,0.2836517,0.09980774,0.008377075,0.04219055,9.795425,0.123291016,0.45100403,-0.014907837,0.007461548,-0.0010681152,-26.747131,9.118652,4.6966553,0,0.0,0.0,0.0,0.0
0.421569824,0.03235354,0.5310225,-0.8467399,-0.035099275,0.8472645,0.5300104,0.99886006,0.012572243,0.046050508,0.25193512,0.40231538,-0.88015395,-0.12225534,0.9154351,0.3834479,0.9599908,0.010999538,0.27981544,-0.0055389404,-0.010772705,0.12779236,9.795425,0.123291016,0.45159912,0.008514404,0.012771606,-0.0021209717,-26.747131,9.118652,4.6966553,0,0.0,0.0,0.0,0.0
0.426422119,0.035442892,0.45089376,-0.8918736,-0.031976737,0.8924891,0.44993415,0.99886006,0.012572243,0.046050508,0.24738623,0.40498266,-0.880221,-0.12118172,0.91425776,0.38658455,0.96130896,0.0110309925,0.2752513,0.04234314,0.013168335,0.012863159,9.795425,0.123291016,0.45159912,0.010650635,0.015960693,0.0032043457,-28.89862,10.194397,4.005432,0,0.0,0.0,0.0,0.0
0.431304932,0.03543047,0.45086458,-0.891889,-0.032036677,0.892503,0.44990233,0.9988585,0.012632906,0.046065997,0.2431518,0.40591156,-0.88097274,-0.11965482,0.9138454,0.3880326,0.96257985,0.011061818,0.27077243,0.0471344,0.165802,0.03187561,9.795425,0.12388611,0.4517517,-0.0021362305,0.0,0.0010681152,-28.89862,10.194397,4.005432,0,0.0,0.0,0.0,0.0
0.436157227,0.035442337,0.4508924,-0.8918743,-0.0320793,0.8924885,0.44992808,0.9988568,0.012664201,0.0460962,0.23899995,0.40682086,-0.88168913,-0.118148774,0.9134406,0.38944465,0.9638049,0.011093241,0.26637766,-0.010177612,0.041000366,0.093826294,9.795273,0.124191284,0.45204163,-0.011703491,-0.012786865,-0.010650635,-28.89862,10.194397,4.005432,0,0.0,0.0,0.0,0.0
0.441009522,0.036994983,0.40441304,-0.91382796,-0.030175665,0.91448903,0.403484,0.99885976,0.012648482,0.046034936,0.23492971,0.40771222,-0.8823712,-0.1166636,0.9130427,0.390823,0.96498585,0.011124661,0.26206604,0.08543396,-0.006729126,-0.1306305,9.795425,0.1240387,0.45144653,0.012771606,0.010635376,0.01171875,-27.28424,10.374451,3.4866333,0,0.0,0.0,0.0,0.0
0.445892334,0.036975916,0.4043696,-0.91384786,-0.030181859,0.9145079,0.40344048,0.9988603,0.012664048,0.046019398,0.23105675,0.4076463,-0.8834236,-0.114959955,0.9130718,0.3912597,0.9661247,0.011155138,0.2578344,0.09980774,0.017059326,-0.063446045,9.795425,0.124191284,0.45129395,-0.013839722,-0.007461548,0.0010681152,-27.28424,10.374451,3.4866333,0,0.0,0.0,0.0,0.0
0.450744629,0.03696987,0.40435585,-0.91385424,-0.030161452,0.9145143,0.40342772,0.99886113,0.0126485,0.046005435,0.22725633,0.4075808,-0.88443905,-0.11328873,0.9131006,0.39167958,0.96722287,0.011185316,0.2536822,0.02796936,-0.021102905,-0.010635376,9.795425,0.1240387,0.45115662,0.004257202,-0.012786865,-0.0095825195,-27.28424,10.374451,3.4866333,0,0.0,0.0,0.0,0.0
0.455596924,0.03407006,0.48594415,-0.8733256,-0.03340233,0.8738984,0.48495978,0.99886113,0.0126485,0.046005435,0.22352758,0.40751636,-0.8854185,-0.11164908,0.9131291,0.39208394,0.9682819,0.011214579,0.24960835,0.0758667,-0.030670166,-0.029785156,9.795425,0.1240387,0.45115662,-0.010650635,-0.010650635,-0.003189087,-26.92566,10.015869,4.522705,0,0.0,0.0,0.0,0.0
0.460479736,0.034081366,0.4859683,-0.87331176,-0.033410046,0.8738849,0.4849834,0.9988604,0.01264849,0.046019405,0.21966827,0.40911773,-0.88564587,-0.110441625,0.9124124,0.39408925,0.9693031,0.011243258,0.24561167,-0.03427124,-0.0019378662,0.041900635,9.795425,0.1240387,0.45129395,0.012771606,0.0,-0.0021209717,-26.92566,10.015869,4.522705,0,0.0,0.0,0.0,0.0
0.465087891,0.034058217,0.48591882,-0.87334,-0.033360466,0.8739128,0.48493654,0.998863,0.012618959,0.0459744,0.2158874,0.41068628,-0.8858496,-0.10924393,0.91170704,0.39605057,0.9702878,0.011271362,0.24169104,0.0758667,-0.05911255,-0.1013031,9.795425,0.12374878,0.45085144,0.003189087,0.0021362305,0.0010681152,-26.92566,10.015869,4.522705,0,0.0,0.0,0.0,0.0
0.469665527,0.035711344,0.43987584,-0.89734834,-0.03161501,0.8979689,0.43892187,0.9988619,0.012695188,0.04597435,0.21218295,0.4122213,-0.88603157,-0.1080551,0.91101366,0.39796755,0.9712376,0.011298314,0.23784418,0.00881958,0.17956543,-7.4768066E-4,9.795425,0.12449646,0.45085144,-0.006378174,0.010635376,-0.0010681152,-26.92566,9.298706,3.4866333,0,0.0,0.0,0.0,0.0
0.474273682,0.035730492,0.43992245,-0.8973246,-0.03160972,0.8979462,0.4389685,0.99886143,0.0126796225,0.04598989,0.20866418,0.41277832,-0.8866077,-0.10666124,0.9107611,0.3989205,0.9721536,0.011326252,0.23407066,-7.4768066E-4,-0.050125122,0.03262329,9.795425,0.12434387,0.45100403,-0.0021362305,-0.003189087,-0.0095825195,-26.92566,9.298706,3.4866333,0,0.0,0.0,0.0,0.0
0.478881836,0.035767764,0.44001314,-0.8972787,-0.0316331,0.8979019,0.43905774,0.9988594,0.012679596,0.046034917,0.20521484,0.41332492,-0.88715804,-0.10528968,0.91051286,0.39985058,0.973037,0.0113533195,0.2303696,-0.0103302,0.026489258,0.11836243,9.795425,0.12434387,0.45144653,0.0010528564,-0.0021362305,0.0010681152,-26.92566,9.298706,3.4866333,0,0.0,0.0,0.0,0.0
0.482879639,0.035793215,0.44007504,-0.89724725,-0.031614468,0.8978719,0.43912023,0.9988591,0.0126484735,0.046050467,0.20183374,0.41386232,-0.887683,-0.10394086,0.91026837,0.40075904,0.9738888,0.0113798445,0.22674008,-0.01512146,-0.088134766,0.0368042,9.795425,0.1240387,0.45159912,0.008514404,-0.012786865,-0.003189087,-26.92566,9.298706,3.4866333,0,0.0,0.0,0.0,0.0
0.486846924,0.035793465,0.44007567,-0.8972471,-0.03164923,0.8978712,0.4391192,0.9988579,0.012679579,0.04606597,0.1975855,0.41401774,-0.8885659,-0.10219319,0.91019624,0.401372,0.9749444,0.011500109,0.22215134,0.0184021,0.0552063,0.06059265,9.795425,0.12434387,0.4517517,0.006378174,-0.015975952,0.0,-26.92566,9.298706,3.4866333,0,0.0,0.0,0.0,0.0
0.490844727,0.035780612,0.4400444,-0.8972629,-0.031641163,0.8978864,0.43908843,0.9988586,0.012679587,0.04605044,0.19435416,0.41454232,-0.88903385,-0.100897096,0.90995705,0.4022411,0.9757286,0.011523698,0.21868005,0.06149292,0.03126526,-0.05895996,9.795425,0.12434387,0.45159912,-0.008514404,-0.008529663,0.007461548,-26.92566,9.298706,3.4866333,0,0.0,0.0,0.0,0.0
0.494842529,0.029275607,0.5985482,-0.8005518,-0.03770795,0.80098623,0.59749407,0.9988598,0.012695163,0.04601938,0.19118643,0.41505566,-0.88948107,-0.099621885,0.9097228,0.40308806,0.97648513,0.011546816,0.21527527,0.07107544,0.02154541,-0.077804565,9.795425,0.12449646,0.45129395,-0.0032043457,-0.003189087,-0.0021209717,-27.642822,7.86438,4.8690796,0,0.0,0.0,0.0,0.0
0.498809815,0.029297989,0.59860164,-0.800511,-0.037728466,0.80094635,0.59754634,0.9988584,0.012695144,0.046050433,0.18771312,0.4189401,-0.8883991,-0.099066794,0.90794015,0.40722284,0.97721523,0.011569784,0.21193533,0.03755188,0.011962891,0.0942688,9.795425,0.12449646,0.45159912,0.0053253174,-0.0053253174,0.0032043457,-27.642822,7.86438,4.8690796,0,0.0,0.0,0.0,0.0
0.502807617,0.029279266,0.5985569,-0.80054504,-0.037728757,0.80097944,0.5975018,0.998859,0.012709155,0.0460349,0.1843157,0.42274067,-0.88730943,-0.09849523,0.90617657,0.41126966,0.97791946,0.01159229,0.20866051,0.09980774,0.016616821,-0.030075073,9.795425,0.12463379,0.45144653,-0.008514404,-0.004257202,0.007461548,-27.642822,7.86438,4.8690796,0,0.0,0.0,0.0,0.0
0.50680542,0.037423108,0.39064944,-0.9197786,-0.029625572,0.92045254,0.3897303,0.9988603,0.012664048,0.046019398,0.18099178,0.42645702,-0.8862146,-0.09790804,0.9044332,0.41522828,0.97859895,0.011614628,0.20544857,-0.0055389404,-0.09786987,-0.044281006,9.795425,0.124191284,0.45129395,0.004257202,-0.0021362305,0.0,-28.361511,9.298706,2.7954102,0,0.0,0.0,0.0,0.0
0.510803223,0.037379354,0.39053157,-0.9198304,-0.029617548,0.92050225,0.38961324,0.9988621,0.012679631,0.04597436,0.17820606,0.42574713,-0.88712007,-0.09645015,0.90476733,0.41484138,0.9792548,0.0116356155,0.2022984,0.09501648,0.021697998,-0.1013031,9.795425,0.12434387,0.45085144,0.0010528564,-0.0095825195,-0.007446289,-28.361511,9.298706,2.7954102,0,0.0,0.0,0.0,0.0
0.514770508,0.0372855,0.39027867,-0.9199415,-0.029613122,0.9206089,0.3893616,0.99886584,0.012724802,0.045882728,0.1754714,0.4250489,-0.8879996,-0.09502421,0.90509534,0.41445485,0.97988784,0.011656497,0.19920827,0.07107544,0.07392883,-0.004638672,9.795425,0.12478638,0.44995117,0.0021209717,-0.015975952,0.0053253174,-28.361511,9.298706,2.7954102,0,0.0,0.0,0.0,0.0
0.518768311,0.03760853,0.3806861,-0.9239392,-0.029182186,0.9246174,0.37977767,0.9988664,0.012679686,0.045882754,0.1727863,0.42435935,-0.8888555,-0.093629204,0.9054186,0.4140662,0.9804991,0.011677862,0.19617635,0.04234314,-0.1219635,0.019302368,9.795425,0.12434387,0.44995117,0.0095825195,-0.022369385,-0.004257202,-29.078674,9.657288,2.7954102,0,0.0,0.0,0.0,0.0
0.522766113,0.037640482,0.38077173,-0.92390263,-0.029183086,0.9245823,0.37986287,0.99886507,0.0126641095,0.045913815,0.17017092,0.42349502,-0.88977176,-0.09222909,0.9058229,0.41349566,0.98108906,0.011697899,0.19320329,-0.03427124,-0.026031494,0.09082031,9.795425,0.124191284,0.45025635,0.008514404,-0.0095825195,-0.004257202,-29.078674,9.657288,2.7954102,0,0.0,0.0,0.0,0.0
0.526763916,0.037703056,0.38093942,-0.923831,-0.029184178,0.92451364,0.3800299,0.9988627,0.0126329595,0.04597439,0.16760431,0.4226493,-0.89066064,-0.09086135,0.9062176,0.41293332,0.9816583,0.011717223,0.19028845,0.06628418,-0.08319092,0.1668396,9.795425,0.12388611,0.45085144,-0.0053253174,-0.003189087,0.007461548,-29.078674,9.657288,2.7954102,0,0.0,0.0,0.0,0.0
0.530731201,0.03178865,0.54211515,-0.8397028,-0.03556587,0.8402089,0.54109544,0.9988616,0.012664065,0.045989897,0.16508621,0.4218234,-0.89152205,-0.089525454,0.9066021,0.41238078,0.9822076,0.011735538,0.18743144,-0.05342102,0.055358887,0.018249512,9.795425,0.124191284,0.45100403,0.01171875,0.004257202,-0.014907837,-26.92566,9.657288,5.215454,0,0.0,0.0,0.0,0.0
0.534729004,0.031697214,0.54192746,-0.8398273,-0.03545787,0.84033036,0.5409138,0.9988684,0.012633031,0.045851726,0.16229255,0.42431515,-0.8908523,-0.08881268,0.9054383,0.4150829,0.9827377,0.011754109,0.18463047,0.05192566,-0.05445862,-0.100097656,9.795425,0.12388611,0.449646,0.0053253174,-0.008529663,-0.015975952,-26.92566,9.657288,5.215454,0,0.0,0.0,0.0,0.0
0.539642334,0.03168946,0.5419116,-0.8398379,-0.035470344,0.84034044,0.5408974,0.9988682,0.012648589,0.04585172,0.15955661,0.42674994,-0.89018315,-0.08809676,0.90429306,0.41772363,0.98325,0.011771687,0.18188123,0.03276062,0.036361694,0.0052490234,9.795425,0.1240387,0.449646,-0.0095825195,-0.022369385,0.0010681152,-26.92566,9.657288,5.215454,0,0.0,0.0,0.0,0.0
0.544555664,0.03407415,0.48229977,-0.87534326,-0.03318613,0.87591493,0.4813229,0.9988682,0.012648589,0.04585172,0.15687893,0.42913267,-0.88951343,-0.08738105,0.9031645,0.42030752,0.9837447,0.011789225,0.17918555,-0.0055389404,0.045944214,0.024398804,9.795425,0.1240387,0.449646,0.0095825195,-0.0095825195,0.0063934326,-27.464294,9.835815,4.350281,0,0.0,0.0,0.0,0.0
0.549499512,0.034067236,0.48228437,-0.87535214,-0.03319915,0.8759233,0.481307,0.998868,0.012664147,0.04585171,0.15687893,0.42913267,-0.88951343,-0.08738105,0.9031645,0.42030752,0.9837447,0.011789225,0.17918555,-0.0055389404,0.045791626,0.024398804,9.795425,0.124191284,0.449646,0.0095825195,-0.0095825195,0.0063934326,-27.464294,9.835815,4.350281,0,0.0,0.0,0.0,0.0
0.554412842,0.033942375,0.48200575,-0.8755104,-0.03318317,0.8760757,0.4810305,0.99887276,0.01272489,0.04573056,0.15140453,0.43144673,-0.88934267,-0.08567271,0.9020567,0.42302945,0.9847522,0.012143814,0.17353868,0.05192566,0.049987793,0.01600647,9.795425,0.12478638,0.4484558,-0.0021362305,-0.0063934326,-0.0053253174,-27.464294,9.835815,4.350281,0,0.0,0.0,0.0,0.0
0.559326172,0.03322326,0.50029624,-0.8652167,-0.033791937,0.8657619,0.49931392,0.99887645,0.012648516,0.045669407,0.14901388,0.4324721,-0.8892484,-0.0847635,0.9015653,0.42425823,0.9851954,0.012155436,0.1710036,-8.8500977E-4,-0.059402466,0.06448364,9.795563,0.1240387,0.44786072,0.013839722,-0.028762817,-0.008514404,-27.642822,9.657288,4.522705,0,0.0,0.0,0.0,0.0
0.564239502,0.033246763,0.50034887,-0.8651854,-0.033808697,0.86573154,0.49936557,0.9988752,0.0126485005,0.045698915,0.14663666,0.43385488,-0.88896996,-0.0839265,0.9009006,0.42583376,0.98562366,0.012165298,0.16851698,-8.8500977E-4,0.017211914,0.064193726,9.795563,0.1240387,0.44815063,-0.011703491,-0.019180298,0.0138549805,-27.642822,9.657288,4.522705,0,0.0,0.0,0.0,0.0
0.56918335,0.033283874,0.50043184,-0.8651358,-0.03383515,0.8656835,0.49944693,0.9988731,0.0126484735,0.045745496,0.1443094,0.4352101,-0.8886883,-0.083099306,0.9002466,0.42737636,0.9860372,0.012174961,0.1660797,-0.015258789,-0.006729126,0.10684204,9.795563,0.1240387,0.4486084,0.0,0.0053253174,0.009597778,-27.642822,9.657288,4.522705,0,0.0,0.0,0.0,0.0
0.57409668,0.03335012,0.49911273,-0.8658951,-0.033758823,0.8664453,0.49812964,0.9988735,0.012618915,0.04574551,0.14203107,0.43653902,-0.8884036,-0.08228217,0.89960283,0.42888743,0.9864365,0.012184431,0.16369094,-0.020050049,-0.07347107,0.011077881,9.795563,0.12374878,0.4486084,-0.004272461,-0.007461548,-0.0021209717,-27.105713,8.760071,4.005432,0,0.0,0.0,0.0,0.0
0.57901001,0.03335012,0.49911273,-0.8658951,-0.033758823,0.8664453,0.49812964,0.9988735,0.012618915,0.04574551,0.13980296,0.437813,-0.88813007,-0.0814698,0.8989834,0.4303389,0.98682207,0.012193121,0.16134907,0.09967041,-0.0016479492,0.011077881,9.795563,0.12374878,0.4486084,0.0095825195,-0.0063934326,-0.0021209717,-27.105713,8.760071,4.005432,0,0.0,0.0,0.0,0.0
0.58392334,0.03327234,0.49892333,-0.8660072,-0.033684704,0.8665545,0.49794447,0.99887854,0.012603419,0.04563838,0.13762112,0.43906066,-0.8878548,-0.08066726,0.89837456,0.43175912,0.9871946,0.012201636,0.15905313,0.08050537,-0.03981018,-0.0118255615,9.795563,0.12359619,0.44755554,-0.006378174,-0.015975952,-0.0021209717,-27.105713,8.760071,4.005432,0,0.0,0.0,0.0,0.0
0.588531494,0.03568574,0.43343988,-0.9004756,-0.031069223,0.90109515,0.4325068,0.99887997,0.012542754,0.045622885,0.13548318,0.44027862,-0.88758045,-0.079872824,0.89777815,0.43314514,0.98755485,0.012209672,0.15680014,0.05656433,-0.14454651,-0.049972534,9.795563,0.1230011,0.44740295,-0.010650635,-0.022369385,0.0010681152,-27.105713,10.5529785,4.005432,0,0.0,0.0,0.0,0.0
0.592803955,0.03567401,0.43341455,-0.90048826,-0.031062173,0.90110725,0.4324819,0.99888057,0.012542761,0.045608908,0.133507,0.44014207,-0.88794756,-0.07888956,0.89784503,0.43318668,0.987903,0.012216333,0.15459122,-8.8500977E-4,-0.0056915283,-0.030685425,9.795563,0.1230011,0.44726563,0.015975952,-0.01171875,-0.012771606,-27.105713,10.5529785,4.005432,0,0.0,0.0,0.0,0.0
0.597076416,0.0356222,0.4333027,-0.9005442,-0.030962102,0.9011621,0.43237522,0.9988856,0.012480585,0.045517337,0.1315692,0.44000775,-0.8883033,-0.07792598,0.89791083,0.43322483,0.9882394,0.012222862,0.15242544,0.05178833,-0.06254578,0.018096924,9.795563,0.12239075,0.44636536,0.0095825195,-0.0053253174,-0.003189087,-27.105713,10.5529785,4.005432,0,0.0,0.0,0.0,0.0
0.601348877,0.03317253,0.50082874,-0.8649104,-0.03361919,0.86545616,0.4998553,0.9988841,0.012496126,0.04554683,0.12966833,0.4398739,-0.888649,-0.07697965,0.89797634,0.43325824,0.9885647,0.012228017,0.15030043,0.013473511,0.028289795,0.06568909,9.795563,0.122543335,0.44665527,0.022369385,-0.022369385,0.007461548,-27.822876,8.760071,4.005432,0,0.0,0.0,0.0,0.0
0.605621338,0.03320538,0.5009108,-0.86486167,-0.03359108,0.8654093,0.49993828,0.99888384,0.012451,0.04556238,0.12768869,0.44111457,-0.8883206,-0.07624822,0.8973675,0.43464687,0.9888791,0.012233378,0.14821787,-0.02961731,-0.1149292,0.0655365,9.795563,0.12210083,0.44680786,0.0010528564,-0.020233154,-0.008514404,-27.822876,8.760071,4.005432,0,0.0,0.0,0.0,0.0
0.609893799,0.03320415,0.5009077,-0.8648635,-0.03362429,0.8654107,0.4999337,0.99888283,0.01248055,0.045577895,0.12575081,0.4423313,-0.88799196,-0.0755255,0.8967683,0.43600762,0.98918283,0.012237731,0.14617664,0.01826477,0.06674194,0.01272583,9.795563,0.12239075,0.44696045,0.019165039,-0.014907837,0.0,-27.822876,8.760071,4.005432,0,0.0,0.0,0.0,0.0
0.61416626,0.03388125,0.48142397,-0.87583274,-0.032836575,0.87639904,0.48046497,0.99888635,0.012480594,0.04550181,0.12385323,0.44352284,-0.88766426,-0.07481257,0.89617944,0.4373391,0.9894764,0.012242587,0.14417581,0.04699707,0.004501343,-0.17807007,9.795563,0.12239075,0.44621277,0.0053253174,0.0,-0.010650635,-28.54004,10.5529785,4.6966553,0,0.0,0.0,0.0,0.0
0.618438721,0.03388125,0.48142397,-0.87583274,-0.032836575,0.87639904,0.48046497,0.99888635,0.012480594,0.04550181,0.12202714,0.44428906,-0.8875341,-0.07405367,0.8957998,0.43824515,0.98976034,0.012247346,0.1422131,0.05178833,-0.024230957,-0.015258789,9.795563,0.12239075,0.44621277,0.0053253174,0.008514404,0.009597778,-28.54004,10.5529785,4.6966553,0,0.0,0.0,0.0,0.0
0.622711182,0.03386865,0.4813968,-0.8758482,-0.032828063,0.87641394,0.48043835,0.99888706,0.0124806035,0.045486283,0.12055063,0.44536036,-0.88719875,-0.07299118,0.895274,0.43949607,0.99002016,0.011776159,0.14043322,0.03741455,-0.0050811768,-0.02947998,9.795563,0.12239075,0.44606018,-0.006378174,0.0021362305,0.0063934326,-28.54004,10.5529785,4.6966553,0,0.0,0.0,0.0,0.0
0.626983643,0.029233666,0.59363985,-0.8041996,-0.037024815,0.80463445,0.59261495,0.9988867,0.012451035,0.045501824,0.11879261,0.44608852,-0.8870701,-0.072261624,0.89491117,0.44035468,0.9902861,0.011790248,0.13854392,0.04699707,-0.04310608,0.06135559,9.795563,0.12210083,0.44621277,0.003189087,-0.0010681152,0.0010681152,-28.001404,7.5057983,4.522705,0,0.0,0.0,0.0,0.0
0.631256104,0.029256037,0.5936973,-0.8041564,-0.037045315,0.8045921,0.5926712,0.9988852,0.012451016,0.04553288,0.11687992,0.44918588,-0.88576025,-0.07185527,0.8933604,0.44355845,0.99054325,0.011803464,0.13669226,-0.010467529,-0.014373779,0.084991455,9.795563,0.12210083,0.44651794,0.006378174,0.0010681152,-0.003189087,-28.001404,7.5057983,4.522705,0,0.0,0.0,0.0,0.0
0.635528565,0.029256037,0.5936973,-0.8041564,-0.037045315,0.8045921,0.5926712,0.9988852,0.012451016,0.04553288,0.11500968,0.45221734,-0.8844616,-0.07144524,0.89182955,0.4466942,0.9907918,0.011816415,0.1348778,-0.03919983,-0.02394104,-0.025146484,9.795563,0.12210083,0.44651794,-0.014907837,0.004257202,0.0032043457,-28.001404,7.5057983,4.522705,0,0.0,0.0,0.0,0.0
0.639801025,0.030848179,0.5580094,-0.82926106,-0.035753608,0.82974106,0.5570023,0.99888444,0.012466567,0.04554685,0.11318046,0.45518306,-0.88317525,-0.07103166,0.8903193,0.44976223,0.9910321,0.011829107,0.13309915,0.05178833,0.062088013,0.056121826,9.795563,0.12225342,0.44665527,-0.0021362305,0.0063934326,-0.0063934326,-28.001404,9.298706,5.215454,0,0.0,0.0,0.0,0.0
0.644073486,0.03088378,0.5580867,-0.82920766,-0.035726435,0.8296896,0.55708045,0.99888426,0.012419885,0.0455624,0.111453086,0.4573082,-0.8822967,-0.07051816,0.8892294,0.4519936,0.9912646,0.011841856,0.1313559,-0.0056762695,-0.11941528,0.05117798,9.795563,0.121795654,0.44680786,0.0095825195,0.010635376,-0.0021209717,-28.001404,9.298706,5.215454,0,0.0,0.0,0.0,0.0
0.648345947,0.030867906,0.5580522,-0.82923144,-0.035750944,0.82971233,0.557045,0.99888384,0.012451,0.04556238,0.109763525,0.45938995,-0.8814266,-0.070006646,0.8881556,0.45417917,0.9914893,0.011853416,0.12964745,0.11402893,0.07661438,-0.006286621,9.795563,0.12210083,0.44680786,0.0053253174,-0.01171875,0.010650635,-28.001404,9.298706,5.215454,0,0.0,0.0,0.0,0.0
0.652618408,0.034428105,0.4679027,-0.8831092,-0.032320835,0.88369215,0.4669515,0.99888444,0.012466567,0.04554685,0.10811013,0.4614269,-0.88056654,-0.06949832,0.88709885,0.4563174,0.9917067,0.011865368,0.12797277,-0.02961731,0.014205933,-0.034866333,9.795563,0.12225342,0.44665527,0.0021209717,0.003189087,-0.007446289,-27.822876,10.91156,4.6966553,0,0.0,0.0,0.0,0.0
0.656890869,0.034391075,0.46782628,-0.8831511,-0.03229683,0.88373256,0.4668766,0.99888647,0.012466592,0.045501817,0.10663678,0.4615567,-0.8806782,-0.06876907,0.88703126,0.4565594,0.991917,0.0118773915,0.12633097,0.027832031,0.018997192,-0.12539673,9.795563,0.12225342,0.44621277,-0.006378174,0.003189087,0.0021362305,-27.822876,10.91156,4.6966553,0,0.0,0.0,0.0,0.0
0.66116333,0.034404606,0.4678542,-0.8831358,-0.032270443,0.8837182,0.4669056,0.9988869,0.012435478,0.045501836,0.105192244,0.46168226,-0.88078606,-0.06805324,0.8869657,0.45679384,0.9921206,0.0118891755,0.12472088,0.10444641,-0.06689453,0.008682251,9.795563,0.12194824,0.44621277,0.007446289,0.0063934326,-0.0021209717,-27.822876,10.91156,4.6966553,0,0.0,0.0,0.0,0.0
0.665435791,0.0349714,0.4521052,-0.8912788,-0.03168983,0.8918775,0.45116547,0.99888575,0.012466583,0.045517344,0.103776716,0.4618059,-0.8808891,-0.067350656,0.88690114,0.45702317,0.9923176,0.011900101,0.12314263,0.08050537,0.057296753,0.022888184,9.795563,0.12225342,0.44636536,-0.0032043457,0.012771606,-0.0010681152,-27.642822,10.374451,4.1778564,0,0.0,0.0,0.0,0.0
0.669708252,0.034990776,0.4521478,-0.8912564,-0.031684637,0.8918561,0.45120808,0.9988852,0.012451016,0.04553288,0.10241301,0.46161243,-0.8811501,-0.06662593,0.8870017,0.45693424,0.99250823,0.011911431,0.12159589,0.09967041,-0.05267334,0.075408936,9.795563,0.12210083,0.44651794,0.0,0.014892578,-0.0010681152,-27.642822,10.374451,4.1778564,0,0.0,0.0,0.0,0.0
0.673980713,0.035008863,0.45218757,-0.8912355,-0.031678643,0.89183617,0.45124796,0.99888486,0.012435452,0.045546867,0.1010764,0.46142367,-0.88140327,-0.065916084,0.88709986,0.45684677,0.99269265,0.011922223,0.120080106,-0.05355835,-0.03816223,0.017807007,9.795563,0.12194824,0.44665527,-0.0095825195,0.0063934326,-0.0095825195,-27.642822,10.374451,4.1778564,0,0.0,0.0,0.0,0.0
0.678253174,0.03255677,0.515691,-0.8561559,-0.034150206,0.85668385,0.51471037,0.99888635,0.012480594,0.04550181,0.09976628,0.46123943,-0.88164896,-0.06522076,0.8871955,0.45676082,0.99287105,0.011932487,0.11859458,0.027832031,0.12420654,-0.13018799,9.795563,0.12239075,0.44621277,0.0021209717,0.0010681152,0.0010681152,-28.89862,10.194397,5.041504,0,0.0,0.0,0.0,0.0
0.682525635,0.032520764,0.51561284,-0.8562043,-0.034123525,0.85673076,0.51463383,0.9988884,0.012480426,0.04545607,0.09838688,0.46234673,-0.8812239,-0.064683065,0.8866188,0.4579555,0.99304384,0.011943448,0.117137656,-0.029769897,0.004501343,-0.10101318,9.795715,0.12239075,0.44577026,0.013839722,0.0063934326,-0.008514404,-28.89862,10.194397,5.041504,0,0.0,0.0,0.0,0.0
0.686798096,0.03254939,0.515675,-0.85616577,-0.034162916,0.85669315,0.51469386,0.9988861,0.012496151,0.0455018,0.097064696,0.46300521,-0.8810248,-0.064247295,0.8862732,0.45868516,0.99320227,0.012081325,0.11577268,0.0038909912,0.037857056,0.10923767,9.795563,0.122543335,0.44621277,0.007446289,0.0010681152,-0.0010681152,-28.89862,10.194397,5.041504,0,0.0,0.0,0.0,0.0
0.691070557,0.03256902,0.5157176,-0.85613936,-0.034159213,0.8566677,0.5147364,0.9988856,0.012480585,0.045517337,0.09574129,0.46407583,-0.8806062,-0.06372337,0.885713,0.45983896,0.99336445,0.012089622,0.11437177,0.03741455,-0.043395996,0.032470703,9.795563,0.12239075,0.44636536,-0.007446289,0.003189087,0.004272461,-28.89862,10.194397,5.041504,0,0.0,0.0,0.0,0.0
0.695343018,0.032544512,0.5156644,-0.8561723,-0.034141205,0.8566998,0.5146844,0.99888706,0.0124806035,0.045486283,0.094445854,0.46512526,-0.88019234,-0.06320674,0.88516223,0.4609694,0.99352145,0.012097441,0.11299895,0.008682251,-2.89917E-4,-0.05342102,9.795563,0.12239075,0.44606018,0.0010528564,0.004257202,0.0032043457,-28.89862,10.194397,5.041504,0,0.0,0.0,0.0,0.0
0.699615479,0.03258792,0.51575863,-0.856114,-0.03415678,0.85664326,0.5147773,0.99888504,0.012466574,0.04553287,0.09317704,0.46615195,-0.87978435,-0.06269705,0.8846219,0.46207494,0.99367356,0.0121051045,0.1116528,0.027832031,-0.038467407,0.123291016,9.795563,0.12225342,0.44651794,-0.004272461,0.007461548,0.0053253174,-28.89862,10.194397,5.041504,0,0.0,0.0,0.0,0.0
0.70388794,0.032274235,0.52401036,-0.85110027,-0.03449736,0.85162055,0.52302253,0.99888355,0.01248056,0.045562368,0.09193551,0.46715942,-0.8793804,-0.062195048,0.8840901,0.46315917,0.9938207,0.012112333,0.11033428,-0.03919983,0.047592163,0.0655365,9.795563,0.12239075,0.44680786,-0.007446289,0.008514404,0.009597778,-26.747131,9.835815,5.041504,0,0.0,0.0,0.0,0.0
0.7081604,0.032263882,0.523989,-0.8511137,-0.034544393,0.85163283,0.52299917,0.99888223,0.012527223,0.045577865,0.0907084,0.46831694,-0.878892,-0.061718397,0.8834774,0.46439043,0.9939632,0.012119698,0.10904259,-0.02961731,0.08543396,0.05102539,9.795563,0.12284851,0.44696045,0.018096924,0.0,0.0053253174,-26.747131,9.835815,5.041504,0,0.0,0.0,0.0,0.0
0.712432861,0.032280803,0.52402383,-0.85109174,-0.034575194,0.8516113,0.5230323,0.99888057,0.012542761,0.045608908,0.08950684,0.46945006,-0.8784105,-0.061249055,0.8828757,0.4655953,0.9941011,0.012127849,0.10777679,0.09008789,0.056549072,0.079452515,9.795563,0.1230011,0.44726563,0.008514404,-0.0063934326,-0.0021209717,-26.747131,9.835815,5.041504,0,0.0,0.0,0.0,0.0
0.716705322,0.033847075,0.48377687,-0.8745367,-0.03307984,0.87510085,0.48280868,0.9988794,0.0125878705,0.04562286,0.08833086,0.47056052,-0.87793535,-0.06078675,0.8822842,0.4667756,0.9942347,0.012136147,0.10653676,-8.8500977E-4,0.104003906,0.041000366,9.795563,0.1234436,0.44740295,0.0095825195,-0.0138549805,-0.003189087,-28.181458,9.835815,4.350281,0,0.0,0.0,0.0,0.0
0.720977783,0.033828888,0.4837353,-0.8745604,-0.033085093,0.87512374,0.4827671,0.9988799,0.012603437,0.045608878,0.08723548,0.4708259,-0.8779026,-0.06025042,0.8821426,0.46711287,0.9943641,0.012145181,0.10532159,0.03262329,0.06074524,-0.064193726,9.795563,0.12359619,0.44726563,-0.007446289,0.0053253174,0.0032043457,-28.181458,9.835815,4.350281,0,0.0,0.0,0.0,0.0
0.725250244,0.033823293,0.48372248,-0.8745677,-0.033063494,0.87513095,0.48275533,0.9988808,0.012587887,0.04559336,0.086161904,0.4710851,-0.87786955,-0.059724167,0.882004,0.4674419,0.99448943,0.012154347,0.10413032,0.03262329,-0.054016113,-0.040100098,9.795563,0.1234436,0.44711304,0.007446289,-0.0010681152,0.0032043457,-28.181458,9.835815,4.350281,0,0.0,0.0,0.0,0.0
0.729522705,0.032885898,0.5068698,-0.86139506,-0.03390898,0.86193097,0.50589055,0.9988838,0.012572366,0.04553281,0.08510984,0.4713388,-0.877836,-0.059207298,0.88186836,0.4677635,0.9946109,0.012163018,0.102962375,0.05656433,-0.029922485,-0.14485168,9.795563,0.123291016,0.44651794,0.006378174,-0.003189087,-0.003189087,-28.361511,8.9401245,4.1778564,0,0.0,0.0,0.0,0.0
0.733795166,0.032887544,0.50687385,-0.8613927,-0.03396426,0.8619279,0.50589204,0.9988818,0.01261902,0.045562286,0.0840468,0.47205728,-0.8775523,-0.058744073,0.8814838,0.468546,0.9947287,0.012171204,0.10181646,-0.11102295,0.08932495,0.08470154,9.795563,0.12374878,0.44680786,-0.006378174,0.017028809,-0.0021209717,-28.361511,8.9401245,4.1778564,0,0.0,0.0,0.0,0.0
0.738189697,0.03291914,0.50695205,-0.8613455,-0.033969563,0.8618822,0.50596964,0.99888057,0.012603445,0.04559335,0.08300585,0.47276118,-0.87727237,-0.05828955,0.8811064,0.46931207,0.9948428,0.012180161,0.10069402,0.15234375,-0.03981018,0.07002258,9.795563,0.12359619,0.44711304,0.01171875,0.009567261,0.0010681152,-28.361511,8.9401245,4.1778564,0,0.0,0.0,0.0,0.0
0.742584229,0.03489503,0.4532615,-0.8906943,-0.03190379,0.8912881,0.45231375,0.99888164,0.012633022,0.04556228,0.081986904,0.47345233,-0.87699544,-0.057842597,0.88073516,0.47006372,0.99495345,0.012188626,0.09959446,0.03741455,0.07003784,-0.05895996,9.795563,0.12388611,0.44680786,0.0,0.009567261,-0.0063934326,-27.642822,9.657288,3.831482,0,0.0,0.0,0.0,0.0
0.747009277,0.034932908,0.45335117,-0.8906472,-0.031895023,0.89124286,0.4524034,0.99888057,0.012603445,0.04559335,0.08105836,0.47305086,-0.8772983,-0.057304,0.8809506,0.4697256,0.9950607,0.012197514,0.09851613,0.027832031,-0.05895996,0.060455322,9.795563,0.12359619,0.44711304,0.003189087,0.0010681152,0.0,-27.642822,9.657288,3.831482,0,0.0,0.0,0.0,0.0
0.751403809,0.03492641,0.4533358,-0.8906553,-0.031908277,0.8912505,0.45238748,0.9988804,0.012619003,0.045593344,0.08014855,0.4726591,-0.877593,-0.056776877,0.88116074,0.46939534,0.9951646,0.012205633,0.09745987,0.027832031,0.02229309,0.012573242,9.795563,0.12374878,0.44711304,-0.006378174,0.007461548,-0.003189087,-27.642822,9.657288,3.831482,0,0.0,0.0,0.0,0.0
0.755828858,0.031884126,0.5328307,-0.84562093,-0.034991965,0.84612745,0.5318305,0.9988788,0.0126329865,0.045622833,0.08002199,0.47191226,-0.87800646,-0.056750335,0.8815594,0.46864963,0.9951763,0.012324879,0.09732532,0.0038909912,0.041305542,0.064941406,9.795563,0.12388611,0.44740295,0.006378174,0.013839722,-0.0010681152,-27.822876,9.118652,4.6966553,0,0.0,0.0,0.0,0.0
0.760223389,0.031876557,0.5328134,-0.84563214,-0.035004467,0.8461382,0.5318127,0.99887866,0.012648544,0.045622826,0.07902926,0.4731546,-0.87742746,-0.056381248,0.88089305,0.46994522,0.9952766,0.012331041,0.096293375,-0.10144043,0.036361694,0.026641846,9.795563,0.1240387,0.44740295,0.0095825195,0.0,-0.0010681152,-27.822876,9.118652,4.6966553,0,0.0,0.0,0.0,0.0
0.764648438,0.031881,0.53282356,-0.8456256,-0.035026267,0.8461316,0.53182185,0.99887776,0.012664093,0.045638345,0.07805734,0.4743709,-0.87685764,-0.056017134,0.88023865,0.47121337,0.99537385,0.01233739,0.09528198,0.008682251,0.050582886,0.0073394775,9.795563,0.124191284,0.44755554,-0.010650635,0.017028809,0.0053253174,-27.822876,9.118652,4.6966553,0,0.0,0.0,0.0,0.0
0.769042969,0.035189107,0.44691244,-0.8938853,-0.031758256,0.8944875,0.4459633,0.99887586,0.012695188,0.04566938,0.077105895,0.47556216,-0.87629634,-0.055658117,0.8795955,0.47245517,0.9954682,0.012343924,0.0942909,0.02305603,0.08378601,0.09321594,9.795563,0.12449646,0.44786072,0.0021209717,0.007461548,-0.0021209717,-27.105713,8.760071,3.312683,0,0.0,0.0,0.0,0.0
0.773468018,0.035207562,0.44696027,-0.8938607,-0.031785812,0.89446354,0.44600973,0.9988744,0.012709173,0.045698877,0.07628388,0.47499388,-0.87667644,-0.05515439,0.8799024,0.4719425,0.9955595,0.012350949,0.09332036,0.07572937,0.030975342,0.102508545,9.795563,0.12463379,0.44815063,0.02130127,0.011703491,0.0021362305,-27.105713,8.760071,3.312683,0,0.0,0.0,0.0,0.0
0.777862549,0.035238747,0.44704098,-0.8938191,-0.031790327,0.89442337,0.44608986,0.9988732,0.012695154,0.04572994,0.0754779,0.47443774,-0.8770473,-0.054662313,0.8802023,0.4714403,0.9956481,0.012358114,0.09236968,-0.02961731,-0.04550171,0.05911255,9.795563,0.12449646,0.4484558,0.0095825195,0.0053253174,-0.008514404,-27.105713,8.760071,3.312683,0,0.0,0.0,0.0,0.0
0.782287598,0.03329668,0.50046057,-0.8651188,-0.033844482,0.865667,0.49947506,0.99887234,0.012648641,0.04576166,0.07468794,0.47389418,-0.87740874,-0.05418121,0.88049495,0.47094902,0.9957339,0.012364855,0.09143851,-0.02947998,-0.121658325,0.063583374,9.795425,0.1240387,0.448761,0.003189087,0.015960693,-0.003189087,-27.642822,9.657288,4.522705,0,0.0,0.0,0.0,0.0
0.786682129,0.033300653,0.50046945,-0.8651135,-0.033865266,0.86566156,0.49948293,0.9988715,0.0126641905,0.045775626,0.07384889,0.47442994,-0.8771902,-0.053799782,0.88020635,0.47153193,0.9958172,0.01237053,0.090526484,-0.0103302,0.055358887,0.039505005,9.795425,0.124191284,0.44889832,0.0021209717,0.015960693,0.008529663,-27.642822,9.657288,4.522705,0,0.0,0.0,0.0,0.0
0.791107178,0.033317007,0.50050604,-0.8650917,-0.033928975,0.86563975,0.49951646,0.9988688,0.0127092805,0.045822185,0.07302724,0.47495496,-0.8769748,-0.053425446,0.87992305,0.47210288,0.99589795,0.0123764025,0.08963303,-0.0055389404,0.11717224,0.11566162,9.795425,0.12463379,0.44935608,-0.0010681152,-0.0010681152,0.0,-27.642822,9.657288,4.522705,0,0.0,0.0,0.0,0.0
0.795501709,0.034921188,0.45722058,-0.88866746,-0.03226572,0.8892621,0.4562586,0.9988691,0.012740403,0.045806635,0.07222262,0.47547004,-0.87676233,-0.053058833,0.8796448,0.4726625,0.99597627,0.01238306,0.08875814,0.00881958,-0.0028381348,0.04878235,9.795425,0.124938965,0.4492035,0.007446289,0.0021362305,0.017028809,-27.464294,10.5529785,4.350281,0,0.0,0.0,0.0,0.0
0.79989624,0.03493401,0.45724794,-0.88865286,-0.032273877,0.889248,0.45628545,0.9988684,0.012740394,0.045822162,0.07222262,0.47547004,-0.87676233,-0.053058833,0.8796448,0.4726625,0.99597627,0.01238306,0.08875814,0.00881958,-0.0028381348,0.04862976,9.795425,0.124938965,0.44935608,0.007446289,0.0021362305,0.017028809,-27.464294,10.5529785,4.350281,0,0.0,0.0,0.0,0.0
0.804473877,0.034940235,0.4572612,-0.8886458,-0.03229531,0.889241,0.45629764,0.99886745,0.012755942,0.045837678,0.07076403,0.47475222,-0.8772701,-0.05220782,0.88003224,0.4720357,0.99612594,0.01239721,0.0870604,0.09501648,0.0688324,0.034118652,9.795425,0.12509155,0.44950867,0.014907837,0.011703491,0.0010681152,-27.464294,10.5529785,4.350281,0,0.0,0.0,0.0,0.0
0.809020996,0.033225298,0.5022454,-0.86408657,-0.034036215,0.8646311,0.5012531,0.9988682,0.012755952,0.045822155,0.07005615,0.4744042,-0.8775151,-0.051796325,0.88021976,0.47173122,0.9961974,0.012404384,0.0862372,-0.05821228,-0.017364502,-0.03277588,9.795425,0.12509155,0.44935608,0.003189087,0.003189087,-0.004257202,-28.361511,9.657288,4.522705,0,0.0,0.0,0.0,0.0
0.813568115,0.033225298,0.5022454,-0.86408657,-0.034036215,0.8646311,0.5012531,0.9988682,0.012755952,0.045822155,0.06930896,0.47496584,-0.8772706,-0.051464494,0.8799167,0.47233248,0.9962669,0.012411416,0.08542999,-0.02947998,-0.0029907227,-0.004043579,9.795425,0.12509155,0.44935608,0.017044067,-0.008529663,0.0021362305,-28.361511,9.657288,4.522705,0,0.0,0.0,0.0,0.0
0.818115234,0.033220135,0.50223356,-0.86409366,-0.03401453,0.8646382,0.50124234,0.9988691,0.012740403,0.045806635,0.0685771,0.47551605,-0.87703,-0.051138368,0.87961936,0.47292137,0.9963343,0.0124183055,0.084638864,0.05670166,-0.022003174,-0.027832031,9.795425,0.124938965,0.4492035,-0.0010681152,-0.0063934326,-0.004257202,-28.361511,9.657288,4.522705,0,0.0,0.0,0.0,0.0
0.822662354,0.037049703,0.394843,-0.9180013,-0.029810693,0.9186598,0.39392313,0.99886864,0.012771518,0.045806617,0.06810116,0.4769854,-0.8762689,-0.05110537,0.87882274,0.47440374,0.9963687,0.0124746,0.08422536,0.0806427,0.05909729,9.0026855E-4,9.795425,0.12524414,0.4492035,-0.015975952,0.0053253174,-0.0021209717,-27.464294,9.477234,2.9678345,0,0.0,0.0,0.0,0.0
0.827209473,0.037076075,0.3949101,-0.9179713,-0.02982563,0.91863096,0.3939892,0.9988672,0.012771499,0.04583767,0.06751609,0.47537923,-0.87718654,-0.05062197,0.87969244,0.472841,0.99643314,0.012480537,0.08345802,-0.0103302,-0.01751709,0.053268433,9.795425,0.12524414,0.44950867,0.006378174,0.008514404,0.008529663,-27.464294,9.477234,2.9678345,0,0.0,0.0,0.0,0.0
0.831756592,0.03708794,0.39494026,-0.9179579,-0.029832354,0.918618,0.39401895,0.9988666,0.012771492,0.045851648,0.06694162,0.47380498,-0.8780818,-0.050150827,0.88054127,0.4713088,0.99649566,0.012486357,0.08270656,-7.4768066E-4,0.0016479492,0.038757324,9.795425,0.12524414,0.449646,0.014907837,-0.0063934326,0.0032043457,-27.464294,9.477234,2.9678345,0,0.0,0.0,0.0,0.0
0.836303711,0.035108723,0.4524072,-0.89112014,-0.03211823,0.89172,0.45144632,0.9988672,0.012771499,0.04583767,0.0663774,0.4722613,-0.8789558,-0.04969141,0.88137007,0.46980587,0.99655646,0.01249206,0.081970386,0.09980774,-0.0031433105,-0.023345947,9.795425,0.12524414,0.44950867,0.012771606,-0.0010681152,-0.0053253174,-27.642822,10.374451,4.1778564,0,0.0,0.0,0.0,0.0
0.84085083,0.035107896,0.45240542,-0.8911211,-0.032150812,0.89172053,0.4514431,0.99886626,0.01280105,0.04585163,0.065760314,0.47186652,-0.8792142,-0.049326632,0.8815814,0.4694476,0.9966155,0.012497649,0.081248656,0.01361084,0.07797241,0.053131104,9.795425,0.12553406,0.449646,-0.0021362305,0.0021362305,-0.007446289,-27.642822,10.374451,4.1778564,0,0.0,0.0,0.0,0.0
0.845397949,0.035152476,0.4525034,-0.8910696,-0.03212849,0.8916715,0.45154157,0.99886537,0.0127559155,0.04588271,0.06515512,0.47147948,-0.87946683,-0.048970267,0.8817884,0.4690961,0.9966728,0.012503716,0.0805415,-0.03427124,-0.10354614,0.07197571,9.795425,0.12509155,0.44995117,-0.0053253174,0.0,0.0021362305,-27.642822,10.374451,4.1778564,0,0.0,0.0,0.0,0.0
0.849945068,0.03404968,0.48224518,-0.8753744,-0.03336097,0.87594265,0.48126057,0.9988632,0.012816571,0.045913726,0.06456263,0.47110203,-0.87971276,-0.048621215,0.88199,0.46875322,0.9967284,0.01250876,0.07984915,0.09501648,0.14485168,0.09082031,9.795425,0.12568665,0.45025635,0.004257202,-0.004257202,0.007461548,-27.464294,9.835815,4.350281,0,0.0,0.0,0.0,0.0
0.854492188,0.034012035,0.48216116,-0.87542206,-0.033335287,0.8759888,0.48117813,0.9988653,0.012816598,0.045867145,0.06394919,0.47132564,-0.8796378,-0.04832404,0.88187045,0.46900883,0.9967825,0.012514916,0.07917126,0.03276062,0.0059814453,-0.13856506,9.795425,0.12568665,0.44979858,0.0053253174,0.007461548,0.0010681152,-27.464294,9.835815,4.350281,0,0.0,0.0,0.0,0.0
0.859039307,0.034017675,0.4821738,-0.8754149,-0.03335687,0.8759816,0.48118973,0.9988644,0.012832146,0.045882665,0.063347384,0.47154307,-0.8795648,-0.048031915,0.88175416,0.46925747,0.996835,0.01252095,0.07850593,0.04234314,0.034561157,0.03845215,9.795425,0.12583923,0.44995117,-0.0010681152,-0.0053253174,-0.003189087,-27.464294,9.835815,4.350281,0,0.0,0.0,0.0,0.0
0.863586426,0.03709374,0.39446446,-0.9181622,-0.029874954,0.9188215,0.39354077,0.99886507,0.012832155,0.045867134,0.06275788,0.47175637,-0.8794927,-0.04774579,0.88164,0.46950114,0.9968861,0.012527174,0.07785424,0.09980774,0.024993896,-0.004486084,9.795425,0.12583923,0.44979858,-0.0053253174,-0.004257202,0.009597778,-26.92566,11.450195,3.831482,0,0.0,0.0,0.0,0.0
0.868133545,0.037139654,0.39455834,-0.9181201,-0.029882794,0.91878164,0.3936338,0.9988632,0.012816571,0.045913726,0.06227259,0.47024265,-0.8803374,-0.047343403,0.88244814,0.4680212,0.99693567,0.0125332745,0.077215225,0.06628418,-0.051467896,0.08604431,9.795425,0.12568665,0.45025635,-0.0053253174,-0.007461548,0.008529663,-26.92566,11.450195,3.831482,0,0.0,0.0,0.0,0.0
0.872680664,0.037099488,0.3944762,-0.91815686,-0.029861145,0.9188167,0.3935531,0.9988653,0.012816598,0.045867145,0.061796654,0.4687597,-0.88116145,-0.04695106,0.8832367,0.46657097,0.9969838,0.01253894,0.076589845,0.0471344,0.010772705,-0.100250244,9.795425,0.12568665,0.44979858,0.003189087,0.003189087,0.0063934326,-26.92566,11.450195,3.831482,0,0.0,0.0,0.0,0.0
0.877227783,0.034756966,0.46171638,-0.8863464,-0.032510165,0.88693523,0.46074829,0.99886686,0.012801058,0.045837652,0.06132833,0.4673035,-0.8819672,-0.046567667,0.88400793,0.46514663,0.99703074,0.012544494,0.07597597,0.04234314,-0.056106567,-0.09039307,9.795425,0.12553406,0.44950867,0.0095825195,0.0053253174,-0.008514404,-27.822876,9.118652,3.6590576,0,0.0,0.0,0.0,0.0
0.881774902,0.03470169,0.4615776,-0.8864208,-0.032455895,0.8870076,0.4606126,0.99887055,0.012785546,0.04576158,0.060799133,0.46719196,-0.88206303,-0.046283603,0.8840669,0.46506307,0.9970764,0.012549625,0.07537382,0.04234314,-0.04638672,-0.1614685,9.795425,0.12538147,0.448761,0.01171875,-0.0021362305,-0.007446289,-27.822876,9.118652,3.6590576,0,0.0,0.0,0.0,0.0
0.886352539,0.034701556,0.46157727,-0.886421,-0.03242253,0.88700837,0.46061385,0.99887174,0.012755997,0.045746073,0.06027932,0.46707985,-0.88215804,-0.046004135,0.884126,0.4649783,0.9971209,0.012554344,0.07478212,-7.4768066E-4,-0.08439636,-0.04159546,9.795425,0.12509155,0.4486084,-0.0010681152,-0.0063934326,0.007461548,-27.822876,9.118652,3.6590576,0,0.0,0.0,0.0,0.0
0.890899658,0.03215987,0.5264473,-0.84959936,-0.03490356,0.8501121,0.52544385,0.9988731,0.012755835,0.045714375,0.05846509,0.46686357,-0.8823946,-0.045358814,0.884236,0.46483245,0.9972584,0.012847903,0.07287331,-0.06314087,-0.012573242,-0.09396362,9.795563,0.12509155,0.44830322,0.0021209717,-0.020233154,-0.004257202,-27.822876,9.835815,5.041504,0,0.0,0.0,0.0,0.0
0.895446777,0.032136787,0.52639806,-0.84963065,-0.034886193,0.85014254,0.5253956,0.9988744,0.012755852,0.045684874,0.05792373,0.4680778,-0.8817868,-0.04518384,0.8835939,0.46606895,0.997298,0.012846063,0.07233061,-0.02961731,0.030517578,-0.088897705,9.795563,0.12509155,0.4480133,0.0021209717,-0.003189087,-0.007446289,-27.822876,9.835815,5.041504,0,0.0,0.0,0.0,0.0
0.899993897,0.032140195,0.5264054,-0.84962606,-0.034907036,0.8501379,0.525402,0.9988737,0.0127714025,0.045698844,0.057393257,0.46926582,-0.8811899,-0.045010626,0.88296354,0.46727875,0.9973365,0.012844259,0.0717981,0.08050537,0.03036499,0.064193726,9.795563,0.12524414,0.44815063,-0.006378174,0.0010681152,-0.0010681152,-27.822876,9.835815,5.041504,0,0.0,0.0,0.0,0.0
0.904541016,0.032172434,0.52647406,-0.84958225,-0.03491322,0.85009557,0.52547,0.9988724,0.012756005,0.045730542,0.05687414,0.47042942,-0.88060296,-0.044840038,0.8823442,0.46846363,0.99737394,0.012842801,0.071276635,0.109375,-0.050872803,0.05432129,9.795425,0.12509155,0.4484558,0.01171875,-0.004257202,0.0,-27.822876,9.835815,5.041504,0,0.0,0.0,0.0,0.0
0.909088135,0.032152757,0.5264321,-0.84960896,-0.034916688,0.8501212,0.5254281,0.9988729,0.012771572,0.045715008,0.05636644,0.4715704,-0.88002515,-0.04467165,0.8817349,0.46962535,0.9974103,0.012841065,0.07076609,-0.02947998,0.04473877,-0.012573242,9.795425,0.12524414,0.44830322,-0.0032043457,-0.008529663,-0.004257202,-27.822876,9.835815,5.041504,0,0.0,0.0,0.0,0.0
0.913635254,0.03220013,0.5265332,-0.84954464,-0.034952343,0.85005873,0.525527,0.99887013,0.012771537,0.045775563,0.055869,0.47268692,-0.87945765,-0.044505484,0.8811369,0.4707622,0.99744564,0.012839676,0.0702654,0.01361084,0.0016479492,0.15922546,9.795425,0.12524414,0.44889832,0.012771606,-0.003189087,0.010650635,-27.822876,9.835815,5.041504,0,0.0,0.0,0.0,0.0
0.918182373,0.032212116,0.52676207,-0.8494021,-0.03495596,0.84991693,0.52575564,0.99886954,0.012755969,0.045791097,0.055383,0.47378245,-0.8788987,-0.04434221,0.8805483,0.47187755,0.99748003,0.012838313,0.06977597,-0.03427124,-0.07003784,0.029785156,9.795425,0.12509155,0.4490509,-0.014907837,-0.004257202,0.0053253174,-28.54004,8.760071,4.350281,0,0.0,0.0,0.0,0.0
0.922729492,0.032233946,0.5268162,-0.84936786,-0.03500762,0.8498831,0.5258072,0.99886703,0.012785501,0.045837663,0.054907385,0.47486013,-0.8783468,-0.044181257,0.8799677,0.47297457,0.99751353,0.012836666,0.06929664,-7.4768066E-4,0.09727478,0.11550903,9.795425,0.12538147,0.44950867,0.018096924,0.007461548,-0.0010681152,-28.54004,8.760071,4.350281,0,0.0,0.0,0.0,0.0
0.927276611,0.032199666,0.5267313,-0.8494218,-0.035035875,0.84993505,0.52572143,0.9988672,0.012832182,0.04582211,0.054442175,0.4759166,-0.87780374,-0.044023454,0.8793968,0.4740499,0.99754596,0.012835643,0.06882776,0.0184021,0.13032532,-0.0471344,9.795425,0.12583923,0.44935608,0.013839722,-0.0095825195,0.0,-28.54004,8.760071,4.350281,0,0.0,0.0,0.0,0.0
0.931823731,0.029929688,0.5778323,-0.8156066,-0.036899578,0.81605464,0.5767956,0.9988706,0.012832226,0.045746025,0.053986043,0.47694957,-0.8772711,-0.04386832,0.8788369,0.47510126,0.9975776,0.012835573,0.068367906,0.0040283203,-0.008529663,-0.19004822,9.795425,0.12583923,0.4486084,-0.0021362305,0.0010681152,-0.010650635,-28.001404,9.298706,5.5603027,0,0.0,0.0,0.0,0.0
0.93637085,0.02993306,0.57783943,-0.81560135,-0.036921486,0.81604934,0.5768018,0.9988698,0.012847775,0.045761544,0.053484604,0.47903815,-0.8761632,-0.043780297,0.87770027,0.47720602,0.9976085,0.012835506,0.06791588,-0.05342102,0.010467529,0.015701294,9.795425,0.12599182,0.448761,0.007446289,0.003189087,-0.0010681152,-28.001404,9.298706,5.5603027,0,0.0,0.0,0.0,0.0
0.940917969,0.02993306,0.57783943,-0.81560135,-0.036921486,0.81604934,0.5768018,0.9988698,0.012847775,0.045761544,0.05299394,0.48108244,-0.8750722,-0.043692343,0.8765814,0.47926617,0.9976385,0.012835751,0.06747312,-0.01512146,9.0026855E-4,0.030075073,9.795425,0.12599182,0.448761,-0.006378174,-0.0021362305,-0.0063934326,-28.001404,9.298706,5.5603027,0,0.0,0.0,0.0,0.0
0.945465088,0.03577984,0.43010843,-0.90206796,-0.031230591,0.90268624,0.4291645,0.99887156,0.012816679,0.045730505,0.05251371,0.48308337,-0.87399817,-0.043604128,0.8754803,0.48128262,0.9976678,0.012835991,0.06703915,-0.07736206,-0.070632935,-0.07975769,9.795425,0.12568665,0.4484558,0.0053253174,0.007461548,0.0010681152,-28.001404,11.091614,4.1778564,0,0.0,0.0,0.0,0.0
0.949951172,0.03584325,0.43024328,-0.902001,-0.031233862,0.9026223,0.4292985,0.9988692,0.012785528,0.04579108,0.052192457,0.48204005,-0.87459326,-0.043336183,0.8760552,0.48025963,0.9976963,0.012835605,0.06661324,-0.04385376,-0.08947754,0.15428162,9.795425,0.12538147,0.4490509,0.019165039,-0.0063934326,0.007461548,-28.001404,11.091614,4.1778564,0,0.0,0.0,0.0,0.0
0.954315186,0.035882328,0.43032643,-0.90195984,-0.03132596,0.9025819,0.429377,0.99886495,0.012847713,0.04586713,0.051537927,0.48090112,-0.8752588,-0.04296837,0.8766797,0.47915173,0.9977462,0.012913956,0.065845795,-0.11088562,0.14933777,0.17268372,9.795425,0.12599182,0.44979858,0.0021209717,-0.0053253174,-0.0010681152,-28.001404,11.091614,4.1778564,0,0.0,0.0,0.0,0.0
0.958679199,0.03144666,0.54461026,-0.8380995,-0.035744354,0.8385906,0.5435882,0.99886614,0.012863288,0.04583762,0.051236883,0.47990426,-0.8758234,-0.042717244,0.8772258,0.4781737,0.9977725,0.012912631,0.0654465,-0.0103302,0.0438385,-0.06643677,9.795425,0.12614441,0.44950867,0.0,0.003189087,0.0010681152,-26.747131,9.835815,5.3878784,0,0.0,0.0,0.0,0.0
0.963043213,0.03145045,0.5446178,-0.8380944,-0.035763964,0.8385855,0.5435948,0.9988653,0.012877281,0.045851585,0.050829154,0.48122633,-0.8751215,-0.042605236,0.87650126,0.4795105,0.99779814,0.012911644,0.06505458,0.09501648,0.034118652,0.053131104,9.795425,0.12628174,0.449646,0.014907837,-0.0053253174,-0.0021209717,-26.747131,9.835815,5.3878784,0,0.0,0.0,0.0,0.0
0.967407227,0.03145748,0.54463184,-0.8380852,-0.035752766,0.8385768,0.5436093,0.99886554,0.01286328,0.045851596,0.050430093,0.48252112,-0.8744313,-0.04249474,0.8757892,0.4808196,0.9978232,0.0129109565,0.06467074,0.0040283203,-0.018417358,-0.028274536,9.795425,0.12614441,0.449646,0.003189087,-0.0010681152,0.0063934326,-26.747131,9.835815,5.3878784,0,0.0,0.0,0.0,0.0
0.97177124,0.03668312,0.40620956,-0.9130433,-0.030403368,0.913689,0.40527532,0.9988644,0.01289283,0.045867104,0.050039485,0.48378924,-0.87375283,-0.04238514,0.87508935,0.48210186,0.9978475,0.012910003,0.064294495,-0.01991272,0.062698364,0.038604736,9.795425,0.12643433,0.44979858,0.01171875,0.0010681152,0.0063934326,-27.105713,9.118652,2.9678345,0,0.0,0.0,0.0,0.0
0.976135254,0.036675148,0.40618896,-0.91305286,-0.030349396,0.9136988,0.40525725,0.99886626,0.01284773,0.045837626,0.04979017,0.48227134,-0.8746058,-0.042120587,0.87592673,0.48060188,0.99787116,0.012909659,0.06392609,-0.0677948,-0.09967041,-0.06643677,9.795425,0.12599182,0.44950867,0.014907837,0.007461548,-0.0010681152,-27.105713,9.118652,2.9678345,0,0.0,0.0,0.0,0.0
0.980499268,0.036686916,0.4062194,-0.91303885,-0.03035628,0.9136853,0.40528724,0.99886566,0.0128477225,0.045851603,0.049545024,0.48078203,-0.8754393,-0.04186119,0.8767451,0.47913006,0.9978942,0.0129084205,0.063564464,-0.05821228,-0.01826477,0.048339844,9.795425,0.12599182,0.449646,0.004257202,0.017028809,-0.0053253174,-27.105713,9.118652,2.9678345,0,0.0,0.0,0.0,0.0
0.984863281,0.03406001,0.47994965,-0.8766346,-0.033282854,0.8772018,0.47896704,0.99886554,0.01286328,0.045851596,0.049304266,0.47932172,-0.8762533,-0.041608065,0.87754434,0.4776868,0.99791676,0.012907206,0.06321032,0.1381073,0.029464722,0.0052490234,9.795425,0.12614441,0.449646,0.0,0.010635376,0.008529663,-27.822876,10.5529785,4.6966553,0,0.0,0.0,0.0,0.0
0.989227295,0.03401078,0.479846,-0.8766933,-0.03324983,0.8772585,0.4788654,0.9988682,0.012863315,0.045791037,0.048999388,0.4793343,-0.87626356,-0.041441884,0.87753755,0.47771382,0.99793875,0.012906327,0.06286331,0.0184021,0.015106201,-0.15696716,9.795425,0.12614441,0.4490509,-0.0010681152,0.004257202,-0.0021209717,-27.822876,10.5529785,4.6966553,0,0.0,0.0,0.0,0.0
0.993591309,0.03399765,0.4798183,-0.876709,-0.033274665,0.8772732,0.47883675,0.9988678,0.012892873,0.045791015,0.048699617,0.47934452,-0.8762746,-0.04127831,0.87753195,0.47773823,0.99796015,0.012905466,0.062522,0.03755188,0.067489624,-0.0037384033,9.795425,0.12643433,0.4490509,0.007446289,0.0,-0.0010681152,-27.822876,10.5529785,4.6966553,0,0.0,0.0,0.0,0.0
0.997955322,0.035484824,0.43956324,-0.8975104,-0.031706356,0.8981191,0.43860778,0.99886715,0.012892865,0.045806546,0.04840555,0.479354,-0.8762857,-0.041118465,0.87752676,0.47776148,0.9979811,0.012905215,0.062187467,0.0471344,-0.004333496,0.04878235,9.795425,0.12643433,0.4492035,0.010650635,-0.003189087,-0.0053253174,-27.28424,10.733032,4.1778564,0,0.0,0.0,0.0,0.0
1.002319336,0.035612293,0.4398337,-0.89737284,-0.03181855,0.89798623,0.43887165,0.9988591,0.0129238805,0.04597422,0.04815488,0.47856736,-0.87672937,-0.040918373,0.877956,0.47698945,0.9980014,0.012904968,0.061860062,-0.0390625,0.024093628,0.17163086,9.795425,0.1267395,0.45085144,0.013839722,0.012771606,0.0063934326,-27.28424,10.733032,4.1778564,0,0.0,0.0,0.0,0.0
1.00668335,0.035669524,0.43995515,-0.89731103,-0.031801745,0.89792734,0.43899316,0.9988575,0.012877381,0.046019986,0.047911286,0.4778014,-0.8771604,-0.040725164,0.8783731,0.47623757,0.99802107,0.012905346,0.061542526,0.028121948,-0.09996033,0.113723755,9.795273,0.12628174,0.45129395,-0.006378174,0.023422241,-0.004257202,-27.28424,10.733032,4.1778564,0,0.0,0.0,0.0,0.0
1.011047363,0.033576865,0.49421528,-0.86869085,-0.033905666,0.8692439,0.49321938,0.99886084,0.012892784,0.045943182,0.047673404,0.47705278,-0.8775807,-0.040536,0.8787799,0.4755026,0.99804014,0.0129047865,0.06123224,0.00881958,0.024398804,-0.21113586,9.795425,0.12643433,0.45054626,-0.0021362305,0.012771606,-0.0095825195,-28.54004,10.194397,4.6966553,0,0.0,0.0,0.0,0.0
1.015411377,0.033607095,0.49428192,-0.86865175,-0.033944733,0.8692058,0.4932839,0.9988585,0.012908313,0.045989756,0.04738889,0.47739786,-0.8774084,-0.04040878,0.8785925,0.47585964,0.99805886,0.012904546,0.060926586,-0.0055389404,0.043395996,0.13317871,9.795425,0.12658691,0.45100403,0.01171875,0.019165039,0.0063934326,-28.54004,10.194397,4.6966553,0,0.0,0.0,0.0,0.0
1.019775391,0.03359466,0.4942545,-0.86866784,-0.033936013,0.8692214,0.49325702,0.9988592,0.012908323,0.04597423,0.047110863,0.47773728,-0.87723863,-0.040284723,0.87840796,0.47621065,0.99807703,0.012904622,0.06062807,0.06628418,0.014663696,-0.0438385,9.795425,0.12658691,0.45085144,-0.008514404,0.007461548,-0.0095825195,-28.54004,10.194397,4.6966553,0,0.0,0.0,0.0,0.0
1.024139404,0.036210254,0.4251664,-0.90439063,-0.03130763,0.9050225,0.42420995,0.9988536,0.012953575,0.04608205,0.04656509,0.4771188,-0.8776043,-0.040811785,0.87873244,0.47556666,0.9980812,0.013671794,0.060390327,-0.0053863525,0.07168579,0.08917236,9.795273,0.12702942,0.4519043,0.017044067,0.0010681152,-0.010650635,-28.54004,9.477234,3.312683,0,0.0,0.0,0.0,0.0
1.028503418,0.036197346,0.42513317,-0.9044068,-0.031299718,0.9050382,0.42417726,0.9988544,0.012953585,0.046066526,0.046367757,0.47609508,-0.8781706,-0.040608916,0.8792878,0.47455662,0.9980987,0.013657429,0.060104307,-0.04849243,-0.03366089,-0.06867981,9.795273,0.12702942,0.4517517,0.018096924,0.018096924,-0.003189087,-28.54004,9.477234,3.312683,0,0.0,0.0,0.0,0.0
1.032867432,0.036240254,0.42524365,-0.90435314,-0.031310573,0.9049864,0.42428672,0.99885243,0.012939556,0.046111558,0.04617368,0.4750905,-0.8787247,-0.040410392,0.8798312,0.47356537,0.9981157,0.013643352,0.059823632,-0.07243347,-0.023956299,0.11282349,9.795273,0.12689209,0.4521942,-0.011703491,0.0010681152,0.008529663,-28.54004,9.477234,3.312683,0,0.0,0.0,0.0,0.0
1.037231445,0.036093976,0.43029726,-0.9019653,-0.031559378,0.90259403,0.4293343,0.99885,0.012969087,0.046158124,0.045983955,0.4741076,-0.8792653,-0.04021662,0.88036144,0.47259533,0.99813235,0.013629276,0.059549503,-0.019760132,0.06674194,0.1267395,9.795273,0.127182,0.45265198,0.013839722,0.012771606,-0.0021209717,-28.001404,9.657288,3.4866333,0,0.0,0.0,0.0,0.0
1.041595459,0.03610619,0.43032733,-0.9019505,-0.03160131,0.9025793,0.4293623,0.9988482,0.013000184,0.046187606,0.04579373,0.47324225,-0.8797413,-0.04003327,0.8808271,0.47174248,0.99814844,0.013616073,0.059281792,0.09996033,0.07122803,0.088134766,9.795273,0.12748718,0.4529419,0.020233154,0.008514404,-0.0021209717,-28.001404,9.657288,3.4866333,0,0.0,0.0,0.0,0.0
1.045959473,0.036131423,0.43038943,-0.9019199,-0.0315824,0.9025502,0.429425,0.9988479,0.01296906,0.04620315,0.0456072,0.4723944,-0.8802065,-0.03985484,0.8812823,0.47090667,0.9981642,0.013603754,0.059020024,0.013763428,-0.08648682,0.040100098,9.795273,0.127182,0.45309448,0.020233154,0.007461548,0.0021362305,-28.001404,9.657288,3.4866333,0,0.0,0.0,0.0,0.0
1.050323486,0.03388736,0.49040088,-0.8708379,-0.0339368,0.8714004,0.48939705,0.9988492,0.012969078,0.046172094,0.045424562,0.47156426,-0.88066095,-0.039679993,0.8817269,0.4700884,0.9981794,0.013591061,0.058763728,-0.04849243,-0.0050811768,0.09786987,9.795273,0.127182,0.4527893,-0.019165039,0.004257202,-0.0053253174,-28.720093,10.015869,4.522705,0,0.0,0.0,0.0,0.0
1.0546875,0.033924676,0.49048564,-0.87078863,-0.033962898,0.8713527,0.4894802,0.9988471,0.01296905,0.046218675,0.045424562,0.47156426,-0.88066095,-0.039679993,0.8817269,0.4700884,0.9981794,0.013591061,0.058763728,-0.04849243,-0.0050811768,0.09741211,9.795273,0.127182,0.45324707,-0.019165039,0.004257202,-0.0053253174,-28.720093,10.015869,4.522705,0,0.0,0.0,0.0,0.0
1.059051514,0.033930108,0.49049798,-0.8707815,-0.033984527,0.8713455,0.4894915,0.99884623,0.012984598,0.046234194,0.044964246,0.47231779,-0.88028073,-0.039462842,0.88132393,0.4708618,0.9982089,0.01356643,0.058267064,-0.014968872,0.042648315,0.04937744,9.795273,0.1273346,0.45339966,0.006378174,0.003189087,0.0010681152,-28.720093,10.015869,4.522705,0,0.0,0.0,0.0,0.0
1.063415527,0.034157544,0.4853044,-0.8736778,-0.033796314,0.8742488,0.4843003,0.99884486,0.01298458,0.046263695,0.04474133,0.47268343,-0.88009584,-0.039357718,0.8811281,0.471237,0.99822307,0.013554793,0.058026582,0.023345947,-0.0052337646,0.073028564,9.795273,0.1273346,0.45368958,0.012771606,0.0,-0.004257202,-27.105713,9.118652,4.005432,0,0.0,0.0,0.0,0.0
1.067779541,0.03417137,0.4853372,-0.873659,-0.033770416,0.8742311,0.48433414,0.9988453,0.012953467,0.046263713,0.044528116,0.4729368,-0.87997043,-0.039249487,0.88099223,0.4714999,0.99823684,0.013543388,0.057791453,-0.010177612,-0.10070801,-0.017959595,9.795273,0.12702942,0.45368958,-0.006378174,0.0053253174,0.0053253174,-27.105713,9.118652,4.005432,0,0.0,0.0,0.0,0.0
1.072143555,0.034152016,0.4852912,-0.87368536,-0.033774685,0.8742564,0.48428816,0.99884576,0.012969032,0.046248175,0.044319544,0.47318575,-0.8798472,-0.039142814,0.8808588,0.4717581,0.9982503,0.01353159,0.057561077,-0.043701172,0.028427124,-0.022583008,9.795273,0.127182,0.453537,0.012771606,0.0010681152,0.0032043457,-27.105713,9.118652,4.005432,0,0.0,0.0,0.0,0.0
1.076507568,0.03130326,0.55386865,-0.8320154,-0.036367994,0.83250326,0.55282515,0.9988481,0.012953502,0.04620316,0.0441147,0.4734287,-0.8797267,-0.039038174,0.88072836,0.47201014,0.9982634,0.013520339,0.057334863,-0.014968872,-0.03845215,-0.0029907227,9.795273,0.12702942,0.45309448,-0.008514404,-0.0138549805,0.0063934326,-26.567078,10.374451,5.9066772,0,0.0,0.0,0.0,0.0
1.080871582,0.03131841,0.55389655,-0.8319963,-0.036344457,0.8324853,0.55285394,0.9988485,0.012923945,0.04620318,0.043850727,0.4750807,-0.87884897,-0.039005283,0.8798385,0.47366947,0.99827635,0.013509002,0.057112217,0.09996033,-0.07646179,-0.0029907227,9.795273,0.1267395,0.45309448,0.031951904,-0.008529663,0.0,-26.567078,10.374451,5.9066772,0,0.0,0.0,0.0,0.0
1.085235596,0.031389058,0.5540266,-0.83190703,-0.036400016,0.83239865,0.5529806,0.9988442,0.012923889,0.046294782,0.043592613,0.47669867,-0.8779853,-0.038971767,0.8789632,0.47529465,0.998289,0.0134973,0.056894094,0.004180908,-0.019012451,0.22116089,9.795273,0.1267395,0.45399475,-0.010650635,0.0,-0.003189087,-26.567078,10.374451,5.9066772,0,0.0,0.0,0.0,0.0
1.089599609,0.03534844,0.4568075,-0.88886297,-0.03264968,0.8894719,0.45582202,0.9988416,0.012908496,0.046356063,0.042559534,0.47817817,-0.877231,-0.03891273,0.87815374,0.47679326,0.99833584,0.013843354,0.055981033,-0.019607544,-0.009277344,0.18704224,9.79512,0.12658691,0.45458984,0.0021209717,-0.010650635,-0.0053253174,-26.38855,9.835815,4.005432,0,0.0,0.0,0.0,0.0
1.093963623,0.035380587,0.4568784,-0.8888253,-0.032652833,0.88943577,0.4558924,0.99884033,0.0128929205,0.04638713,0.04241813,0.47775346,-0.87746924,-0.03878391,0.8783852,0.47637725,0.99834687,0.013824657,0.055788606,-0.014816284,-0.066589355,0.04309082,9.79512,0.12643433,0.45489502,0.007446289,-0.007461548,0.0063934326,-26.38855,9.835815,4.005432,0,0.0,0.0,0.0,0.0
1.098327637,0.03534844,0.4568075,-0.88886297,-0.03264968,0.8894719,0.45582202,0.9988416,0.012908496,0.046356063,0.04228002,0.47733852,-0.87770176,-0.038657866,0.878611,0.47597083,0.9983576,0.013806023,0.055600576,-0.014816284,0.06254578,-0.042800903,9.79512,0.12658691,0.45458984,0.015975952,-0.010650635,-0.007446289,-26.38855,9.835815,4.005432,0,0.0,0.0,0.0,0.0
1.10269165,0.03335066,0.5090674,-0.8600803,-0.034708604,0.8606299,0.50804687,0.9988409,0.012908488,0.046371594,0.04214399,0.47693038,-0.8779301,-0.038534425,0.8788329,0.47557104,0.99836814,0.013788072,0.055415764,0.028274536,-0.009277344,0.0049438477,9.79512,0.12658691,0.45474243,0.007446289,-0.008529663,-0.0010681152,-28.720093,8.9401245,4.1778564,0,0.0,0.0,0.0,0.0
1.107055664,0.033285692,0.5089048,-0.860179,-0.03464185,0.86072624,0.5078881,0.9988454,0.012892785,0.046279278,0.04196498,0.47757965,-0.8775857,-0.038463883,0.8784805,0.47622734,0.9983784,0.013770481,0.05523499,0.013763428,0.057907104,-0.022888184,9.795273,0.12643433,0.45384216,-0.004272461,0.0010681152,-0.010650635,-28.720093,8.9401245,4.1778564,0,0.0,0.0,0.0,0.0
1.111419678,0.033302806,0.5089477,-0.860153,-0.034672663,0.86070067,0.50792927,0.99884367,0.012908323,0.04631032,0.04178827,0.47821236,-0.8772495,-0.038393155,0.8781365,0.47686705,0.9983885,0.013752926,0.055055887,-0.043701172,0.024246216,0.11087036,9.795273,0.12658691,0.45414734,0.013839722,-0.018112183,0.009597778,-28.720093,8.9401245,4.1778564,0,0.0,0.0,0.0,0.0
1.115783691,0.03331917,0.5089886,-0.86012816,-0.034703154,0.8606762,0.5079686,0.9988421,0.012924064,0.046340533,0.041615527,0.47883305,-0.87691903,-0.0383242,0.8777985,0.4774945,0.99839836,0.013736035,0.054880943,0.023498535,0.05281067,0.048339844,9.79512,0.1267395,0.45443726,0.0095825195,-0.0021362305,0.0053253174,-28.720093,8.9401245,4.1778564,0,0.0,0.0,0.0,0.0
1.120147705,0.033302806,0.5089477,-0.860153,-0.034672663,0.86070067,0.50792927,0.99884367,0.012908323,0.04631032,0.041446753,0.47944194,-0.8765943,-0.03825704,0.8774663,0.47811005,0.998408,0.013719796,0.054710165,0.047286987,-0.057159424,-0.05671692,9.795273,0.12658691,0.45414734,0.012771606,-0.0063934326,0.004272461,-28.720093,8.9401245,4.1778564,0,0.0,0.0,0.0,0.0
1.124511719,0.033292882,0.5089228,-0.8601681,-0.034629166,0.86071587,0.50790656,0.9988456,0.012877228,0.04627929,0.041281056,0.48003766,-0.87627614,-0.03819038,0.8771409,0.47871226,0.99841744,0.013703567,0.054542117,0.08558655,-0.05206299,-0.0899353,9.795273,0.12628174,0.45384216,0.0021209717,-0.0053253174,-0.0021209717,-28.720093,8.9401245,4.1778564,0,0.0,0.0,0.0,0.0
1.128875733,0.035090845,0.4625134,-0.8859176,-0.0328339,0.8865185,0.46152654,0.99884456,0.012892774,0.0462948,0.041118655,0.48062062,-0.87596405,-0.03812403,0.8768218,0.47930166,0.9984266,0.013687041,0.054376926,0.09516907,0.033966064,0.06793213,9.795273,0.12643433,0.45399475,0.0010528564,0.0010681152,0.007461548,-27.28424,10.733032,4.522705,0,0.0,0.0,0.0,0.0
1.133239746,0.03509696,0.46252602,-0.88591075,-0.03285535,0.8865117,0.46153814,0.99884367,0.012908323,0.04631032,0.041000094,0.48026043,-0.8761672,-0.038015686,0.8770194,0.47894862,0.9984357,0.013671156,0.05421531,0.052078247,0.0050811768,0.02468872,9.795273,0.12658691,0.45414734,0.012771606,0.0,0.0010681152,-27.28424,10.733032,4.522705,0,0.0,0.0,0.0,0.0
1.13760376,0.035147924,0.46263155,-0.88585365,-0.03285326,0.8864571,0.4616432,0.99884194,0.012877381,0.046356082,0.040883962,0.47990766,-0.8763659,-0.037910055,0.87721276,0.4786028,0.99844444,0.013655899,0.05405726,-0.014816284,-0.023345947,-0.018859863,9.79512,0.12628174,0.45458984,0.017044067,-0.0063934326,-0.007446289,-27.28424,10.733032,4.522705,0,0.0,0.0,0.0,0.0
1.141967774,0.033297792,0.510272,-0.8593682,-0.03470014,0.85991675,0.50925326,0.99884284,0.012863188,0.04633984,0.040771056,0.47956395,-0.87655926,-0.037806615,0.8774009,0.4782659,0.99845296,0.013640329,0.053903252,-0.019760132,-0.03756714,-0.033065796,9.795273,0.12614441,0.45443726,0.024490356,0.011703491,0.0032043457,-27.464294,9.118652,4.350281,0,0.0,0.0,0.0,0.0
1.146331787,0.03328558,0.51024354,-0.85938555,-0.034691133,0.8599337,0.50922537,0.9988436,0.012863198,0.04632432,0.040619016,0.48018417,-0.8762267,-0.03774925,0.8770619,0.47889188,0.99846137,0.0136247855,0.053751983,0.056854248,-0.013626099,-0.013763428,9.795273,0.12614441,0.45428467,0.004257202,0.007461548,-0.008514404,-27.464294,9.118652,4.350281,0,0.0,0.0,0.0,0.0
1.150695801,0.033303946,0.51028633,-0.8593594,-0.034721173,0.85990804,0.50926656,0.99884194,0.012877381,0.046356082,0.04046988,0.48079115,-0.87590075,-0.03769268,0.8767295,0.47950456,0.99846953,0.013609554,0.053603448,-0.019607544,0.029327393,0.067337036,9.79512,0.12628174,0.45458984,-0.0010681152,0.008514404,-0.0010681152,-27.464294,9.118652,4.350281,0,0.0,0.0,0.0,0.0
1.155059815,0.04088609,0.2789812,-0.9594258,-0.02527444,0.9602103,0.27813226,0.99884415,0.012877209,0.04631034,0.04032418,0.48138666,-0.8755803,-0.037637636,0.8764029,0.48010552,0.9984775,0.01359491,0.053458486,-0.09158325,-0.018554688,-0.11418152,9.795273,0.12628174,0.45414734,0.006378174,0.004257202,-0.0010681152,-27.464294,9.477234,1.5853882,0,0.0,0.0,0.0,0.0
1.159423828,0.040861916,0.27891454,-0.9594462,-0.025249539,0.9602297,0.27806696,0.99884564,0.012863224,0.04627929,0.040884033,0.47818673,-0.8773061,-0.037020072,0.87816226,0.4769282,0.9984779,0.012979184,0.053605326,0.042495728,-0.02798462,-0.07077026,9.795273,0.12614441,0.45384216,-0.011703491,0.004257202,0.008529663,-27.464294,9.477234,1.5853882,0,0.0,0.0,0.0,0.0
1.163787842,0.04081794,0.27879333,-0.95948327,-0.025245313,0.9602648,0.27794644,0.99884766,0.012877254,0.046234258,0.040915597,0.47438955,-0.8793636,-0.036771685,0.88021934,0.47314024,0.9984857,0.012976865,0.053458802,-5.950928E-4,0.038909912,-0.1517334,9.795273,0.12628174,0.45339966,-0.0095825195,-0.0010681152,0.0,-27.464294,9.477234,1.5853882,0,0.0,0.0,0.0,0.0
1.168151856,0.03455429,0.47629088,-0.8786086,-0.033349056,0.8791935,0.47529638,0.99884623,0.012877236,0.046263758,0.04094445,0.4706576,-0.8813654,-0.03652844,0.88222057,0.46941727,0.9984935,0.012974872,0.05331442,-5.950928E-4,0.014968872,0.111328125,9.795273,0.12628174,0.45368958,0.024490356,0.004257202,-0.0010681152,-28.001404,10.374451,4.522705,0,0.0,0.0,0.0,0.0
1.172515869,0.03458676,0.4763613,-0.8785691,-0.033319566,0.87915593,0.47536778,0.99884605,0.01283211,0.046279307,0.040816303,0.47077042,-0.88131106,-0.036465686,0.8821603,0.46953526,0.998501,0.012972919,0.053173494,-0.08200073,-0.1186676,0.034561157,9.795273,0.12583923,0.45384216,-0.008514404,-0.0010681152,0.0010681152,-28.001404,10.374451,4.522705,0,0.0,0.0,0.0,0.0
1.176879883,0.034616526,0.47642586,-0.87853295,-0.033357184,0.8791208,0.4754303,0.99884385,0.0128476415,0.046324328,0.040691346,0.47088245,-0.881257,-0.03640355,0.8821006,0.46965227,0.9985084,0.012970104,0.053035658,-0.014968872,0.03440857,0.11552429,9.795273,0.12599182,0.45428467,0.0010528564,0.010635376,0.010650635,-28.001404,10.374451,4.522705,0,0.0,0.0,0.0,0.0
1.181243897,0.030693058,0.5710202,-0.8203621,-0.0370046,0.82083523,0.56996506,0.9988436,0.012863198,0.04632432,0.040569525,0.47099352,-0.8812033,-0.036343407,0.88204134,0.46976823,0.9985155,0.0129676545,0.05290151,-0.04849243,0.015106201,-0.032913208,9.795273,0.12614441,0.45428467,-0.0095825195,-0.0010681152,0.0032043457,-26.92566,8.9401245,5.215454,0,0.0,0.0,0.0,0.0
1.18560791,0.030744405,0.5711293,-0.8202842,-0.03706501,0.8207591,0.5700708,0.9988398,0.0128773535,0.046402663,0.04036917,0.4730623,-0.8801036,-0.036374524,0.8809336,0.47183993,0.9985225,0.012965565,0.052769978,0.042648315,0.034118652,0.22969055,9.79512,0.12628174,0.4550476,0.004257202,0.003189087,0.008529663,-26.92566,8.9401245,5.215454,0,0.0,0.0,0.0,0.0
1.189971924,0.030724661,0.57108736,-0.82031405,-0.037067346,0.82078797,0.57002896,0.99884033,0.0128929205,0.04638713,0.040174026,0.4750895,-0.8790199,-0.036405392,0.879842,0.47386995,0.99852926,0.0129638,0.052642614,0.033065796,0.048339844,-0.05267334,9.79512,0.12643433,0.45489502,-0.014907837,-0.008529663,0.0,-26.92566,8.9401245,5.215454,0,0.0,0.0,0.0,0.0
1.194335938,0.035419762,0.4574612,-0.8885239,-0.03272456,0.8891359,0.45647177,0.9988366,0.012908432,0.0464632,0.039982487,0.4770728,-0.8779539,-0.03643505,0.87876815,0.47585607,0.9985359,0.012962382,0.052517507,-0.086639404,0.024246216,0.18598938,9.79512,0.12658691,0.4556427,0.015975952,-0.015975952,-0.007446289,-28.001404,8.9401245,3.4866333,0,0.0,0.0,0.0,0.0
1.198699951,0.035406776,0.4574275,-0.8885417,-0.032750864,0.8891527,0.456437,0.9988362,0.012939547,0.04646318,0.039892703,0.47668287,-0.8781697,-0.036358714,0.8789798,0.4754709,0.99854225,0.012961303,0.052396454,0.057006836,0.08139038,0.02319336,9.79512,0.12689209,0.4556427,0.019165039,-0.008529663,0.007461548,-28.001404,8.9401245,3.4866333,0,0.0,0.0,0.0,0.0
1.203063965,0.035388324,0.45737964,-0.88856715,-0.03275431,0.8891772,0.45638916,0.9988367,0.012953556,0.046447642,0.039804343,0.47629994,-0.87838143,-0.036284484,0.87918735,0.47509268,0.9985485,0.012960868,0.052277774,-0.048339844,0.03337097,-0.053268433,9.79512,0.12702942,0.4554901,0.003189087,-0.012786865,-0.0063934326,-28.001404,8.9401245,3.4866333,0,0.0,0.0,0.0,0.0
1.207427979,0.03819865,0.3748531,-0.92629695,-0.029404072,0.9269938,0.37392253,0.9988375,0.012953566,0.04643212,0.039717298,0.47592366,-0.87858933,-0.036211863,0.87939113,0.47472095,0.9985546,0.012960722,0.05216112,0.042648315,-1.373291E-4,-0.038757324,9.79512,0.12702942,0.45533752,0.008514404,-0.012786865,0.0032043457,-26.747131,10.91156,3.312683,0,0.0,0.0,0.0,0.0
1.211791992,0.03823596,0.37493414,-0.92626256,-0.029391643,0.92696136,0.3740037,0.9988364,0.0129239885,0.046463188,0.03969735,0.47395632,-0.87965304,-0.03606863,0.88045293,0.47275957,0.99856055,0.012960578,0.052046604,-4.4250488E-4,-0.07646179,0.09501648,9.79512,0.1267395,0.4556427,0.010650635,-0.010650635,0.0010681152,-26.747131,10.91156,3.312683,0,0.0,0.0,0.0,0.0
1.216156006,0.03823596,0.37493414,-0.92626256,-0.029391643,0.92696136,0.3740037,0.9988364,0.0129239885,0.046463188,0.039678086,0.47202766,-0.8806904,-0.035928342,0.8814885,0.47083673,0.9985664,0.012959846,0.051934946,-0.072280884,0.024093628,-0.0055389404,9.79512,0.1267395,0.4556427,0.007446289,-0.0138549805,0.004272461,-26.747131,10.91156,3.312683,0,0.0,0.0,0.0,0.0
1.22052002,0.034024864,0.4930479,-0.8693365,-0.0341421,0.8699059,0.49203455,0.9988377,0.012939566,0.04643213,0.039658822,0.47013533,-0.88170284,-0.03579112,0.88249916,0.46895006,0.99857205,0.012959129,0.051825553,-0.038757324,0.0,-0.096221924,9.79512,0.12689209,0.45533752,-0.0010681152,-0.007461548,0.0032043457,-28.001404,9.298706,4.1778564,0,0.0,0.0,0.0,0.0
1.224884033,0.034051254,0.4931109,-0.8692999,-0.034125157,0.8698707,0.49209797,0.99883723,0.01290844,0.04644767,0.038602293,0.47000116,-0.8818213,-0.03589348,0.88256174,0.46882454,0.9986098,0.013553935,0.050938882,0.124053955,-0.06674194,0.061645508,9.79512,0.12658691,0.4554901,0.010650635,-0.01171875,-0.008514404,-28.001404,9.298706,4.1778564,0,0.0,0.0,0.0,0.0
1.229248047,0.033985794,0.49295464,-0.8693909,-0.034026578,0.8699598,0.49194705,0.99884284,0.012863188,0.04633984,0.03851008,0.47046658,-0.8815771,-0.035860218,0.8823139,0.46929327,0.99861455,0.013541026,0.050849017,-0.024536133,0.010314941,-0.061798096,9.795273,0.12614441,0.45443726,0.0053253174,-0.022369385,0.004272461,-28.001404,9.298706,4.1778564,0,0.0,0.0,0.0,0.0
1.233612061,0.03556338,0.45301145,-0.8907951,-0.032451842,0.8914124,0.45202976,0.9988404,0.012832237,0.04640269,0.03841841,0.47091943,-0.88133925,-0.035825588,0.8820725,0.46974954,0.9986193,0.013527469,0.050758786,0.071380615,-0.07556152,0.16264343,9.79512,0.12583923,0.4550476,-0.0095825195,-0.02130127,0.01171875,-28.001404,11.091614,4.522705,0,0.0,0.0,0.0,0.0
1.237976074,0.035537623,0.45295796,-0.89082336,-0.032435678,0.8914396,0.45197734,0.9988419,0.012832256,0.04637164,0.038362492,0.47056314,-0.88153195,-0.035756852,0.8822628,0.4693972,0.9986239,0.013513563,0.050671656,-0.043548584,-0.0037384033,-0.08125305,9.79512,0.12583923,0.45474243,0.006378174,-0.01171875,-0.007446289,-28.001404,11.091614,4.522705,0,0.0,0.0,0.0,0.0
1.242340088,0.03545502,0.4527863,-0.8909139,-0.032434147,0.8915261,0.45180666,0.9988448,0.0128772175,0.04629481,0.038307194,0.47021285,-0.8817213,-0.035689235,0.8824498,0.4690508,0.9986285,0.013499938,0.050585713,-0.06764221,6.1035156E-4,0.11102295,9.795273,0.12628174,0.45399475,-0.014907837,-0.010650635,-0.004257202,-28.001404,11.091614,4.522705,0,0.0,0.0,0.0,0.0
1.246704102,0.03134296,0.5555715,-0.83087784,-0.036453933,0.83136857,0.5545245,0.99884367,0.012908323,0.04631032,0.038251266,0.46986607,-0.88190854,-0.035622913,0.8826347,0.46870783,0.99863297,0.013487484,0.05049989,-0.038909912,0.076919556,0.0438385,9.795273,0.12658691,0.45414734,0.007446289,-0.024505615,-0.0095825195,-26.567078,9.298706,5.215454,0,0.0,0.0,0.0,0.0
1.251068115,0.03134296,0.5555715,-0.83087784,-0.036453933,0.83136857,0.5545245,0.99884367,0.012908323,0.04631032,0.038111527,0.47162902,-0.88097316,-0.035649598,0.88169414,0.47047278,0.99863744,0.013475901,0.05041609,-0.09158325,3.0517578E-4,-0.02798462,9.795273,0.12658691,0.45414734,0.003189087,-0.017044067,-0.0053253174,-26.567078,9.298706,5.215454,0,0.0,0.0,0.0,0.0
1.255432129,0.03129556,0.5554737,-0.83094496,-0.0364158,0.8314339,0.55442894,0.99884653,0.012908359,0.046248212,0.037974615,0.47335488,-0.88005286,-0.03567534,0.8807689,0.4722006,0.99864167,0.0134645505,0.050333954,-0.058059692,-0.004486084,-0.14230347,9.795273,0.12658691,0.453537,0.013839722,-0.010650635,-0.0063934326,-26.567078,9.298706,5.215454,0,0.0,0.0,0.0,0.0
1.259796143,0.03422529,0.4836398,-0.8745978,-0.03366395,0.87517184,0.48263988,0.99884707,0.012923926,0.04623423,0.037839543,0.47504243,-0.8791489,-0.03569954,0.87986004,0.4738901,0.99864596,0.013453427,0.050252296,-0.034118652,0.03366089,-0.07032776,9.795273,0.1267395,0.45339966,-0.010650635,-0.003189087,0.009597778,-27.822876,9.835815,4.350281,0,0.0,0.0,0.0,0.0
1.264160156,0.034349717,0.48392084,-0.87443745,-0.033714246,0.87501687,0.48291713,0.99884105,0.01289293,0.0463716,0.037766844,0.4752148,-0.8790589,-0.035659496,0.8797671,0.47406563,0.99865013,0.013442837,0.050171945,0.080947876,0.029174805,-0.12434387,9.79512,0.12643433,0.45474243,0.0095825195,0.017028809,0.007461548,-27.822876,9.835815,4.350281,0,0.0,0.0,0.0,0.0
1.26852417,0.034426842,0.484095,-0.874338,-0.033662584,0.8749218,0.48309278,0.9988401,0.0128011145,0.04641668,0.037698142,0.4753894,-0.87896746,-0.035621256,0.879673,0.4742432,0.9986541,0.013431839,0.050096,0.033065796,-0.16143799,-0.19662476,9.79512,0.12553406,0.45518494,-0.02130127,0.043655396,0.0063934326,-27.822876,9.835815,4.350281,0,0.0,0.0,0.0,0.0
1.272888184,0.03696202,0.4166289,-0.9083249,-0.031024806,0.9089863,0.41566977,0.99883497,0.012816608,0.046523806,0.037632313,0.47556394,-0.87887585,-0.0355827,0.87957877,0.47442073,0.99865794,0.013419225,0.050022434,0.052230835,0.1257019,-0.12583923,9.79512,0.12568665,0.4562378,0.003189087,0.027679443,0.007461548,-27.642822,9.298706,3.1402588,0,0.0,0.0,0.0,0.0
1.277252197,0.037063308,0.4168884,-0.9082017,-0.031085718,0.90886724,0.4159253,0.99882925,0.012816534,0.046644904,0.03762323,0.47440466,-0.87950253,-0.035489313,0.8802048,0.47326532,0.99866164,0.013407173,0.049952444,0.009124756,0.0012054443,-0.06958008,9.79512,0.12568665,0.45742798,0.008514404,0.037261963,0.0063934326,-27.642822,9.298706,3.1402588,0,0.0,0.0,0.0,0.0
1.281616211,0.037218057,0.41728485,-0.9080134,-0.031213347,0.908685,0.4163141,0.9988196,0.01284773,0.046844345,0.03761618,0.47327277,-0.88011247,-0.035399288,0.8808141,0.4721371,0.9986651,0.01339536,0.04988638,-0.0050811768,0.07272339,0.08169556,9.794968,0.12599182,0.4593811,0.0010528564,0.03300476,0.0010681152,-27.642822,9.298706,3.1402588,0,0.0,0.0,0.0,0.0
1.285980225,0.03698965,0.42819747,-0.9029279,-0.03166146,0.90359485,0.42721668,0.998814,0.012785419,0.046981007,0.037611954,0.47217047,-0.8807045,-0.035313863,0.88140565,0.47103822,0.99866825,0.013384407,0.049825553,-0.048187256,0.006286621,-0.020202637,9.794968,0.12538147,0.46072388,0.0,0.039398193,0.0010681152,-28.54004,10.91156,4.005432,0,0.0,0.0,0.0,0.0
1.290344238,0.037067037,0.42836884,-0.9028433,-0.031708106,0.9035134,0.42738497,0.9988096,0.012785561,0.047073334,0.039849196,0.47102252,-0.8812206,-0.035484977,0.8820319,0.46985152,0.9985754,0.012546888,0.051862486,0.028579712,-0.0032806396,-0.13122559,9.794815,0.12538147,0.46162415,0.004257202,0.031936646,0.012786865,-28.54004,10.91156,4.005432,0,0.0,0.0,0.0,0.0
1.294708252,0.037188478,0.4286378,-0.90271074,-0.031798247,0.9033857,0.4276483,0.9988022,0.012801027,0.047225475,0.03979623,0.47017968,-0.88167304,-0.03540609,0.88248146,0.46901268,0.99858034,0.012551661,0.051766656,0.004638672,-0.032165527,0.025283813,9.794815,0.12553406,0.4631195,0.008514404,0.03300476,0.0010681152,-28.54004,10.91156,4.005432,0,0.0,0.0,0.0,0.0
1.299072266,0.03534469,0.48339945,-0.874686,-0.034075134,0.87530684,0.48236567,0.9987941,0.012755979,0.04740936,0.039746575,0.4693585,-0.8821127,-0.03533087,0.8829184,0.4681953,0.998585,0.012556648,0.051675826,-0.0095825195,-0.017364502,0.080947876,9.794678,0.12509155,0.46492004,0.006378174,0.034072876,-0.0053253174,-29.257202,8.760071,3.6590576,0,0.0,0.0,0.0,0.0
1.303436279,0.035491183,0.4837949,-0.8744614,-0.03414484,0.87508875,0.48275617,0.99878645,0.012724762,0.047577042,0.039746575,0.4693585,-0.8821127,-0.03533087,0.8829184,0.4681953,0.998585,0.012556648,0.051675826,-0.0095825195,-0.017059326,0.07929993,9.794678,0.12478638,0.466568,0.006378174,0.034072876,-0.0053253174,-29.257202,8.760071,3.6590576,0,0.0,0.0,0.0,0.0
1.307800293,0.03559991,0.4840884,-0.8742947,-0.03422328,0.8749266,0.48304477,0.99877995,0.012724877,0.0477144,0.03957708,0.46993265,-0.8818146,-0.035286356,0.8826129,0.46877432,0.9985933,0.012563304,0.051513452,-0.03816223,0.021255493,-0.08963013,9.794525,0.12478638,0.46791077,0.0010528564,0.029815674,0.0053253174,-29.257202,8.760071,3.6590576,0,0.0,0.0,0.0,0.0
1.312164307,0.03699516,0.45237237,-0.8910615,-0.03301942,0.8917383,0.4513451,0.99876976,0.012724748,0.04792708,0.039497133,0.47021696,-0.88166654,-0.03526628,0.88246137,0.46906096,0.99859715,0.012566536,0.051437497,-0.10519409,-0.064941406,0.17163086,9.794525,0.12478638,0.47000122,0.022369385,0.04046631,0.0021362305,-28.181458,10.194397,4.005432,0,0.0,0.0,0.0,0.0
1.31652832,0.03716561,0.45276287,-0.8908561,-0.033112038,0.8915404,0.45172927,0.99876034,0.0127092665,0.04812654,0.03944781,0.46986192,-0.8818581,-0.035220213,0.88265043,0.4687086,0.9986008,0.0125697,0.051367264,-0.057159424,0.021408081,-0.012268066,9.794373,0.12463379,0.47195435,0.004257202,0.034072876,-0.007446289,-28.181458,10.194397,4.005432,0,0.0,0.0,0.0,0.0
1.320892334,0.037340757,0.45316404,-0.8906448,-0.033260167,0.89133614,0.45212138,0.99874896,0.012740439,0.048355475,0.039402768,0.46952164,-0.88204134,-0.035177037,0.88283145,0.4683708,0.99860406,0.012572492,0.05130238,0.067489624,0.092926025,-0.07197571,9.79422,0.124938965,0.4741974,0.0,0.043655396,0.0063934326,-28.181458,10.194397,4.005432,0,0.0,0.0,0.0,0.0
1.325256348,0.037483905,0.45349184,-0.89047194,-0.033403274,0.8911689,0.45244065,0.9987388,0.012785433,0.04855259,0.039362106,0.46919602,-0.8822164,-0.035137847,0.8830045,0.4680474,0.998607,0.012575851,0.051243454,-0.004333496,-0.022445679,-0.083496094,9.79422,0.12538147,0.47613525,0.0053253174,0.059646606,0.0032043457,-28.181458,10.194397,4.005432,0,0.0,0.0,0.0,0.0
1.329620361,0.037640706,0.45385084,-0.89028233,-0.03348937,0.8909862,0.45279375,0.99873006,0.012771516,0.048736528,0.039325036,0.4688834,-0.8823843,-0.035102405,0.8831705,0.46773678,0.9986097,0.012580043,0.051189642,0.034118652,-0.02230835,-0.06614685,9.794067,0.12524414,0.4779358,0.008514404,0.05218506,-0.012771606,-28.181458,10.194397,4.005432,0,0.0,0.0,0.0,0.0
1.333984375,0.03778483,0.45418075,-0.890108,-0.03356542,0.89081824,0.45311832,0.99872196,0.012755852,0.048904177,0.03929179,0.46858403,-0.8825447,-0.035069495,0.88332933,0.4674393,0.9986122,0.012583871,0.051140595,0.04849243,0.020950317,-7.4768066E-4,9.794067,0.12509155,0.47958374,0.01171875,0.050048828,0.0021362305,-28.181458,10.194397,4.005432,0,0.0,0.0,0.0,0.0
1.338348389,0.040175788,0.391087,-0.91947633,-0.03090003,0.92026544,0.3900725,0.99871475,0.012740379,0.049056996,0.039262004,0.46829715,-0.88269824,-0.035038833,0.8834814,0.4671541,0.99861443,0.012587312,0.051095832,-0.013626099,-0.012420654,0.016906738,9.79393,0.124938965,0.4810791,0.013839722,0.038330078,0.0063934326,-27.822876,9.835815,2.9678345,0,0.0,0.0,0.0,0.0
1.342712402,0.040329434,0.3914704,-0.9193066,-0.03095361,0.9201031,0.39045167,0.99870694,0.01270916,0.049224656,0.03928445,0.4667847,-0.883498,-0.034955315,0.88428134,0.46564427,0.99861646,0.012590374,0.051055115,0.0438385,-0.045639038,0.16848755,9.79393,0.12463379,0.48272705,-0.0095825195,0.034072876,0.0021362305,-27.822876,9.835815,2.9678345,0,0.0,0.0,0.0,0.0
1.347076416,0.040499374,0.39189434,-0.9191184,-0.031084374,0.9199221,0.39086735,0.998696,0.012740339,0.049438056,0.03930926,0.46530852,-0.88427526,-0.034874834,0.885059,0.4641706,0.99861836,0.01259275,0.05101857,0.02961731,0.006729126,0.20471191,9.793777,0.124938965,0.4848175,0.007446289,0.023422241,0.0032043457,-27.822876,9.835815,2.9678345,0,0.0,0.0,0.0,0.0
1.35144043,0.03708489,0.48652795,-0.8728776,-0.035183564,0.8735726,0.48542053,0.9986926,0.012709176,0.04951413,0.03933659,0.46386874,-0.8850302,-0.03479886,0.88581437,0.4627331,0.9986199,0.012595701,0.05098702,0.0056762695,-0.0552063,0.2135315,9.793777,0.12463379,0.4855652,0.013839722,0.030883789,-0.0063934326,-28.361511,9.657288,4.1778564,0,0.0,0.0,0.0,0.0
1.355804443,0.03709586,0.48655376,-0.8728627,-0.035226885,0.8735577,0.48544407,0.9986906,0.01274027,0.04954515,0.039291553,0.464325,-0.8847929,-0.03480749,0.8855753,0.46318987,0.9986214,0.012597971,0.050957616,0.015258789,0.073776245,0.06958008,9.793777,0.124938965,0.48587036,-0.015975952,0.007461548,-0.008514404,-28.361511,9.657288,4.1778564,0,0.0,0.0,0.0,0.0
1.360168457,0.03716403,0.48671404,-0.87277037,-0.0352576,0.87346864,0.48560208,0.998687,0.012724863,0.049621988,0.03972991,0.46418452,-0.884847,-0.034199424,0.88565904,0.46307495,0.99862504,0.011863332,0.051062,-0.042053223,-0.060150146,0.17417908,9.793625,0.12478638,0.48661804,0.0095825195,0.0021362305,0.01171875,-28.361511,9.657288,4.1778564,0,0.0,0.0,0.0,0.0
1.364532471,0.03761126,0.4762205,-0.8785212,-0.034791496,0.8792344,0.47511756,0.9986867,0.012695295,0.04963753,0.03967897,0.4646382,-0.8846111,-0.034221698,0.8854209,0.46352848,0.9986263,0.011880563,0.0510333,-0.018112183,-0.08859253,0.06388855,9.793625,0.12449646,0.48677063,-0.0010681152,0.003189087,0.0021362305,-27.464294,10.194397,4.350281,0,0.0,0.0,0.0,0.0
1.368896484,0.037592545,0.4761798,-0.8785441,-0.03479468,0.87925625,0.47507694,0.99868727,0.012709307,0.049622,0.039637636,0.46487063,-0.88449085,-0.034233533,0.88529867,0.46376103,0.99862754,0.011896857,0.05100531,0.039352417,0.04055786,-0.031723022,9.793625,0.12463379,0.48661804,0.003189087,-0.01171875,-0.0063934326,-27.464294,10.194397,4.350281,0,0.0,0.0,0.0,0.0
1.373260498,0.037609626,0.47621688,-0.8785232,-0.034823943,0.8792358,0.47511238,0.9986856,0.012724845,0.049651477,0.03959685,0.46509758,-0.88437337,-0.03424523,0.8851792,0.4639881,0.99862874,0.011913105,0.050977685,0.058502197,0.030822754,0.0541687,9.793625,0.12478638,0.48690796,0.018096924,-0.0138549805,0.0010681152,-27.464294,10.194397,4.350281,0,0.0,0.0,0.0,0.0
1.377624512,0.03688111,0.49403486,-0.86865944,-0.035542898,0.8693493,0.49291816,0.9986874,0.012695304,0.049622007,0.039557263,0.46532074,-0.88425785,-0.03425728,0.88506174,0.46421131,0.9986299,0.01192934,0.050951246,-0.022888184,-0.05986023,-0.06524658,9.793625,0.12449646,0.48661804,0.004257202,-0.015975952,-0.008514404,-27.642822,10.015869,4.522705,0,0.0,0.0,0.0,0.0
1.381988525,0.036888167,0.4940503,-0.8686505,-0.035530042,0.86934096,0.49293417,0.9986876,0.012679747,0.049622018,0.0395042,0.46590003,-0.88395506,-0.034284357,0.88475674,0.46479034,0.99863106,0.01194466,0.050924692,-0.051620483,-0.050125122,-0.022155762,9.793625,0.12434387,0.48661804,0.0021209717,-0.0021362305,-0.0053253174,-27.642822,10.015869,4.522705,0,0.0,0.0,0.0,0.0
1.386352539,0.03693652,0.49415573,-0.86858845,-0.035564367,0.86928105,0.4930374,0.99868464,0.012679709,0.04968255,0.039452367,0.46646783,-0.88365793,-0.034310605,0.8844573,0.465358,0.99863225,0.011959363,0.05089873,0.029769897,0.016906738,0.1879425,9.793625,0.12434387,0.48721313,0.01171875,-0.020233154,-0.004257202,-27.642822,10.015869,4.522705,0,0.0,0.0,0.0,0.0
1.390716553,0.03923714,0.43421555,-0.89995414,-0.032991353,0.9007195,0.43314648,0.99868506,0.012695274,0.049667012,0.03940249,0.4670262,-0.88336515,-0.034336906,0.88416237,0.46591613,0.99863327,0.01197377,0.050874434,0.16384888,0.04069519,-0.051330566,9.793625,0.12449646,0.48706055,-0.0032043457,-0.019180298,-0.0021209717,-28.89862,9.477234,3.312683,0,0.0,0.0,0.0,0.0
1.395080566,0.039167907,0.43403575,-0.9000437,-0.032929868,0.9008063,0.4329705,0.9986899,0.012679775,0.049575448,0.039399613,0.46637604,-0.8837087,-0.03430942,0.8845053,0.4652668,0.99863434,0.0119882,0.05085026,-0.06599426,-0.09802246,0.06929016,9.793625,0.12434387,0.48616028,0.0053253174,-0.019180298,0.007461548,-28.89862,9.477234,3.312683,0,0.0,0.0,0.0,0.0
1.39944458,0.039018072,0.4336467,-0.90023786,-0.03290126,0.90099293,0.43258443,0.9986967,0.012740348,0.04942253,0.03939547,0.46573514,-0.88404685,-0.03428124,0.8848428,0.4646268,0.99863553,0.012002031,0.050824776,-0.023040771,-0.060302734,-0.044143677,9.793777,0.124938965,0.48466492,-0.0010681152,-0.02557373,-0.004257202,-28.89862,9.477234,3.312683,0,0.0,0.0,0.0,0.0
1.403808594,0.034071222,0.5517738,-0.83329755,-0.037802707,0.8338965,0.5506247,0.99870425,0.012740444,0.049270418,0.039388355,0.4650991,-0.88438195,-0.034252923,0.8851771,0.46399173,0.9986368,0.0120167965,0.050796673,-0.05177307,-0.074661255,0.086639404,9.793777,0.124938965,0.48316956,0.010650635,-0.031951904,-0.019165039,-28.361511,8.581543,4.522705,0,0.0,0.0,0.0,0.0
1.408172608,0.03393696,0.5514469,-0.83351934,-0.037709445,0.8341124,0.55030394,0.9987123,0.012755908,0.049102,0.03928554,0.46688184,-0.88344663,-0.034330796,0.8842378,0.46577334,0.99863815,0.012031269,0.05076619,0.03904724,0.006576538,0.06913757,9.79393,0.12509155,0.4815216,0.0,-0.041549683,-0.0063934326,-28.361511,8.581543,4.522705,0,0.0,0.0,0.0,0.0
1.412536621,0.03373472,0.55095446,-0.8338532,-0.037504137,0.83443826,0.54982376,0.99872684,0.012724795,0.048812613,0.03918169,0.4686202,-0.8825304,-0.034405187,0.88331765,0.46751073,0.99863964,0.012045762,0.050732844,0.08200073,-0.16069031,-0.16265869,9.794067,0.12478638,0.47868347,0.0095825195,-0.043670654,-0.0010681152,-28.361511,8.581543,4.522705,0,0.0,0.0,0.0,0.0
1.416900635,0.03695619,0.4687975,-0.88253224,-0.034073763,0.8832131,0.4677323,0.9987357,0.012785592,0.04861388,0.039075483,0.47031158,-0.8816349,-0.03447415,0.882418,0.46920142,0.99864143,0.012059342,0.050694503,0.0053863525,0.078125,0.021255493,9.794067,0.12538147,0.47673035,0.010650635,-0.04899597,-0.0063934326,-27.28424,10.015869,4.1778564,0,0.0,0.0,0.0,0.0
1.421264649,0.036869798,0.4686061,-0.88263744,-0.033982527,0.88331515,0.46754637,0.99874216,0.012755912,0.04849207,0.039033055,0.47028133,-0.8816529,-0.03446604,0.88243395,0.46917203,0.99864334,0.012073868,0.050652828,-0.076156616,-0.012573242,0.05596924,9.79422,0.12509155,0.47554016,0.003189087,-0.045806885,-0.008514404,-27.28424,10.015869,4.1778564,0,0.0,0.0,0.0,0.0
1.425628662,0.036713842,0.46826047,-0.8828274,-0.033896245,0.88349825,0.46720666,0.99875087,0.012771583,0.048308887,0.037243925,0.47022915,-0.88175815,-0.03297144,0.8824682,0.46921512,0.99876213,0.011597424,0.04837071,0.033966064,0.03036499,3.0517578E-4,9.79422,0.12524414,0.47373962,0.0,-0.034088135,0.007461548,-27.28424,10.015869,4.1778564,0,0.0,0.0,0.0,0.0
1.429992676,0.034718607,0.515597,-0.85612756,-0.03579907,0.85673577,0.5145115,0.9987557,0.01278545,0.04820256,0.037233308,0.47018975,-0.8817796,-0.032989927,0.8824888,0.46917495,0.9987619,0.011620907,0.048369505,0.014663696,0.0493927,0.006134033,9.794373,0.12538147,0.47270203,0.01171875,-0.039413452,-0.0010681152,-26.567078,9.298706,4.522705,0,0.0,0.0,0.0,0.0
1.43435669,0.034674678,0.51550055,-0.8561874,-0.03578452,0.8567935,0.5144163,0.9987577,0.012801035,0.04815598,0.03718494,0.4711109,-0.88128984,-0.033047736,0.88199717,0.47009453,0.9987618,0.011644199,0.04836616,0.029022217,0.049240112,-0.11790466,9.794373,0.12553406,0.47224426,-0.0053253174,-0.02557373,0.0010681152,-26.567078,9.298706,4.522705,0,0.0,0.0,0.0,0.0
1.438720703,0.03469172,0.5155379,-0.8561641,-0.03581533,0.8567708,0.514452,0.9987561,0.012816574,0.04818702,0.037136484,0.47201115,-0.8808101,-0.033104043,0.8815154,0.4709934,0.9987617,0.011667335,0.048361856,0.043395996,0.025146484,0.09246826,9.794373,0.12568665,0.47254944,0.003189087,-0.018112183,0.0021362305,-26.567078,9.298706,4.522705,0,0.0,0.0,0.0,0.0
1.443084717,0.03645714,0.4709006,-0.88143265,-0.033938922,0.8820936,0.46984997,0.99875873,0.012785489,0.04814047,0.037089407,0.47289366,-0.88033855,-0.033159815,0.88104194,0.47187445,0.99876165,0.0116903195,0.048358392,0.014663696,-0.07989502,-0.13212585,9.794373,0.12538147,0.47209167,0.003189087,-0.02130127,0.0063934326,-28.361511,10.015869,4.1778564,0,0.0,0.0,0.0,0.0
1.447448731,0.03646992,0.47093004,-0.88141644,-0.03391409,0.88207835,0.46988043,0.9987591,0.0127559295,0.04814049,0.03707678,0.47285378,-0.8803604,-0.033175394,0.88106304,0.47183394,0.99876153,0.011712223,0.048354093,0.052978516,-0.0796051,0.021102905,9.794373,0.12509155,0.47209167,0.007446289,-0.0063934326,0.0021362305,-28.361511,10.015869,4.1778564,0,0.0,0.0,0.0,0.0
1.451812744,0.036453586,0.4708924,-0.8814372,-0.03385024,0.88209915,0.46984607,0.9987619,0.012709286,0.0480955,0.037064586,0.47281536,-0.88038164,-0.03319013,0.88108337,0.47179493,0.99876153,0.011733098,0.048349794,-0.06674194,-0.1126709,-0.12210083,9.794373,0.12463379,0.47164917,0.003189087,-0.014907837,-0.0010681152,-28.361511,10.015869,4.1778564,0,0.0,0.0,0.0,0.0
