Time,Rot1,Rot2,Rot3,Rot4,Rot5,Rot6,Rot7,Rot8,Rot9,FRot1,FRot2,FRot3,FRot4,FRot5,FRot6,FRot7,FRot8,FRot9,AccX,AccY,AccZ,GravX,GravY,GravZ,GyroX,GyroY,GyroZ,MagX,MagY,MagZ,Imid
0.0,0.0,0.0,0.0,0.0,0.0,0.0,0.0,0.0,0.0,0.0,0.0,0.0,0.0,0.0,0.0,0.0,0.0,0.0,0.0032806396,0.012268066,0.051330566,9.7435,0.009277344,1.109848,0.0,0.0,0.0,0.0,0.0,0.0,0,0.0,0.0,0.0,0.0
0.004425049,0.10287572,0.41011375,-0.9062137,-0.04729068,0.91203386,0.40737915,0.99356943,9.460343E-4,0.11322071,1.0,0.0,0.0,0.0,1.0,0.0,0.0,0.0,1.0,-0.18824768,-0.0068969727,0.07481384,9.7435,0.009277344,1.1103058,0.0,0.0,0.0,-28.361511,12.52594,2.4490356,0,0.0,0.0,0.0,0.0
0.008850098,0.10295807,0.4102834,-0.9061275,-0.04736606,0.91195744,0.40754116,0.9935572,9.6004136E-4,0.11332689,0.99953955,0.008451471,-0.02914161,-0.008448433,0.9999643,2.2738497E-4,0.029142492,1.8920671E-5,0.99957526,-0.12106323,-0.030960083,0.0115356445,9.743347,0.009414673,1.1113434,0.0021362305,0.011703491,-0.007461548,-28.361511,12.52594,2.4490356,0,0.0,0.0,0.0,0.0
0.013275147,0.10301872,0.4104083,-0.90606403,-0.047493454,0.9119012,0.4076523,0.9935449,0.0010362879,0.11343462,0.99819547,0.016737051,-0.05766869,-0.016711367,0.9998599,9.276536E-4,0.05767614,3.774307E-5,0.99833536,0.041900635,0.13108826,0.029632568,9.743195,0.0101623535,1.1123962,-0.007461548,0.025543213,-0.007461548,-28.361511,12.52594,2.4490356,0,0.0,0.0,0.0,0.0
0.017669678,0.107828096,0.30790925,-0.9452856,-0.036011353,0.9514151,0.30579802,0.99351716,0.0010673946,0.113677524,0.9960223,0.02485855,-0.08556644,-0.024772264,0.99969095,0.002070195,0.08559146,5.771395E-5,0.9963303,-0.010620117,0.07810974,0.26664734,9.743042,0.010467529,1.1147919,-0.010635376,0.02128601,-0.007461548,-27.464294,13.421631,1.2390137,0,0.0,0.0,0.0,0.0
0.022094727,0.107951716,0.30815357,-0.9451919,-0.036177944,0.95133585,0.3060247,0.9934976,0.0011592084,0.11384671,0.9931426,0.030618994,-0.112828165,-0.03043209,0.99953115,0.0033788595,0.11287872,7.790755E-5,0.9936088,-0.0677948,0.034118652,-0.02708435,9.742752,0.011367798,1.1164398,-0.004257202,0.03300476,-0.0021362305,-27.464294,13.421631,1.2390137,0,0.0,0.0,0.0,0.0
0.026519776,0.10808275,0.30841252,-0.94509256,-0.036316354,0.9512519,0.3062693,0.9934783,0.0012198872,0.11401433,0.98956525,0.036268376,-0.13944641,-0.035927452,0.9993421,0.0049622,0.13953464,9.953355E-5,0.9902172,0.15263367,0.0574646,-0.0287323,9.7425995,0.011962891,1.1180878,-0.0063934326,0.039398193,-0.020248413,-27.464294,13.421631,1.2390137,0,0.0,0.0,0.0,0.0
0.030944824,0.10858142,0.30033925,-0.94763196,-0.035492733,0.9538316,0.29823732,0.9934538,0.0012510151,0.114228256,0.98533714,0.041809093,-0.16541673,-0.04125231,0.9991256,0.0068016136,0.16555648,1.2194061E-4,0.98620033,0.1289978,-3.0517578E-4,0.050582886,9.742294,0.012268066,1.1201782,0.0095825195,0.04258728,-0.0063934326,-28.361511,12.52594,0.72021484,0,0.0,0.0,0.0,0.0
0.035369873,0.108738765,0.30068815,-0.9475034,-0.035600703,0.95372176,0.29857588,0.9934327,0.001265012,0.11441123,0.98051196,0.047068425,-0.19073746,-0.04622999,0.99889165,0.008845652,0.1909424,1.4452208E-4,0.98160124,0.09562683,-0.081832886,0.03919983,9.742142,0.0124053955,1.1219788,0.0095825195,0.04685974,-0.0053253174,-28.361511,12.52594,0.72021484,0,0.0,0.0,0.0,0.0
0.039794922,0.10890334,0.30105302,-0.9473686,-0.03573094,0.9536066,0.29892793,0.99341,0.0012961202,0.11460783,0.97512645,0.05222861,-0.21540795,-0.051035162,0.9986352,0.011102609,0.21569383,1.6693187E-4,0.97646105,0.1771698,0.004043579,0.22880554,9.742004,0.012710571,1.1239166,-0.0021362305,0.039398193,-0.0138549805,-28.361511,12.52594,0.72021484,0,0.0,0.0,0.0,0.0
0.044219971,0.10995837,0.27405852,-0.95540625,-0.03272021,0.96171206,0.27210152,0.9933974,0.0013412472,0.11471554,0.96922195,0.05729188,-0.23942938,-0.05566543,0.9983575,0.01355564,0.23981275,1.8951563E-4,0.9708192,0.16773987,0.085006714,0.0026855469,9.741852,0.013153076,1.1249695,0.010650635,0.028747559,-0.0032043457,-27.642822,13.601685,0.72021484,0,0.0,0.0,0.0,0.0
0.04864502,0.1100336,0.27420866,-0.95535445,-0.032792427,0.96166915,0.27224422,0.9933867,0.0013723734,0.114807904,0.9628719,0.061689824,-0.26281568,-0.059568815,0.9980954,0.01603855,0.26330453,2.1255025E-4,0.96471274,0.057754517,0.08947754,0.24121094,9.741699,0.013458252,1.1258698,-0.0053253174,0.027679443,-0.004257202,-27.642822,13.601685,0.72021484,0,0.0,0.0,0.0,0.0
0.053070068,0.11009149,0.2743242,-0.95531464,-0.032807186,0.96163625,0.27235878,0.99337983,0.0013568042,0.114867784,0.9560838,0.06600176,-0.2855652,-0.06330872,0.9978195,0.018662611,0.2861743,2.357467E-4,0.95817757,0.048187256,-0.044418335,0.14006042,9.741699,0.013305664,1.1264648,0.0063934326,0.023422241,0.0021362305,-27.642822,13.601685,0.72021484,0,0.0,0.0,0.0,0.0
0.057495117,0.106226124,0.37080315,-0.9226164,-0.04381558,0.9287106,0.36820766,0.99337614,0.0013116968,0.11490028,0.94889325,0.07022866,-0.30768427,-0.06688427,0.9975309,0.02141555,0.30842853,2.5816786E-4,0.95124745,0.14889526,-0.10623169,0.10144043,9.741547,0.012863159,1.12677,-0.0021362305,-0.007461548,0.0,-26.208496,13.601685,2.4490356,0,0.0,0.0,0.0,0.0
0.061920166,0.106267385,0.3708765,-0.92258215,-0.043873437,0.9286812,0.36827472,0.99336916,0.0013412512,0.114960164,0.9411886,0.07640372,-0.32912993,-0.072213575,0.9970769,0.024956115,0.33007458,2.7923845E-4,0.94395477,0.057907104,0.085006714,0.19662476,9.741547,0.013153076,1.1273651,0.004257202,-0.0010681152,-0.004257202,-26.208496,13.601685,2.4490356,0,0.0,0.0,0.0,0.0
0.066345215,0.10629715,0.37092936,-0.9225575,-0.04387738,0.92866015,0.36832747,0.9933658,0.0013272429,0.11498934,0.93313354,0.082454026,-0.34994715,-0.07730938,0.9965948,0.028670836,0.35111955,3.0047868E-4,0.93633056,0.072280884,-0.06329346,0.07183838,9.741547,0.013015747,1.127655,0.007461548,-0.0138549805,0.0,-26.208496,13.601685,2.4490356,0,0.0,0.0,0.0,0.0
0.070770264,0.11063666,0.2625591,-0.9585521,-0.03148569,0.964915,0.26066786,0.99336207,0.0013412625,0.11502182,0.92461085,0.08838172,-0.37051773,-0.082383364,0.99608624,0.032018058,0.37189746,9.2025974E-4,0.9282734,0.14425659,0.061065674,0.09068298,9.741394,0.013153076,1.1279602,0.008529663,-0.0053253174,-0.0032043457,-27.105713,13.421631,0.5477905,0,0.0,0.0,0.0,0.0
0.075164795,0.11064676,0.26257926,-0.9585455,-0.031506952,0.96490955,0.26068568,0.9933603,0.00135682,0.11503718,0.9161403,0.09191082,-0.3901785,-0.08492653,0.9957668,0.035156,0.39175805,9.286798E-4,0.92006785,0.22566223,0.046539307,0.090530396,9.741394,0.013305664,1.1281128,-0.004257202,-0.0032043457,0.0021362305,-27.105713,13.421631,0.5477905,0,0.0,0.0,0.0,0.0
0.079589844,0.11066067,0.26260695,-0.95853627,-0.031514153,0.9649019,0.2607127,0.9933585,0.0013568175,0.11505253,0.9074229,0.09536863,-0.40925378,-0.08732298,0.9954416,0.03835038,0.41104564,9.372425E-4,0.91161436,0.41241455,-0.015686035,0.07122803,9.741394,0.013305664,1.1282654,0.014907837,0.004257202,-0.0053253174,-27.105713,13.421631,0.5477905,0,0.0,0.0,0.0,0.0
0.084014893,0.10725635,0.35042033,-0.9304308,-0.041568413,0.9365915,0.34794873,0.99336207,0.0013568224,0.11502182,0.89848405,0.09875673,-0.42775398,-0.08957568,0.9951111,0.04159308,0.42977035,9.4563403E-4,0.9029377,0.41241455,0.0034484863,0.038009644,9.741394,0.013305664,1.1279602,0.008529663,-0.004257202,0.003189087,-27.105713,13.421631,1.9302368,0,0.0,0.0,0.0,0.0
0.088439942,0.1072431,0.35039517,-0.930442,-0.041560154,0.936601,0.34792435,0.9933638,0.0013568248,0.11500646,0.89848405,0.09875673,-0.42775398,-0.08957568,0.9951111,0.04159308,0.42977035,9.4563403E-4,0.9029377,0.41241455,0.0034484863,0.03816223,9.741394,0.013305664,1.1278076,0.008529663,-0.004257202,0.003189087,-27.105713,13.421631,1.9302368,0,0.0,0.0,0.0,0.0
0.09286499,0.1072031,0.35031912,-0.9304751,-0.04153522,0.93662935,0.34785074,0.99336916,0.0013568109,0.114960164,0.8796896,0.10896056,-0.46289727,-0.09687615,0.9940456,0.04988327,0.46557632,9.619171E-4,0.8850072,0.15368652,-0.039627075,0.0769043,9.741547,0.013305664,1.1273651,0.003189087,-0.012786865,-0.0053253174,-27.105713,13.421631,1.9302368,0,0.0,0.0,0.0,0.0
0.097290039,0.107137784,0.350195,-0.9305294,-0.04144669,0.93667597,0.34773615,0.99337995,0.0013116812,0.11486781,0.8796896,0.10896056,-0.46289727,-0.09687615,0.9940456,0.04988327,0.46557632,9.619171E-4,0.8850072,0.15353394,-0.03918457,0.077804565,9.741699,0.012863159,1.1264648,0.003189087,-0.012786865,-0.0053253174,-27.105713,13.421631,1.9302368,0,0.0,0.0,0.0,0.0
0.101715088,0.10980992,0.2764672,-0.95472914,-0.032897796,0.9610226,0.27450585,0.9934081,0.0012650182,0.11462497,0.8602602,0.11874113,-0.4958355,-0.103366785,0.99292475,0.058444124,0.49926707,9.7576773E-4,0.86644757,0.11027527,-0.048309326,-0.049087524,9.741852,0.0124053955,1.1240692,0.0010681152,-0.0234375,0.004257202,-27.822876,14.138794,0.89416504,0,0.0,0.0,0.0,0.0
0.106140137,0.10963864,0.27613744,-0.95484424,-0.032777123,0.96111745,0.27418804,0.993431,0.0012354462,0.11442658,0.85052276,0.1219396,-0.51160693,-0.105001874,0.992537,0.06200673,0.5153499,9.815528E-4,0.85697925,0.13392639,-0.009735107,0.05342102,9.742142,0.0121154785,1.1221313,0.0,-0.050064087,0.0063934326,-27.822876,14.138794,0.89416504,0,0.0,0.0,0.0,0.0
0.110565186,0.10364955,0.4124006,-0.905087,-0.048202097,0.9110018,0.4095756,0.99344516,0.0011747614,0.11430351,0.84068996,0.12506607,-0.5268765,-0.10650189,0.9921479,0.065573186,0.5309405,9.866306E-4,0.84740853,0.033218384,0.067474365,0.116867065,9.742294,0.011520386,1.1209259,-0.008514404,-0.046875,0.004257202,-26.38855,11.628723,2.2766113,0,0.0,0.0,0.0,0.0
0.114990234,0.10350498,0.41210237,-0.90523946,-0.048078705,0.91113687,0.4092898,0.9934662,0.0011592081,0.114120536,0.8304616,0.13101059,-0.5414515,-0.11029073,0.9913805,0.07071571,0.54604894,9.903932E-4,0.8377527,-0.0052337646,0.09635925,-0.09202576,9.742447,0.011367798,1.1191254,0.008529663,-0.03729248,0.022354126,-26.38855,11.628723,2.2766113,0,0.0,0.0,0.0,0.0
0.119415283,0.10334752,0.4117775,-0.9054052,-0.04794596,0.91128373,0.40897825,0.9934891,0.0011436387,0.11392198,0.82016337,0.13682517,-0.5555276,-0.11384694,0.99059474,0.075901166,0.56068796,9.937695E-4,0.8280266,0.13331604,-0.0231781,-0.18106079,9.742752,0.01121521,1.1171875,0.018112183,-0.036224365,0.01171875,-26.38855,11.628723,2.2766113,0,0.0,0.0,0.0,0.0
0.123840332,0.103305146,0.4116901,-0.9054497,-0.047931813,0.9113231,0.40889195,0.99349415,0.0011592044,0.11387744,0.8098115,0.14251184,-0.5691183,-0.117176816,0.9897926,0.08111852,0.57486945,9.96767E-4,0.8182445,-0.01991272,0.058059692,-0.14231873,9.742752,0.011367798,1.116745,-0.003189087,-0.024505615,0.003189087,-26.38855,11.628723,2.2766113,0,0.0,0.0,0.0,0.0
0.128265381,0.1032367,0.4115489,-0.9055218,-0.047930736,0.9113869,0.40875006,0.9935013,0.0012043194,0.11381441,0.7994229,0.1480783,-0.5822335,-0.120291986,0.98897517,0.086359814,0.5886025,0.0010000158,0.808422,0.06135559,0.11985779,-0.16085815,9.742889,0.011810303,1.1161346,0.0095825195,-0.007461548,-0.004257202,-26.38855,11.628723,2.2766113,0,0.0,0.0,0.0,0.0
0.132659912,0.103167914,0.41140693,-0.9055941,-0.0478633,0.9114509,0.40861493,0.9935116,0.0011887721,0.11372379,0.7890118,0.15352581,-0.5948867,-0.123198666,0.98814416,0.0916148,0.6018991,0.0010041018,0.7985716,0.19543457,-0.028411865,-0.19825745,9.742889,0.011657715,1.1152344,0.0063934326,0.0063934326,-0.008529663,-26.38855,11.628723,2.2766113,0,0.0,0.0,0.0,0.0
0.137084961,0.10696322,0.33282313,-0.9369032,-0.039004583,0.94298846,0.3305318,0.9934976,0.0011887721,0.11384671,0.77923155,0.15833172,-0.60640687,-0.12544034,0.9873857,0.09661401,0.6140545,7.831934E-4,0.78926325,0.05192566,3.0517578E-4,0.06388855,9.742752,0.011657715,1.1164398,0.0021362305,0.013824463,0.008514404,-26.92566,13.601685,1.7578125,0,0.0,0.0,0.0,0.0
0.14151001,0.10707823,0.3330392,-0.9368133,-0.039089244,0.9429122,0.33073944,0.9934819,0.0012043318,0.113983616,0.7690326,0.1618911,-0.61836886,-0.12666626,0.9868083,0.10082169,0.6265337,7.91305E-4,0.779394,0.09037781,0.019302368,0.067337036,9.7425995,0.011810303,1.1177826,0.0,0.024490356,0.0,-26.92566,13.601685,1.7578125,0,0.0,0.0,0.0,0.0
0.145935059,0.10722395,0.33331293,-0.9366993,-0.03922502,0.9428154,0.3309992,0.99346083,0.0012510044,0.114166595,0.75885147,0.16538179,-0.6299153,-0.12777029,0.9862293,0.10500725,0.63860726,7.995655E-4,0.76953244,0.114471436,-0.009887695,0.17088318,9.742447,0.012268066,1.1195831,0.0053253174,0.024490356,-0.0021362305,-26.92566,13.601685,1.7578125,0,0.0,0.0,0.0,0.0
0.150360108,0.10505394,0.38499758,-0.916919,-0.04521876,0.92291665,0.38233504,0.99343795,0.0012961384,0.11436515,0.7486984,0.16880637,-0.6410578,-0.1287587,0.98564893,0.10916702,0.650286,8.085943E-4,0.75968903,0.06689453,-0.0103302,0.08274841,9.742142,0.012710571,1.121521,0.0053253174,0.027679443,-0.010650635,-28.54004,14.855957,2.9678345,0,0.0,0.0,0.0,0.0
0.154785156,0.105216876,0.38528296,-0.91678053,-0.045341816,0.9227976,0.3826079,0.9934151,0.0013116867,0.1145633,0.73843974,0.17325161,-0.6516829,-0.13045004,0.9848772,0.11401569,0.66158104,8.183451E-4,0.7498732,0.16279602,-0.05834961,0.1478424,9.742004,0.012863159,1.1234741,-0.007461548,0.04258728,-0.01171875,-28.54004,14.855957,2.9678345,0,0.0,0.0,0.0,0.0
0.159210205,0.10539655,0.38559756,-0.9166276,-0.045425706,0.92266625,0.38291463,0.9933922,0.0012805777,0.11476186,0.72822785,0.17761062,-0.66192037,-0.13199668,0.98410046,0.11884064,0.67250353,8.2821195E-4,0.74009347,-0.0140686035,-5.950928E-4,0.20814514,9.741699,0.012557983,1.125412,0.003189087,0.03300476,-0.008529663,-28.54004,14.855957,2.9678345,0,0.0,0.0,0.0,0.0
0.163635254,0.104625285,0.40510833,-0.90826243,-0.047767315,0.91426766,0.40228438,0.99336386,0.0012961412,0.11500647,0.7180713,0.1818858,-0.6717821,-0.13340415,0.9833193,0.123638496,0.6830644,8.372593E-4,0.7303577,0.06764221,0.09980774,0.16744995,9.741394,0.012710571,1.1278076,0.0063934326,0.027679443,0.007461548,-27.822876,13.063049,2.62146,0,0.0,0.0,0.0,0.0
0.168060303,0.10489067,0.40562147,-0.90800285,-0.04795565,0.9140403,0.40277874,0.9933269,0.0012961315,0.115326144,0.70792174,0.18648954,-0.68122566,-0.13497472,0.98245656,0.12868908,0.6932738,8.464369E-4,0.7206738,9.0026855E-4,0.0184021,0.2888031,9.741104,0.012710571,1.1309509,0.0021362305,0.043655396,0.004257202,-27.822876,13.063049,2.62146,0,0.0,0.0,0.0,0.0
0.172485352,0.10504953,0.40592858,-0.9078472,-0.048085477,0.9139039,0.4030726,0.9933038,0.0013116813,0.11552443,0.6978435,0.19100824,-0.69031173,-0.13640687,0.98158807,0.13370882,0.7031413,8.554308E-4,0.71104974,0.024993896,0.08529663,0.114471436,9.740952,0.012863159,1.132904,0.012786865,0.045791626,0.004257202,-27.822876,13.063049,2.62146,0,0.0,0.0,0.0,0.0
0.176910401,0.10495218,0.41079795,-0.90566546,-0.048734497,0.91172534,0.40789908,0.9932824,0.0013272541,0.11570761,0.687842,0.19543923,-0.6990543,-0.13770302,0.98071545,0.13869075,0.71267897,8.6455577E-4,0.70148987,0.034866333,-0.0010528564,0.32815552,9.740646,0.013015747,1.1346893,0.0063934326,0.036193848,0.004257202,-27.105713,12.704468,2.62146,0,0.0,0.0,0.0,0.0
0.181335449,0.105159916,0.41119868,-0.9054595,-0.048867006,0.91154474,0.40828678,0.99325395,0.0013116957,0.11595203,0.687842,0.19543923,-0.6990543,-0.13770302,0.98071545,0.13869075,0.71267897,8.6455577E-4,0.70148987,0.03515625,-9.0026855E-4,0.3257599,9.740356,0.012863159,1.137085,0.0063934326,0.036193848,0.004257202,-27.105713,12.704468,2.62146,0,0.0,0.0,0.0,0.0
0.185760498,0.10531796,0.41150352,-0.90530276,-0.04899782,0.9114073,0.4085782,0.99323076,0.0013272454,0.116150305,0.66806775,0.20424952,-0.71551925,-0.14004974,0.97891843,0.14867656,0.73080206,8.822625E-4,0.6825889,0.16938782,-0.015396118,0.1083374,9.740204,0.013015747,1.1390381,0.007461548,0.025543213,0.003189087,-27.105713,12.704468,2.62146,0,0.0,0.0,0.0,0.0
0.190185547,0.11026813,0.30761275,-0.94510067,-0.037048474,0.9515106,0.30537647,0.9932111,0.0013412436,0.116317876,0.6583175,0.20852359,-0.7232814,-0.14103402,0.9780169,0.1535978,0.7394102,8.9116214E-4,0.67325455,0.083343506,-0.0011901855,0.10668945,9.740051,0.013153076,1.140686,0.012786865,0.039398193,-0.0032043457,-27.822876,13.780212,1.2390137,0,0.0,0.0,0.0,0.0
0.194580078,0.11035758,0.30778733,-0.94503343,-0.037116077,0.9514542,0.30554426,0.9931987,0.0013568075,0.11642405,0.6489806,0.21053039,-0.73109585,-0.14045116,0.97758687,0.15683535,0.74772835,9.001637E-4,0.66400415,-0.012268066,0.060913086,0.29718018,9.739899,0.013305664,1.1417236,0.0010681152,0.029815674,-0.004257202,-27.822876,13.780212,1.2390137,0,0.0,0.0,0.0,0.0
0.199005127,0.110412255,0.30789405,-0.9449923,-0.037196215,0.95141965,0.30564222,0.99318963,0.0014034937,0.11650087,0.63973904,0.21249978,-0.73863244,-0.13982512,0.9771607,0.16001849,0.75576645,9.0929656E-4,0.6548406,0.17941284,0.09396362,0.20066833,9.739761,0.013763428,1.1424713,0.003189087,0.01914978,-0.0053253174,-27.822876,13.780212,1.2390137,0,0.0,0.0,0.0,0.0
0.203430176,0.10507009,0.42303607,-0.9000004,-0.050558288,0.90611184,0.4200063,0.99317884,0.0013723806,0.116593234,0.6307119,0.21439303,-0.7458138,-0.14012638,0.9767451,0.16227639,0.76326084,0.002158527,0.6460869,0.15083313,-0.058944702,0.27638245,9.739609,0.013458252,1.1433716,0.012786865,0.0063934326,-0.0138549805,-26.567078,11.808777,2.4490356,0,0.0,0.0,0.0,0.0
0.207855225,0.10507672,0.4230495,-0.8999934,-0.050580334,0.90610564,0.42001718,0.993177,0.001387938,0.116608575,0.6213205,0.21870272,-0.7524161,-0.14094858,0.9757891,0.16723925,0.77077514,0.0021428042,0.6371036,0.13168335,0.02229309,0.04638672,9.739609,0.01361084,1.1435242,0.014907837,0.007446289,-0.007461548,-26.567078,11.808777,2.4490356,0,0.0,0.0,0.0,0.0
0.212280274,0.10497862,0.42285058,-0.90009826,-0.05057284,0.90619826,0.41981792,0.9931877,0.0014486143,0.1165162,0.61203957,0.22292238,-0.75875765,-0.14165772,0.97483385,0.1721395,0.7780364,0.002127707,0.62821555,0.13153076,0.08395386,0.205307,9.739761,0.014205933,1.1426239,-0.003189087,-0.015975952,-0.0021362305,-26.567078,11.808777,2.4490356,0,0.0,0.0,0.0,0.0
0.216705322,0.10578696,0.4046892,-0.9083148,-0.048422966,0.9144531,0.40178442,0.99320906,0.0014797448,0.116333455,0.6028706,0.22704934,-0.76485014,-0.14225666,0.973881,0.1769715,0.78505427,0.002114125,0.61942345,0.14575195,0.13153076,-0.080200195,9.739899,0.014511108,1.1408234,-0.0021362305,-0.03515625,-0.007461548,-27.464294,13.063049,2.62146,0,0.0,0.0,0.0,0.0
0.221130371,0.10555386,0.40424433,-0.90854007,-0.048275024,0.91464984,0.40135425,0.9932411,0.001495306,0.116059706,0.5938709,0.23070157,-0.77077496,-0.14251569,0.9730223,0.18143016,0.7918375,0.0021014374,0.6107282,0.126297,0.049972534,-0.10145569,9.740204,0.014663696,1.1381378,-0.0053253174,-0.03302002,0.004257202,-27.464294,13.063049,2.62146,0,0.0,0.0,0.0,0.0
0.22555542,0.10537097,0.40389523,-0.9087165,-0.048161097,0.914804,0.40101635,0.993266,0.0015093005,0.115845814,0.5849848,0.23426816,-0.77647364,-0.14268228,0.97216976,0.18581633,0.798395,0.0020893149,0.6021304,0.12120056,0.049835205,-0.15682983,9.740509,0.014801025,1.1360474,0.007461548,-0.052200317,0.0010681152,-27.464294,13.063049,2.62146,0,0.0,0.0,0.0,0.0
0.229980469,0.10775066,0.3513594,-0.93001956,-0.04202393,0.93623954,0.34884045,0.9932894,0.0014952874,0.11564593,0.5762145,0.23775296,-0.781953,-0.14276263,0.97132343,0.19013052,0.80473334,0.0020777148,0.5936329,0.14964294,0.049972534,0.02229309,9.740799,0.014663696,1.1340942,0.0053253174,-0.03302002,0.0,-27.105713,13.421631,1.9302368,0,0.0,0.0,0.0,0.0
0.234405518,0.10756639,0.35100934,-0.9301731,-0.041956596,0.93637073,0.34849614,0.9933122,0.0015404217,0.11544917,0.56772214,0.24006346,-0.7874396,-0.14212096,0.970755,0.19348481,0.81085956,0.0020660663,0.58523715,0.10160828,0.08305359,-0.0140686035,9.740952,0.015106201,1.1321564,0.007461548,-0.046875,0.007461548,-27.105713,13.421631,1.9302368,0,0.0,0.0,0.0,0.0
0.238830567,0.107525386,0.35093147,-0.93020725,-0.04197886,0.9363999,0.34841523,0.9933157,0.0015855508,0.11541846,0.5593441,0.2423192,-0.79272664,-0.1414343,0.9701944,0.19677185,0.81678057,0.0020555533,0.5769448,0.09681702,0.13528442,-0.08081055,9.740952,0.015548706,1.1318512,0.012786865,-0.040481567,-0.0010681152,-27.105713,13.421631,1.9302368,0,0.0,0.0,0.0,0.0
0.243255615,0.10899984,0.31385162,-0.94319457,-0.03770543,0.9494705,0.31158257,0.99332637,0.0016011029,0.115326084,0.55108315,0.24452692,-0.79781824,-0.1407095,0.9696404,0.19999608,0.8225012,0.0020461532,0.5687597,0.15412903,-0.051605225,0.030227661,9.741104,0.015701294,1.1309509,0.0010681152,-0.018112183,-0.0053253174,-27.105713,15.214539,1.9302368,0,0.0,0.0,0.0,0.0
0.247680664,0.1088644,0.31362203,-0.9432867,-0.03763136,0.9495466,0.31136027,0.99334407,0.0016011063,0.11517385,0.54304844,0.24592713,-0.80288124,-0.13952252,0.96928614,0.20252845,0.8280289,0.0020372523,0.5606817,0.09651184,-0.032455444,-0.07362366,9.741257,0.015701294,1.1294556,0.0138549805,-0.0234375,-0.004257202,-27.105713,15.214539,1.9302368,0,0.0,0.0,0.0,0.0
0.252075195,0.108818814,0.3135447,-0.9433176,-0.0376227,0.9495721,0.31128353,0.99334943,0.001616652,0.11512772,0.5351267,0.24729414,-0.8077655,-0.13832068,0.9689383,0.2050022,0.83337075,0.0020285293,0.55271065,0.010177612,0.03919983,-0.10668945,9.741394,0.015853882,1.1290131,0.0138549805,-0.02557373,-0.0021362305,-27.105713,15.214539,1.9302368,0,0.0,0.0,0.0,0.0
0.256500244,0.10486326,0.39974278,-0.91060925,-0.047548864,0.9166257,0.3969083,0.99334925,0.0016773345,0.115127705,0.5273193,0.24863178,-0.8124756,-0.13710816,0.968596,0.20742032,0.83853185,0.0020202918,0.5448488,0.0053863525,0.1583252,0.0034332275,9.741394,0.016448975,1.1290131,-0.009567261,-0.007461548,-0.007461548,-26.208496,13.243103,2.7954102,0,0.0,0.0,0.0,0.0
0.260925293,0.10490762,0.39982212,-0.9105694,-0.04756222,0.9165912,0.3969865,0.9933439,0.0016617894,0.115173824,0.51937515,0.2517294,-0.8166283,-0.13684745,0.96779555,0.2112925,0.8435178,0.0020134326,0.5370975,0.04862976,-0.037841797,0.09875488,9.741257,0.016296387,1.1294556,-0.0053253174,0.004257202,0.0053253174,-26.208496,13.243103,2.7954102,0,0.0,0.0,0.0,0.0
0.265350342,0.104903534,0.39981484,-0.9105731,-0.047610022,0.9165944,0.3969737,0.9933421,0.0017084657,0.11518917,0.51155454,0.25476426,-0.82061386,-0.13653336,0.9670011,0.21509878,0.84833395,0.0020064,0.5294576,0.04862976,0.12928772,0.055511475,9.741257,0.01675415,1.1296082,0.007461548,0.013824463,-0.01171875,-26.208496,13.243103,2.7954102,0,0.0,0.0,0.0,0.0
0.269775391,0.10470133,0.4035672,-0.9089396,-0.048053607,0.91494846,0.40069976,0.9933421,0.0017240255,0.11518917,0.5045781,0.25830984,-0.82381856,-0.13693781,0.9660594,0.21903713,0.8524371,0.0022905793,0.5228248,-0.0423584,-0.07675171,0.021987915,9.741257,0.016906738,1.1296082,-0.0053253174,0.015960693,-0.008529663,-27.822876,12.345886,2.2766113,0,0.0,0.0,0.0,0.0
0.27420044,0.10471258,0.40359038,-0.908928,-0.048027977,0.9149383,0.40072608,0.99334216,0.001692906,0.11518919,0.5045781,0.25830984,-0.82381856,-0.13693781,0.9660594,0.21903713,0.8524371,0.0022905793,0.5228248,-0.0423584,-0.07644653,0.021987915,9.741257,0.016601563,1.1296082,-0.0053253174,0.015960693,-0.008529663,-27.822876,12.345886,2.2766113,0,0.0,0.0,0.0,0.0
0.278625488,0.104875,0.40392548,-0.9087603,-0.04814576,0.9147903,0.40104946,0.99331933,0.0016928937,0.11538595,0.4895056,0.26420274,-0.8310122,-0.13611826,0.96446455,0.226451,0.8613107,0.0022669116,0.50807357,-0.0038909912,-0.004638672,0.10624695,9.741104,0.016601563,1.131546,-0.008514404,0.020217896,-0.0053253174,-27.822876,12.345886,2.2766113,0,0.0,0.0,0.0,0.0
0.283050537,0.10903443,0.31770408,-0.9419,-0.03840316,0.94818825,0.31537953,0.99329585,0.0017847095,0.115586,0.482155,0.2670646,-0.83438784,-0.13564587,0.963676,0.23006257,0.8655211,0.0022554311,0.50086737,-0.017959595,0.04234314,0.16654968,9.740799,0.017501831,1.1334991,0.003189087,0.034072876,0.0010681152,-27.28424,12.52594,1.0665894,0,0.0,0.0,0.0,0.0
0.287475586,0.10924819,0.3181546,-0.94172317,-0.03858006,0.9480371,0.3158121,0.99326557,0.0018298315,0.11584576,0.47517797,0.2680852,-0.83805496,-0.13425606,0.9633926,0.23205611,0.86958677,0.0022460166,0.49377504,0.06852722,-0.029907227,0.1879425,9.740509,0.017944336,1.1360474,-0.0021362305,0.03086853,-0.018112183,-27.28424,12.52594,1.0665894,0,0.0,0.0,0.0,0.0
0.291900635,0.109367505,0.3184061,-0.9416243,-0.03870143,0.94795257,0.31605092,0.9932477,0.0018765066,0.11599798,0.4683161,0.26909426,-0.8415868,-0.13287751,0.9631113,0.23400918,0.8735122,0.002237693,0.48679706,0.01600647,0.02708435,0.13856506,9.740356,0.0184021,1.1375427,-0.0021362305,0.043655396,-0.0138549805,-27.28424,12.52594,1.0665894,0,0.0,0.0,0.0,0.0
0.296325684,0.1106241,0.29060188,-0.9504278,-0.03554542,0.95684224,0.2884259,0.99322647,0.0018764959,0.11617937,0.4615673,0.27008793,-0.84499,-0.13150832,0.9628331,0.23591955,0.8773033,0.0022304694,0.4799311,-0.055664063,-0.06388855,0.098464966,9.740204,0.0184021,1.139328,0.01171875,0.023422241,-0.007461548,-26.567078,13.601685,1.0665894,0,0.0,0.0,0.0,0.0
0.300750733,0.11080443,0.29094428,-0.950302,-0.035690524,0.9567381,0.28875324,0.99320114,0.0019216301,0.11639477,0.45500818,0.27049944,-0.8484088,-0.12988044,0.9627176,0.23728876,0.88096464,0.00222339,0.47317696,-0.261261,-0.030807495,0.14424133,9.739899,0.018844604,1.1414337,0.0063934326,0.03514099,-0.0063934326,-26.567078,13.601685,1.0665894,0,0.0,0.0,0.0,0.0
0.305175781,0.11087308,0.29107457,-0.950254,-0.035727963,0.95669836,0.2888799,0.9931921,0.0019216397,0.11647159,0.44855824,0.27090958,-0.8517062,-0.12827726,0.96260226,0.23862493,0.88450015,0.0022173547,0.46653473,0.16503906,-0.011672974,-0.07197571,9.739761,0.018844604,1.1421814,0.015975952,0.03514099,-0.0095825195,-26.567078,13.601685,1.0665894,0,0.0,0.0,0.0,0.0
0.30960083,0.10571819,0.40850067,-0.9066151,-0.049421635,0.91275597,0.40550467,0.9931672,0.0019371813,0.11668367,0.44221503,0.27131408,-0.8548887,-0.12669529,0.96248835,0.23992608,0.8879157,0.0022114406,0.46000102,0.18435669,-0.026168823,0.23716736,9.739609,0.018997192,1.1442719,-0.017028809,0.025543213,-0.0032043457,-28.181458,12.345886,2.2766113,0,0.0,0.0,0.0,0.0
0.313995361,0.10590736,0.40889558,-0.9064149,-0.049595535,0.912579,0.40588143,0.9931384,0.0019683053,0.11692822,0.44221503,0.27131408,-0.8548887,-0.12669529,0.96248835,0.23992608,0.8879157,0.0022114406,0.46000102,0.18466187,-0.026473999,0.23477173,9.739304,0.019302368,1.1466675,-0.017028809,0.025543213,-0.0032043457,-28.181458,12.345886,2.2766113,0,0.0,0.0,0.0,0.0
0.31842041,0.10597615,0.40903917,-0.9063421,-0.04962959,0.9125147,0.40602183,0.9931293,0.0019527583,0.11700524,0.42923617,0.27689272,-0.8597016,-0.12573825,0.96089834,0.24670696,0.8943971,0.0022018123,0.4472683,0.21832275,-0.03111267,0.21966553,9.739151,0.01914978,1.1474152,0.0021362305,0.036193848,-0.010650635,-28.181458,12.345886,2.2766113,0,0.0,0.0,0.0,0.0
0.322845459,0.111750335,0.2774198,-0.9542275,-0.03436581,0.96074665,0.2752905,0.9931419,0.0020289954,0.11689752,0.42291954,0.27959836,-0.8619535,-0.1252134,0.9601146,0.25000334,0.89747465,0.0021968314,0.4410607,0.122406006,0.01600647,-0.042648315,9.739304,0.019897461,1.1463623,0.0095825195,0.013824463,0.015960693,-27.464294,14.138794,0.89416504,0,0.0,0.0,0.0,0.0
0.327270508,0.111694954,0.27731454,-0.9542646,-0.034225516,0.9607773,0.27520114,0.993153,0.0019216242,0.11680519,0.41706163,0.27955478,-0.8648172,-0.12349059,0.9601273,0.2508102,0.90044975,0.0021934747,0.4349546,0.13183594,-0.016464233,0.19288635,9.739456,0.018844604,1.145462,0.027694702,-0.019180298,-0.012786865,-27.464294,14.138794,0.89416504,0,0.0,0.0,0.0,0.0
0.331695557,0.11156375,0.27706522,-0.9543524,-0.034188338,0.96084905,0.2749547,0.99316895,0.0019527446,0.116668314,0.41130129,0.27951002,-0.86758596,-0.121794,0.96014035,0.25158864,0.9033258,0.0021880378,0.42894956,0.06942749,0.05984497,0.079315186,9.739609,0.01914978,1.1441193,-0.012771606,-0.034088135,0.020217896,-27.464294,14.138794,0.89416504,0,0.0,0.0,0.0,0.0
0.336120606,0.111432925,0.2768166,-0.9544397,-0.034149833,0.9609207,0.27470922,0.99318504,0.001982309,0.11653145,0.40354216,0.27942896,-0.8712481,-0.1195908,0.9601637,0.2525545,0.9071118,0.002276879,0.42088366,-0.060012817,0.049987793,0.17163086,9.739761,0.019439697,1.1427765,0.0010681152,-0.036224365,-0.0010681152,-27.464294,14.138794,0.89416504,0,0.0,0.0,0.0,0.0
0.340545654,0.1112684,0.27650398,-0.95454955,-0.03406311,0.9610107,0.27440497,0.99320644,0.0019823238,0.11634871,0.39800742,0.27937672,-0.8738071,-0.11795726,0.9601789,0.25326386,0.90976715,0.0022709877,0.41511282,0.09307861,0.12181091,0.14949036,9.739899,0.019439697,1.140976,0.004257202,-0.04901123,-0.0021362305,-27.464294,14.138794,0.89416504,0,0.0,0.0,0.0,0.0
0.344970703,0.1111079,0.27619898,-0.95465666,-0.03401074,0.96109843,0.27410436,0.9932262,0.0020134205,0.11617933,0.39256516,0.2793193,-0.87628376,-0.11634885,0.9601956,0.25394356,0.9123352,0.0022652145,0.40943784,0.054473877,0.07841492,0.079315186,9.740204,0.019744873,1.139328,0.0021362305,-0.053268433,0.01171875,-27.464294,14.138794,0.89416504,0,0.0,0.0,0.0,0.0
0.349395752,0.1063192,0.38435403,-0.91704327,-0.046430685,0.9231837,0.3815446,0.99324745,0.0020134319,0.115997955,0.38721436,0.2792569,-0.8786812,-0.114766054,0.9602138,0.25459436,0.914819,0.0022601786,0.40385777,-0.04145813,-0.026916504,-0.124801636,9.740356,0.019744873,1.1375427,0.0138549805,-0.043685913,-0.0010681152,-25.849915,12.167358,2.1026611,0,0.0,0.0,0.0,0.0
0.353820801,0.1062388,0.38419622,-0.9171186,-0.046424307,0.9232491,0.38138664,0.99325633,0.0020585414,0.11592093,0.38169256,0.28139725,-0.88041264,-0.11408617,0.9595887,0.25724277,0.9172214,0.0022552435,0.39837143,0.0062713623,0.12585449,-0.19587708,9.740509,0.020187378,1.136795,0.0,-0.031967163,-0.0010681152,-25.849915,12.167358,2.1026611,0,0.0,0.0,0.0,0.0
0.35824585,0.10617638,0.38407373,-0.91717714,-0.0464152,0.9233,0.38126448,0.99326336,0.0020896755,0.115859516,0.37627152,0.28349015,-0.8820732,-0.113391615,0.9589725,0.2598347,0.91954446,0.0022513093,0.3929794,0.19302368,0.08244324,-0.09950256,9.740509,0.020492554,1.1361847,0.004257202,-0.019180298,-0.01171875,-25.849915,12.167358,2.1026611,0,0.0,0.0,0.0,0.0
0.362670899,0.110323004,0.2845393,-0.95229524,-0.0350051,0.9586619,0.2823863,0.99327916,0.0021814818,0.11572279,0.37094998,0.28553736,-0.8836654,-0.11268394,0.95836496,0.26237184,0.9217909,0.0022480767,0.38768092,0.14979553,0.07676697,-0.12210083,9.740646,0.021392822,1.1348419,-0.012771606,-0.018112183,-0.0063934326,-27.822876,13.780212,0.89416504,0,0.0,0.0,0.0,0.0
0.367095947,0.110246345,0.28438807,-0.9523493,-0.03499395,0.95870674,0.2822355,0.99328804,0.0022110306,0.11564577,0.36596054,0.28551742,-0.8857498,-0.11119288,0.9583709,0.26298553,0.9239638,0.002246745,0.38247344,0.1257019,0.08125305,-0.18360901,9.740799,0.02168274,1.1340942,-0.019165039,-0.019180298,-0.014907837,-27.822876,13.780212,0.89416504,0,0.0,0.0,0.0,0.0
0.371490479,0.110263094,0.28442112,-0.95233744,-0.03505146,0.9586967,0.28226206,0.99328417,0.0022577362,0.11567825,0.36105838,0.28549483,-0.88776666,-0.10972738,0.95837766,0.26357585,0.9260652,0.0022460306,0.37735686,0.17852783,0.12869263,0.108184814,9.740646,0.022140503,1.1343994,0.008529663,-0.004257202,-0.017044067,-27.822876,13.780212,0.89416504,0,0.0,0.0,0.0,0.0
0.375915527,0.11019638,0.28608066,-0.95184803,-0.035208326,0.958203,0.28391457,0.9932861,0.002226621,0.11566292,0.3562438,0.28547335,-0.88971645,-0.10828943,0.95838404,0.2641467,0.9280969,0.0022462646,0.37233213,0.24555969,-0.06253052,-0.035308838,9.740646,0.021835327,1.1342468,0.0063934326,0.0021209717,-0.004257202,-26.38855,11.987305,0.5477905,0,0.0,0.0,0.0,0.0
0.380340576,0.11014574,0.28597096,-0.9518868,-0.035163265,0.9582357,0.28380948,0.9932932,0.0022110422,0.11560126,0.3562438,0.28547335,-0.88971645,-0.10828943,0.95838404,0.2641467,0.9280969,0.0022462646,0.37233213,0.2454071,-0.06237793,-0.034713745,9.740799,0.02168274,1.1336517,0.0063934326,0.0021209717,-0.004257202,-26.38855,11.987305,0.5477905,0,0.0,0.0,0.0,0.0
0.384765625,0.110167556,0.28601822,-0.95187014,-0.03519184,0.9582217,0.2838537,0.9932899,0.0022265946,0.11563043,0.34686255,0.28549302,-0.89340925,-0.1055105,0.9583782,0.26529008,0.93196243,0.0022448697,0.36254802,0.19273376,0.033218384,0.1182251,9.740799,0.021835327,1.1339417,-0.02128601,-0.010650635,-0.0063934326,-26.38855,11.987305,0.5477905,0,0.0,0.0,0.0,0.0
0.389190674,0.10599342,0.3830627,-0.9176211,-0.046349343,0.9237197,0.38025483,0.9932861,0.002226621,0.11566292,0.34229857,0.2855035,-0.89516443,-0.104158975,0.95837504,0.2658349,0.9338001,0.0022445042,0.35778818,0.19288635,0.004486084,0.11312866,9.740646,0.021835327,1.1342468,0.0021362305,-0.012786865,-0.0095825195,-28.361511,12.8845215,2.1026611,0,0.0,0.0,0.0,0.0
0.393615723,0.105864346,0.382799,-0.91774595,-0.046260137,0.92382896,0.38000008,0.993304,0.0022265913,0.1155089,0.33760527,0.28748822,-0.89631087,-0.1035279,0.95778155,0.2682098,0.9355772,0.0022441465,0.35311517,0.14949036,-0.052947998,-0.120010376,9.740952,0.021835327,1.1327515,-0.004257202,-0.015975952,0.003189087,-28.361511,12.8845215,2.1026611,0,0.0,0.0,0.0,0.0
0.398040772,0.10585629,0.38278252,-0.9177538,-0.046319805,0.9238357,0.37997654,0.99330205,0.0022872696,0.11552423,0.33299953,0.2894266,-0.8974094,-0.10288577,0.9571976,0.27053154,0.93729717,0.0022437954,0.3485242,0.15905762,0.14755249,0.052215576,9.740952,0.02243042,1.132904,0.022369385,-0.024505615,-0.0021362305,-28.361511,12.8845215,2.1026611,0,0.0,0.0,0.0,0.0
0.40246582,0.105369054,0.3918171,-0.9139895,-0.04734288,0.9200402,0.38895306,0.9933055,0.0022872775,0.11549351,0.3284819,0.29132468,-0.89845955,-0.102237426,0.95662165,0.27280506,0.93896073,0.0022446648,0.34401718,0.12075806,0.0038909912,-0.04324341,9.740952,0.02243042,1.1325989,0.0,-0.0063934326,0.004257202,-28.001404,13.243103,2.4490356,0,0.0,0.0,0.0,0.0
0.406890869,0.10535381,0.39178753,-0.91400385,-0.04730046,0.92005295,0.38892832,0.99330926,0.0022577227,0.115462825,0.32369736,0.29384652,-0.8993744,-0.10205554,0.9558491,0.27556694,0.94064057,0.0025858532,0.3393945,0.034561157,-0.058044434,-0.09082031,9.740952,0.022140503,1.1322937,-0.0053253174,-0.0032043457,-0.007461548,-28.001404,13.243103,2.4490356,0,0.0,0.0,0.0,0.0
0.411315918,0.105323896,0.39172956,-0.9140322,-0.047296632,0.9200776,0.38887048,0.9933126,0.00227329,0.11543365,0.31933776,0.29584026,-0.90027887,-0.10144443,0.955234,0.27791572,0.94219553,0.0025792907,0.3350536,0.12075806,0.0184021,-0.061798096,9.740952,0.02229309,1.1320038,-0.013839722,0.010635376,-0.007461548,-28.001404,13.243103,2.4490356,0,0.0,0.0,0.0,0.0
0.415740967,0.10341828,0.42586523,-0.8988567,-0.05115575,0.9047838,0.42278764,0.9933216,0.0022577152,0.11535665,0.31506205,0.2977917,-0.9011415,-0.10082589,0.9546274,0.28021535,0.94370013,0.0025731707,0.33079198,0.07751465,-0.038894653,-0.17118835,9.741104,0.022140503,1.1312561,0.01171875,0.003189087,-0.0032043457,-27.28424,12.52594,2.7954102,0,0.0,0.0,0.0,0.0
0.420166016,0.10341235,0.4258537,-0.8988629,-0.051168416,0.9047892,0.42277458,0.9933216,0.002273275,0.11535665,0.310793,0.30041653,-0.9017525,-0.10043298,0.9538047,0.2831429,0.9451566,0.0025668615,0.32660756,0.12539673,0.06149292,0.0059814453,9.741104,0.02229309,1.1312561,-0.0021362305,0.0021209717,0.0,-27.28424,12.52594,2.7954102,0,0.0,0.0,0.0,0.0
0.424591065,0.10343883,0.42590526,-0.8988354,-0.05122061,0.9047648,0.42282033,0.99331605,0.0023028618,0.11540294,0.3066079,0.30298647,-0.90232515,-0.10002418,0.9529914,0.28601137,0.94656575,0.0025609897,0.32250068,0.1734314,0.07557678,0.13482666,9.740952,0.022583008,1.1316986,0.003189087,0.0084991455,-0.014907837,-27.28424,12.52594,2.7954102,0,0.0,0.0,0.0,0.0
0.429016113,0.10761102,0.3429076,-0.933185,-0.041701116,0.93936634,0.3403702,0.99331814,0.0022872707,0.11538581,0.30250576,0.30550393,-0.9028608,-0.09960166,0.9521874,0.28882298,0.9479292,0.0025558271,0.31847087,0.08708191,-0.05354309,-0.037399292,9.741104,0.02243042,1.131546,0.003189087,0.0063934326,-0.004257202,-26.029968,13.421631,1.9302368,0,0.0,0.0,0.0,0.0
0.433410645,0.10758654,0.3428629,-0.9332042,-0.041638643,0.9393827,0.3403325,0.9933234,0.0022421596,0.1153413,0.29866236,0.30625683,-0.9038847,-0.09862792,0.9519455,0.28995222,0.9492488,0.002550456,0.31451574,0.15890503,-0.100982666,-0.080062866,9.741104,0.021987915,1.1311035,-0.014892578,0.017028809,0.0053253174,-26.029968,13.421631,1.9302368,0,0.0,0.0,0.0,0.0
0.437835693,0.10758654,0.3428629,-0.9332042,-0.041638643,0.9393827,0.3403325,0.9933234,0.0022421596,0.1153413,0.29489198,0.30699363,-0.9048722,-0.09766479,0.9517082,0.29105523,0.95052636,0.00254429,0.31063357,0.12539673,-0.033950806,0.010925293,9.741104,0.021987915,1.1311035,0.012786865,0.007446289,-0.0138549805,-26.029968,13.421631,1.9302368,0,0.0,0.0,0.0,0.0
0.442260742,0.10752446,0.3457327,-0.93215203,-0.041877836,0.93833077,0.3431937,0.99332017,0.0021347904,0.11537204,0.29119396,0.3077155,-0.9058242,-0.09671374,0.9514751,0.29213306,0.9517629,0.0025382473,0.3068241,0.029632568,-0.09992981,-0.07078552,9.741104,0.020935059,1.1314087,0.003189087,0.0063934326,0.007461548,-27.105713,12.704468,1.5853882,0,0.0,0.0,0.0,0.0
0.446685791,0.10756431,0.34581342,-0.93211746,-0.04190311,0.93830085,0.3432719,0.9933147,0.002134812,0.11541834,0.2875622,0.30848092,-0.90672356,-0.09579058,0.9512272,0.2932423,0.9529597,0.002530178,0.30308652,0.13511658,0.15861511,-0.10475159,9.740952,0.020935059,1.1318512,0.017044067,0.012771606,0.015960693,-27.105713,12.704468,1.5853882,0,0.0,0.0,0.0,0.0
0.45111084,0.10750486,0.345693,-0.9321691,-0.041931298,0.9383452,0.34314755,0.9933199,0.0021970286,0.11537202,0.2875622,0.30848092,-0.90672356,-0.09579058,0.9512272,0.2932423,0.9529597,0.002530178,0.30308652,0.13496399,0.15800476,-0.10430908,9.741104,0.02154541,1.1314087,0.017044067,0.012771606,0.015960693,-27.105713,12.704468,1.5853882,0,0.0,0.0,0.0,0.0
0.455535889,0.10825297,0.3294162,-0.9379586,-0.040094536,0.9441823,0.32697454,0.9933145,0.002211055,0.115418315,0.28050682,0.30996397,-0.9084262,-0.093980335,0.950745,0.295384,0.9552401,0.0025169854,0.29582098,0.08244324,0.019012451,0.11073303,9.740952,0.02168274,1.1318512,0.0,0.0084991455,-0.0021362305,-27.105713,13.421631,1.5853882,0,0.0,0.0,0.0,0.0
0.459960938,0.10825721,0.32942438,-0.93795526,-0.040082343,0.9441794,0.32698417,0.9933145,0.0021970512,0.115418315,0.27711397,0.3103543,-0.9093338,-0.092997134,0.9506177,0.29610407,0.95632595,0.0025108668,0.2922915,0.09202576,-0.05265808,0.038909912,9.740952,0.02154541,1.1318512,-0.009567261,0.0021209717,-0.0010681152,-27.105713,13.421631,1.5853882,0,0.0,0.0,0.0,0.0
0.464385986,0.10828943,0.3294864,-0.93792963,-0.040036127,0.9441578,0.3270519,0.99331284,0.002134808,0.115433685,0.2737863,0.31073692,-0.9102107,-0.09202948,0.9504927,0.2968068,0.95737743,0.0025045904,0.2888288,0.058502197,-0.14782715,0.014816284,9.740952,0.020935059,1.1320038,0.0053253174,0.0021209717,0.0010681152,-27.105713,13.421631,1.5853882,0,0.0,0.0,0.0,0.0
0.468811035,0.09895773,0.49938294,-0.86071134,-0.059471015,0.86637866,0.4958336,0.99331284,0.0021208043,0.115433685,0.27052295,0.31111315,-0.9110576,-0.09107671,0.95036966,0.29749393,0.9583957,0.0024971948,0.28543192,0.06329346,-0.04711914,0.043548584,9.740952,0.02079773,1.1320038,0.014907837,0.0,-0.0063934326,-27.464294,12.345886,4.005432,0,0.0,0.0,0.0,0.0
0.473236084,0.09897896,0.499422,-0.8606862,-0.05952314,0.8663561,0.49586686,0.99330765,0.0021503568,0.1154782,0.26709136,0.31499797,-0.91073513,-0.09102678,0.94908935,0.30156824,0.95936245,0.0023550207,0.2821668,0.0872345,-0.013916016,-0.0335083,9.740952,0.021087646,1.1324463,0.0,0.0010681152,0.0021362305,-27.464294,12.345886,4.005432,0,0.0,0.0,0.0,0.0
0.477661133,0.09891423,0.49930283,-0.8607628,-0.059485387,0.8664248,0.49575144,0.9933164,0.0021659355,0.115402974,0.26362222,0.3188388,-0.91040933,-0.09106359,0.94780606,0.3055669,0.9603181,0.0023509273,0.27889732,0.029785156,0.052978516,-0.17163086,9.740952,0.021240234,1.1316986,0.0234375,0.011703491,-0.007461548,-27.464294,12.345886,4.005432,0,0.0,0.0,0.0,0.0
0.482086182,0.11085503,0.26193148,-0.95869863,-0.032316204,0.9650841,0.2599393,0.99331105,0.0021659238,0.11544903,0.2602222,0.32259512,-0.9100641,-0.0910719,0.9465341,0.3094819,0.96124417,0.0023472274,0.27568856,0.024993896,-0.004486084,0.120010376,9.740952,0.021240234,1.1321564,0.004257202,-0.0010681152,-0.0010681152,-27.822876,13.780212,0.5477905,0,0.0,0.0,0.0,0.0
0.486511231,0.1108704,0.26196215,-0.95868844,-0.032370612,0.9650756,0.25996387,0.9933076,0.0022110394,0.11547819,0.25735834,0.32139376,-0.91130275,-0.08972901,0.94694275,0.308623,0.96214104,0.0023436013,0.27254194,-0.06599426,0.09562683,0.07661438,9.740952,0.02168274,1.1324463,0.018112183,0.0053253174,-0.004257202,-27.822876,13.780212,0.5477905,0,0.0,0.0,0.0,0.0
0.490905762,0.110883,0.26198724,-0.95868015,-0.032441188,0.9650686,0.25998086,0.9933038,0.00227327,0.11550887,0.2545464,0.32021657,-0.91250616,-0.08842041,0.94734144,0.3077758,0.96300983,0.00234095,0.26945603,0.015411377,0.16204834,0.06674194,9.740952,0.02229309,1.1327515,0.0,-0.0010681152,0.0010681152,-27.822876,13.780212,0.5477905,0,0.0,0.0,0.0,0.0
0.495330811,0.10607835,0.37835792,-0.91956115,-0.0458135,0.9256566,0.375581,0.99330187,0.002287305,0.11552602,0.25178552,0.31906292,-0.9136755,-0.087145485,0.9477306,0.30694017,0.9638515,0.0023395964,0.26642972,-0.051467896,0.04699707,0.061798096,9.740799,0.02243042,1.132904,0.012786865,0.0084991455,-0.0053253174,-27.28424,13.601685,2.4490356,0,0.0,0.0,0.0,0.0
0.499755859,0.10610791,0.37841257,-0.9195352,-0.045817908,0.92563426,0.37563542,0.9932985,0.0022732932,0.11555518,0.24886307,0.32026216,-0.91405654,-0.0865144,0.94732606,0.30836433,0.964667,0.0023385505,0.26346177,0.073028564,-0.01991272,0.06629944,9.740799,0.02229309,1.133194,0.004257202,0.009567261,0.004257202,-27.28424,13.601685,2.4490356,0,0.0,0.0,0.0,0.0
0.504180908,0.106129125,0.37845176,-0.9195166,-0.045846887,0.92561823,0.37567148,0.9932949,0.002287289,0.11558589,0.24599923,0.321438,-0.91441894,-0.085888304,0.9469277,0.3097597,0.9654572,0.0023372453,0.26055124,0.039505005,0.01826477,0.07556152,9.740799,0.02243042,1.1334991,-0.004257202,-0.0032043457,-0.0010681152,-27.28424,13.601685,2.4490356,0,0.0,0.0,0.0,0.0
0.508605957,0.10444432,0.4112673,-0.9055112,-0.049633935,0.9115119,0.4082678,0.99329144,0.0023028406,0.11561505,0.24319276,0.32259065,-0.9147636,-0.08526784,0.94653565,0.31112632,0.9662229,0.0023362462,0.25769722,0.039505005,0.056411743,-0.07316589,9.740799,0.022583008,1.1337891,-0.0010681152,0.012771606,-0.004257202,-27.464294,11.987305,2.2766113,0,0.0,0.0,0.0,0.0
0.513031006,0.10441473,0.41120553,-0.90554273,-0.049628973,0.9115398,0.40820625,0.99329484,0.0023184083,0.115585886,0.24319276,0.32259065,-0.9147636,-0.08526784,0.94653565,0.31112632,0.9662229,0.0023362462,0.25769722,0.039505005,0.056259155,-0.07287598,9.740799,0.022735596,1.1334991,-0.0010681152,0.012771606,-0.004257202,-27.464294,11.987305,2.2766113,0,0.0,0.0,0.0,0.0
0.517456055,0.104439765,0.41125783,-0.9055161,-0.04968143,0.91151613,0.40825275,0.9932896,0.0023495157,0.115630396,0.23762724,0.32616088,-0.9149603,-0.08437936,0.9453114,0.31506586,0.9676845,0.00233554,0.25215298,0.087387085,0.07511902,0.12779236,9.740799,0.023040771,1.1339417,0.007461548,0.0021209717,0.0095825195,-27.464294,11.987305,2.2766113,0,0.0,0.0,0.0,0.0
0.521881104,0.10490049,0.402997,-0.90916955,-0.048741743,0.9151983,0.40004542,0.99328756,0.0023495476,0.11564753,0.23492897,0.327892,-0.9150384,-0.0839338,0.94471234,0.31697595,0.9683819,0.0023358196,0.24946152,0.0013580322,0.017654419,0.12763977,9.740646,0.023040771,1.1340942,-0.011703491,0.0053253174,0.0010681152,-27.464294,13.063049,2.62146,0,0.0,0.0,0.0,0.0
0.526306152,0.10494459,0.40308118,-0.9091271,-0.04878964,0.9151611,0.4001245,0.99328053,0.0023650907,0.11570739,0.23492897,0.327892,-0.9150384,-0.0839338,0.94471234,0.31697595,0.9683819,0.0023358196,0.24946152,0.0013580322,0.017501831,0.12704468,9.740646,0.02319336,1.1346893,-0.011703491,0.0053253174,0.0010681152,-27.464294,13.063049,2.62146,0,0.0,0.0,0.0,0.0
0.530731201,0.10499051,0.4031689,-0.909083,-0.048837155,0.9151225,0.40020713,0.9932733,0.0023790773,0.1157688,0.22972707,0.33091348,-0.9152714,-0.0829601,0.94365823,0.3203542,0.96971285,0.002336979,0.24423644,0.10670471,0.055664063,0.18869019,9.740646,0.023330688,1.1352997,-0.018096924,-0.0063934326,-0.0021362305,-27.464294,13.063049,2.62146,0,0.0,0.0,0.0,0.0
0.53515625,0.10468931,0.40833035,-0.90681124,-0.049369585,0.91283137,0.40534157,0.99327886,0.002333967,0.11572276,0.22720556,0.3323796,-0.9153695,-0.08247638,0.9431428,0.32199275,0.970348,0.0023378208,0.24170077,0.07318115,-0.106674194,-0.10295105,9.740646,0.022888184,1.1348419,0.003189087,-0.010650635,0.003189087,-27.642822,12.52594,2.4490356,0,0.0,0.0,0.0,0.0
0.539581299,0.10470889,0.4083696,-0.90679115,-0.049400717,0.9128136,0.4053774,0.9932752,0.0023495182,0.11575346,0.22445156,0.3340821,-0.91542923,-0.081772245,0.9425415,0.32392713,0.9710483,0.0021507537,0.23887357,0.11148071,0.0368042,0.069122314,9.740646,0.023040771,1.1351471,-0.003189087,-0.0053253174,0.0021362305,-27.642822,12.52594,2.4490356,0,0.0,0.0,0.0,0.0
0.544006348,0.10474299,0.40843806,-0.90675646,-0.049474593,0.9127829,0.40543762,0.99326795,0.0023946578,0.115814924,0.22202757,0.33559045,-0.9154686,-0.08132008,0.9420055,0.3255958,0.9716433,0.002154729,0.23644143,0.039794922,0.122558594,0.18345642,9.740509,0.023483276,1.1357422,-0.0053253174,-0.017044067,0.007461548,-27.642822,12.52594,2.4490356,0,0.0,0.0,0.0,0.0
0.548400879,0.10458991,0.40813074,-0.90691257,-0.049446464,0.9129203,0.4051319,0.99328554,0.0024709099,0.11566285,0.21965347,0.3370692,-0.9154981,-0.08087072,0.9414774,0.32723117,0.9722203,0.0021595277,0.23405778,0.09712219,0.045196533,-0.07362366,9.740646,0.024230957,1.1342468,0.0095825195,-0.010650635,-0.0032043457,-27.642822,12.52594,2.4490356,0,0.0,0.0,0.0,0.0
0.552825928,0.104620874,0.40819287,-0.9068809,-0.049451992,0.9128924,0.40519375,0.99328196,0.0024553412,0.11569356,0.21732469,0.33851123,-0.91552174,-0.08042176,0.9409599,0.3288265,0.9727807,0.0021657555,0.23171748,0.06838989,-0.04083252,0.06971741,9.740646,0.02407837,1.134552,-0.0021362305,-0.026641846,-0.012786865,-27.642822,12.52594,2.4490356,0,0.0,0.0,0.0,0.0
0.557250977,0.10451952,0.40798944,-0.90698415,-0.049378492,0.9129833,0.40499774,0.9932962,0.002455338,0.115570486,0.21504359,0.3399249,-0.9155366,-0.07997478,0.94045,0.3303902,0.9733243,0.0021715472,0.22942317,-0.027526855,0.0118255615,-0.32650757,9.740799,0.02407837,1.1333466,-0.012771606,-0.0053253174,-0.0095825195,-27.642822,12.52594,2.4490356,0,0.0,0.0,0.0,0.0
0.561676026,0.107384,0.3496659,-0.93069994,-0.042666994,0.9368713,0.34706157,0.9933017,0.0024413094,0.11552419,0.21280682,0.34130538,-0.9155457,-0.07952807,0.9399499,0.33191773,0.9738524,0.002177223,0.22717112,0.14949036,-0.05505371,-0.10101318,9.740952,0.02394104,1.132904,-0.0010681152,-0.0063934326,0.0010681152,-26.567078,14.677429,2.4490356,0,0.0,0.0,0.0,0.0
0.566101074,0.10741092,0.34971124,-0.9306798,-0.042683035,0.93685436,0.3471053,0.9932981,0.0024413387,0.115555145,0.21071428,0.34147286,-0.9159671,-0.07881756,0.9398891,0.33225936,0.97436506,0.0021825049,0.22496212,0.14485168,0.011962891,0.11418152,9.740799,0.02394104,1.133194,0.0021362305,0.015960693,0.012786865,-26.567078,14.677429,2.4490356,0,0.0,0.0,0.0,0.0
0.570526123,0.10741976,0.34972617,-0.9306732,-0.04270314,0.9368487,0.34711793,0.9932962,0.002455338,0.115570486,0.20866323,0.34163794,-0.91637504,-0.07812054,0.9398291,0.3325935,0.97486246,0.0021876814,0.2227967,0.068237305,0.021408081,0.04220581,9.740799,0.02407837,1.1333466,-0.0021362305,0.003189087,-0.0032043457,-26.567078,14.677429,2.4490356,0,0.0,0.0,0.0,0.0
0.574951172,0.10567757,0.38694322,-0.9160279,-0.047040943,0.9221001,0.38408133,0.9932872,0.0025020337,0.11564749,0.20665254,0.34179994,-0.91677016,-0.07743679,0.93977016,0.33291972,0.97534525,0.0021930344,0.22067378,0.07318115,0.126297,0.22819519,9.740646,0.024536133,1.1340942,0.012786865,0.017028809,-0.0021362305,-28.001404,11.808777,1.7578125,0,0.0,0.0,0.0,0.0
0.579376221,0.105752625,0.38710943,-0.91594905,-0.04709501,0.9220304,0.38424218,0.99327666,0.0025020072,0.115738064,0.20462088,0.34271103,-0.91688573,-0.07693093,0.9394382,0.33397204,0.97581345,0.0021992144,0.21859378,0.006134033,-0.022155762,-0.050430298,9.740646,0.024536133,1.1349945,-0.0021362305,0.013824463,-0.012786865,-28.001404,11.808777,1.7578125,0,0.0,0.0,0.0,0.0
0.58380127,0.10574529,0.3870932,-0.91595674,-0.04707296,0.92203724,0.38422844,0.9932785,0.002486452,0.115722716,0.20462088,0.34271103,-0.91688573,-0.07693093,0.9394382,0.33397204,0.97581345,0.0021992144,0.21859378,0.006134033,-0.022003174,-0.05027771,9.740646,0.024383545,1.1348419,-0.0021362305,0.013824463,-0.012786865,-28.001404,11.808777,1.7578125,0,0.0,0.0,0.0,0.0
0.588226318,0.10716286,0.35935107,-0.9270291,-0.043912206,0.93319917,0.35666662,0.9932713,0.0024864692,0.1157842,0.20068198,0.3444841,-0.91709185,-0.07593912,0.9387896,0.33601698,0.97670877,0.0022105891,0.21455796,0.058944702,0.0019378662,0.15982056,9.740509,0.024383545,1.135437,-0.0021362305,0.007446289,-0.0063934326,-25.312805,13.421631,2.2766113,0,0.0,0.0,0.0,0.0
0.592651367,0.107131205,0.35929567,-0.9270543,-0.04390919,0.93322045,0.35661128,0.99327475,0.0025020025,0.115753405,0.19881803,0.34478226,-0.9173857,-0.07533383,0.9386801,0.33645877,0.97713673,0.0022161067,0.21260029,0.054031372,0.035308838,-0.064941406,9.740646,0.024536133,1.1351471,0.0053253174,-0.004257202,0.013839722,-25.312805,13.421631,2.2766113,0,0.0,0.0,0.0,0.0
0.597076416,0.10711632,0.3592696,-0.927066,-0.04394803,0.9332303,0.35658056,0.9932747,0.0025471256,0.1157534,0.1969904,0.34507337,-0.9176705,-0.07473908,0.9385731,0.33688965,0.97755253,0.0022218246,0.21068035,0.054031372,0.11627197,0.002090454,9.740646,0.024978638,1.1351471,-0.0053253174,0.0010681152,0.003189087,-25.312805,13.421631,2.2766113,0,0.0,0.0,0.0,0.0
0.601501465,0.10506797,0.40098444,-0.91003966,-0.04875181,0.91608125,0.39801788,0.99326926,0.0025471475,0.11579952,0.19519861,0.34535807,-0.9179462,-0.07415555,0.93846834,0.33731014,0.97795624,0.0022283306,0.20879793,0.06373596,0.006134033,0.12135315,9.740509,0.024978638,1.1355896,-0.0010681152,0.007446289,0.019165039,-26.029968,11.987305,2.2766113,0,0.0,0.0,0.0,0.0
0.605926514,0.105119094,0.40108585,-0.90998906,-0.048821893,0.91603684,0.3981117,0.9932605,0.0025782443,0.11587474,0.19362521,0.34639573,-0.9178885,-0.07407369,0.93808526,0.33839205,0.9782752,0.002470152,0.20729578,-0.008087158,0.07287598,-0.07571411,9.740509,0.025283813,1.1363373,0.0021362305,0.0053253174,-0.0032043457,-26.029968,11.987305,2.2766113,0,0.0,0.0,0.0,0.0
0.610321045,0.10509011,0.40102836,-0.9100177,-0.048850212,0.9160619,0.3980506,0.9932622,0.002623372,0.115859374,0.19183613,0.347502,-0.917846,-0.073674686,0.937676,0.3396112,0.9786577,0.002472314,0.20548223,0.14993286,0.12510681,-0.037246704,9.740509,0.025726318,1.1361847,0.02130127,0.025543213,0.003189087,-26.029968,11.987305,2.2766113,0,0.0,0.0,0.0,0.0
0.614746094,0.10292658,0.4398186,-0.8921692,-0.053290464,0.8980829,0.436586,0.9932604,0.0026078077,0.11587473,0.19008279,0.34858444,-0.9178003,-0.07327988,0.9372741,0.34080392,0.9790294,0.0024753353,0.20370391,0.18345642,-0.0184021,0.05836487,9.740509,0.02557373,1.1363373,0.015975952,0.0053253174,-0.0095825195,-27.105713,13.063049,3.312683,0,0.0,0.0,0.0,0.0
0.619171143,0.102895714,0.43976247,-0.89220035,-0.053318936,0.89811015,0.43652624,0.99326205,0.0026544912,0.11585936,0.18830311,0.35044587,-0.91745824,-0.073049806,0.93657964,0.34275672,0.97939044,0.0024779846,0.20196088,0.011062622,0.1056366,-0.008529663,9.740509,0.026031494,1.1361847,0.0010681152,0.0010681152,-0.0053253174,-27.105713,13.063049,3.312683,0,0.0,0.0,0.0,0.0
0.623596192,0.10291431,0.43979627,-0.8921816,-0.053315673,0.8980937,0.4365606,0.9932603,0.002638927,0.11587472,0.18655942,0.35226753,-0.91711676,-0.072818,0.935896,0.34466815,0.97974133,0.0024815148,0.20025165,0.13078308,-0.052200317,0.039215088,9.740509,0.025878906,1.1363373,-0.0053253174,0.007446289,0.008514404,-27.105713,13.063049,3.312683,0,0.0,0.0,0.0,0.0
0.62802124,0.107300214,0.358837,-0.92721224,-0.04402578,0.93339646,0.35613555,0.9932514,0.0026078247,0.11595173,0.18485208,0.35405222,-0.91677517,-0.0725843,0.9352223,0.34654102,0.9800822,0.002484663,0.19857642,-0.0031433105,-0.06626892,0.1869049,9.740356,0.02557373,1.137085,0.012786865,0.0063934326,0.003189087,-26.38855,11.987305,1.5853882,0,0.0,0.0,0.0,0.0
0.632446289,0.10731782,0.35887364,-0.9271961,-0.044022508,0.9333826,0.35617277,0.9932497,0.0025938167,0.115967095,0.18330906,0.354148,-0.9170479,-0.072025195,0.935186,0.3467555,0.98041326,0.002487126,0.19693567,0.09262085,-0.037399292,0.0861969,9.740356,0.025436401,1.1372375,0.019180298,0.012771606,-0.0053253174,-26.38855,11.987305,1.5853882,0,0.0,0.0,0.0,0.0
0.636871338,0.10733596,0.35891137,-0.92717946,-0.04409906,0.93336797,0.35620177,0.9932443,0.0026544852,0.11601158,0.1817968,0.3542426,-0.91731244,-0.07147673,0.9351502,0.34696555,0.98073494,0.0024892597,0.19532743,0.06867981,0.1343689,0.100112915,9.740356,0.026031494,1.13768,-0.012771606,0.018096924,0.0021362305,-26.38855,11.987305,1.5853882,0,0.0,0.0,0.0,0.0
0.641296387,0.10786668,0.34977588,-0.9306028,-0.043118883,0.9368295,0.34711832,0.99322987,0.0026840519,0.11613464,0.18031482,0.35433605,-0.9175688,-0.070940346,0.9351148,0.34717104,0.98104745,0.0024925643,0.1937518,0.016159058,0.019165039,0.03187561,9.740204,0.026321411,1.1388855,-0.0010681152,0.007446289,0.0063934326,-28.181458,11.987305,1.2390137,0,0.0,0.0,0.0,0.0
0.645721436,0.107897155,0.34984446,-0.93057346,-0.04312447,0.93680394,0.34718663,0.9932263,0.0026700385,0.11616535,0.17887804,0.35424492,-0.9178851,-0.07038071,0.9351493,0.34719196,0.9813507,0.0024963939,0.19220969,0.0975647,-0.038146973,0.084243774,9.740204,0.026184082,1.1391907,0.0,0.026611328,-0.0063934326,-28.181458,11.987305,1.2390137,0,0.0,0.0,0.0,0.0
0.650146484,0.107901074,0.34985334,-0.9305697,-0.043158498,0.9368006,0.3471916,0.99322444,0.0026996392,0.11618096,0.17746991,0.354157,-0.9181924,-0.06983255,0.93518263,0.34721297,0.9816455,0.0024998668,0.19069846,-0.036361694,0.08125305,0.031433105,9.740051,0.026473999,1.139328,0.0010681152,-0.0053253174,-0.0010681152,-28.181458,11.987305,1.2390137,0,0.0,0.0,0.0,0.0
0.654571533,0.111102484,0.27063638,-0.9562491,-0.034035463,0.9626779,0.26850143,0.993226,0.0027152032,0.11616713,0.1760895,0.354071,-0.91849124,-0.069296144,0.9352151,0.3472328,0.98193204,0.0025038621,0.18921733,-0.055511475,0.038009644,-0.025894165,9.740051,0.026626587,1.1391907,0.007461548,0.013824463,-0.0053253174,-27.105713,13.063049,0.5477905,0,0.0,0.0,0.0,0.0
0.658996582,0.11107929,0.2705889,-0.9562651,-0.03405507,0.96269095,0.26845136,0.99322784,0.0027462852,0.11614996,0.1748503,0.352427,-0.9193599,-0.06847935,0.9358359,0.34571904,0.98221076,0.002508089,0.18776517,-0.0077819824,0.08079529,-0.025741577,9.740204,0.026931763,1.1390381,0.0,0.01914978,-0.004257202,-27.105713,13.063049,0.5477905,0,0.0,0.0,0.0,0.0
0.663421631,0.111103185,0.27063778,-0.9562485,-0.03408399,0.96267736,0.26849717,0.99322426,0.002761878,0.11618093,0.17363279,0.3508139,-0.9202072,-0.06768346,0.93644184,0.34423196,0.98248184,0.002512853,0.18634129,0.035461426,0.03755188,0.060165405,9.740051,0.02708435,1.139328,0.004257202,0.007446289,-0.0021362305,-27.105713,13.063049,0.5477905,0,0.0,0.0,0.0,0.0
0.667816162,0.10855734,0.33514306,-0.93589234,-0.04152719,0.9421632,0.33257177,0.9932224,0.002761873,0.116196275,0.17243743,0.34923294,-0.9210329,-0.06690827,0.9370325,0.34277293,0.98274547,0.0025178336,0.18494608,0.073776245,-0.0055389404,0.060012817,9.740051,0.02708435,1.1394806,0.0138549805,0.0,0.007461548,-28.54004,12.704468,1.2390137,0,0.0,0.0,0.0,0.0
0.672241211,0.10855308,0.33513385,-0.9358961,-0.041539237,0.94216645,0.33256114,0.9932224,0.0027758768,0.116196275,0.17166099,0.3489999,-0.9212663,-0.06566803,0.9371213,0.34277013,0.982965,0.0016574789,0.1837853,0.078567505,0.04220581,0.021697998,9.740051,0.02722168,1.1394806,-0.003189087,0.003189087,0.012786865,-28.54004,12.704468,1.2390137,0,0.0,0.0,0.0,0.0
0.67666626,0.108592704,0.3352194,-0.9358608,-0.0415645,0.94213593,0.33264416,0.993217,0.0027758616,0.11624232,0.17041248,0.3487233,-0.9216027,-0.06516952,0.9372242,0.34258384,0.98321533,0.0016798468,0.18244083,0.116867065,-0.0056762695,0.107437134,9.740051,0.02722168,1.1399384,-0.004257202,0.013824463,0.0053253174,-28.54004,12.704468,1.2390137,0,0.0,0.0,0.0,0.0
0.681091309,0.10518344,0.4037849,-0.90878713,-0.049455117,0.9148496,0.40075454,0.9932223,0.0027914364,0.11619626,0.16918921,0.3484539,-0.92193,-0.06468226,0.9373244,0.34240216,0.9834588,0.0017017672,0.18112397,0.17433167,0.056411743,-0.10279846,9.740051,0.027374268,1.1394806,0.01171875,0.0084991455,-0.0021362305,-26.92566,12.52594,2.4490356,0,0.0,0.0,0.0,0.0
0.685516358,0.1051778,0.4037739,-0.9087928,-0.049467996,0.9148545,0.40074202,0.9932223,0.0028069962,0.11619626,0.1678938,0.34957337,-0.921743,-0.064453185,0.9369074,0.34358448,0.9836958,0.0017235606,0.17983207,0.102508545,0.037109375,0.0121154785,9.740051,0.027526855,1.1394806,-0.0021362305,0.0021209717,0.003189087,-26.92566,12.52594,2.4490356,0,0.0,0.0,0.0,0.0
0.689941406,0.10519613,0.40380976,-0.9087746,-0.049464166,0.9148387,0.4007785,0.99322057,0.0027914315,0.116211616,0.16662477,0.35066974,-0.9215568,-0.06422596,0.93649757,0.34474242,0.98392636,0.0017452292,0.17856579,0.26530457,-0.048919678,0.10774231,9.740051,0.027374268,1.1396332,-0.004257202,-0.0010681152,0.0053253174,-26.92566,12.52594,2.4490356,0,0.0,0.0,0.0,0.0
0.694366455,0.108195685,0.3436587,-0.932841,-0.04254636,0.93909043,0.34102622,0.9932187,0.0027914264,0.11622696,0.16538198,0.35174447,-0.92137104,-0.064000346,0.9360944,0.3458775,0.98415077,0.0017661533,0.17732494,0.073776245,-0.0010528564,0.045333862,9.740051,0.027374268,1.1397858,0.010650635,-0.0053253174,-0.007461548,-27.822876,13.063049,1.5853882,0,0.0,0.0,0.0,0.0
0.698791504,0.108185954,0.34363896,-0.9328494,-0.04257312,0.9390976,0.34100327,0.99321866,0.0028225456,0.116226956,0.16424729,0.351583,-0.9216356,-0.063563496,0.936155,0.345794,0.98436904,0.0017866588,0.17610876,-0.021987915,0.09442139,-0.0025482178,9.740051,0.027679443,1.1397858,0.018112183,-0.01171875,0.0010681152,-27.822876,13.063049,1.5853882,0,0.0,0.0,0.0,0.0
0.703216553,0.10817414,0.34361506,-0.93285966,-0.042516295,0.9391065,0.3409859,0.9932224,0.0027758768,0.116196275,0.16313475,0.35142437,-0.9218937,-0.06313621,0.93621457,0.3457111,0.9845816,0.0018073765,0.17491674,0.030685425,0.12361145,0.04084778,9.740051,0.02722168,1.1394806,-0.003189087,-0.0053253174,0.0053253174,-27.822876,13.063049,1.5853882,0,0.0,0.0,0.0,0.0
0.707641602,0.109306395,0.31555942,-0.9425891,-0.039240986,0.9489018,0.3131222,0.99323326,0.00276186,0.116103925,0.16204393,0.35126838,-0.9221455,-0.0627166,0.93627304,0.34562907,0.9847885,0.0018267464,0.17374772,0.011367798,0.01361084,-0.030075073,9.740204,0.02708435,1.1385803,-0.010635376,-0.010650635,0.019165039,-28.181458,14.4973755,1.5853882,0,0.0,0.0,0.0,0.0
0.712066651,0.10929288,0.31553423,-0.9425992,-0.039233252,0.94891024,0.31309783,0.99323505,0.0027618648,0.11608857,0.16100985,0.35055897,-0.92259645,-0.06220906,0.9365388,0.34500003,0.98499024,0.0018454486,0.17259993,0.16938782,-0.04862976,0.1616211,9.740204,0.02708435,1.1384277,0.028762817,-0.017044067,0.0095825195,-28.181458,14.4973755,1.5853882,0,0.0,0.0,0.0,0.0
0.716491699,0.10935152,0.3156435,-0.9425558,-0.039250504,0.9488738,0.31320557,0.99322784,0.0027462852,0.11614996,0.16100985,0.35055897,-0.92259645,-0.06220906,0.9365388,0.34500003,0.98499024,0.0018454486,0.17259993,0.16938782,-0.048477173,0.16101074,9.740204,0.026931763,1.1390381,0.028762817,-0.017044067,0.0095825195,-28.181458,14.4973755,1.5853882,0,0.0,0.0,0.0,0.0
0.720916748,0.10782141,0.35083434,-0.9302096,-0.043275073,0.93643355,0.34816572,0.9932279,0.002715166,0.11614998,0.15900248,0.34918514,-0.9234652,-0.061229184,0.93705183,0.34378016,0.98537767,0.0018811215,0.1703739,0.11671448,-0.057739258,0.031723022,9.740204,0.026626587,1.1390381,0.012786865,-0.0021362305,0.020217896,-27.28424,13.960266,2.1026611,0,0.0,0.0,0.0,0.0
0.725341797,0.10776839,0.35073712,-0.9302523,-0.04324238,0.9364699,0.3480718,0.9932351,0.0027151855,0.11608858,0.1579824,0.34921816,-0.9236278,-0.060873333,0.93703955,0.34387696,0.9855638,0.0018978025,0.16929382,0.126297,-3.0517578E-4,-0.14006042,9.740204,0.026626587,1.1384277,0.008529663,-0.010650635,0.013839722,-27.28424,13.960266,2.1026611,0,0.0,0.0,0.0,0.0
0.729736328,0.107782885,0.35076374,-0.9302407,-0.04320347,0.93646026,0.34810314,0.9932353,0.0026700627,0.1160886,0.15698156,0.34924853,-0.92378694,-0.060523737,0.93702817,0.3439696,0.9857452,0.0019141501,0.16823396,0.07362366,-0.1387024,-0.0011901855,9.740204,0.026184082,1.1384277,-0.0053253174,-0.004257202,0.0053253174,-27.28424,13.960266,2.1026611,0,0.0,0.0,0.0,0.0
0.734161377,0.107117824,0.36465028,-0.9249627,-0.044828787,0.9311406,0.3618943,0.9932352,0.002699626,0.116088584,0.15600091,0.34927887,-0.92394155,-0.060180277,0.93701684,0.34406072,0.9859219,0.0019292684,0.16719519,-0.017364502,0.10041809,0.013168335,9.740204,0.026473999,1.1384277,-0.013839722,0.011703491,-0.0010681152,-26.92566,13.243103,2.1026611,0,0.0,0.0,0.0,0.0
0.738586426,0.10713369,0.36468035,-0.924949,-0.044872213,0.93112874,0.3619195,0.99323153,0.0027307356,0.11611928,0.15490565,0.34872565,-0.9243347,-0.06059557,0.93722063,0.34343216,0.9860692,0.0028110042,0.16631201,0.0975647,0.066589355,0.08470154,9.740204,0.026779175,1.1387329,0.015975952,0.0021209717,-0.010650635,-26.92566,13.243103,2.1026611,0,0.0,0.0,0.0,0.0
0.743011475,0.107162654,0.3647353,-0.924924,-0.044924084,0.9311073,0.36196867,0.9932261,0.00276184,0.11616532,0.15394817,0.34904575,-0.92437387,-0.06029836,0.9371015,0.34380943,0.98623735,0.0028093986,0.16531193,0.06404114,0.09022522,0.117752075,9.740204,0.02708435,1.1391907,0.019180298,0.0084991455,0.008514404,-26.92566,13.243103,2.1026611,0,0.0,0.0,0.0,0.0
0.747436524,0.111241534,0.26790288,-0.9570023,-0.033731874,0.963442,0.26578465,0.99322075,0.002715189,0.11621164,0.15301046,0.34936056,-0.92441064,-0.06000749,0.9369842,0.34417987,0.986401,0.0028084472,0.16433263,0.011520386,-0.029006958,-0.15083313,9.740051,0.026626587,1.1396332,0.0063934326,0.013824463,0.003189087,-26.747131,13.063049,0.5477905,0,0.0,0.0,0.0,0.0
0.751861572,0.11137463,0.2681716,-0.9569115,-0.033818558,0.9633672,0.26604468,0.99320287,0.0027307423,0.11636385,0.15221438,0.3477545,-0.9251473,-0.059410412,0.9375814,0.3426536,0.9865603,0.002806582,0.16337362,0.021255493,-0.048324585,0.05836487,9.739899,0.026779175,1.1411285,0.0063934326,0.024490356,0.0095825195,-26.747131,13.063049,0.5477905,0,0.0,0.0,0.0,0.0
0.756286621,0.11148249,0.26838937,-0.9568379,-0.03393844,0.9633065,0.26624957,0.9931867,0.0027914194,0.11650053,0.15143497,0.34618485,-0.9258637,-0.058830228,0.93816215,0.341161,0.986715,0.0028050651,0.16243668,0.1602478,0.08514404,0.095321655,9.739761,0.027374268,1.1424713,0.0095825195,0.029815674,-0.007461548,-26.747131,13.063049,0.5477905,0,0.0,0.0,0.0,0.0
0.76071167,0.11149243,0.26840943,-0.95683116,-0.033959758,0.9633008,0.2662672,0.9931848,0.0028069739,0.11651587,0.15067136,0.34464988,-0.9265607,-0.058267005,0.93872714,0.33970037,0.9868653,0.0028047923,0.161521,0.06448364,0.056259155,0.08558655,9.739761,0.027526855,1.1426239,0.0138549805,0.024490356,-0.004257202,-26.747131,13.063049,0.5477905,0,0.0,0.0,0.0,0.0
0.765136719,0.11154012,0.26850572,-0.9567985,-0.034017235,0.96327376,0.26635727,0.9931775,0.0028381166,0.11657751,0.14992175,0.34314513,-0.9272405,-0.057718072,0.9392782,0.33826777,0.98701173,0.0028048358,0.16062392,0.04548645,0.05116272,0.15682983,9.739609,0.027832031,1.143219,0.0,0.017028809,0.003189087,-26.747131,13.063049,0.5477905,0,0.0,0.0,0.0,0.0
0.769561768,0.11156425,0.26855442,-0.95678204,-0.0340445,0.96326023,0.26640305,0.9931739,0.0028521104,0.11660821,0.14918642,0.34167153,-0.927903,-0.05718381,0.9398152,0.33686393,0.98715425,0.0028055012,0.15974575,0.05027771,0.07019043,0.0942688,9.739609,0.02796936,1.1435242,0.0,0.0,0.0063934326,-26.747131,13.063049,0.5477905,0,0.0,0.0,0.0,0.0
0.773986817,0.10583881,0.39793468,-0.91128814,-0.0490299,0.91740924,0.39491317,0.99317384,0.0028832296,0.1166082,0.14846489,0.3402275,-0.92854905,-0.0566632,0.94033897,0.3354876,0.987293,0.0028064335,0.1588857,0.11251831,0.031570435,0.0368042,9.739609,0.028274536,1.1435242,0.0021362305,0.004257202,0.0021362305,-27.642822,12.167358,2.1026611,0,0.0,0.0,0.0,0.0
0.778411865,0.10583881,0.39793468,-0.91128814,-0.0490299,0.91740924,0.39491317,0.99317384,0.0028832296,0.1166082,0.14846489,0.3402275,-0.92854905,-0.0566632,0.94033897,0.3354876,0.987293,0.0028064335,0.1588857,0.11251831,0.031570435,0.0368042,9.739609,0.028274536,1.1435242,0.0021362305,0.004257202,0.0021362305,-27.642822,12.167358,2.1026611,0,0.0,0.0,0.0,0.0
0.782836914,0.10589128,0.39804453,-0.9112341,-0.049101572,0.9173614,0.39501515,0.99316466,0.002914368,0.1166852,0.14675574,0.34253913,-0.9279707,-0.05645997,0.9394994,0.33786568,0.98756015,0.0028094747,0.15721667,0.0025482178,0.05041504,0.18928528,9.739456,0.028579712,1.1442719,-0.003189087,0.004257202,-0.004257202,-27.642822,12.167358,2.1026611,0,0.0,0.0,0.0,0.0
0.787231445,0.10641871,0.3885118,-0.9152779,-0.047944073,0.9214393,0.38555273,0.9931648,0.0028521288,0.11668521,0.1459283,0.34366187,-0.9276861,-0.056359872,0.93908924,0.33902055,0.9876885,0.0028115725,0.15640844,0.17971802,0.12763977,-0.045333862,9.739456,0.02796936,1.1442719,0.004257202,0.0084991455,0.018096924,-27.28424,13.243103,2.4490356,0,0.0,0.0,0.0,0.0
0.791656494,0.106441975,0.38855577,-0.91525656,-0.047928043,0.9214208,0.38559878,0.99316305,0.00282256,0.11670057,0.1451298,0.34456706,-0.9274756,-0.056228638,0.93875754,0.33995983,0.9878136,0.0028123837,0.15561622,0.20845032,0.24285889,0.07421875,9.739456,0.027679443,1.1444244,0.003189087,0.0063934326,0.024490356,-27.28424,13.243103,2.4490356,0,0.0,0.0,0.0,0.0
0.796081543,0.10648164,0.38863078,-0.9152201,-0.04787289,0.9213895,0.38568074,0.99316156,0.0027463126,0.11671595,0.14434797,0.3454547,-0.9272673,-0.056098238,0.9384312,0.340881,0.9879356,0.0028125872,0.15484004,0.15098572,0.032913208,0.15068054,9.739456,0.026931763,1.144577,-0.008514404,-0.0010681152,0.025543213,-27.28424,13.243103,2.4490356,0,0.0,0.0,0.0,0.0
0.800506592,0.106098175,0.39628056,-0.9119786,-0.048714273,0.9181255,0.3932842,0.9931616,0.0026996331,0.11671596,0.14358284,0.34632584,-0.92706114,-0.05596798,0.93811005,0.34178513,0.98805445,0.002811262,0.15407966,-0.002243042,-0.11026001,0.002243042,9.739456,0.026473999,1.144577,0.0053253174,-0.007461548,0.022354126,-28.181458,11.987305,1.9302368,0,0.0,0.0,0.0,0.0
0.804931641,0.106098175,0.39628056,-0.9119786,-0.048714273,0.9181255,0.3932842,0.9931616,0.0026996331,0.11671596,0.14282429,0.34733528,-0.9268006,-0.055861853,0.9377368,0.34282523,0.9881704,0.0028090293,0.1533344,-0.06929016,-0.20602417,-0.016921997,9.739456,0.026473999,1.144577,0.0,-0.010650635,-0.0032043457,-28.181458,11.987305,1.9302368,0,0.0,0.0,0.0,0.0
0.80935669,0.10610571,0.39629698,-0.91197056,-0.04877028,0.91811824,0.39329413,0.99315804,0.0027463029,0.11674511,0.1417155,0.34711063,-0.927055,-0.05674242,0.93781537,0.34246555,0.9882799,0.0040706717,0.15259886,0.15098572,-0.08198547,-0.065093994,9.739456,0.026931763,1.144867,0.022369385,0.0,-0.015975952,-28.181458,11.987305,1.9302368,0,0.0,0.0,0.0,0.0
0.813781738,0.10978837,0.320748,-0.94078004,-0.040202126,0.9471601,0.31823167,0.99314165,0.0028832266,0.11688193,0.14099368,0.3481044,-0.9267923,-0.05661946,0.9374471,0.34349272,0.98839015,0.0040441845,0.1518836,0.13676453,0.18959045,-0.032913208,9.739304,0.028274536,1.1462097,0.0138549805,0.015960693,-0.015975952,-27.642822,13.601685,1.411438,0,0.0,0.0,0.0,0.0
0.818206787,0.109878324,0.32092354,-0.94070977,-0.04022282,0.9471008,0.3184057,0.9931308,0.0028521204,0.11697429,0.14037962,0.34756005,-0.92708987,-0.056273784,0.9376491,0.3429977,0.98849726,0.0040209657,0.15118533,-0.030670166,0.04145813,-0.23971558,9.739151,0.02796936,1.14711,-0.004257202,0.036193848,-0.014907837,-27.642822,13.601685,1.411438,0,0.0,0.0,0.0,0.0
0.822631836,0.110042386,0.3212436,-0.9405813,-0.04035276,0.9469922,0.31871215,0.99310744,0.002883213,0.117172346,0.13977915,0.34702995,-0.9273791,-0.055936262,0.9378455,0.34251553,0.9886015,0.003997589,0.1505028,0.050872803,0.0028381348,0.15576172,9.739014,0.028274536,1.1490631,0.004257202,0.043655396,0.008514404,-27.642822,13.601685,1.411438,0,0.0,0.0,0.0,0.0
0.827056885,0.10351446,0.44942275,-0.88730145,-0.055232782,0.89331466,0.4460249,0.99309325,0.0028380938,0.11729388,0.13919336,0.3465167,-0.92765903,-0.055609006,0.9380353,0.34204862,0.9887026,0.003975302,0.14983773,-0.0016479492,-0.030212402,0.044448853,9.738861,0.027832031,1.1502533,-0.0010681152,0.031936646,-0.007461548,-28.720093,11.450195,2.4490356,0,0.0,0.0,0.0,0.0
0.831481934,0.10355811,0.4495205,-0.88724685,-0.055251822,0.8932655,0.44612092,0.9930876,0.0028225624,0.11734173,0.13846715,0.348622,-0.92697877,-0.05567426,0.9372551,0.34417042,0.9888009,0.0039525577,0.14918831,0.0368042,-0.063583374,0.13496399,9.7387085,0.027679443,1.150711,0.019180298,0.023422241,0.0095825195,-28.720093,11.450195,2.4490356,0,0.0,0.0,0.0,0.0
0.835906983,0.1035694,0.4495458,-0.8872327,-0.055294074,0.8932527,0.44614136,0.9930841,0.002852116,0.11737087,0.13775675,0.3506855,-0.92630595,-0.05573567,0.936485,0.34625036,0.9888966,0.0039299577,0.14855283,0.10864258,0.10848999,0.09158325,9.7387085,0.02796936,1.151001,0.0010681152,0.007446289,-0.004257202,-28.720093,11.450195,2.4490356,0,0.0,0.0,0.0,0.0
0.840332031,0.10890634,0.35141763,-0.9298629,-0.043985315,0.9362142,0.34866634,0.99307835,0.0029283422,0.11741687,0.13706112,0.35270667,-0.9256415,-0.055793848,0.93572575,0.34828767,0.98899,0.0039084014,0.14793049,0.12779236,0.16520691,0.14859009,9.7387085,0.028717041,1.1514587,0.014907837,-0.0053253174,-0.0010681152,-26.567078,12.8845215,1.7578125,0,0.0,0.0,0.0,0.0
0.84475708,0.10892637,0.3514566,-0.9298458,-0.044014547,0.9361994,0.34870204,0.99307483,0.0029438916,0.11744603,0.13649942,0.3526809,-0.9257343,-0.05555745,0.9357355,0.34829918,0.98908097,0.0038888,0.14732142,0.20440674,0.050125122,0.10041809,9.7387085,0.028869629,1.1517487,0.015975952,0.011703491,0.003189087,-26.567078,12.8845215,1.7578125,0,0.0,0.0,0.0,0.0
0.849151611,0.1089214,0.35144696,-0.92985004,-0.044027895,0.93620306,0.34869078,0.99307483,0.0029594514,0.11744603,0.13594937,0.35265645,-0.9258246,-0.055326425,0.9357448,0.34831098,0.98916966,0.0038699019,0.14672515,-0.04937744,0.040405273,-0.004928589,9.7387085,0.029022217,1.1517487,0.0095825195,0.0021209717,0.0010681152,-26.567078,12.8845215,1.7578125,0,0.0,0.0,0.0,0.0
0.85357666,0.11090422,0.30758342,-0.9450358,-0.0389554,0.95151645,0.3051211,0.9930673,0.002975035,0.117509216,0.13541014,0.35263228,-0.9259128,-0.05510027,0.93575406,0.34832215,0.9892563,0.0038516927,0.14614074,-0.16415405,0.035461426,0.14289856,9.738556,0.029174805,1.152359,0.01171875,-0.009597778,0.008514404,-25.671387,13.063049,1.2390137,0,0.0,0.0,0.0,0.0
0.858001709,0.110925235,0.30762324,-0.9450204,-0.038934875,0.9515037,0.3051636,0.99306583,0.002943911,0.117523044,0.1349337,0.35173884,-0.92632216,-0.054754023,0.93609035,0.3474722,0.98934066,0.0038341598,0.14556924,0.12315369,-0.07435608,0.04699707,9.738556,0.028869629,1.1524963,0.0021362305,-0.0021362305,-0.0010681152,-25.671387,13.063049,1.2390137,0,0.0,0.0,0.0,0.0
0.862426758,0.11082239,0.30742833,-0.94509596,-0.039004654,0.9515663,0.30495936,0.9930745,0.003066812,0.11744598,0.13446659,0.35086372,-0.9267219,-0.05441523,0.9364188,0.34663945,0.9894229,0.0038163548,0.14500937,0.09906006,0.12553406,0.023803711,9.7387085,0.030075073,1.1517487,0.008529663,-0.020248413,-0.0010681152,-25.671387,13.063049,1.2390137,0,0.0,0.0,0.0,0.0
0.866851807,0.10756473,0.37685472,-0.9200056,-0.04706613,0.92626727,0.37391675,0.99308336,0.0030808432,0.117370784,0.13400625,0.35000202,-0.9271143,-0.05408529,0.9367413,0.3458188,0.98950344,0.003801364,0.14445913,0.209198,0.029632568,0.12988281,9.7387085,0.030212402,1.151001,0.0063934326,-0.017044067,-0.015975952,-29.257202,13.063049,1.9302368,0,0.0,0.0,0.0,0.0
0.871276856,0.10748215,0.37668166,-0.92008615,-0.047025584,0.9263377,0.37374762,0.9930943,0.0030963887,0.11727844,0.1334734,0.350542,-0.9269872,-0.053959858,0.9365394,0.34638473,0.98958236,0.0037869536,0.14391828,0.14678955,0.12524414,0.07333374,9.738861,0.03036499,1.1501007,0.019180298,-0.027694702,0.0010681152,-29.257202,13.063049,1.9302368,0,0.0,0.0,0.0,0.0
0.875701904,0.10743962,0.37659255,-0.92012763,-0.047012825,0.9263738,0.3736595,0.9930994,0.0031119643,0.117233925,0.13162765,0.35048234,-0.92727363,-0.052817438,0.9365633,0.3464961,0.9898912,0.0033677514,0.1417892,-0.030380249,0.20170593,0.054611206,9.738861,0.030517578,1.1496582,0.008529663,-0.024505615,0.007461548,-29.257202,13.063049,1.9302368,0,0.0,0.0,0.0,0.0
0.880126953,0.11191401,0.2724649,-0.95563495,-0.034841225,0.96216094,0.2702453,0.99310696,0.0030512565,0.11717229,0.13114057,0.35100728,-0.927144,-0.052714583,0.9363667,0.34704265,0.98996127,0.0033626356,0.14129886,0.031723022,0.106536865,0.0073242188,9.739014,0.029922485,1.1490631,0.022369385,-0.014923096,0.017028809,-27.464294,11.987305,0.20141602,0,0.0,0.0,0.0,0.0
0.884552002,0.11196295,0.27257636,-0.9555974,-0.034837086,0.96212935,0.27035785,0.9931015,0.0030201678,0.11721861,0.13077828,0.3494582,-0.92778015,-0.05232371,0.9369459,0.34553513,0.99002993,0.003356408,0.14081712,0.17552185,-0.09425354,0.14575195,9.738861,0.02961731,1.1495056,0.003189087,-0.012786865,0.02128601,-27.464294,11.987305,0.20141602,0,0.0,0.0,0.0,0.0
0.888977051,0.111925684,0.27249148,-0.955626,-0.03479971,0.96215355,0.27027693,0.9931071,0.0030045777,0.11717231,0.13042332,0.34794137,-0.9284,-0.051942017,0.9375103,0.34405875,0.99009687,0.0033496832,0.14034598,-0.0640564,-0.05101013,-0.1219635,9.739014,0.029464722,1.1490631,0.010650635,-0.0063934326,0.0095825195,-27.464294,11.987305,0.20141602,0,0.0,0.0,0.0,0.0
0.8934021,0.103603564,0.44534576,-0.88934433,-0.054881956,0.89535356,0.4419615,0.9931034,0.0030201736,0.11720327,0.13007377,0.3464523,-0.92900574,-0.051568307,0.93806165,0.34260923,0.9901624,0.003342781,0.13988316,0.06059265,0.04460144,0.08364868,9.738861,0.02961731,1.149353,0.015975952,0.0053253174,-0.007461548,-29.257202,13.421631,3.312683,0,0.0,0.0,0.0,0.0
0.897827149,0.10360969,0.4453575,-0.88933766,-0.054903977,0.89534754,0.44197065,0.9931015,0.0030357277,0.11721861,0.12953992,0.3484735,-0.92832416,-0.051684942,0.9373127,0.34463543,0.9902263,0.0033363288,0.13943025,0.21382141,0.06359863,0.06913757,9.738861,0.029769897,1.1495056,0.0095825195,-0.0063934326,-0.0032043457,-29.257202,13.421631,3.312683,0,0.0,0.0,0.0,0.0
0.902252197,0.103646606,0.44542816,-0.8892981,-0.054932624,0.8953125,0.4420383,0.99309605,0.0030357111,0.11726464,0.1290171,0.3504529,-0.9276516,-0.051797684,0.93657446,0.34661987,0.9902887,0.0033303169,0.13898675,0.08932495,-0.013015747,0.11656189,9.738861,0.029769897,1.1499634,0.0,-0.0063934326,0.01171875,-29.257202,13.421631,3.312683,0,0.0,0.0,0.0,0.0
0.906646729,0.10834845,0.35786036,-0.9274678,-0.044752315,0.9337701,0.35506406,0.9931051,0.003035691,0.117187634,0.12850556,0.35239264,-0.9269874,-0.05190677,0.9358463,0.34856465,0.9903494,0.0033244248,0.13855301,0.09875488,-0.041732788,0.16998291,9.739014,0.029769897,1.1492157,0.0053253174,-0.0138549805,0.0063934326,-26.92566,13.601685,2.1026611,0,0.0,0.0,0.0,0.0
0.911071777,0.108327195,0.35782102,-0.92748547,-0.04472236,0.93378526,0.35502803,0.9931088,0.0030201427,0.11715695,0.12810214,0.35250214,-0.92700166,-0.051766224,0.93580514,0.34869617,0.9904091,0.0033186502,0.13812634,-0.035324097,0.01586914,0.1846466,9.739014,0.02961731,1.1489105,0.0,-0.031967163,-0.004257202,-26.92566,13.601685,2.1026611,0,0.0,0.0,0.0,0.0
0.915496826,0.108272344,0.3577195,-0.9275311,-0.044656314,0.9338244,0.35493383,0.9931178,0.0029906062,0.11708177,0.12770627,0.35260862,-0.9270158,-0.05162774,0.935765,0.3488243,0.9904674,0.00331268,0.13770744,0.0029907227,-0.06523132,0.09921265,9.739014,0.029327393,1.1481628,-0.0053253174,-0.0234375,0.0053253174,-26.92566,13.601685,2.1026611,0,0.0,0.0,0.0,0.0
0.919921875,0.10912714,0.33688667,-0.9351998,-0.042184155,0.9415404,0.33424833,0.99313223,0.0029750478,0.116958894,0.12731731,0.35271093,-0.9270303,-0.0514906,0.93572646,0.3489479,0.9905246,0.0033062384,0.13729547,0.10820007,-0.060287476,0.10041809,9.739151,0.029174805,1.1469574,0.019180298,-0.022369385,0.0010681152,-26.92566,13.601685,1.7578125,0,0.0,0.0,0.0,0.0
0.924346924,0.10912475,0.33688217,-0.93520164,-0.042149898,0.94154227,0.33424792,0.99313414,0.0029439335,0.11694512,0.12695676,0.35239545,-0.9271998,-0.05129856,0.9358454,0.34865728,0.9905809,0.0032996146,0.13688928,0.012420654,-0.06477356,-0.05267334,9.739151,0.028869629,1.1468201,-0.003189087,-0.03515625,-0.0010681152,-26.92566,13.601685,1.7578125,0,0.0,0.0,0.0,0.0
0.928771973,0.10914527,0.33692068,-0.9351854,-0.042178705,0.9415283,0.33428317,0.9931305,0.0029594826,0.11697425,0.12660332,0.3520861,-0.92736566,-0.05110992,0.93596184,0.34837228,0.9906359,0.003292501,0.13649096,0.017211914,0.026031494,0.1002655,9.739151,0.029022217,1.14711,-0.010635376,-0.018112183,-0.007461548,-26.92566,13.601685,1.7578125,0,0.0,0.0,0.0,0.0
0.933197022,0.110119455,0.3129788,-0.94335467,-0.039382983,0.94975555,0.31050518,0.9931378,0.002959458,0.116912596,0.12625705,0.3517837,-0.9275276,-0.05092582,0.93607557,0.34809357,0.9906895,0.0032858409,0.136101,0.14155579,0.021255493,-0.15771484,9.739304,0.029022217,1.1465149,-0.012771606,-0.0053253174,0.012786865,-26.567078,13.601685,1.411438,0,0.0,0.0,0.0,0.0
0.93762207,0.11013912,0.31301567,-0.9433401,-0.03942681,0.9497433,0.3105371,0.9931339,0.0029906125,0.11694509,0.12594214,0.35101324,-0.92786217,-0.050681442,0.93636477,0.34735057,0.99074215,0.0032793132,0.13571765,0.093826294,0.059249878,0.10055542,9.739151,0.029327393,1.1468201,0.003189087,-0.014923096,0.0095825195,-26.567078,13.601685,1.411438,0,0.0,0.0,0.0,0.0
0.942047119,0.110155776,0.31304696,-0.94332784,-0.03942007,0.949733,0.31056932,0.99313223,0.0029750478,0.116958894,0.12668137,0.35081604,-0.9278362,-0.050610874,0.9364397,0.3471589,0.99065155,0.0029800315,0.13638458,0.065093994,-0.026794434,0.05731201,9.739151,0.029174805,1.1469574,-0.009567261,0.015960693,0.003189087,-26.567078,13.601685,1.411438,0,0.0,0.0,0.0,0.0
0.946472168,0.106102504,0.3986029,-0.9109654,-0.049336437,0.9171187,0.39554903,0.9931305,0.0029750424,0.11697425,0.12635833,0.35006598,-0.92816347,-0.05037361,0.9367204,0.34643552,0.9907049,0.002979932,0.1359965,0.026794434,0.0019378662,0.018859863,9.739151,0.029174805,1.14711,0.004257202,0.009567261,-0.0010681152,-28.181458,12.704468,2.2766113,0,0.0,0.0,0.0,0.0
0.950897217,0.10615912,0.3987182,-0.9109083,-0.04939389,0.91706854,0.3956582,0.9931216,0.0029905757,0.11704945,0.12594962,0.35104656,-0.92784864,-0.05037252,0.9363533,0.3474265,0.990757,0.002979834,0.13561645,0.012420654,0.044891357,0.19528198,9.739151,0.029327393,1.1478577,-0.0010681152,0.011703491,-0.0010681152,-28.181458,12.704468,2.2766113,0,0.0,0.0,0.0,0.0
0.955322266,0.10615912,0.3987182,-0.9109083,-0.04939389,0.91706854,0.3956582,0.9931216,0.0029905757,0.11704945,0.12555048,0.3520095,-0.92753774,-0.050371833,0.9359917,0.34839955,0.99080765,0.002980049,0.13524558,0.23269653,-0.026947021,0.027694702,9.739151,0.029327393,1.1478577,0.0,0.013824463,-0.004257202,-28.181458,12.704468,2.2766113,0,0.0,0.0,0.0,0.0
0.959747315,0.11058918,0.30544317,-0.9457667,-0.038560815,0.9522058,0.30301377,0.99311787,0.0029594868,0.117081776,0.12515937,0.35295284,-0.9272321,-0.050370384,0.93563634,0.34935287,0.9908572,0.0029802597,0.13488202,0.15142822,-0.055343628,0.11357117,9.739014,0.029022217,1.1481628,0.0053253174,0.0084991455,0.0,-27.464294,13.780212,1.2390137,0,0.0,0.0,0.0,0.0
0.964141846,0.11058042,0.30542627,-0.94577307,-0.03858828,0.952211,0.30299357,0.9931178,0.0029906062,0.11708177,0.12487728,0.35201102,-0.9276281,-0.050118983,0.93599117,0.34843755,0.9909056,0.0029798443,0.13452646,-0.0018005371,0.05445862,0.017807007,9.739014,0.029327393,1.1481628,0.0053253174,0.007446289,0.003189087,-27.464294,13.780212,1.2390137,0,0.0,0.0,0.0,0.0
0.968566895,0.11058042,0.30542627,-0.94577307,-0.03858828,0.952211,0.30299357,0.9931178,0.0029906062,0.11708177,0.12460025,0.35108733,-0.9280153,-0.04987373,0.936338,0.34753963,0.9909528,0.0029800595,0.13417798,0.046081543,0.006576538,-0.010925293,9.739014,0.029327393,1.1481628,-0.0010681152,-0.0063934326,0.003189087,-27.464294,13.780212,1.2390137,0,0.0,0.0,0.0,0.0
0.972991943,0.110598356,0.30546084,-0.94575983,-0.03858226,0.95220006,0.30302903,0.9931161,0.0029750413,0.117097124,0.1243284,0.35018176,-0.9283938,-0.049633957,0.936677,0.34665924,0.9909989,0.0029802704,0.13383646,-0.006591797,-0.045928955,0.0368042,9.739014,0.029174805,1.1483154,-0.004257202,0.009567261,-0.0021362305,-27.464294,13.780212,1.2390137,0,0.0,0.0,0.0,0.0
0.977416992,0.110551886,0.3053713,-0.9457942,-0.03857201,0.9522287,0.30294022,0.9931216,0.0029905757,0.11704945,0.124061935,0.34929472,-0.9287636,-0.049399417,0.93700814,0.34579673,0.99104404,0.0029801659,0.133502,0.069885254,-0.022155762,0.051635742,9.739151,0.029327393,1.1478577,0.0,0.004257202,0.004257202,-27.464294,13.780212,1.2390137,0,0.0,0.0,0.0,0.0
0.981842041,0.110635005,0.30553147,-0.9457327,-0.03871345,0.952177,0.30308455,0.99310684,0.0030808195,0.11717228,0.124061935,0.34929472,-0.9287636,-0.049399417,0.93700814,0.34579673,0.99104404,0.0029801659,0.133502,0.07002258,-0.023040771,0.050430298,9.739014,0.030212402,1.1490631,0.0,0.004257202,0.004257202,-27.464294,13.780212,1.2390137,0,0.0,0.0,0.0,0.0
0.98626709,0.10764321,0.37112838,-0.9223213,-0.04635047,0.92857635,0.3682358,0.9931086,0.0031119443,0.11715692,0.123545244,0.34757537,-0.9294772,-0.04895121,0.9376473,0.344124,0.9911308,0.0029841522,0.1328561,-0.006591797,0.10115051,-0.045196533,9.739014,0.030517578,1.1489105,-0.003189087,0.025543213,-0.022369385,-27.642822,13.243103,2.1026611,0,0.0,0.0,0.0,0.0
0.990692139,0.107787214,0.3714084,-0.92219186,-0.04639779,0.92846453,0.36851165,0.9930907,0.003066814,0.11730914,0.12322551,0.34804863,-0.9293426,-0.048906878,0.93747175,0.3446083,0.99117285,0.002986708,0.1325424,0.17552185,-0.061187744,0.049087524,9.738861,0.030075073,1.1504059,0.007461548,0.01914978,-0.0053253174,-27.642822,13.243103,2.1026611,0,0.0,0.0,0.0,0.0
0.995117188,0.10789833,0.37162447,-0.92209184,-0.046486598,0.9283781,0.36871836,0.9930745,0.0030808158,0.11744598,0.12291511,0.34851798,-0.9292078,-0.04886409,0.93729734,0.34508842,0.9912135,0.0029883103,0.13223802,0.08947754,-0.056533813,0.05731201,9.7387085,0.030212402,1.1517487,0.0095825195,0.031936646,0.007461548,-27.642822,13.243103,2.1026611,0,0.0,0.0,0.0,0.0
0.999542236,0.1103986,0.32169673,-0.9403847,-0.040772777,0.94683766,0.3191176,0.9930507,0.003111958,0.117646016,0.12261325,0.3489823,-0.9290734,-0.04882367,0.93712455,0.34556305,0.9912529,0.0029901604,0.13194248,0.1376648,0.09637451,0.060150146,9.738403,0.030517578,1.1537018,0.010650635,0.03086853,-0.007461548,-26.567078,13.243103,1.411438,0,0.0,0.0,0.0,0.0
1.003936768,0.110482246,0.32185763,-0.94031984,-0.040854942,0.94678295,0.31926963,0.99303806,0.0031430868,0.117752165,0.122372925,0.3484394,-0.9293088,-0.048655488,0.93732655,0.34503856,0.99129087,0.0029925962,0.13165689,0.19528198,-0.042785645,0.03996277,9.738251,0.030822754,1.1547394,0.0010681152,0.039398193,-0.0010681152,-26.567078,13.243103,1.411438,0,0.0,0.0,0.0,0.0
1.008361817,0.110478096,0.3218496,-0.940323,-0.040867172,0.9467855,0.31926015,0.99303806,0.0031570906,0.117752165,0.1234654,0.34725443,-0.92960787,-0.049507283,0.9377641,0.34372592,0.9911132,0.0035840953,0.13297305,0.2048645,0.052825928,0.016021729,9.738251,0.030960083,1.1547394,0.01171875,0.024490356,-0.007461548,-26.567078,13.243103,1.411438,0,0.0,0.0,0.0,0.0
1.012756348,0.10430786,0.44177228,-0.89104265,-0.054893658,0.8971214,0.4383601,0.99302894,0.0031881812,0.11782733,0.12320971,0.34674877,-0.92983043,-0.049327448,0.93795127,0.34324083,0.99115396,0.003575555,0.13266893,0.07557678,0.047729492,-0.0038909912,9.738251,0.03126526,1.1554871,0.004257202,0.023422241,0.0,-27.105713,13.780212,3.6590576,0,0.0,0.0,0.0,0.0
1.017181397,0.1043649,0.44186983,-0.89098763,-0.0550204,0.8970731,0.43844306,0.9930159,0.0032644267,0.11793481,0.122832134,0.34868902,-0.9291545,-0.049471878,0.93723166,0.3451801,0.9911936,0.0035678076,0.13237247,0.18106079,0.09965515,-0.052825928,9.738113,0.03201294,1.1565399,0.022369385,0.02128601,0.0,-27.105713,13.780212,3.6590576,0,0.0,0.0,0.0,0.0
1.021575928,0.1044338,0.44198772,-0.8909211,-0.055123277,0.8970151,0.4385494,0.99300313,0.003311115,0.1180425,0.122463375,0.35059112,-0.92848724,-0.04961452,0.9365219,0.34708098,0.99123216,0.00356174,0.13208404,0.05192566,0.10877991,0.032318115,9.737961,0.032470703,1.1575928,0.010650635,0.03086853,-0.008529663,-27.105713,13.780212,3.6590576,0,0.0,0.0,0.0,0.0
1.025970459,0.10973536,0.3437166,-0.9326398,-0.043666508,0.93906754,0.34094766,0.9930012,0.0033111088,0.11805783,0.122103475,0.35245618,-0.9278283,-0.049754996,0.9358216,0.34894475,0.99126947,0.0035567277,0.13180351,0.02798462,-0.030090332,0.06568909,9.737961,0.032470703,1.1577454,-0.03514099,0.02128601,-0.0063934326,-28.361511,12.8845215,1.411438,0,0.0,0.0,0.0,0.0
1.03036499,0.10975202,0.34375167,-0.93262494,-0.04366083,0.9390548,0.3409836,0.9929996,0.0032955438,0.118071645,0.122103475,0.35245618,-0.9278283,-0.049754996,0.9358216,0.34894475,0.99126947,0.0035567277,0.13180351,0.02798462,-0.029937744,0.06555176,9.737961,0.032318115,1.1578827,-0.03514099,0.02128601,-0.0063934326,-28.361511,12.8845215,1.411438,0,0.0,0.0,0.0,0.0
1.034759522,0.10997914,0.34422934,-0.932422,-0.04379151,0.9388798,0.34144822,0.9929686,0.0032799845,0.118331514,0.12161671,0.352112,-0.92802286,-0.04950941,0.9359511,0.348632,0.9913416,0.0035463846,0.13126016,-0.105789185,-0.1494751,0.33114624,9.737656,0.032165527,1.1604309,-0.0021362305,0.014892578,0.004257202,-28.361511,12.8845215,1.411438,0,0.0,0.0,0.0,0.0
1.039154053,0.113226146,0.26952195,-0.9563147,-0.035118412,0.9629885,0.2672449,0.9929484,0.003325139,0.11850067,0.12138505,0.3519546,-0.9281129,-0.049393196,0.9360104,0.34848943,0.9913758,0.0035410568,0.13100183,-1.4606171,0.06555176,0.25767517,9.737366,0.032608032,1.1620789,-0.0010681152,0.028747559,-0.007461548,-28.001404,14.318848,0.72021484,0,0.0,0.0,0.0,0.0
1.043548584,0.11334087,0.26974243,-0.9562389,-0.03538401,0.96292603,0.26743478,0.9929258,0.0035242802,0.118683435,0.12123802,0.35032985,-0.92874664,-0.049091056,0.9366197,0.34689134,0.9914088,0.0035367385,0.13075198,0.96725464,-0.25242615,0.08828735,9.737213,0.034561157,1.1638794,-0.008514404,0.039398193,-0.012786865,-28.001404,14.318848,0.72021484,0,0.0,0.0,0.0,0.0
1.047943115,0.11362579,0.27029014,-0.9560504,-0.035659164,0.9627719,0.26795235,0.99288344,0.0036456618,0.119034044,0.12123802,0.35032985,-0.92874664,-0.049091056,0.9366197,0.34689134,0.9914088,0.0035367385,0.13075198,0.9677124,-0.25361633,0.084854126,9.736755,0.035751343,1.1673126,-0.008514404,0.039398193,-0.012786865,-28.001404,14.318848,0.72021484,0,0.0,0.0,0.0,0.0
1.052337647,0.11046268,0.35385054,-0.92875606,-0.04549946,0.93529546,0.3509305,0.99283826,0.0034931754,0.11941525,0.12096483,0.3472038,-0.92995536,-0.048529666,0.93778306,0.34381372,0.9914698,0.0035410516,0.13028845,1.873169,0.09263611,0.11941528,9.736313,0.03425598,1.171051,0.0,0.08627319,-0.04899597,-27.642822,13.243103,1.7578125,0,0.0,0.0,0.0,0.0
1.056732178,0.110806994,0.3545294,-0.9284562,-0.04557717,0.935039,0.3516036,0.99279636,0.0033562602,0.11976729,0.12075441,0.3473369,-0.929933,-0.048470538,0.93773377,0.34395647,0.99149835,0.0035400942,0.13007109,0.7626953,0.42437744,0.09202576,9.73587,0.032913208,1.1744995,-0.0063934326,0.08520508,0.034072876,-27.642822,13.243103,1.7578125,0,0.0,0.0,0.0,0.0
1.061126709,0.11123226,0.35536778,-0.9280847,-0.045691565,0.9347211,0.35243273,0.99274355,0.0032037538,0.12020845,0.12055502,0.34748092,-0.92990506,-0.048414167,0.9376804,0.3441098,0.99152535,0.0035364176,0.12986507,0.418396,-0.07211304,0.12599182,9.735413,0.031417847,1.178833,-0.013839722,0.08200073,0.064971924,-27.642822,13.243103,1.7578125,0,0.0,0.0,0.0,0.0
1.06552124,0.108662166,0.41160315,-0.904862,-0.052416407,0.91135794,0.40826347,0.9926958,0.0030668199,0.12060491,0.12036814,0.3476389,-0.92987025,-0.048361275,0.93762183,0.34427673,0.9915506,0.0035297647,0.12967207,0.7875366,-0.6118622,0.32322693,9.73497,0.030075073,1.182724,-0.003189087,0.0947876,0.027679443,-30.691528,12.345886,1.9302368,0,0.0,0.0,0.0,0.0
1.069915772,0.10883025,0.41199034,-0.90466565,-0.052597728,0.9111829,0.4086309,0.99266785,0.003111953,0.12083402,0.12013449,0.34893548,-0.92941475,-0.048455965,0.93714017,0.34557256,0.99157435,0.0035205057,0.12949085,0.3760376,-0.25317383,0.40237427,9.734665,0.030517578,1.184967,0.0021362305,0.07241821,-0.0234375,-30.691528,12.345886,1.9302368,0,0.0,0.0,0.0,0.0
1.074310303,0.108718455,0.41173285,-0.9047963,-0.052626744,0.9112989,0.40836835,0.9926785,0.0032192995,0.12074318,0.12036731,0.35019788,-0.92890966,-0.050891787,0.93665916,0.34652495,0.9914241,0.005563595,0.13056535,0.19392395,0.27726746,0.43199158,9.7348175,0.031570435,1.184082,0.004257202,0.01914978,-0.030899048,-30.691528,12.345886,1.9302368,0,0.0,0.0,0.0,0.0
1.078704834,0.11210431,0.33669853,-0.9349153,-0.04351142,0.9416068,0.333891,0.9927433,0.0032488764,0.12020842,0.12013184,0.35144475,-0.9284692,-0.050939582,0.9361924,0.34777722,0.9914502,0.0055167093,0.13036896,-0.31903076,0.30091858,0.22177124,9.735413,0.03186035,1.178833,0.022369385,-0.053268433,0.0,-26.747131,12.345886,1.2390137,0,0.0,0.0,0.0,0.0
1.083099365,0.11150611,0.33545455,-0.935434,-0.043115437,0.94205093,0.332688,0.9928281,0.0032349003,0.1195077,0.11997345,0.3511507,-0.92860085,-0.05078856,0.93630296,0.34750146,0.99147713,0.0054713525,0.13016593,-0.40596008,0.056854248,0.027542114,9.73616,0.031723022,1.1719513,0.004257202,-0.14595032,0.02128601,-26.747131,12.345886,1.2390137,0,0.0,0.0,0.0,0.0
1.087493897,0.1107948,0.33397508,-0.93604755,-0.042712186,0.94257617,0.33124882,0.9929251,0.0032799898,0.11869735,0.119806476,0.35083774,-0.92874074,-0.050632335,0.93642056,0.34720734,0.9915053,0.005426624,0.12995298,-0.58418274,-0.08721924,-0.103393555,9.737213,0.032165527,1.1640167,0.020233154,-0.16725159,0.0095825195,-26.747131,12.345886,1.2390137,0,0.0,0.0,0.0,0.0
1.091888428,0.108389795,0.3704436,-0.9225092,-0.046751235,0.9288491,0.36749646,0.99300855,0.0032955734,0.11799646,0.11962885,0.3505016,-0.92889047,-0.050470755,0.9365466,0.34689054,0.991535,0.0053836913,0.12972808,-0.2784729,-0.14483643,-0.28804016,9.737961,0.032318115,1.157135,0.012786865,-0.17897034,-0.015975952,-26.747131,10.91156,1.2390137,0,0.0,0.0,0.0,0.0
1.096282959,0.10795421,0.36942792,-0.9229675,-0.046537552,0.92925316,0.36650062,0.99306595,0.0033873653,0.11750905,0.11940213,0.35090205,-0.9287685,-0.050400984,0.93639696,0.34730467,0.9915659,0.005341929,0.1294936,-0.29823303,0.13197327,-0.5801544,9.738556,0.033218384,1.152359,-0.014892578,-0.13848877,-0.018112183,-26.747131,10.91156,1.2390137,0,0.0,0.0,0.0,0.0
1.10067749,0.10771537,0.3688709,-0.9232181,-0.046398718,0.92947435,0.36595708,0.99309844,0.0034169336,0.11723381,0.11917143,0.35127395,-0.92865753,-0.05032813,0.9362577,0.34769037,0.9915973,0.005302838,0.12925413,0.4915619,0.09338379,-0.6349182,9.738861,0.0335083,1.1496582,0.0,-0.06391907,-0.008529663,-26.747131,10.91156,1.2390137,0,0.0,0.0,0.0,0.0
1.105072022,0.10749444,0.37083906,-0.922455,-0.046642862,0.92869055,0.3679105,0.9931109,0.003477606,0.11712608,0.118940555,0.35162714,-0.92855334,-0.050253715,0.9361253,0.3480574,0.99162877,0.00526512,0.12901384,0.32380676,0.126297,-0.8206024,9.739014,0.034103394,1.1486053,0.014907837,0.014892578,-0.0032043457,-27.642822,13.243103,2.1026611,0,0.0,0.0,0.0,0.0
1.109466553,0.107588105,0.3710212,-0.9223709,-0.046738263,0.9286178,0.3680823,0.99309635,0.0035087292,0.117249124,0.118709855,0.3520129,-0.92843676,-0.050186038,0.93598056,0.3484563,0.99165994,0.0052293697,0.12877625,0.6735077,-0.008087158,-0.09397888,9.738861,0.03440857,1.1498108,0.008529663,0.047912598,-0.0021362305,-27.642822,13.243103,2.1026611,0,0.0,0.0,0.0,0.0
1.113861084,0.10779495,0.37142342,-0.9221849,-0.046875603,0.92845696,0.36847025,0.9930674,0.0035087368,0.11749367,0.118709855,0.3520129,-0.92843676,-0.050186038,0.93598056,0.3484563,0.99165994,0.0052293697,0.12877625,0.67381287,-0.008087158,-0.09637451,9.738556,0.03440857,1.1522064,0.008529663,0.047912598,-0.0021362305,-27.642822,13.243103,2.1026611,0,0.0,0.0,0.0,0.0
1.118255615,0.1090703,0.3493216,-0.9306332,-0.044397622,0.93699634,0.34650666,0.99304205,0.003524317,0.11770751,0.11827426,0.3527846,-0.92819947,-0.05006338,0.93569034,0.34925243,0.9917182,0.005161233,0.12832968,0.49217224,0.044433594,0.073913574,9.738251,0.034561157,1.1542969,0.008529663,0.0713501,-0.0021362305,-26.92566,12.167358,1.411438,0,0.0,0.0,0.0,0.0
1.122650147,0.10919165,0.3495773,-0.93052286,-0.044460624,0.93690085,0.34675616,0.99302584,0.0035087494,0.11784419,0.11809068,0.35271537,-0.9282491,-0.04994949,0.93571657,0.34919837,0.99174577,0.0051284945,0.12811737,0.43484497,-0.027236938,0.40776062,9.738113,0.03440857,1.1556396,0.0053253174,0.048980713,0.0021362305,-26.92566,12.167358,1.411438,0,0.0,0.0,0.0,0.0
1.127044678,0.10939008,0.3499955,-0.93034244,-0.044623815,0.93674475,0.34715718,0.99299675,0.0035398763,0.118088715,0.11791326,0.35265267,-0.92829555,-0.049839243,0.9357404,0.3491503,0.9917724,0.0050961,0.12791213,0.35853577,0.082595825,0.6783142,9.737808,0.034713745,1.1580353,-0.004257202,0.015960693,-0.010650635,-26.92566,12.167358,1.411438,0,0.0,0.0,0.0,0.0
1.131439209,0.11042376,0.32568464,-0.93900806,-0.04178631,0.94547176,0.3230126,0.9930058,0.0035694167,0.1180117,0.11774316,0.35259956,-0.92833734,-0.049734537,0.9357606,0.34911114,0.9917979,0.005064975,0.12771578,0.05192566,0.07751465,0.5018921,9.737961,0.035003662,1.1572876,-0.0063934326,-0.019180298,0.010650635,-27.28424,14.318848,1.7578125,0,0.0,0.0,0.0,0.0
1.13583374,0.11015739,0.32520145,-0.9392067,-0.04163109,0.94563794,0.32254544,0.9930419,0.00356944,0.1177075,0.1176005,0.352064,-0.9285586,-0.049571224,0.9359624,0.34859303,0.99182296,0.0050350637,0.12752189,-0.10638428,0.024841309,0.18405151,9.738251,0.035003662,1.1542969,0.02130127,-0.059661865,0.003189087,-27.28424,14.318848,1.7578125,0,0.0,0.0,0.0,0.0
1.140228272,0.109943196,0.32481292,-0.93936634,-0.041459132,0.9457718,0.32217544,0.99307287,0.0035243158,0.11744763,0.117455244,0.3515295,-0.9287795,-0.049407966,0.9361634,0.348076,0.99184835,0.0050057513,0.12732565,-0.29344177,-0.12313843,0.009429932,9.738556,0.034561157,1.1517487,0.0053253174,-0.08735657,0.0021362305,-27.28424,14.318848,1.7578125,0,0.0,0.0,0.0,0.0
1.144622803,0.1063763,0.39320987,-0.91327435,-0.049249236,0.9194422,0.390129,0.9931056,0.0034775874,0.11717214,0.11350052,0.35311162,-0.928671,-0.048113562,0.935568,0.34985372,0.99237233,0.004973092,0.12317692,-0.2986908,-0.19450378,-0.34222412,9.739014,0.034103394,1.1490631,-0.034072876,-0.06072998,-0.004257202,-27.105713,13.421631,2.62146,0,0.0,0.0,0.0,0.0
1.149017334,0.106420025,0.3932904,-0.9132346,-0.049263984,0.9194077,0.39020813,0.99310005,0.0034636187,0.11721844,0.11335706,0.35392034,-0.92838067,-0.048141476,0.9352625,0.35066572,0.99238735,0.004943182,0.12305685,-0.02079773,-0.074661255,-0.44322205,9.738861,0.033966064,1.1495056,0.015975952,-0.036224365,-0.008529663,-27.105713,13.421631,2.62146,0,0.0,0.0,0.0,0.0
1.153411865,0.10669031,0.39378822,-0.91298854,-0.049366303,0.9191949,0.39069626,0.99306595,0.0033873653,0.11750905,0.11321736,0.3547142,-0.92809457,-0.04816888,0.9349618,0.35146275,0.9924019,0.004913591,0.1229401,0.12794495,-0.112213135,-0.43649292,9.738556,0.033218384,1.152359,0.0138549805,0.047912598,-0.0010681152,-27.105713,13.421631,2.62146,0,0.0,0.0,0.0,0.0
1.157806397,0.106728025,0.40110505,-0.9097933,-0.050437666,0.91602576,0.3979359,0.9930082,0.003416939,0.117996424,0.11308597,0.35550213,-0.9278091,-0.048197422,0.9346627,0.35225362,0.99241555,0.004883066,0.12283152,0.02798462,0.08859253,-0.2784729,9.737961,0.0335083,1.157135,0.004257202,0.10543823,0.007461548,-26.747131,13.063049,2.62146,0,0.0,0.0,0.0,0.0
1.162200928,0.10724699,0.40206993,-0.9093062,-0.050769016,0.9156027,0.39886615,0.99293536,0.003387387,0.11860833,0.11295845,0.35642302,-0.9274713,-0.048247244,0.93431205,0.3531758,0.9924276,0.0048537436,0.12273488,0.10055542,-0.064331055,0.0076293945,9.737213,0.033218384,1.1631317,-0.003189087,0.13952637,0.0021362305,-26.747131,13.063049,2.62146,0,0.0,0.0,0.0,0.0
1.166595459,0.10776174,0.40302667,-0.9088217,-0.051063318,0.9151821,0.39979255,0.9928645,0.0033251133,0.119201496,0.11284417,0.35734487,-0.92713046,-0.04830208,0.9339601,0.3540982,0.99243796,0.0048244167,0.12265245,0.23522949,-0.1211853,0.20291138,9.736618,0.032608032,1.1689606,0.004257202,0.13847351,-0.0010681152,-26.747131,13.063049,2.62146,0,0.0,0.0,0.0,0.0
1.17098999,0.112801746,0.3097046,-0.9441181,-0.04010338,0.9508274,0.30711403,0.99280787,0.0032193253,0.11967519,0.11274264,0.3582674,-0.9267867,-0.04836108,0.9336067,0.35502073,0.9924466,0.004794431,0.122583486,0.16879272,-0.2685852,0.4664154,9.736008,0.031570435,1.1735992,0.019180298,0.12036133,0.007461548,-27.464294,13.780212,1.2390137,0,0.0,0.0,0.0,0.0
1.175384522,0.11309332,0.31026602,-0.94389874,-0.040289007,0.9506442,0.30765605,0.99276716,0.0032348994,0.120011814,0.11274921,0.35730508,-0.9271573,-0.048194893,0.93397564,0.35407183,0.99245393,0.0047629285,0.1225253,0.0016479492,0.05206299,0.48228455,9.735565,0.031723022,1.1768951,-0.0063934326,0.07241821,-0.0021362305,-27.464294,13.780212,1.2390137,0,0.0,0.0,0.0,0.0
1.179779053,0.11328911,0.31064296,-0.94375134,-0.04041755,0.9505212,0.30801952,0.9927396,0.0032488643,0.120239094,0.11276109,0.35637262,-0.9275146,-0.04803609,0.9343319,0.35315207,0.99246025,0.004732368,0.122475035,0.049682617,0.008834839,0.5853882,9.735413,0.03186035,1.1791382,0.01171875,0.034072876,0.0010681152,-27.464294,13.780212,1.2390137,0,0.0,0.0,0.0,0.0
1.184173584,0.11333053,0.3107227,-0.9437201,-0.040394604,0.95049524,0.3081025,0.99273586,0.0032037792,0.120271645,0.1127763,0.3554659,-0.9278607,-0.047883254,0.93467736,0.35225746,0.9924659,0.0047026984,0.122430325,-0.031570435,-0.033798218,0.589859,9.73526,0.031417847,1.1794434,-0.0010681152,-0.019180298,0.0063934326,-27.464294,13.780212,1.2390137,0,0.0,0.0,0.0,0.0
1.188568115,0.113168865,0.31041148,-0.9438418,-0.04034755,0.9505967,0.30779526,0.99275625,0.0032488678,0.1201023,0.11279186,0.35457858,-0.9281982,-0.04773308,0.93501455,0.35138205,0.9924714,0.0046727196,0.12238716,0.05432129,0.004043579,0.35688782,9.735565,0.03186035,1.1777954,-0.0063934326,-0.041549683,0.004257202,-27.464294,13.780212,1.2390137,0,0.0,0.0,0.0,0.0
1.192962647,0.11291747,0.30992746,-0.944031,-0.0401868,0.95075464,0.30732802,0.99279135,0.003234877,0.11981182,0.1128038,0.35370255,-0.928531,-0.047584828,0.9353464,0.3505178,0.9924772,0.004644243,0.12234151,0.2934265,0.004180908,0.09637451,9.73587,0.031723022,1.174942,0.017044067,-0.0703125,-0.007461548,-27.464294,13.780212,1.2390137,0,0.0,0.0,0.0,0.0
1.197357178,0.10938364,0.3814261,-0.91790485,-0.04862356,0.9243936,0.3783281,0.9928096,0.0032488946,0.11965984,0.11281041,0.3528342,-0.92886055,-0.047436077,0.9356745,0.3496614,0.99248356,0.004616056,0.12229089,0.19752502,0.09024048,0.06913757,9.736008,0.03186035,1.1734467,-0.004257202,-0.071380615,0.003189087,-27.28424,12.8845215,2.1026611,0,0.0,0.0,0.0,0.0
1.201751709,0.109156474,0.3809797,-0.9181172,-0.048501,0.92457753,0.37789407,0.99284065,0.003280014,0.11940154,0.11274155,0.35340938,-0.92865014,-0.047461454,0.93545747,0.350238,0.9924901,0.0045887125,0.12223825,0.13497925,0.12823486,-0.28266907,9.736313,0.032165527,1.1709137,0.0095825195,-0.03729248,0.0053253174,-27.28424,12.8845215,2.1026611,0,0.0,0.0,0.0,0.0
1.20614624,0.10913296,0.3809335,-0.9181393,-0.04851828,0.92459655,0.37784556,0.9928424,0.0033111395,0.11938618,0.11266958,0.3539639,-0.92844766,-0.047483955,0.9352479,0.35079417,0.9924972,0.004562539,0.122181594,-0.15232849,0.056106567,-0.0287323,9.736313,0.032470703,1.1707611,-0.0053253174,-0.030899048,0.003189087,-27.28424,12.8845215,2.1026611,0,0.0,0.0,0.0,0.0
1.210540772,0.11024834,0.35830787,-0.92707103,-0.045800645,0.9335976,0.3553837,0.99284816,0.0032799875,0.119338326,0.11236337,0.35293669,-0.92887574,-0.047342505,0.93563557,0.34977826,0.99253875,0.004673042,0.121840075,-0.03277588,-0.08244324,-0.100097656,9.736465,0.032165527,1.1703033,0.02557373,-0.004257202,0.0010681152,-28.54004,11.987305,1.2390137,0,0.0,0.0,0.0,0.0
1.214935303,0.11026912,0.3583552,-0.92705023,-0.045831632,0.9335795,0.3554276,0.9928445,0.003295535,0.119369015,0.112320855,0.3530442,-0.9288401,-0.0473119,0.93559515,0.34989053,0.992545,0.004645181,0.12179004,0.08215332,0.037109375,0.07197571,9.736465,0.032318115,1.1706085,0.0021362305,0.010635376,-0.012786865,-28.54004,11.987305,1.2390137,0,0.0,0.0,0.0,0.0
1.219329834,0.110283546,0.35838804,-0.9270359,-0.0458417,0.93356687,0.3554594,0.9928424,0.0032955797,0.11938618,0.11227966,0.35315055,-0.9288046,-0.047282524,0.93555516,0.3500014,0.992551,0.004618188,0.12174166,0.14454651,0.008377075,0.05744934,9.736313,0.032318115,1.1707611,-0.0021362305,-0.009597778,-0.01171875,-28.54004,11.987305,1.2390137,0,0.0,0.0,0.0,0.0
1.223724365,0.10939943,0.37694857,-0.9197508,-0.04810336,0.9262281,0.37388158,0.9928332,0.0033406722,0.11946132,0.11223957,0.3532554,-0.9287696,-0.047253933,0.93551564,0.35011074,0.9925569,0.0045917355,0.12169458,0.07751465,0.11807251,0.20993042,9.736313,0.03276062,1.1715088,0.0010681152,-0.019180298,0.0010681152,-27.105713,13.421631,2.2766113,0,0.0,0.0,0.0,0.0
1.228118897,0.10936821,0.3768902,-0.9197784,-0.048099246,0.9262519,0.37382343,0.9928369,0.0033562444,0.11943065,0.11218256,0.35373154,-0.9285952,-0.047272068,0.9353358,0.35058838,0.99256253,0.0045667146,0.12164999,0.19242859,0.0077819824,0.24375916,9.736313,0.032913208,1.1712036,-0.004257202,-0.019180298,0.0021362305,-27.105713,13.421631,2.2766113,0,0.0,0.0,0.0,0.0
1.232513428,0.10918144,0.37654105,-0.91994363,-0.0480399,0.9263936,0.3734796,0.9928603,0.0034169548,0.11923399,0.11212603,0.3541969,-0.9284246,-0.047289714,0.9351598,0.3510552,0.9925681,0.0045425054,0.121605635,0.2210083,0.07421875,0.025436401,9.736465,0.0335083,1.1692657,0.010650635,-0.024505615,-0.004257202,-27.105713,13.421631,2.2766113,0,0.0,0.0,0.0,0.0
1.236907959,0.108755276,0.38197482,-0.9177514,-0.048621505,0.9241665,0.3788831,0.9928788,0.0034169166,0.11908017,0.112066865,0.35464588,-0.9282604,-0.04730584,0.9349898,0.35150573,0.99257404,0.0045199944,0.1215582,0.24945068,0.03112793,0.046081543,9.736755,0.0335083,1.1677704,0.0138549805,-0.043685913,-0.0053253174,-27.464294,11.628723,1.5853882,0,0.0,0.0,0.0,0.0
1.24130249,0.10868034,0.38180846,-0.9178294,-0.04856744,0.92423505,0.37872228,0.9928896,0.0034169538,0.11898966,0.11200046,0.35519552,-0.9280582,-0.047333665,0.9347812,0.3520563,0.9925802,0.0044979327,0.12150863,0.10580444,0.011978149,0.07092285,9.736755,0.0335083,1.1668701,0.014907837,-0.038345337,0.004257202,-27.464294,11.628723,1.5853882,0,0.0,0.0,0.0,0.0
1.245697022,0.108496755,0.38140094,-0.91802067,-0.04845172,0.92440337,0.37832642,0.9929153,0.0034324948,0.11877428,0.11193385,0.3557307,-0.9278612,-0.047359824,0.93457776,0.35259244,0.99258643,0.0044763135,0.12145823,0.19647217,-0.026489258,-0.104141235,9.737061,0.03366089,1.1647644,-0.003189087,-0.0234375,0.0010681152,-27.464294,11.628723,1.5853882,0,0.0,0.0,0.0,0.0
1.250091553,0.10668707,0.41388446,-0.9040561,-0.052249942,0.9103228,0.41058746,0.9929188,0.003432507,0.11874513,0.11186497,0.35624683,-0.9276715,-0.0473832,0.93438125,0.35310975,0.99259305,0.004455437,0.12140464,0.17732239,0.002243042,-0.07991028,9.737061,0.03366089,1.1644745,0.012786865,-0.03729248,-0.0063934326,-29.078674,13.601685,2.7954102,0,0.0,0.0,0.0,0.0
1.254486084,0.1066662,0.4138442,-0.9040771,-0.052217685,0.9103414,0.41055086,0.9929228,0.0034169075,0.118712634,0.111763306,0.35741398,-0.92723465,-0.047484998,0.9339355,0.35427332,0.99259967,0.0044349786,0.121351525,0.06703186,-0.04547119,-0.060455322,9.737213,0.0335083,1.1641693,0.01171875,-0.017044067,-0.004257202,-29.078674,13.601685,2.7954102,0,0.0,0.0,0.0,0.0
1.258880615,0.10662972,0.41377372,-0.90411365,-0.05219105,0.9103734,0.4104832,0.9929281,0.0034169257,0.11866815,0.111663096,0.3585564,-0.9268056,-0.047583938,0.93349767,0.35541236,0.9926062,0.004414617,0.12129877,-0.0047912598,-0.02154541,-0.11268616,9.737213,0.0335083,1.1637268,-0.009567261,-0.0138549805,-0.012786865,-29.078674,13.601685,2.7954102,0,0.0,0.0,0.0,0.0
1.263275147,0.101831645,0.48961377,-0.8659727,-0.061054565,0.87193286,0.48580405,0.99292636,0.00340136,0.1186835,0.11156412,0.35967398,-0.9263844,-0.047680262,0.9330677,0.35652667,0.9926127,0.0043946635,0.12124623,-0.0047912598,-0.030975342,0.030822754,9.737213,0.033355713,1.1638794,0.007461548,-0.0063934326,0.0,-27.642822,12.52594,3.831482,0,0.0,0.0,0.0,0.0
1.267669678,0.101784244,0.48952603,-0.86602783,-0.061014317,0.8719821,0.48572066,0.9929337,0.003401385,0.11862213,0.11138599,0.36235467,-0.9253606,-0.047963843,0.93203,0.35919288,0.99261904,0.004374797,0.121195,0.07661438,0.026489258,-0.14094543,9.737213,0.033355713,1.163269,0.019180298,-0.0053253174,-0.0010681152,-27.642822,12.52594,3.831482,0,0.0,0.0,0.0,0.0
1.272064209,0.10187253,0.48968947,-0.8659251,-0.061107073,0.87189025,0.48587385,0.9929189,0.0034169476,0.118745156,0.11120965,0.364977,-0.9243507,-0.04824046,0.9310064,0.3618011,0.9926254,0.0043553286,0.12114355,0.048034668,0.08859253,-0.04638672,9.737061,0.0335083,1.1644745,0.014907837,0.010635376,-0.0021362305,-27.642822,12.52594,3.831482,0,0.0,0.0,0.0,0.0
1.27645874,0.10795174,0.3948599,-0.9123772,-0.05008892,0.9187351,0.391685,0.9928936,0.0034169138,0.11895715,0.11323569,0.36744338,-0.92312676,-0.049003102,0.93003726,0.36418307,0.992359,0.003997553,0.12331929,0.1870575,0.06465149,0.09037781,9.736908,0.0335083,1.166565,0.0010681152,0.034072876,0.0053253174,-28.54004,13.063049,2.2766113,0,0.0,0.0,0.0,0.0
1.280853272,0.10807526,0.39510852,-0.9122548,-0.05022752,0.91862786,0.39191827,0.9928731,0.0034636247,0.11912628,0.11323569,0.36744338,-0.92312676,-0.049003102,0.93003726,0.36418307,0.992359,0.003997553,0.12331929,0.18734741,0.064193726,0.08872986,9.736618,0.033966064,1.1682129,0.0010681152,0.034072876,0.0053253174,-28.54004,13.063049,2.2766113,0,0.0,0.0,0.0,0.0
1.285247803,0.10826173,0.3954837,-0.9120702,-0.050327,0.9184666,0.3922835,0.99284774,0.003432471,0.119338274,0.11303085,0.36854532,-0.9227125,-0.049056623,0.92960125,0.36528745,0.99237967,0.00397641,0.12315321,0.03904724,-0.03604126,0.062698364,9.736465,0.03366089,1.1703033,0.0,0.031936646,-0.0053253174,-28.54004,13.063049,2.2766113,0,0.0,0.0,0.0,0.0
1.289642334,0.1102841,0.3612135,-0.92593855,-0.04635877,0.9324769,0.3582426,0.9928184,0.0034169178,0.11958278,0.112935275,0.36908725,-0.9225075,-0.04908435,0.92938626,0.36583033,0.9923892,0.0039655315,0.12307691,0.044143677,0.02633667,0.16564941,9.73616,0.0335083,1.172699,0.01171875,0.04472351,0.003189087,-28.001404,12.167358,1.411438,0,0.0,0.0,0.0,0.0
1.294036865,0.11052488,0.36174044,-0.925704,-0.046493076,0.93227255,0.3587562,0.9927853,0.003387342,0.11985776,0.1128826,0.36893007,-0.9225769,-0.049029365,0.9294487,0.36567906,0.99239796,0.003954559,0.123007,-0.0034484863,-0.0068969727,0.32096863,9.73587,0.033218384,1.1753998,-0.0010681152,0.041534424,0.0063934326,-28.001404,12.167358,1.411438,0,0.0,0.0,0.0,0.0
1.298431397,0.11070683,0.3621386,-0.9255267,-0.0465689,0.9321183,0.3591474,0.9927615,0.0033406876,0.12005626,0.11283581,0.36878648,-0.92264,-0.048978277,0.92950577,0.36554086,0.9924058,0.0039432147,0.12294407,-0.00793457,-0.03993225,0.24241638,9.735565,0.03276062,1.1773376,0.008529663,0.03514099,0.008514404,-28.001404,12.167358,1.411438,0,0.0,0.0,0.0,0.0
1.302825928,0.10640314,0.4399229,-0.8917097,-0.055834576,0.8980292,0.43637818,0.99275416,0.0033562228,0.12011605,0.11279354,0.3686537,-0.92269826,-0.048929784,0.92955846,0.36541334,0.9924129,0.0039311643,0.12288634,0.04953003,0.06524658,0.18435669,9.735565,0.032913208,1.1779327,-0.03300476,0.025543213,0.0021362305,-28.361511,12.52594,2.7954102,0,0.0,0.0,0.0,0.0
1.307220459,0.10644738,0.4400121,-0.8916604,-0.055852346,0.8979856,0.43646568,0.9927484,0.003340696,0.12016392,0.11266979,0.37010252,-0.9221332,-0.049074464,0.9289826,0.36685547,0.9924199,0.0039196652,0.12283086,0.049682617,-0.03514099,0.088134766,9.735413,0.03276062,1.1783905,0.0138549805,0.004257202,0.0053253174,-28.361511,12.52594,2.7954102,0,0.0,0.0,0.0,0.0
1.31161499,0.10650735,0.440133,-0.8915936,-0.05589969,0.89792633,0.43658152,0.9927393,0.0033406655,0.12023906,0.1125493,0.37152332,-0.92157644,-0.049216308,0.9284154,0.36826974,0.9924265,0.003908086,0.12277751,-0.012573242,-0.06387329,0.010772705,9.735413,0.03276062,1.1791382,-0.008514404,0.0021209717,0.004257202,-28.361511,12.52594,2.7954102,0,0.0,0.0,0.0,0.0
1.316009522,0.106518835,0.44015613,-0.8915808,-0.05587608,0.89791524,0.4366077,0.9927395,0.0033111025,0.12023908,0.1125493,0.37152332,-0.92157644,-0.049216308,0.9284154,0.36826974,0.9924265,0.003908086,0.12277751,-0.012573242,-0.063583374,0.010772705,9.735413,0.032470703,1.1791382,-0.008514404,0.0021209717,0.004257202,-28.361511,12.52594,2.7954102,0,0.0,0.0,0.0,0.0
1.320404053,0.112138815,0.3369015,-0.934838,-0.04360052,0.9415341,0.33408457,0.9927356,0.0032955816,0.12027161,0.1123179,0.37428358,-0.92048705,-0.049491554,0.9273061,0.37101734,0.99243903,0.0038844454,0.12267695,0.121658325,-0.063430786,0.11102295,9.73526,0.032318115,1.1794434,0.0010681152,-0.0021362305,0.0053253174,-26.567078,14.677429,2.1026611,0,0.0,0.0,0.0,0.0
1.324798584,0.11220549,0.3370152,-0.93478906,-0.043590534,0.9414935,0.33420002,0.9927284,0.0032488785,0.12033142,0.112317264,0.37354162,-0.9207885,-0.04937292,0.92760533,0.37028456,0.99244505,0.0038726681,0.12262893,0.13124084,-0.09649658,0.17268372,9.73526,0.03186035,1.1800385,-0.009567261,-0.009597778,0.013839722,-26.567078,14.677429,2.1026611,0,0.0,0.0,0.0,0.0
1.329193115,0.111685,0.3485236,-0.9306223,-0.044986445,0.9372944,0.34562346,0.99272496,0.0032644267,0.12036057,0.11231784,0.37281647,-0.9210823,-0.04925653,0.9278971,0.36956844,0.9924508,0.0038601926,0.12258303,0.073776245,0.03741455,0.06704712,9.73526,0.03201294,1.1803284,0.010650635,-0.010650635,0.012786865,-26.208496,12.167358,1.411438,0,0.0,0.0,0.0,0.0
1.333587647,0.11158133,0.34831098,-0.93071425,-0.044918843,0.93737334,0.34541786,0.9927396,0.003264424,0.120239094,0.11230669,0.37233308,-0.9212792,-0.04917054,0.9280912,0.3690921,0.9924563,0.003848277,0.12253867,0.025741577,0.03741455,0.020355225,9.735413,0.03201294,1.1791382,-0.003189087,-0.020248413,0.0063934326,-26.208496,12.167358,1.411438,0,0.0,0.0,0.0,0.0
1.337982178,0.11147189,0.3480865,-0.9308114,-0.04491185,0.93745655,0.345193,0.9927522,0.0033251487,0.12013325,0.11229359,0.371855,-0.92147386,-0.049084827,0.928283,0.3686211,0.99246204,0.0038366,0.122492656,0.10235596,-0.039779663,0.07885742,9.735413,0.032608032,1.1780853,0.010650635,-0.027694702,0.0053253174,-26.208496,12.167358,1.411438,0,0.0,0.0,0.0,0.0
1.342376709,0.11289977,0.311646,-0.94346714,-0.04056828,0.9501922,0.30901286,0.9927779,0.0033873697,0.11991943,0.11014467,0.37117594,-0.92200685,-0.049280062,0.9285496,0.36792278,0.9926931,0.0049118223,0.12056635,0.039794922,0.045776367,0.047439575,9.735718,0.033218384,1.1759949,0.0053253174,-0.028762817,-0.015975952,-27.642822,13.243103,1.0665894,0,0.0,0.0,0.0,0.0
1.34677124,0.11272938,0.31130117,-0.9436015,-0.040450484,0.9503054,0.30868033,0.992802,0.0033717917,0.11971961,0.11020611,0.36999917,-0.9224723,-0.049107533,0.9290192,0.36675832,0.9926948,0.004881333,0.12055335,0.020355225,-0.016311646,0.078125,9.736008,0.033065796,1.1740417,0.0138549805,-0.051132202,-0.010650635,-27.642822,13.243103,1.0665894,0,0.0,0.0,0.0,0.0
1.351165772,0.11253545,0.31090865,-0.9437541,-0.04036603,0.9504338,0.30829588,0.9928275,0.0034013889,0.11950763,0.110262915,0.36883864,-0.92293024,-0.048935853,0.92948085,0.3656101,0.992697,0.0048511424,0.12053669,0.09681702,-0.026184082,0.094573975,9.73616,0.033355713,1.1719513,0.003189087,-0.054336548,0.0010681152,-27.642822,13.243103,1.0665894,0,0.0,0.0,0.0,0.0
1.355560303,0.10467608,0.45612437,-0.88373834,-0.057345986,0.88990986,0.4525172,0.9928516,0.0033111186,0.11930918,0.110314555,0.36769304,-0.92338103,-0.048765615,0.92993474,0.3644768,0.9926996,0.0048221475,0.120516114,0.14439392,-0.10668945,0.03904724,9.736465,0.032470703,1.1700134,-0.003189087,-0.053268433,-0.007461548,-28.54004,11.628723,2.62146,0,0.0,0.0,0.0,0.0
1.359954834,0.10452042,0.45578584,-0.88393146,-0.057180654,0.8900835,0.45219672,0.99287754,0.003279987,0.11909402,0.110208295,0.3694984,-0.92267275,-0.048942983,0.929219,0.36627397,0.99270266,0.0047919275,0.12049199,0.17762756,-0.048919678,0.022003174,9.736755,0.032165527,1.1679077,0.008529663,-0.047943115,0.0095825195,-28.54004,11.628723,2.62146,0,0.0,0.0,0.0,0.0
1.364349365,0.104282506,0.45526838,-0.88422614,-0.057049062,0.890348,0.45169222,0.99291015,0.0033406748,0.11882035,0.11010051,0.3712593,-0.92197853,-0.049113583,0.92851704,0.36802715,0.99270624,0.0047616884,0.12046408,0.17253113,0.04145813,-0.13812256,9.737061,0.03276062,1.1652222,-0.003189087,-0.046875,0.003189087,-28.54004,11.628723,2.62146,0,0.0,0.0,0.0,0.0
1.368743897,0.11184373,0.3057841,-0.9455089,-0.039437287,0.952095,0.30324906,0.992943,0.0033718,0.118545145,0.10998965,0.3729729,-0.9212999,-0.04927833,0.92783016,0.36973345,0.99271035,0.004733268,0.1204312,0.15307617,-0.054611206,-0.044433594,9.737366,0.033065796,1.1625214,0.0053253174,-0.050064087,-0.01171875,-28.181458,14.138794,1.2390137,0,0.0,0.0,0.0,0.0
1.373138428,0.11165092,0.3054123,-0.9456519,-0.039343137,0.9522143,0.30288655,0.9929684,0.0033873455,0.11833148,0.11003495,0.3716467,-0.9218303,-0.049082004,0.9283623,0.36842144,0.99271506,0.004706039,0.12039346,0.19108582,-0.002105713,-0.12374878,9.737656,0.033218384,1.1604309,0.008529663,-0.054336548,-0.008529663,-28.181458,14.138794,1.2390137,0,0.0,0.0,0.0,0.0
1.377532959,0.11150707,0.3051349,-0.94575834,-0.03919604,0.9523034,0.30262527,0.99299043,0.0033251285,0.11814865,0.11007539,0.370339,-0.92235154,-0.048887443,0.92888486,0.3671279,0.9927202,0.0046796654,0.12035229,0.21009827,-0.0014953613,0.07437134,9.737808,0.032608032,1.1586304,0.0,-0.036224365,-0.0063934326,-28.181458,14.138794,1.2390137,0,0.0,0.0,0.0,0.0
1.38192749,0.10486002,0.43409178,-0.8947451,-0.054177925,0.90086263,0.43071035,0.99301016,0.0033111386,0.11798265,0.11011204,0.36905134,-0.9228632,-0.048693627,0.92939734,0.36585444,0.9927256,0.0046525747,0.12030829,0.08543396,0.06568909,0.04727173,9.737961,0.032470703,1.1569977,-0.004257202,-0.046875,0.014892578,-28.001404,12.52594,2.7954102,0,0.0,0.0,0.0,0.0
1.386322022,0.10473501,0.43384254,-0.89488065,-0.05408153,0.90098274,0.43047127,0.9930286,0.0033111016,0.11782729,0.11011204,0.36905134,-0.9228632,-0.048693627,0.92939734,0.36585444,0.9927256,0.0046525747,0.12030829,0.08514404,0.06568909,0.04878235,9.738251,0.032470703,1.1554871,-0.004257202,-0.046875,0.014892578,-28.001404,12.52594,2.7954102,0,0.0,0.0,0.0,0.0
1.390716553,0.10458362,0.4335407,-0.8950445,-0.05398044,0.9011278,0.43017983,0.99305004,0.003325125,0.11764594,0.109903544,0.37165436,-0.9218429,-0.04891658,0.9283598,0.36844984,0.9927378,0.0045994525,0.120210096,0.075424194,0.060760498,-0.021255493,9.738403,0.032608032,1.1537018,-0.011703491,-0.039413452,0.004257202,-28.001404,12.52594,2.7954102,0,0.0,0.0,0.0,0.0
1.395111084,0.10442398,0.43322238,-0.89521724,-0.05385771,0.9012809,0.42987445,0.9930735,0.0033251515,0.11744771,0.10979916,0.37290967,-0.9213483,-0.049022615,0.9278564,0.36970165,0.9927441,0.0045739664,0.12015886,0.080062866,-0.006286621,-0.07676697,9.738556,0.032608032,1.1517487,-0.007461548,-0.039413452,-0.0021362305,-28.001404,12.52594,2.7954102,0,0.0,0.0,0.0,0.0
1.399505615,0.10436777,0.43311027,-0.8952781,-0.05373051,0.901335,0.42977676,0.9930862,0.0032488985,0.11734157,0.109693326,0.37413266,-0.9208648,-0.049124043,0.92736405,0.37092152,0.99275076,0.0045489897,0.12010455,0.11341858,-0.010314941,-0.04220581,9.7387085,0.03186035,1.150711,0.0095825195,-0.03515625,0.0,-28.001404,12.52594,2.7954102,0,0.0,0.0,0.0,0.0
1.403900147,0.10421894,0.4328135,-0.89543897,-0.05361624,0.9014777,0.42949203,0.99310815,0.0032488685,0.11715687,0.10958833,0.37532824,-0.9203907,-0.04922081,0.9268809,0.3721143,0.9927576,0.004522988,0.1200493,0.07002258,-0.02947998,-0.14575195,9.739014,0.03186035,1.1489105,-0.011703491,-0.020248413,0.014892578,-28.001404,12.52594,2.7954102,0,0.0,0.0,0.0,0.0
1.408294678,0.1089371,0.34201628,-0.93335825,-0.043068398,0.9396885,0.33930916,0.9931152,0.0032348877,0.11709702,0.10948227,0.37649325,-0.9199275,-0.049313348,0.92640847,0.37327683,0.9927647,0.0044975057,0.119991444,0.16099548,-0.048477173,-0.14515686,9.739014,0.031723022,1.1483154,0.0138549805,-0.026641846,0.0,-27.642822,13.601685,1.7578125,0,0.0,0.0,0.0,0.0
1.412689209,0.108773366,0.3417009,-0.93349284,-0.042981897,0.9398031,0.33900237,0.9931369,0.003248866,0.11691249,0.10872666,0.37496218,-0.9206421,-0.04880935,0.9270291,0.3717992,0.99287266,0.004511457,0.11909444,0.036209106,0.06629944,-0.12898254,9.739304,0.03186035,1.1465149,0.0138549805,-0.012786865,0.0010681152,-27.642822,13.601685,1.7578125,0,0.0,0.0,0.0,0.0
1.41708374,0.10860839,0.34138316,-0.9336283,-0.042993456,0.9399182,0.33868167,0.9931544,0.0033562344,0.11676024,0.10873029,0.3743015,-0.9209105,-0.048692282,0.92729616,0.371148,0.992878,0.0044862055,0.11905078,-0.002243042,0.1945343,-0.08439636,9.739456,0.032913208,1.1450195,0.030899048,-0.028762817,0.003189087,-27.642822,13.601685,1.7578125,0,0.0,0.0,0.0,0.0
1.421478272,0.109463,0.3207066,-0.94083214,-0.040550064,0.9471727,0.31815007,0.99316335,0.0033251448,0.11668504,0.10873049,0.37364757,-0.921176,-0.048577692,0.92756003,0.37050322,0.9928836,0.0044636056,0.11900499,0.06478882,-0.11160278,-0.23687744,9.739456,0.032608032,1.1442719,0.15553284,-0.028762817,0.01171875,-26.747131,13.780212,1.5853882,0,0.0,0.0,0.0,0.0
1.425872803,0.10940858,0.3206057,-0.9408728,-0.04056746,0.9472067,0.31804663,0.99316865,0.0033717898,0.11663872,0.10875063,0.37259987,-0.92159784,-0.048416622,0.9279815,0.36946747,0.9928893,0.0044408366,0.1189586,0.02633667,0.074661255,-0.5668335,9.739609,0.033065796,1.1438293,0.24394226,0.0063934326,0.024490356,-26.747131,13.780212,1.5853882,0,0.0,0.0,0.0,0.0
1.430267334,0.109711915,0.32116833,-0.9406456,-0.04066343,0.9470163,0.31860074,0.9931313,0.003295578,0.11695879,0.10876905,0.3715707,-0.9220111,-0.048259083,0.92839414,0.36845,0.9928949,0.0044194553,0.11891221,0.13691711,-0.049072266,-0.5460205,9.739151,0.032318115,1.1469574,0.26419067,0.04258728,0.028747559,-26.747131,13.780212,1.5853882,0,0.0,0.0,0.0,0.0
1.434661865,0.107723385,0.37535235,-0.92060107,-0.04705672,0.9268767,0.3724048,0.99306667,0.0032037622,0.11750914,0.108792834,0.37057272,-0.9224099,-0.048106965,0.9287931,0.36746317,0.9928997,0.004396978,0.118873164,0.1949768,-0.07211304,-0.35031128,9.738556,0.031417847,1.152359,0.21199036,0.1224823,0.036209106,-26.92566,12.8845215,2.1026611,0,0.0,0.0,0.0,0.0
1.439056397,0.10825639,0.37638706,-0.92011595,-0.04739796,0.926457,0.37340435,0.9929924,0.0031882087,0.11813488,0.10877138,0.3706684,-0.92237395,-0.048086084,0.928755,0.36756214,0.9929031,0.0043731136,0.118845955,0.1765747,0.07646179,0.021835327,9.737808,0.03126526,1.158493,0.20878601,0.15977478,0.04046631,-26.92566,12.8845215,2.1026611,0,0.0,0.0,0.0,0.0
1.443450928,0.10871349,0.37727416,-0.9196986,-0.047641058,0.92609626,0.37426713,0.9929308,0.0031275225,0.11865292,0.10876098,0.3707829,-0.9223291,-0.04807238,0.9287093,0.36767912,0.99290484,0.004349416,0.11883176,0.12449646,-0.033050537,0.27053833,9.737213,0.030670166,1.1635742,0.22050476,0.1416626,0.03514099,-26.92566,12.8845215,2.1026611,0,0.0,0.0,0.0,0.0
1.447845459,0.10899574,0.37782186,-0.9194403,-0.04775012,0.9258733,0.37480476,0.9928947,0.0030512642,0.11895729,0.10876098,0.3707829,-0.9223291,-0.04807238,0.9287093,0.36767912,0.99290484,0.004349416,0.11883176,0.124801636,-0.032302856,0.2675476,9.736908,0.029922485,1.166565,0.22050476,0.1416626,0.03514099,-26.92566,12.8845215,2.1026611,0,0.0,0.0,0.0,0.0
