Time,Rot1,Rot2,Rot3,Rot4,Rot5,Rot6,Rot7,Rot8,Rot9,FRot1,FRot2,FRot3,FRot4,FRot5,FRot6,FRot7,FRot8,FRot9,AccX,AccY,AccZ,GravX,GravY,GravZ,GyroX,GyroY,GyroZ,MagX,MagY,MagZ,Imid
0.0,0.0,0.0,0.0,0.0,0.0,0.0,0.0,0.0,0.0,0.0,0.0,0.0,0.0,0.0,0.0,0.0,0.0,0.0,0.0748291,0.017364502,-0.03277588,9.358322,-0.07481384,2.9297485,0.0,0.0,0.0,0.0,0.0,0.0,0,0.0,0.0,0.0,0.0
0.004394531,0.2988365,0.009917769,-0.9542528,0.0043168394,0.9999217,0.01174429,0.95429456,-0.007628979,0.2987703,1.0,0.0,0.0,0.0,1.0,0.0,0.0,0.0,1.0,-0.131073,-0.020950317,-0.023345947,9.358322,-0.07481384,2.9299011,0.0,0.0,0.0,-24.77417,17.546082,-7.575989,0,0.0,0.0,0.0,0.0
0.008789062,0.29880354,0.009866507,-0.9542637,0.004332521,0.99992216,0.011695208,0.95430475,-0.007628936,0.2987375,0.9996788,1.9836421E-4,-0.025344899,-1.9443333E-4,1.0,1.5755944E-4,0.025344929,-1.5258092E-4,0.9996788,0.055511475,0.022155762,-0.06613159,9.358475,-0.07481384,2.929596,0.007446289,-0.003189087,-0.004272461,-24.77417,17.546082,-7.575989,0,0.0,0.0,0.0,0.0
0.013183593,0.29882193,0.009895114,-0.9542576,0.004294124,0.99992216,0.011713318,0.9542992,-0.0075978967,0.2987562,0.99874073,3.917358E-4,-0.050167833,-3.7608636E-4,0.9999999,3.213815E-4,0.05016795,-3.0210934E-4,0.99874073,-0.08319092,0.045791626,0.0438385,9.358322,-0.07450867,2.9297485,0.013839722,-0.0063934326,0.0,-24.77417,17.546082,-7.575989,0,0.0,0.0,0.0,0.0
0.017578125,0.29861185,0.06326424,-0.95227545,-0.011649545,0.99796766,0.06264677,0.9543035,-0.0076134903,0.29874197,0.99730057,0.0011809687,-0.07341757,-0.0011934001,0.9999993,-1.2545861E-4,0.073417366,2.1273649E-4,0.9973013,-0.035308838,-0.035461426,-0.04219055,9.358322,-0.074661255,2.929596,0.0095825195,0.015960693,-0.009597778,-25.312805,18.441772,-6.7123413,0,0.0,0.0,0.0,0.0
0.021972656,0.29858062,0.063216716,-0.95228845,-0.011618398,0.99797064,0.062606454,0.9543137,-0.0076290076,0.29870918,0.99526113,0.0024235134,-0.09720815,-0.0024175,0.9999971,1.7964137E-4,0.0972083,5.6210614E-5,0.99526405,0.10340881,-0.020950317,-0.061050415,9.358475,-0.07481384,2.9292908,0.013839722,-0.0010681152,0.0,-25.312805,18.441772,-6.7123413,0,0.0,0.0,0.0,0.0
0.026367187,0.29859453,0.06323787,-0.9522827,-0.0116256885,0.9979693,0.06262645,0.9543092,-0.0076289717,0.29872334,0.9927104,0.003640251,-0.120469265,-0.0036019937,0.9999934,5.353269E-4,0.12047041,-9.749508E-5,0.9927169,0.050735474,-0.016159058,0.034576416,9.358475,-0.07481384,2.9294434,0.0010528564,0.0010681152,-0.0010681152,-25.312805,18.441772,-6.7123413,0,0.0,0.0,0.0,0.0
0.030761718,0.2971268,0.13095619,-0.94581515,-0.03190596,0.9913588,0.12723887,0.95430475,-0.007628936,0.2987375,0.98968196,0.004833072,-0.14320022,-0.004747728,0.99998826,9.376766E-4,0.14320306,-2.4812596E-4,0.9896933,-0.006729126,0.017364502,0.04399109,9.358475,-0.07481384,2.929596,-0.0021362305,-0.007461548,-0.0021362305,-24.77417,16.470337,-5.5023193,0,0.0,0.0,0.0,0.0
0.03515625,0.29713094,0.13096324,-0.94581276,-0.031908557,0.9913578,0.12724549,0.9543034,-0.00762905,0.29874194,0.98619896,0.007363105,-0.16540043,-0.007196224,0.9999728,0.0016081968,0.16540778,-3.957435E-4,0.9862252,0.06524658,-0.0018005371,0.04399109,9.358322,-0.07481384,2.929596,0.018096924,0.0095825195,-0.0010681152,-24.77417,16.470337,-5.5023193,0,0.0,0.0,0.0,0.0
0.039550781,0.29706696,0.1308553,-0.94584787,-0.03189718,0.99137235,0.12713538,0.95432365,-0.007597843,0.29867786,0.98229665,0.009842633,-0.18707305,-0.009567747,0.9999514,0.0023722756,0.18708733,-5.40411E-4,0.98234314,-0.040405273,0.055358887,-0.17567444,9.358627,-0.07450867,2.9290009,-0.0032043457,0.020233154,0.008514404,-24.77417,16.470337,-5.5023193,0,0.0,0.0,0.0,0.0
0.043945312,0.2970946,0.13090192,-0.9458327,-0.03193,0.9913663,0.1271742,0.954314,-0.0075823306,0.29870927,0.97800446,0.012270333,-0.20822279,-0.011859403,0.9999245,0.0032218248,0.2082466,-6.815609E-4,0.9780761,-0.0019378662,0.045639038,0.096969604,9.358475,-0.07435608,2.9292908,0.004257202,0.0032043457,0.0021209717,-24.77417,16.470337,-5.5023193,0,0.0,0.0,0.0,0.0
0.048339843,0.2970385,0.13080727,-0.9458634,-0.03189366,0.9913788,0.1270859,0.95433265,-0.007582355,0.29864955,0.973351,0.014650349,-0.22885181,-0.014073856,0.9998923,0.004151026,0.22888799,-8.195776E-4,0.9734524,0.17507935,0.0073242188,-0.12269592,9.358627,-0.07435608,2.9286957,-0.0010681152,0.018096924,0.0,-24.77417,16.470337,-5.5023193,0,0.0,0.0,0.0,0.0
0.052734375,0.29705018,0.13082692,-0.94585705,-0.03191472,0.9913764,0.12710002,0.9543284,-0.0075683175,0.2986638,0.9683631,0.016980775,-0.24896693,-0.016208129,0.99985534,0.005153152,0.24901843,-9.548345E-4,0.96849823,0.036209106,0.03112793,0.030380249,9.358627,-0.07421875,2.9288483,-0.0053253174,0.004257202,-0.004272461,-24.77417,16.470337,-5.5023193,0,0.0,0.0,0.0,0.0
0.057128906,0.29869124,0.04747103,-0.9531684,-0.006994367,0.99884415,0.04755404,0.9543241,-0.007537164,0.298678,0.96306676,0.0192649,-0.26857233,-0.018264743,0.9998138,0.0062223203,0.26864222,-0.0010871054,0.9632394,-0.006881714,0.059555054,0.039794922,9.358627,-0.073913574,2.9290009,0.003189087,-0.0021209717,0.0,-24.23706,17.72461,-6.7123413,0,0.0,0.0,0.0,0.0
0.061523437,0.29866463,0.047430698,-0.95317876,-0.0069511663,0.9988459,0.04752507,0.9543328,-0.007568353,0.2986496,0.9575194,0.01982927,-0.2876862,-0.018640636,0.99980265,0.0068706297,0.28776568,-0.0012161077,0.95770013,0.026641846,-0.06463623,-0.041290283,9.358627,-0.07421875,2.9286957,0.006378174,0.017028809,0.010650635,-24.23706,17.72461,-6.7123413,0,0.0,0.0,0.0,0.0
0.065917968,0.29866394,0.047429644,-0.95317906,-0.006965682,0.99884605,0.047519416,0.95433295,-0.0075527932,0.29864964,0.9517146,0.02038154,-0.30630717,-0.018989831,0.9997914,0.0075231334,0.3063966,-0.0013431539,0.95190305,0.031417847,0.050125122,-0.012573242,9.358627,-0.07406616,2.9286957,0.008514404,-0.008514404,-0.0010681152,-24.23706,17.72461,-6.7123413,0,0.0,0.0,0.0,0.0
0.0703125,0.29800627,0.0935756,-0.9499663,-0.020741664,0.9955834,0.091562375,0.9543386,-0.0075822785,0.29863098,0.9456741,0.020922735,-0.32444203,-0.019314121,0.99978,0.008177934,0.32454175,-0.0014673477,0.9458702,-0.026184082,-0.08843994,-0.060302734,9.35878,-0.07435608,2.928543,-0.0010681152,0.0063934326,0.0053253174,-23.698425,16.111755,-5.847168,0,0.0,0.0,0.0,0.0
0.074737549,0.29805544,0.09365644,-0.9499428,-0.020726027,0.99557537,0.0916524,0.95432353,-0.0076289615,0.29867783,0.9394005,0.022378208,-0.3420906,-0.020483261,0.99974835,0.009151346,0.3422093,-0.0015896476,0.9396224,0.041000366,-0.030517578,-0.05117798,9.358627,-0.07481384,2.9290009,0.012771606,0.0053253174,-0.0063934326,-23.698425,16.111755,-5.847168,0,0.0,0.0,0.0,0.0
0.079162597,0.29807204,0.09368369,-0.9499349,-0.020750675,0.99557287,0.09167338,0.9543178,-0.0076134806,0.29869646,0.9329313,0.02380615,-0.3592667,-0.021600915,0.9997151,0.010151792,0.35940602,-0.0017104351,0.93317974,-0.1408081,0.055511475,0.0013427734,9.358475,-0.074661255,2.9291534,0.0095825195,0.020233154,0.01171875,-23.698425,16.111755,-5.847168,0,0.0,0.0,0.0,0.0
0.08392334,0.2978265,0.10563638,-0.9487573,-0.024347544,0.9943758,0.10307264,0.95430946,-0.0075978544,0.29872343,0.9264765,0.02486951,-0.37553012,-0.022396794,0.9996892,0.010948999,0.3756857,-0.001733319,0.92674553,-0.006729126,0.026626587,0.087249756,9.358475,-0.07450867,2.9294434,0.003189087,0.007461548,0.004257202,-24.23706,17.366028,-5.6747437,0,0.0,0.0,0.0,0.0
0.088653564,0.29784143,0.1056596,-0.94874996,-0.02438448,0.99437356,0.10308554,0.9543039,-0.0075683696,0.29874212,0.91967005,0.026488263,-0.39179757,-0.023643399,0.9996474,0.012084808,0.39197952,-0.0018506108,0.91997206,-0.059249878,0.08378601,0.015258789,9.358322,-0.07421875,2.929596,0.01171875,-0.007461548,0.0063934326,-24.23706,17.366028,-5.6747437,0,0.0,0.0,0.0,0.0
0.093383789,0.2978428,0.105661705,-0.9487493,-0.024371825,0.9943732,0.10309172,0.95430374,-0.0075823725,0.29874206,0.9127207,0.02807504,-0.4076184,-0.024833135,0.9996039,0.013243274,0.40782875,-0.0019649672,0.9130564,-0.011367798,-0.04055786,9.0026855E-4,9.358322,-0.07435608,2.929596,0.0095825195,0.0021362305,0.0021209717,-24.23706,17.366028,-5.6747437,0,0.0,0.0,0.0,0.0
0.098114013,0.2988191,0.02225447,-0.95405024,5.859588E-4,0.99972355,0.02350339,0.9543096,-0.007582295,0.29872343,0.9056442,0.02963005,-0.42300197,-0.02596653,0.9995588,0.014422011,0.42324266,-0.0020773164,0.90601397,-0.021102905,0.09350586,0.12075806,9.358475,-0.07435608,2.9294434,0.0021209717,-0.004257202,-0.0053253174,-23.878479,18.08319,-7.05719,0,0.0,0.0,0.0,0.0
0.102844238,0.2988654,0.022321954,-0.95403415,5.3643156E-4,0.9997223,0.023558984,0.9542951,-0.00755274,0.29877046,0.9056442,0.02963005,-0.42300197,-0.02596653,0.9995588,0.014422011,0.42324266,-0.0020773164,0.90601397,-0.020950317,0.09321594,0.12030029,9.358322,-0.07406616,2.9299011,0.0021209717,-0.004257202,-0.0053253174,-23.878479,18.08319,-7.05719,0,0.0,0.0,0.0,0.0
0.107574463,0.29889604,0.022366494,-0.95402354,5.0754054E-4,0.9997214,0.023596864,0.9542855,-0.007537215,0.29880142,0.89125806,0.029340688,-0.45254636,-0.025122218,0.99956685,0.015330143,0.45280012,-0.002294145,0.89160913,-0.15487671,0.035614014,0.048187256,9.358185,-0.073913574,2.930191,0.0021209717,-0.014907837,0.0063934326,-23.878479,18.08319,-7.05719,0,0.0,0.0,0.0,0.0
0.112304687,0.298828,0.016113201,-0.95417094,0.0023929807,0.99984163,0.017633883,0.954304,-0.0075528105,0.29874212,0.8839323,0.02920122,-0.46670225,-0.024702262,0.99957067,0.01575642,0.466962,-0.0023990073,0.8842742,-0.020950317,0.0070343018,-0.03262329,9.358322,-0.07406616,2.929596,-0.0021362305,-0.003189087,-0.0053253174,-24.595642,17.72461,-7.4035645,0,0.0,0.0,0.0,0.0
0.117034912,0.29880932,0.016084688,-0.95417726,0.0024017724,0.9998421,0.017606603,0.9543098,-0.0075527336,0.29872352,0.8839323,0.02920122,-0.46670225,-0.024702262,0.99957067,0.01575642,0.466962,-0.0023990073,0.8842742,-0.021102905,0.0070343018,-0.032470703,9.358475,-0.07406616,2.9294434,-0.0021362305,-0.003189087,-0.0053253174,-24.595642,17.72461,-7.4035645,0,0.0,0.0,0.0,0.0
0.121765136,0.2988742,0.016183835,-0.95415527,0.002341311,0.99984074,0.017692104,0.9542897,-0.007521688,0.29878873,0.869082,0.02868189,-0.4938359,-0.023650525,0.9995852,0.016434094,0.49410242,-0.0026030967,0.8693998,-0.011230469,0.09770203,0.17282104,9.358185,-0.07376099,2.9300537,0.004257202,-0.008514404,0.0063934326,-24.595642,17.72461,-7.4035645,0,0.0,0.0,0.0,0.0
0.126495361,0.29876935,0.047589317,-0.9531381,-0.007018771,0.9988384,0.047671,0.9542995,-0.007552775,0.2987563,0.8615784,0.028431969,-0.5068275,-0.023135902,0.99959207,0.01674529,0.5070969,-0.0027014697,0.8618848,0.05088806,-0.1126709,-0.08065796,9.358322,-0.07406616,2.9297485,0.0095825195,-0.007461548,0.0021209717,-24.23706,17.72461,-6.7123413,0,0.0,0.0,0.0,0.0
0.131225586,0.29875535,0.047568094,-0.95314354,-0.0070116804,0.9988395,0.047650862,0.954304,-0.0075528105,0.29874212,0.85402185,0.028815256,-0.5194385,-0.02316413,0.9995808,0.017365877,0.5197212,-0.0027984965,0.8543314,-0.08319092,0.030975342,-0.06135559,9.358322,-0.07406616,2.929596,-0.0032043457,-0.0095825195,-0.004272461,-24.23706,17.72461,-6.7123413,0,0.0,0.0,0.0,0.0
0.13595581,0.29876724,0.047586136,-0.9531388,-0.007062309,0.99883884,0.047654018,0.95429987,-0.007506098,0.2987564,0.8464371,0.029190453,-0.53168815,-0.023178512,0.9995697,0.017978095,0.53198415,-0.0028935838,0.8467494,-0.035308838,0.09754944,0.015106201,9.358322,-0.0736084,2.9297485,0.003189087,-0.0021209717,-0.0032043457,-24.23706,17.72461,-6.7123413,0,0.0,0.0,0.0,0.0
0.140686035,0.29874974,0.016034596,-0.95419675,0.0024327105,0.99984276,0.017563304,0.9543284,-0.0075683175,0.2986638,0.8388335,0.029558497,-0.54358494,-0.023180913,0.99955857,0.018581316,0.54389423,-0.0029858348,0.83914846,-0.040405273,-0.06463623,-0.01272583,9.358627,-0.07421875,2.9288483,0.006378174,-0.017044067,-0.008529663,-24.057007,17.904663,-7.23114,0,0.0,0.0,0.0,0.0
0.145416259,0.29874954,0.016034245,-0.9541969,0.0024179695,0.9998429,0.01755832,0.9543285,-0.007552758,0.2986638,0.83123326,0.029288065,-0.5551518,-0.022645608,0.9995663,0.018826526,0.5554624,-0.0030774854,0.831536,-0.021255493,0.04534912,-0.03187561,9.358627,-0.07406616,2.9288483,0.012771606,-0.019165039,0.010650635,-24.057007,17.904663,-7.23114,0,0.0,0.0,0.0,0.0
0.150177002,0.29878244,0.016082978,-0.9541857,0.0024028434,0.99984217,0.017604923,0.9543182,-0.0075528,0.29869658,0.82327306,0.029101064,-0.56689906,-0.022104988,0.9995711,0.019210016,0.56721497,-0.0032837915,0.8235633,-0.030670166,-0.026489258,0.08753967,9.358475,-0.07406616,2.9291534,-0.0021362305,-0.0095825195,0.0,-24.057007,17.904663,-7.23114,0,0.0,0.0,0.0,0.0
0.154907226,0.29878923,0.009974577,-0.95426697,0.004242531,0.99992156,0.01178016,0.9543097,-0.0075682923,0.2987235,0.8156755,0.028840743,-0.5777903,-0.02158605,0.99957836,0.019421183,0.5781068,-0.0033691723,0.81595415,0.07467651,-0.011962891,0.10160828,9.358475,-0.07421875,2.9294434,0.01171875,-0.017044067,0.007446289,-24.23706,17.72461,-7.4035645,0,0.0,0.0,0.0,0.0
0.159484863,0.29876226,0.009934004,-0.9542758,0.0042684125,0.99992186,0.011745524,0.95431805,-0.0075823627,0.29869655,0.80809295,0.028463494,-0.5883669,-0.020976964,0.99958885,0.019546399,0.5886814,-0.0034531555,0.8083578,0.022003174,-0.04534912,-0.056121826,9.358475,-0.07435608,2.9291534,0.007446289,-0.012786865,0.004257202,-24.23706,17.72461,-7.4035645,0,0.0,0.0,0.0,0.0
0.164031982,0.29877514,0.009953308,-0.9542717,0.004262458,0.99992174,0.011763994,0.954314,-0.0075823306,0.29870927,0.8005284,0.028092977,-0.598636,-0.020379674,0.99959904,0.019656695,0.5989481,-0.0035357403,0.80078,0.108184814,-0.0118255615,0.068237305,9.358475,-0.07435608,2.9292908,0.006378174,-0.013839722,0.0010681152,-24.23706,17.72461,-7.4035645,0,0.0,0.0,0.0,0.0
0.168334961,0.29877985,0.037177544,-0.9535976,-0.0038881404,0.9992801,0.03774032,0.9543142,-0.0075683277,0.29870933,0.7929887,0.02773025,-0.6086049,-0.019795272,0.9996089,0.019753339,0.6089147,-0.003616673,0.7932275,-0.006729126,0.07899475,-0.008377075,9.358475,-0.07421875,2.9292908,0.019165039,-0.012786865,-0.008529663,-24.595642,16.648865,-7.05719,0,0.0,0.0,0.0,0.0
0.172607422,0.29877877,0.03717575,-0.953598,-0.003917278,0.99928033,0.037729308,0.9543144,-0.0075372104,0.29870942,0.7929887,0.02773025,-0.6086049,-0.019795272,0.9996089,0.019753339,0.6089147,-0.003616673,0.7932275,-0.006729126,0.078689575,-0.008377075,9.358475,-0.073913574,2.9292908,0.019165039,-0.012786865,-0.008529663,-24.595642,16.648865,-7.05719,0,0.0,0.0,0.0,0.0
0.176879883,0.29879174,0.037196986,-0.95359313,-0.003953894,0.99927974,0.03774021,0.9543101,-0.007506056,0.2987236,0.7779845,0.028104363,-0.62765455,-0.019503903,0.9995979,0.020583495,0.62798065,-0.0037719277,0.77821976,0.055511475,-0.0030059814,-0.051620483,9.358475,-0.0736084,2.9294434,0.006378174,-0.0053253174,-0.014923096,-24.595642,16.648865,-7.05719,0,0.0,0.0,0.0,0.0
0.181152343,0.29877767,0.03717395,-0.95359844,-0.003946413,0.99928063,0.037718292,0.9543146,-0.0075060916,0.29870945,0.7779845,0.028104363,-0.62765455,-0.019503903,0.9995979,0.020583495,0.62798065,-0.0037719277,0.77821976,0.055511475,-0.0030059814,-0.051467896,9.358475,-0.0736084,2.9292908,0.006378174,-0.0053253174,-0.014923096,-24.595642,16.648865,-7.05719,0,0.0,0.0,0.0,0.0
0.185424804,0.29871413,0.004235315,-0.95433325,0.00588491,0.999963,0.006279844,0.9543245,-0.007492043,0.29867813,0.76314354,0.028463582,-0.64560187,-0.01919775,0.9995871,0.021377243,0.6459438,-0.003919801,0.7633749,0.060150146,0.03517151,-0.05596924,9.358627,-0.07347107,2.9290009,0.004257202,-0.0053253174,-0.0063934326,-22.802734,18.08319,-7.05719,0,0.0,0.0,0.0,0.0
0.189697265,0.29866666,0.0041695684,-0.95434844,0.005875153,0.9999636,0.0062075113,0.95433944,-0.0074609187,0.29863125,0.7558072,0.027979126,-0.65419614,-0.018541837,0.9996005,0.021329835,0.65453154,-0.0039912467,0.7560241,-0.050125122,0.077941895,-0.14648438,9.35878,-0.07316589,2.928543,0.008514404,0.010635376,0.0021209717,-22.802734,18.08319,-7.05719,0,0.0,0.0,0.0,0.0
0.193969726,0.29874292,0.02303061,-0.9540556,2.4011591E-4,0.99970686,0.024207804,0.9543336,-0.007460995,0.29864985,0.74852294,0.027503042,-0.6625383,-0.01790191,0.99961346,0.021270346,0.66286725,-0.004060641,0.748726,-0.059555054,0.020507813,0.040100098,9.358627,-0.07316589,2.9286957,-0.0010681152,0.0032043457,-0.0010681152,-22.802734,17.72461,-6.7123413,0,0.0,0.0,0.0,0.0
0.198242187,0.29872364,0.023003265,-0.95406234,2.1899771E-4,0.99970776,0.024172384,0.9543396,-0.007429801,0.2986313,0.7412885,0.027413601,-0.6706265,-0.01755799,0.99961567,0.021453863,0.67095685,-0.0041286484,0.7414849,-0.026184082,0.06808472,-0.050720215,9.35878,-0.07286072,2.928543,0.0010528564,0.02128601,-0.0010681152,-22.802734,17.72461,-6.7123413,0,0.0,0.0,0.0,0.0
0.202514648,0.29880166,0.023113854,-0.9540353,1.7065089E-4,0.9997053,0.024273772,0.95431525,-0.0074158497,0.29870966,0.73411363,0.027325401,-0.6784766,-0.017219152,0.99961776,0.021628074,0.6788083,-0.004194672,0.73430353,-0.088134766,0.04878235,0.20710754,9.358475,-0.07272339,2.9292908,0.013839722,0.004257202,-0.0053253174,-22.802734,17.72461,-6.7123413,0,0.0,0.0,0.0,0.0
0.206817627,0.29868686,0.049806464,-0.95305055,-0.0078093284,0.9987313,0.04974629,0.95431924,-0.0074158804,0.2986969,0.7270027,0.027241178,-0.686094,-0.016887274,0.99961984,0.021795452,0.68642694,-0.004259096,0.7271863,0.055511475,-0.018249512,-0.022598267,9.358475,-0.07272339,2.9291534,0.012771606,0.0095825195,0.0021209717,-24.77417,16.828918,-6.8847656,0,0.0,0.0,0.0,0.0
0.211090088,0.29863986,0.049729623,-0.9530694,-0.007798739,0.99873537,0.0496687,0.954334,-0.0074003143,0.29865,0.7199481,0.027692668,-0.69347525,-0.016945085,0.99960715,0.022325538,0.693821,-0.004322232,0.7201345,0.1511383,0.04862976,-0.07481384,9.358627,-0.0725708,2.9286957,0.003189087,0.02128601,-0.0063934326,-24.77417,16.828918,-6.8847656,0,0.0,0.0,0.0,0.0
0.215362549,0.29865235,0.049750056,-0.9530643,-0.007835276,0.9987345,0.049678776,0.9543298,-0.0073691616,0.2986642,0.7129612,0.028133586,-0.7006389,-0.016992014,0.99959457,0.02284705,0.7009976,-0.0043837945,0.71315014,-0.06434631,0.077041626,0.02079773,9.358627,-0.072265625,2.9288483,-0.0053253174,0.0095825195,-0.007461548,-24.77417,16.828918,-6.8847656,0,0.0,0.0,0.0,0.0
0.219635009,0.29876962,0.023599658,-0.95403343,-3.4696423E-6,0.9996942,0.02472807,0.95432526,-0.0073846867,0.29867837,0.7067322,0.028324278,-0.706914,-0.01726899,0.99959123,0.022786574,0.70727044,-0.0038963144,0.70693237,-0.030822754,-0.061645508,0.006286621,9.358627,-0.07241821,2.9290009,0.008514404,0.014907837,-0.0032043457,-23.878479,17.007446,-7.05719,0,0.0,0.0,0.0,0.0
0.22390747,0.29876998,0.0236002,-0.95403326,1.12121925E-5,0.999694,0.024733236,0.95432514,-0.0074002454,0.2986783,0.6998901,0.028229794,-0.71369255,-0.016932653,0.9995936,0.022933302,0.7140499,-0.0039660824,0.7000837,-0.045196533,-0.03276062,0.025436401,9.358627,-0.0725708,2.9290009,0.01171875,-0.0063934326,-0.0053253174,-23.878479,17.007446,-7.05719,0,0.0,0.0,0.0,0.0
0.228179931,0.29882932,0.02369213,-0.9540124,-3.2681506E-5,0.999692,0.02481631,0.9543066,-0.007384663,0.2987381,0.6931217,0.028137209,-0.72027117,-0.016601646,0.9995959,0.023073083,0.72062933,-0.004034766,0.6933087,-0.021102905,0.058059692,0.13497925,9.358475,-0.07241821,2.929596,-0.006378174,-0.003189087,-0.0010681152,-23.878479,17.007446,-7.05719,0,0.0,0.0,0.0,0.0
0.232452392,0.29754862,0.11659894,-0.9475597,-0.02783723,0.99315155,0.11346777,0.9543007,-0.0073847375,0.29875666,0.68642956,0.028048316,-0.7266552,-0.016277695,0.99959815,0.023207095,0.72701406,-0.0041017644,0.6866103,-0.059249878,-0.032913208,0.05342102,9.358322,-0.07241821,2.9297485,0.003189087,-0.0095825195,-0.0138549805,-24.595642,16.648865,-5.6747437,0,0.0,0.0,0.0,0.0
0.236724853,0.29753685,0.11657945,-0.9475659,-0.02781493,0.99315387,0.11345423,0.95430505,-0.007400331,0.29874247,0.6797836,0.029823862,-0.73280615,-0.017225984,0.99954647,0.024700115,0.73321044,-0.0041674245,0.67998904,-0.08319092,-0.02798462,-0.06613159,9.358322,-0.0725708,2.929596,0.006378174,-0.01171875,0.0063934326,-24.595642,16.648865,-5.6747437,0,0.0,0.0,0.0,0.0
0.240997314,0.29747593,0.116478786,-0.9475973,-0.027777232,0.99316555,0.113360025,0.95432514,-0.0074002454,0.2986783,0.673215,0.031563416,-0.738773,-0.018129699,0.9994928,0.026181554,0.7392246,-0.004232083,0.6734457,-0.006881714,0.01991272,-0.16610718,9.358627,-0.0725708,2.9290009,-0.0010681152,-0.0095825195,-0.0021362305,-24.595642,16.648865,-5.6747437,0,0.0,0.0,0.0,0.0
0.245300293,0.29870555,0.04720278,-0.9531773,-0.0070455084,0.9988579,0.04725704,0.9543193,-0.007400321,0.29869694,0.666724,0.033266053,-0.74456185,-0.018989589,0.9994373,0.027649174,0.7450627,-0.004295447,0.6669806,-0.1408081,-0.12854004,-0.022598267,9.358475,-0.0725708,2.9291534,0.003189087,-0.003189087,-0.007461548,-23.698425,17.904663,-6.539917,0,0.0,0.0,0.0,0.0
0.249572754,0.29872084,0.04722523,-0.9531714,-0.0069950437,0.99885637,0.047296483,0.9543148,-0.00746097,0.29870954,0.666724,0.033266053,-0.74456185,-0.018989589,0.9994373,0.027649174,0.7450627,-0.004295447,0.6669806,-0.1408081,-0.12794495,-0.022735596,9.358475,-0.07316589,2.9292908,0.003189087,-0.003189087,-0.007461548,-23.698425,17.904663,-6.539917,0,0.0,0.0,0.0,0.0
0.253845215,0.29875398,0.04727372,-0.9531586,-0.0069963024,0.99885404,0.04734718,0.9543045,-0.007476571,0.2987423,0.6540381,0.033818997,-0.7557053,-0.018786706,0.9994182,0.028466258,0.7562283,-0.0044208025,0.6542929,-0.006576538,-0.05595398,0.11103821,9.358322,-0.07331848,2.929596,0.006378174,-0.017044067,0.0010681152,-23.698425,17.904663,-6.539917,0,0.0,0.0,0.0,0.0
0.258117675,0.29878128,0.047313742,-0.95314807,-0.0070245764,0.9988523,0.047380496,0.9542958,-0.007460943,0.2987707,0.6478179,0.034088165,-0.76103216,-0.01868069,0.9994087,0.028863858,0.7615661,-0.0044819186,0.64807165,-0.040100098,0.054016113,0.07241821,9.358322,-0.07316589,2.9299011,0.007446289,0.0010681152,0.008514404,-23.698425,17.904663,-6.539917,0,0.0,0.0,0.0,0.0
0.262390136,0.29878128,0.047313742,-0.95314807,-0.0070245764,0.9988523,0.047380496,0.9542958,-0.007460943,0.2987707,0.6416804,0.03435275,-0.76620245,-0.018572459,0.9993994,0.029254068,0.76674724,-0.0045414995,0.6419331,0.041305542,-0.017807007,5.950928E-4,9.358322,-0.07316589,2.9299011,-0.0010681152,-0.0021209717,-0.0021362305,-23.698425,17.904663,-6.539917,0,0.0,0.0,0.0,0.0
0.266662597,0.29872352,0.04722919,-0.9531703,-0.0069383895,0.9988558,0.047318395,0.95431453,-0.0075216508,0.29870942,0.63562566,0.03461204,-0.7712211,-0.01846147,0.99939024,0.029636573,0.7717767,-0.0045998893,0.6358771,-0.045043945,-0.084243774,0.1257019,9.358475,-0.07376099,2.9292908,0.014907837,-0.018112183,-0.0063934326,-23.698425,17.904663,-6.539917,0,0.0,0.0,0.0,0.0
0.270935058,0.2983968,-0.028188508,-0.9540255,0.015596019,0.9995743,-0.024656266,0.95431453,-0.0075216508,0.29870942,0.6296529,0.034864448,-0.77609384,-0.01834592,0.9993812,0.030010948,0.7766599,-0.004658325,0.6299029,-0.030670166,-0.0028533936,-0.032318115,9.358475,-0.07376099,2.9292908,-0.0021362305,-0.0234375,0.0053253174,-24.77417,17.546082,-8.267212,0,0.0,0.0,0.0,0.0
0.275207519,0.29838628,-0.028204713,-0.95402837,0.0155129805,0.99957466,-0.024699323,0.9543192,-0.007429884,0.2986969,0.62379014,0.03360389,-0.7808691,-0.017286967,0.9994241,0.029199645,0.7814006,-0.0047155917,0.6240118,-0.016311646,0.020202637,0.14498901,9.358475,-0.07286072,2.9291534,0.0021209717,-0.01171875,0.0021209717,-24.77417,17.546082,-8.267212,0,0.0,0.0,0.0,0.0
0.279510498,0.29844823,-0.028109455,-0.9540118,0.015457857,0.99957746,-0.024616266,0.95430064,-0.0074002966,0.29875663,0.61800826,0.032368176,-0.785505,-0.016263368,0.99946463,0.028389318,0.78600335,-0.004769878,0.6182038,0.012573242,0.0773468,0.15397644,9.358322,-0.0725708,2.9297485,0.014907837,-0.013839722,-0.018112183,-24.77417,17.546082,-8.267212,0,0.0,0.0,0.0,0.0
0.283782959,0.29785386,0.10217294,-0.94912785,-0.023405917,0.9947384,0.09973767,0.9543245,-0.007492043,0.29867813,0.6117526,0.030762427,-0.79045075,-0.015329637,0.99951696,0.027034726,0.7909005,-0.004421242,0.6119287,-0.021255493,-0.02708435,-0.022445679,9.358627,-0.07347107,2.9290009,0.008514404,-0.010650635,-0.0010681152,-24.77417,17.904663,-5.847168,0,0.0,0.0,0.0,0.0
0.28805542,0.297783,0.10206373,-0.94916195,-0.023365445,0.99474967,0.09963529,0.95434755,-0.007492102,0.29860425,0.60610133,0.032193426,-0.7947356,-0.01595618,0.99947155,0.028318038,0.79522735,-0.0044826586,0.6062948,-0.05491638,0.02558899,-0.23239136,9.35878,-0.07347107,2.9282532,-0.007446289,-0.014907837,0.017028809,-24.77417,17.904663,-5.847168,0,0.0,0.0,0.0,0.0
0.292327881,0.29778865,0.1020725,-0.94915915,-0.023310477,0.99474835,0.099661745,0.95434725,-0.0075527835,0.29860413,0.60053176,0.03359355,-0.7988949,-0.016551819,0.99942523,0.029583802,0.7994296,-0.0045428476,0.60074264,-0.021408081,-0.16534424,-0.012130737,9.35878,-0.07406616,2.9282532,0.007446289,-0.010650635,-0.0021362305,-24.77417,17.904663,-5.847168,0,0.0,0.0,0.0,0.0
0.296600342,0.29864147,0.043959614,-0.9533524,-0.0059112227,0.9990046,0.044212945,0.954347,-0.0075683417,0.29860407,0.59504485,0.03496578,-0.8029316,-0.017118262,0.9993779,0.03083438,0.8035102,-0.004603047,0.5952732,-0.021408081,-0.04548645,-0.012130737,9.35878,-0.07421875,2.9282532,0.007446289,-0.019165039,0.007446289,-23.878479,16.648865,-6.7123413,0,0.0,0.0,0.0,0.0
0.300872802,0.29859626,0.043887656,-0.95336986,-0.005859363,0.9990076,0.044153392,0.95436156,-0.007597897,0.29855704,0.5896606,0.035145696,-0.8068861,-0.016969975,0.99937135,0.0311284,0.8074729,-0.0046623535,0.5898863,0.04069519,-0.07872009,-0.102645874,9.3589325,-0.07450867,2.9277954,0.006378174,-0.015975952,-0.012786865,-23.878479,16.648865,-6.7123413,0,0.0,0.0,0.0,0.0
0.305145263,0.29861087,0.043911,-0.9533642,-0.0058521964,0.99900645,0.04418022,0.954357,-0.007613421,0.2985712,0.5843578,0.035320565,-0.8107271,-0.016820228,0.99936485,0.031415135,0.8113218,-0.0047210646,0.5845808,0.007171631,-0.045043945,0.0791626,9.3589325,-0.074661255,2.927948,0.01171875,-0.008514404,0.0063934326,-23.878479,16.648865,-6.7123413,0,0.0,0.0,0.0,0.0
0.309417724,0.2985755,0.049330786,-0.9531103,-0.0074574905,0.99875337,0.049357,0.9543569,-0.00762898,0.29857117,0.57913697,0.03549241,-0.81445724,-0.01667056,0.9993585,0.03169608,0.8150598,-0.0047789123,0.57935715,-0.0071868896,-0.035308838,-0.002243042,9.3589325,-0.07481384,2.927948,0.0053253174,-0.008514404,0.0021209717,-24.23706,17.007446,-6.7123413,0,0.0,0.0,0.0,0.0
0.313690185,0.29856223,0.049309805,-0.95311546,-0.007435623,0.99875426,0.049341746,0.9543612,-0.007644574,0.29855695,0.57399577,0.035769265,-0.81807667,-0.016583096,0.9993484,0.032059744,0.81869036,-0.0048359144,0.5742149,0.007171631,-0.03036499,-0.064331055,9.3589325,-0.07496643,2.9277954,0.0095825195,0.0095825195,0.004257202,-24.23706,17.007446,-6.7123413,0,0.0,0.0,0.0,0.0
0.317993164,0.29857194,0.04932518,-0.95311165,-0.007528479,0.9987541,0.049328882,0.9543573,-0.00755274,0.29857132,0.5689351,0.036040153,-0.8215923,-0.016493063,0.9993383,0.03241611,0.822217,-0.0048920875,0.56915313,0.05505371,-0.03605652,-0.16983032,9.3589325,-0.07406616,2.927948,0.012771606,-0.0021209717,0.004257202,-24.23706,17.007446,-6.7123413,0,0.0,0.0,0.0,0.0
0.322265625,0.29872748,0.023496604,-0.95404917,2.3189746E-4,0.999695,0.024693394,0.9543384,-0.0075978367,0.29863092,0.563955,0.036305934,-0.8250071,-0.016402876,0.9993285,0.032764655,0.82564265,-0.004945301,0.5641718,-0.0118255615,-0.08828735,0.18391418,9.35878,-0.07450867,2.928543,-0.0010681152,0.019165039,-0.0234375,-23.339844,17.1875,-6.8847656,0,0.0,0.0,0.0,0.0
0.326538086,0.29876027,0.02354575,-0.9540377,2.1640211E-4,0.9996939,0.024740314,0.9543281,-0.0075978786,0.2986637,0.5590639,0.036049798,-0.8283404,-0.016021272,0.99933743,0.03267859,0.8289697,-0.0049983514,0.5592711,-0.045196533,-0.021255493,0.08305359,9.358627,-0.07450867,2.9288483,0.0053253174,0.011703491,-0.007461548,-23.339844,17.1875,-6.8847656,0,0.0,0.0,0.0,0.0
0.330810547,0.29879305,0.023594804,-0.9540263,2.0093145E-4,0.9996928,0.024787152,0.9543179,-0.0075979214,0.2986965,0.5542521,0.035799768,-0.8315786,-0.015649425,0.9993462,0.032591794,0.8322017,-0.0050503425,0.55445,0.017211914,0.0026855469,0.10668945,9.358475,-0.07450867,2.9291534,0.020233154,0.0021362305,0.0010681152,-23.339844,17.1875,-6.8847656,0,0.0,0.0,0.0,0.0
0.335083008,0.2987499,0.016182782,-0.95419425,0.0023735869,0.9998405,0.017700076,0.9543285,-0.007552758,0.2986638,0.5495188,0.035555717,-0.83472437,-0.015287079,0.99935466,0.03250442,0.83534145,-0.0051012943,0.5497078,-0.040405273,0.11715698,-0.09890747,9.358627,-0.07406616,2.9288483,0.0095825195,-0.0010681152,-0.0063934326,-23.519897,18.08319,-7.05719,0,0.0,0.0,0.0,0.0
0.339355468,0.2987499,0.016182782,-0.95419425,0.0023735869,0.9998405,0.017700076,0.9543285,-0.007552758,0.2986638,0.5448645,0.035168365,-0.83778626,-0.014853386,0.9993681,0.03229112,0.8383925,-0.0051503237,0.5450425,-0.002090454,0.0070343018,0.0016479492,9.358627,-0.07406616,2.9288483,-0.0032043457,0.017028809,-0.0021362305,-23.519897,18.08319,-7.05719,0,0.0,0.0,0.0,0.0
0.343627929,0.2987037,0.016116673,-0.9542098,0.002364478,0.99984175,0.01762757,0.9543429,-0.0075216293,0.29861835,0.54028654,0.034788754,-0.84076166,-0.014431136,0.9993811,0.032078385,0.84135735,-0.005198373,0.5404542,-0.05491638,0.068984985,-0.16072083,9.35878,-0.07376099,2.9284058,0.0,0.011703491,0.0,-23.519897,18.08319,-7.05719,0,0.0,0.0,0.0,0.0
0.34790039,0.29736614,0.11753951,-0.9475009,-0.027983638,0.99303985,0.11440626,0.95435333,-0.0075060287,0.2985856,0.5357835,0.034415405,-0.84365374,-0.014019809,0.9993938,0.031864926,0.844239,-0.005244838,0.53594124,-0.01676941,0.05445862,-0.07421875,9.3589325,-0.0736084,2.9281006,0.008514404,0.0021362305,-0.0021362305,-24.23706,15.57312,-5.6747437,0,0.0,0.0,0.0,0.0
0.352203369,0.2973512,0.11751341,-0.94750875,-0.027987357,0.993043,0.114377625,0.95435786,-0.007492061,0.29857147,0.53108376,0.03533025,-0.8465824,-0.014836617,0.9993649,0.032398883,0.8471894,-0.0046461006,0.5312707,-0.0023956299,0.02558899,-0.040542603,9.3589325,-0.07347107,2.927948,0.014907837,-0.004257202,-0.0021362305,-24.23706,15.57312,-5.6747437,0,0.0,0.0,0.0,0.0
0.35647583,0.2972801,0.11738896,-0.94754654,-0.02795598,0.99305797,0.11425643,0.954381,-0.0074765724,0.29849806,0.5267039,0.03697816,-0.8492441,-0.015490174,0.99930495,0.033905122,0.84990764,-0.00470302,0.5269106,-0.03126526,0.03981018,-0.21696472,9.35907,-0.07331848,2.9272003,0.0021209717,-0.0021209717,-0.007461548,-24.23706,15.57312,-5.6747437,0,0.0,0.0,0.0,0.0
0.360748291,0.29808894,0.08008673,-0.9511725,-0.016776955,0.9967598,0.07866734,0.9543907,-0.0074920864,0.29846668,0.5223962,0.038590513,-0.8518293,-0.016114866,0.9992438,0.035386186,0.8525506,-0.004758491,0.522623,0.002105713,-0.02229309,-0.101760864,9.359222,-0.07347107,2.9269104,0.017044067,-0.0010681152,-0.0138549805,-23.878479,17.366028,-6.021118,0,0.0,0.0,0.0,0.0
0.365020752,0.2980774,0.08006908,-0.95117766,-0.016742354,0.99676096,0.078659564,0.9543949,-0.0075216834,0.29845244,0.518173,0.039421346,-0.85436684,-0.016324122,0.9992111,0.036204033,0.85512006,-0.0048131635,0.5184077,-0.036209106,-0.112976074,-0.048934937,9.359222,-0.07376099,2.9267578,0.0095825195,0.0010681152,0.0010681152,-23.878479,17.366028,-6.021118,0,0.0,0.0,0.0,0.0
0.36932373,0.29808998,0.08008832,-0.95117193,-0.016764108,0.99675936,0.07867302,0.9543905,-0.0075060893,0.29846662,0.5140219,0.040235184,-0.85683286,-0.016521025,0.99917835,0.037008334,0.8576179,-0.004867335,0.5142643,-0.0026855469,0.0688324,0.046676636,9.359222,-0.0736084,2.9269104,0.004257202,-0.012786865,-0.0053253174,-23.878479,17.366028,-6.021118,0,0.0,0.0,0.0,0.0
0.373809814,0.29806623,0.08134768,-0.9510725,-0.017168857,0.99665767,0.07986598,0.95439076,-0.0074765272,0.2984667,0.50994223,0.041033108,-0.8592294,-0.016707264,0.9991457,0.037799347,0.8600463,-0.00492011,0.5101921,-0.08888245,0.0541687,-0.044296265,9.359222,-0.07331848,2.9269104,-0.0032043457,-0.003189087,0.003189087,-24.954224,17.007446,-6.365967,0,0.0,0.0,0.0,0.0
0.379272461,0.29805374,0.08132709,-0.9510783,-0.017146677,0.9966592,0.079851225,0.954395,-0.0074921204,0.29845247,0.50593275,0.04184029,-0.8615576,-0.016896144,0.99911195,0.03859849,0.86240745,-0.004971239,0.50619036,0.006881714,-0.012710571,-0.020202637,9.359222,-0.07347107,2.9267578,0.004257202,-0.004257202,-0.004272461,-24.954224,17.007446,-6.365967,0,0.0,0.0,0.0,0.0
0.384735107,0.29809,0.081386544,-0.9510618,-0.017212387,0.99665475,0.079893276,0.95438254,-0.0074453433,0.29849368,0.50199264,0.042630885,-0.8638206,-0.017073886,0.9990782,0.039383907,0.86470336,-0.005021657,0.5022578,0.006881714,0.087371826,0.12779236,9.359222,-0.073013306,2.9272003,-0.0010681152,0.0010681152,-0.009597778,-24.954224,17.007446,-6.365967,0,0.0,0.0,0.0,0.0
0.390167236,0.2984266,0.056673527,-0.9527485,-0.0097934995,0.9983647,0.056319386,0.9543823,-0.007476461,0.29849362,0.49812195,0.043406837,-0.8660199,-0.017242894,0.9990446,0.040156476,0.86693555,-0.005070131,0.4983945,-0.07450867,-0.07511902,-0.020645142,9.359222,-0.07331848,2.9272003,0.007446289,-0.014907837,0.0,-24.415588,18.621826,-6.539917,0,0.0,0.0,0.0,0.0
0.395629883,0.29841265,0.05665329,-0.952754,-0.009786582,0.9983659,0.05630023,0.9543868,-0.007476496,0.29847947,0.49432772,0.043672256,-0.8681779,-0.01715669,0.9990328,0.040485933,0.8691063,-0.005118258,0.49459884,-0.060150146,0.01586914,-0.068374634,9.359222,-0.07331848,2.9270477,-0.0032043457,-0.0095825195,0.004257202,-24.415588,18.621826,-6.539917,0,0.0,0.0,0.0,0.0
0.401092529,0.2983115,0.05650645,-0.95279455,-0.009693493,0.99837404,0.056174643,0.9544194,-0.007521631,0.29837412,0.49060002,0.043931965,-0.87027675,-0.017069522,0.9990212,0.040808458,0.87121767,-0.0051654233,0.49086967,0.040100098,0.016311646,-3.0517578E-4,9.359528,-0.07376099,2.9260101,0.013839722,-0.012786865,-0.0063934326,-24.415588,18.621826,-6.539917,0,0.0,0.0,0.0,0.0
0.406402588,0.29845196,0.027698604,-0.95402265,-0.0011165193,0.99958825,0.028672246,0.954424,-0.007492104,0.29836002,0.48693642,0.044183534,-0.8723191,-0.016979411,0.9990098,0.041122437,0.87327236,-0.0052125473,0.4872045,0.006576538,0.10218811,-0.04324341,9.359528,-0.07347107,2.9258575,0.003189087,-0.0234375,0.01171875,-24.23706,18.08319,-7.05719,0,0.0,0.0,0.0,0.0
0.410797119,0.2983597,0.02756213,-0.9540555,-0.0010878686,0.99959207,0.02853745,0.9544528,-0.007476538,0.29826796,0.48334718,0.043853935,-0.8743296,-0.01661059,0.9990241,0.040925592,0.87527114,-0.0052581388,0.48360395,-0.012863159,0.10203552,0.06300354,9.3598175,-0.07331848,2.9249573,-0.004272461,-0.018112183,-0.004272461,-24.23706,18.08319,-7.05719,0,0.0,0.0,0.0,0.0
0.41519165,0.2983274,0.027514372,-0.95406693,-0.0010578311,0.9995933,0.028496535,0.954463,-0.0074920557,0.29823518,0.47981998,0.0435282,-0.8762865,-0.016249884,0.9990381,0.0407279,0.87721646,-0.0053025074,0.48006576,0.044448853,-0.07496643,-0.037246704,9.35997,-0.07347107,2.924652,-0.008514404,-0.030883789,0.0,-24.23706,18.08319,-7.05719,0,0.0,0.0,0.0,0.0
0.419586181,0.29513106,0.17048079,-0.9401245,-0.043792278,0.9853324,0.16493112,0.95445263,-0.0075061005,0.2982679,0.47537,0.04222541,-0.8787721,-0.015857046,0.9990965,0.039429218,0.879643,-0.004808737,0.47561008,-0.0655365,-0.07962036,-0.09022522,9.3598175,-0.0736084,2.9249573,0.017044067,-0.017044067,0.0,-24.595642,17.007446,-4.637146,0,0.0,0.0,0.0,0.0
0.423980713,0.29510564,0.17043982,-0.9401399,-0.043745134,0.98533934,0.16490273,0.95446277,-0.0075371773,0.2982351,0.47537,0.04222541,-0.8787721,-0.015857046,0.9990965,0.039429218,0.879643,-0.004808737,0.47561008,-0.06568909,-0.079315186,-0.089920044,9.35997,-0.073913574,2.924652,0.017044067,-0.017044067,0.0,-24.595642,17.007446,-4.637146,0,0.0,0.0,0.0,0.0
0.428375244,0.29510325,0.17043601,-0.9401413,-0.04375862,0.98534006,0.16489448,0.9544628,-0.0075216177,0.29823512,0.4685653,0.047330264,-0.88216007,-0.017854804,0.99886715,0.04410822,0.88324845,-0.004916784,0.46887958,-0.0034332275,0.025878906,-0.027679443,9.35997,-0.07376099,2.924652,-0.0021362305,-0.01171875,-0.0021362305,-24.595642,17.007446,-4.637146,0,0.0,0.0,0.0,0.0
0.432769775,0.29779333,-0.033283476,-0.95405,0.017115617,0.99941754,-0.02952379,0.9544769,-0.007537166,0.29818952,0.46525195,0.04980587,-0.88377607,-0.018798485,0.9987466,0.046388913,0.8849787,-0.004968881,0.46560505,-0.089782715,-0.012268066,-0.12779236,9.360123,-0.073913574,2.9242096,-0.0032043457,-0.015991211,-0.0010681152,-22.802734,18.08319,-7.748413,0,0.0,0.0,0.0,0.0
0.437164306,0.29776478,-0.033322655,-0.95405746,0.017111637,0.9994163,-0.029566312,0.9544859,-0.0075216773,0.2981612,0.46207294,0.04814552,-0.8855341,-0.017816361,0.99882776,0.04500857,0.88666296,-0.005020248,0.46238905,0.0012054443,0.025878906,-0.0796051,9.360123,-0.07376099,2.9239044,0.0010681152,0.0095825195,0.0010681152,-22.802734,18.08319,-7.748413,0,0.0,0.0,0.0,0.0
0.441558838,0.29773268,-0.033366796,-0.954066,0.01712377,0.99941486,-0.029609025,0.95449567,-0.0075216317,0.29812986,0.45894918,0.046517465,-0.8872439,-0.016863687,0.9989046,0.043648582,0.88830245,-0.005070276,0.4592309,-0.046844482,-0.012420654,-0.117614746,9.360275,-0.07376099,2.9236145,-0.0063934326,0.008514404,0.004257202,-22.802734,18.08319,-7.748413,0,0.0,0.0,0.0,0.0
0.445953369,0.29791105,0.0675873,-0.95219797,-0.0129559,0.99768484,0.06676251,0.95450574,-0.0075527076,0.298097,0.45587993,0.044920973,-0.88890696,-0.015939208,0.9989774,0.042308897,0.88989854,-0.0051193037,0.45612973,9.0026855E-4,-0.06478882,-0.06463623,9.360428,-0.07406616,2.9233093,0.003189087,0.022354126,-0.0021362305,-25.312805,17.007446,-6.7123413,0,0.0,0.0,0.0,0.0
0.4503479,0.2980205,0.067768864,-0.95215076,-0.013003,0.9976723,0.06693894,0.9544709,-0.0075683612,0.29820806,0.452833,0.04537457,-0.89044,-0.015956748,0.9989567,0.042789504,0.89145255,-0.0051679723,0.4530846,-0.07525635,-0.07901001,-0.046539307,9.35997,-0.07421875,2.9243622,-0.0021362305,0.01914978,-0.0032043457,-25.312805,17.007446,-6.7123413,0,0.0,0.0,0.0,0.0
0.454742431,0.29801327,0.06775678,-0.95215404,-0.013043631,0.9976737,0.06691352,0.95447266,-0.007521573,0.29820377,0.44984403,0.045822725,-0.8919309,-0.015972387,0.998936,0.043264434,0.8929643,-0.00521598,0.45009726,0.073028564,0.09291077,0.015716553,9.360123,-0.07376099,2.9243622,-0.0095825195,0.026611328,-0.007461548,-25.312805,17.007446,-6.7123413,0,0.0,0.0,0.0,0.0
0.459136963,0.2962841,0.14041403,-0.944722,-0.03476873,0.99006426,0.13624907,0.95446676,-0.0075216494,0.29822233,0.44690987,0.046261664,-0.893382,-0.015985526,0.9989155,0.043729786,0.8944361,-0.0052620927,0.44716474,0.010925293,0.011520386,0.058654785,9.35997,-0.07376099,2.9245148,-0.0010681152,0.013824463,0.003189087,-24.415588,16.828918,-5.155945,0,0.0,0.0,0.0,0.0
0.463531494,0.2962647,0.1403826,-0.9447327,-0.034771446,0.99006885,0.13621512,0.9544727,-0.007506014,0.29820377,0.44400635,0.048151612,-0.8947289,-0.016644532,0.99882597,0.045494005,0.8958691,-0.0053072837,0.44428653,0.17358398,0.030517578,-0.0034484863,9.360123,-0.0736084,2.9243622,0.003189087,-0.0032043457,-0.0053253174,-24.415588,16.828918,-5.155945,0,0.0,0.0,0.0,0.0
0.467926025,0.2962269,0.14032127,-0.9447537,-0.034732226,0.99007744,0.1361628,0.9544859,-0.0075216773,0.2981612,0.4411552,0.05000296,-0.8960367,-0.017279433,0.9987347,0.04722661,0.8972645,-0.005351259,0.44146106,0.025146484,-0.026794434,-0.0796051,9.360123,-0.07376099,2.9239044,0.004257202,-0.009597778,0.0010681152,-24.415588,16.828918,-5.155945,0,0.0,0.0,0.0,0.0
0.472320556,0.29621273,0.14029835,-0.94476163,-0.034708295,0.99008065,0.13614613,0.95449114,-0.007537156,0.29814398,0.43835527,0.05181587,-0.89730704,-0.017890276,0.9986421,0.04892775,0.89862376,-0.0053946674,0.43868703,0.0058288574,-0.041000366,-0.055526733,9.360275,-0.073913574,2.923767,0.0053253174,0.014892578,-0.004257202,-24.415588,16.828918,-5.155945,0,0.0,0.0,0.0,0.0
0.476715088,0.2962269,0.14032127,-0.9447537,-0.034732226,0.99007744,0.1361628,0.9544859,-0.0075216773,0.2981612,0.43560624,0.053591892,-0.89854056,-0.018478312,0.9985481,0.050598513,0.89994764,-0.005437517,0.43596408,-0.013168335,0.021102905,0.044891357,9.360123,-0.07376099,2.9239044,0.020233154,0.0095825195,-0.0032043457,-24.415588,16.828918,-5.155945,0,0.0,0.0,0.0,0.0
0.481109619,0.29621467,0.14030153,-0.94476044,-0.034694545,0.99008,0.13615379,0.9544911,-0.007552715,0.29814395,0.43290794,0.055332698,-0.8997383,-0.019045372,0.9984529,0.05223986,0.90123695,-0.0054792003,0.43329203,-0.07556152,-0.07437134,-0.055526733,9.360275,-0.07406616,2.923767,-0.0053253174,0.011703491,-0.004257202,-24.415588,16.828918,-5.155945,0,0.0,0.0,0.0,0.0
0.48550415,0.29817995,-0.009510078,-0.95446235,0.010060141,0.9999262,-0.0068202196,0.9544567,-0.007568372,0.2982536,0.43114117,0.05716449,-0.90047187,-0.019643389,0.9983492,0.05397287,0.9020707,-0.0055816085,0.43155235,-0.07032776,-0.06463623,-0.008682251,9.3598175,-0.07421875,2.9248047,-0.0021362305,0.014892578,0.0,-24.23706,17.72461,-7.748413,0,0.0,0.0,0.0,0.0
0.489898681,0.29822302,-0.009445621,-0.95444953,0.010054486,0.9999267,-0.006754102,0.9544433,-0.0075822696,0.2982961,0.42858538,0.05583249,-0.90177447,-0.018880958,0.9984243,0.052842937,0.903304,-0.005621344,0.42896426,0.03501892,-0.04055786,0.110580444,9.3598175,-0.07435608,2.9252625,0.008514404,0.024475098,-0.0010681152,-24.23706,17.72461,-7.748413,0,0.0,0.0,0.0,0.0
0.494293213,0.29828838,-0.00934773,-0.95443,0.0099530425,0.9999281,-0.0066827126,0.9544239,-0.007506107,0.29835996,0.42607683,0.05452832,-0.90304214,-0.018140528,0.9984961,0.051732976,0.9045051,-0.005660563,0.42642528,-0.06524658,0.0688324,-0.06239319,9.359528,-0.0736084,2.9258575,-0.008529663,0.0095825195,-0.0021362305,-24.23706,17.72461,-7.748413,0,0.0,0.0,0.0,0.0
0.498687744,0.29482275,0.18178283,-0.93810153,-0.04726194,0.9833103,0.17568998,0.95438236,-0.007460902,0.29849365,0.4236152,0.053252105,-0.9042756,-0.017423347,0.99856484,0.05064262,0.9056747,-0.0056974743,0.42393506,-0.08409119,0.015716553,-0.07331848,9.359222,-0.07316589,2.9272003,0.015975952,0.01914978,-0.0063934326,-23.698425,15.394592,-4.4647217,0,0.0,0.0,0.0,0.0
0.503082275,0.29480737,0.18175629,-0.9381115,-0.047265932,0.9833153,0.17566077,0.9543869,-0.0074453773,0.2984795,0.42113364,0.055838708,-0.9052781,-0.01834596,0.9984233,0.05304952,0.906813,-0.005732743,0.42149407,-0.07929993,0.053863525,-0.049224854,9.359222,-0.073013306,2.9270477,0.004257202,0.038330078,-0.0095825195,-23.698425,15.394592,-4.4647217,0,0.0,0.0,0.0,0.0
0.507476806,0.2948099,0.18176061,-0.9381099,-0.04725263,0.9833144,0.17566949,0.95438683,-0.007460937,0.29847947,0.4186966,0.058372684,-0.9062482,-0.019237584,0.9982782,0.05541249,0.9079224,-0.0057669953,0.41909865,0.06913757,-0.032165527,-0.015701294,9.359222,-0.07316589,2.9270477,0.007461548,0.01914978,0.0,-23.698425,15.394592,-4.4647217,0,0.0,0.0,0.0,0.0
0.511871338,0.29751053,0.10744816,-0.9486529,-0.025006596,0.99418277,0.104762636,0.95439094,-0.007445409,0.29846677,0.41630378,0.0608557,-0.90718675,-0.020099036,0.9981298,0.057732966,0.90900344,-0.005800874,0.41674832,0.07872009,0.034713745,-0.015563965,9.359222,-0.073013306,2.9269104,0.007461548,0.011703491,0.0010681152,-24.23706,17.007446,-5.6747437,0,0.0,0.0,0.0,0.0
0.516265869,0.29763177,0.10764089,-0.9485931,-0.025005091,0.9941614,0.10496609,0.9543532,-0.0075215884,0.29858556,0.4139852,0.0617892,-0.9081841,-0.02030991,0.9980722,0.058646787,0.91005707,-0.005833765,0.41444206,-0.11732483,-0.089035034,0.05027771,9.3589325,-0.07376099,2.9281006,0.004257202,0.015960693,-0.0053253174,-24.23706,17.007446,-5.6747437,0,0.0,0.0,0.0,0.0
0.5206604,0.29764062,0.10765498,-0.94858867,-0.024965411,0.9941595,0.10499334,0.9543515,-0.007568377,0.2985899,0.41171262,0.06270785,-0.90915376,-0.020512536,0.9980147,0.05954778,0.91108286,-0.005867522,0.41218153,-0.20335388,-0.10295105,-0.03591919,9.35878,-0.07421875,2.9281006,-0.0053253174,0.023406982,0.010650635,-24.23706,17.007446,-5.6747437,0,0.0,0.0,0.0,0.0
0.525054931,0.29867467,0.042751893,-0.9533969,-0.0055663055,0.9990572,0.043055594,0.9543388,-0.0075527164,0.29863104,0.40948325,0.063608356,-0.91009754,-0.020706158,0.9979575,0.06043266,0.9120827,-0.005901539,0.40996397,-0.08364868,0.0357666,0.083358765,9.35878,-0.07406616,2.928543,-0.012771606,0.008514404,-0.0053253174,-25.491333,16.828918,-7.23114,0,0.0,0.0,0.0,0.0
0.529449463,0.2987065,0.042805433,-0.95338464,-0.0055985856,0.9990551,0.04310186,0.9543286,-0.007537199,0.29866385,0.4073237,0.063191466,-0.9110951,-0.020361839,0.9979838,0.060114685,0.9130569,-0.005934563,0.4077891,0.08888245,0.045196533,0.10220337,9.358627,-0.073913574,2.9288483,0.010650635,-0.0021362305,-0.0032043457,-25.491333,16.828918,-7.23114,0,0.0,0.0,0.0,0.0
0.533843994,0.29867405,0.042750835,-0.95339715,-0.005580824,0.9990573,0.043049935,0.95433885,-0.0075371573,0.29863107,0.4052055,0.06278397,-0.91206723,-0.020026753,0.9980093,0.059802644,0.91400623,-0.005966616,0.4056562,0.06478882,-0.0027008057,-0.031570435,9.35878,-0.073913574,2.928543,0.01171875,0.0,-0.0063934326,-25.491333,16.828918,-7.23114,0,0.0,0.0,0.0,0.0
0.538238525,0.2986845,0.037850402,-0.953601,-0.0041301907,0.99925506,0.03836886,0.9543429,-0.0075216293,0.29861835,0.40312672,0.06238353,-0.91301537,-0.019699404,0.99803424,0.05949466,0.91493213,-0.005998027,0.40356317,0.03605652,0.035461426,-0.026641846,9.35878,-0.07376099,2.9284058,-0.010635376,-0.0010681152,0.003189087,-24.595642,16.290283,-7.05719,0,0.0,0.0,0.0,0.0
0.542633056,0.29869717,0.037871607,-0.95359623,-0.004137072,0.9992542,0.03838903,0.9543389,-0.007521598,0.2986311,0.40108886,0.06189318,-0.9139458,-0.019340988,0.9980646,0.059101902,0.91583496,-0.006028499,0.40150964,0.0025482178,0.0019378662,0.030685425,9.35878,-0.07376099,2.928543,0.0010681152,-0.010665894,0.004257202,-24.595642,16.290283,-7.05719,0,0.0,0.0,0.0,0.0
0.547027588,0.29865256,0.03779687,-0.95361316,-0.004098076,0.99925697,0.03832255,0.9543531,-0.007537147,0.29858553,0.3990898,0.061413046,-0.91485286,-0.01899173,0.9980941,0.0587161,0.91671515,-0.006058361,0.3994955,0.09336853,-0.036209106,-0.11730957,9.3589325,-0.073913574,2.9281006,0.0,-0.0032043457,0.0,-24.595642,16.290283,-7.05719,0,0.0,0.0,0.0,0.0
0.551422119,0.2985239,-0.0032589086,-0.9543966,0.008166345,0.9999663,-8.6017675E-4,0.9543672,-0.007537148,0.29854044,0.39637062,0.060955834,-0.9160648,-0.019445539,0.998127,0.058002472,0.9178846,-0.005177103,0.39681354,0.0070343018,-0.017059326,-0.097717285,9.35907,-0.073913574,2.927658,0.0053253174,-0.01171875,-0.012786865,-25.132751,17.904663,-7.9223633,0,0.0,0.0,0.0,0.0
0.55581665,0.2985695,-0.0031887526,-0.95438254,0.008175136,0.9999663,-7.835422E-4,0.954353,-0.0075682653,0.2985855,0.39447546,0.05967311,-0.9169669,-0.018773643,0.9982043,0.05688342,0.9187147,-0.0052243043,0.39488736,-0.07901001,-0.06463623,0.08380127,9.3589325,-0.07421875,2.9281006,0.004257202,-0.008529663,0.0010681152,-25.132751,17.904663,-7.9223633,0,0.0,0.0,0.0,0.0
0.560211181,0.2986026,-0.0031376875,-0.95437235,0.008173317,0.99996626,-7.303308E-4,0.9543425,-0.0075823097,0.2986182,0.39261618,0.058417343,-0.91784525,-0.018119812,0.9982783,0.055785693,0.9195239,-0.005271184,0.39299875,0.045639038,-0.04534912,0.13137817,9.35878,-0.07435608,2.9284058,0.019165039,-0.009597778,0.004257202,-25.132751,17.904663,-7.9223633,0,0.0,0.0,0.0,0.0
0.564605713,0.29847938,-0.016547577,-0.95427257,0.012148971,0.99983454,-0.013537666,0.9543388,-0.0075527164,0.29863104,0.39079222,0.057187624,-0.9187007,-0.017483663,0.99834925,0.054708507,0.9203129,-0.0053174067,0.39114702,0.021697998,0.0644989,0.030685425,9.35878,-0.07406616,2.928543,0.004257202,-0.017044067,-0.0032043457,-24.415588,16.470337,-7.9223633,0,0.0,0.0,0.0,0.0
0.569000244,0.29840398,-0.016669646,-0.954294,0.012184412,0.9998326,-0.013655098,0.954362,-0.0075527765,0.2985572,0.389007,0.05571462,-0.9195485,-0.016760703,0.99843234,0.05340365,0.9210823,-0.005362113,0.38933098,0.03590393,0.026184082,-0.17926025,9.3589325,-0.07406616,2.9277954,0.008514404,0.0,-0.004257202,-24.415588,16.470337,-7.9223633,0,0.0,0.0,0.0,0.0
0.573394775,0.29838693,-0.016697299,-0.9542989,0.012192358,0.99983203,-0.013681723,0.9543671,-0.0075527066,0.2985404,0.3872534,0.054268517,-0.92037475,-0.016056199,0.99851173,0.05212,0.9218335,-0.005405926,0.38754842,-0.0073242188,-0.021697998,-0.045043945,9.35907,-0.07406616,2.927658,-0.0010681152,0.0,-0.0063934326,-24.415588,16.470337,-7.9223633,0,0.0,0.0,0.0,0.0
0.577789306,0.29816067,0.079634145,-0.951188,-0.016588807,0.9967956,0.078252494,0.9543716,-0.007552742,0.29852626,0.3855319,0.05285067,-0.92117965,-0.015370392,0.99858755,0.050858967,0.9225665,-0.005448862,0.3857997,0.08364868,-0.0025482178,-0.016159058,9.35907,-0.07406616,2.9275055,0.0053253174,-0.005340576,0.008514404,-23.339844,17.546082,-5.847168,0,0.0,0.0,0.0,0.0
0.582183838,0.29816067,0.079634145,-0.951188,-0.016588807,0.9967956,0.078252494,0.9543716,-0.007552742,0.29852626,0.38381308,0.05338679,-0.9218662,-0.01544312,0.99855876,0.051398534,0.9232816,-0.00549094,0.3840844,-0.002532959,0.016616821,0.012573242,9.35907,-0.07406616,2.9275055,0.0,0.0,-0.0095825195,-23.339844,17.546082,-5.847168,0,0.0,0.0,0.0,0.0
0.586578369,0.29816878,0.07964615,-0.95118445,-0.016666107,0.9967951,0.07824095,0.95436764,-0.007476468,0.2985406,0.38212737,0.053912163,-0.9225357,-0.015512496,0.9985303,0.051927727,0.92397946,-0.0055321762,0.3824021,0.0022583008,0.18823242,0.012420654,9.35907,-0.07331848,2.927658,0.004257202,-0.007461548,0.0021362305,-23.339844,17.546082,-5.847168,0,0.0,0.0,0.0,0.0
0.5909729,0.29845053,0.057640545,-0.952683,-0.010069663,0.99830925,0.05724653,0.9543719,-0.0074920612,0.29852635,0.38047442,0.054427266,-0.92318845,-0.015580177,0.9985022,0.052446373,0.92466027,-0.0055710627,0.38075253,-0.05999756,-0.03665161,-0.025741577,9.35907,-0.07347107,2.9275055,0.01171875,0.0010528564,-0.0063934326,-24.057007,16.470337,-6.539917,0,0.0,0.0,0.0,0.0
0.595367431,0.29837525,0.05751826,-0.95271397,-0.0100003015,0.99831617,0.057139464,0.95439625,-0.0075215716,0.298448,0.37885997,0.05449154,-0.9238484,-0.015477308,0.99849844,0.052547567,0.9253246,-0.005609483,0.37913448,0.001953125,-0.10340881,-0.23568726,9.359375,-0.07376099,2.9267578,0.010650635,-0.0010681152,-0.010650635,-24.057007,16.470337,-6.539917,0,0.0,0.0,0.0,0.0
0.599761963,0.2983174,0.057424333,-0.9527377,-0.0099538155,0.9983214,0.0570551,0.95441484,-0.007537155,0.29838824,0.3772753,0.054552082,-0.9244931,-0.015374647,0.9984949,0.052644536,0.92597353,-0.0056477254,0.3775462,0.020950317,-0.017059326,-0.16804504,9.359528,-0.073913574,2.9261627,0.003189087,-0.0010681152,0.0053253174,-24.057007,16.470337,-6.539917,0,0.0,0.0,0.0,0.0
0.604156494,0.29782972,0.08790654,-0.95056295,-0.019032031,0.99609995,0.086154625,0.95442927,-0.007568266,0.2983412,0.37571996,0.054609537,-0.9251228,-0.015272692,0.9984916,0.052737758,0.9266074,-0.005685514,0.37598726,-0.01272583,-0.09336853,-0.10534668,9.35968,-0.07421875,2.925705,0.0021209717,0.003189087,-0.0053253174,-24.23706,17.007446,-6.021118,0,0.0,0.0,0.0,0.0
0.608551025,0.29786143,0.08795685,-0.95054835,-0.019049997,0.99609554,0.086202,0.954419,-0.0075683077,0.298374,0.37418464,0.055276208,-0.9257053,-0.015400633,0.9984547,0.053395078,0.9272263,-0.005723169,0.3744577,0.044891357,0.0023956299,0.06674194,9.359528,-0.07421875,2.9260101,0.0095825195,0.010650635,0.004257202,-24.23706,17.007446,-6.021118,0,0.0,0.0,0.0,0.0
0.612945556,0.29789048,0.08800297,-0.950535,-0.019081365,0.9960916,0.08624076,0.95440936,-0.007552795,0.2984054,0.37267968,0.05593053,-0.926273,-0.015524361,0.99841803,0.054040696,0.9278302,-0.0057600723,0.37295842,0.011520386,0.0357666,0.09996033,9.359375,-0.07406616,2.9263,0.003189087,0.0,-0.018112183,-24.23706,17.007446,-6.021118,0,0.0,0.0,0.0,0.0
0.617340088,0.29796964,0.0838568,-0.95088494,-0.017813366,0.996449,0.08229301,0.9544091,-0.0075823567,0.29840532,0.37120438,0.05657266,-0.9268262,-0.015644286,0.9983816,0.054674625,0.92841935,-0.005795927,0.37148866,-0.041152954,-0.07887268,0.004196167,9.359375,-0.07435608,2.9263,-0.0053253174,0.02128601,0.003189087,-23.698425,17.904663,-5.847168,0,0.0,0.0,0.0,0.0
0.621734619,0.2979834,0.083877005,-0.9508788,-0.017820666,0.9964472,0.08231201,0.95440465,-0.0075823213,0.2984195,0.37066785,0.057925045,-0.9269574,-0.016905153,0.99830866,0.055623785,0.9286117,-0.004947591,0.37102017,0.073776245,0.0073242188,0.0471344,9.359375,-0.07435608,2.9264526,-0.0063934326,0.015960693,-0.017044067,-23.698425,17.904663,-5.847168,0,0.0,0.0,0.0,0.0
0.62612915,0.29795295,0.083832316,-0.9508923,-0.017804641,0.996451,0.08226994,0.9544145,-0.0075822757,0.29838815,0.36923268,0.05844454,-0.92749745,-0.016962666,0.9982781,0.056151897,0.9291822,-0.005000286,0.3695883,-0.055664063,0.0073242188,-0.067489624,9.359528,-0.07435608,2.9261627,0.0010681152,0.012756348,-0.0063934326,-23.698425,17.904663,-5.847168,0,0.0,0.0,0.0,0.0
0.630523681,0.2970083,0.123937175,-0.94679755,-0.029817818,0.9922612,0.12053464,0.9544092,-0.0075683533,0.29840535,0.3678248,0.058952738,-0.92802453,-0.017017119,0.998248,0.056668907,0.9297394,-0.0050519262,0.36818355,0.011520386,0.03591919,0.023345947,9.359375,-0.07421875,2.9263,0.0095825195,0.007446289,-0.0010681152,-24.057007,18.263245,-5.155945,0,0.0,0.0,0.0,0.0
0.634918213,0.29699355,0.123915635,-0.946805,-0.029796023,0.99226373,0.12051877,0.9544145,-0.0075822757,0.29838815,0.3664308,0.06025584,-0.9284921,-0.017364832,0.9981699,0.057924617,0.93028325,-0.005102255,0.36680654,-0.026931763,-0.04534912,-0.014816284,9.359528,-0.07435608,2.9261627,-0.0032043457,0.007446289,-0.0032043457,-24.057007,18.263245,-5.155945,0,0.0,0.0,0.0,0.0
0.639312744,0.29698008,0.12389599,-0.94681185,-0.029788315,0.99226624,0.12050047,0.9544189,-0.0075823106,0.29837397,0.36506328,0.06153234,-0.92894703,-0.017701555,0.99809176,0.05915595,0.9308144,-0.0051518558,0.36545587,0.0018005371,-0.0022583008,-0.06254578,9.359528,-0.07435608,2.9260101,0.018112183,0.003189087,0.0063934326,-24.057007,18.263245,-5.155945,0,0.0,0.0,0.0,0.0
0.643707275,0.29801002,-0.033091106,-0.953989,0.017137732,0.9994233,-0.029313553,0.9544089,-0.007613475,0.29840526,0.36372182,0.06278282,-0.9293894,-0.018027924,0.9980136,0.06036324,0.9313332,-0.0052004657,0.36413118,-0.122558594,-0.078567505,0.056869507,9.359375,-0.074661255,2.9263,-0.0053253174,0.006378174,-0.0010681152,-22.2641,17.904663,-7.575989,0,0.0,0.0,0.0,0.0
0.648101806,0.29801002,-0.033091106,-0.953989,0.017137732,0.9994233,-0.029313553,0.9544089,-0.007613475,0.29840526,0.36246282,0.06086804,-0.9300085,-0.017203566,0.998132,0.05862171,0.93183947,-0.005248726,0.36283287,-0.026779175,-0.016311646,-0.010177612,9.359375,-0.074661255,2.9263,0.004257202,-0.0032043457,-0.012786865,-22.2641,17.904663,-7.575989,0,0.0,0.0,0.0,0.0
0.652496338,0.2980385,-0.033052478,-0.95398146,0.017141858,0.99942446,-0.029271556,0.9543999,-0.007628963,0.29843357,0.36122656,0.058991343,-0.9306103,-0.01640037,0.99824446,0.05691269,0.9323339,-0.0052960212,0.36155987,-0.017211914,-0.030517578,0.09486389,9.359375,-0.07481384,2.9266052,0.0010681152,0.0095825195,-0.010650635,-22.2641,17.904663,-7.575989,0,0.0,0.0,0.0,0.0
0.656890869,0.29840073,-0.009922755,-0.9543891,0.010257593,0.99992156,-0.007189,0.9543856,-0.0076445327,0.29847908,0.36001322,0.057152748,-0.93119496,-0.015617757,0.99835116,0.055236463,0.9328165,-0.00534268,0.36031222,0.035614014,-0.04473877,0.113586426,9.359222,-0.07496643,2.9270477,0.004257202,-0.0063934326,0.0053253174,-23.161316,15.57312,-7.4035645,0,0.0,0.0,0.0,0.0
0.6612854,0.2984006,-0.009922975,-0.95438915,0.010271023,0.99992144,-0.007185031,0.95438546,-0.007658535,0.29847905,0.358816,0.055812735,-0.93173814,-0.015020911,0.9984267,0.054022886,0.9332874,-0.0053887176,0.35908982,0.016464233,-0.0206604,0.013031006,9.359222,-0.07510376,2.9270477,-0.008529663,-0.007461548,-0.007461548,-23.161316,15.57312,-7.4035645,0,0.0,0.0,0.0,0.0
0.665679931,0.29843363,-0.009869168,-0.95437944,0.01028495,0.9999218,-0.0071240226,0.95437497,-0.007689696,0.29851174,0.35764113,0.05449943,-0.9322675,-0.014438819,0.998499,0.052832168,0.9337474,-0.005434114,0.3578912,-0.0073242188,-0.106536865,0.08934021,9.35907,-0.075408936,2.927353,0.0095825195,0.0,0.013839722,-23.161316,15.57312,-7.4035645,0,0.0,0.0,0.0,0.0
0.670074463,0.2986097,0.02286473,-0.95410144,4.816684E-4,0.99970925,0.024108456,0.9543752,-0.007658578,0.29851183,0.35648906,0.05321337,-0.9327829,-0.0138711715,0.9985681,0.05166503,0.93419653,-0.005479226,0.35671672,-0.045639038,0.04638672,0.12284851,9.35907,-0.07510376,2.927353,0.0053253174,0.0,-0.0021362305,-23.878479,17.366028,-7.05719,0,0.0,0.0,0.0,0.0
0.674468994,0.2986541,0.022932177,-0.9540859,4.3217372E-4,0.999708,0.024164021,0.9543614,-0.007629016,0.298557,0.35648906,0.05321337,-0.9327829,-0.0138711715,0.9985681,0.05166503,0.93419653,-0.005479226,0.35671672,-0.04550171,0.0460968,0.122406006,9.3589325,-0.07481384,2.9277954,0.0053253174,0.0,-0.0021362305,-23.878479,17.366028,-7.05719,0,0.0,0.0,0.0,0.0
0.678863525,0.2986683,0.022953706,-0.95408094,4.2534992E-4,0.99970746,0.024184562,0.9543569,-0.00762898,0.29857117,0.3542342,0.052014973,-0.9337091,-0.013240585,0.99863076,0.050608363,0.935063,-0.005564358,0.3544379,0.0023956299,0.022155762,0.021697998,9.3589325,-0.07481384,2.927948,0.004257202,-0.008529663,-0.0021362305,-23.878479,17.366028,-7.05719,0,0.0,0.0,0.0,0.0
0.683258056,0.29862353,0.02288579,-0.95409656,4.6162447E-4,0.99970883,0.024124369,0.9543708,-0.007644539,0.29852602,0.35313973,0.051434096,-0.9341557,-0.012936768,0.9986606,0.050095204,0.93548113,-0.005605651,0.3533321,0.07887268,-0.04953003,-0.10235596,9.35907,-0.07496643,2.9275055,0.008514404,-0.0010681152,0.0,-23.878479,17.366028,-7.05719,0,0.0,0.0,0.0,0.0
0.687652588,0.29859486,0.022842266,-0.9541066,4.6056416E-4,0.99971,0.024078194,0.95437986,-0.0076290513,0.29849774,0.35137418,0.05078335,-0.93485683,-0.013304671,0.9986978,0.04925065,0.9361406,-0.0048674447,0.35159227,0.0022583008,0.022155762,-0.06852722,9.35907,-0.07481384,2.9272003,0.0053253174,-0.010665894,-0.010650635,-23.878479,17.366028,-7.05719,0,0.0,0.0,0.0,0.0
0.692047119,0.2985904,0.02283554,-0.9541081,4.6257628E-4,0.9997101,0.024071736,0.95438117,-0.0076289377,0.29849327,0.35033414,0.050224844,-0.9352773,-0.013001787,0.99872583,0.048761882,0.9365346,-0.004922677,0.35054076,-0.026626587,0.022155762,-0.025436401,9.359222,-0.07481384,2.9272003,-0.007461548,-0.01171875,0.0,-23.878479,17.366028,-7.05719,0,0.0,0.0,0.0,0.0
0.69644165,0.29853237,0.0382489,-0.9536328,-0.004213452,0.9992396,0.03875912,0.95439017,-0.0075527662,0.29846653,0.34931418,0.049677353,-0.93568784,-0.012705984,0.9987529,0.04828215,0.9369195,-0.0049768025,0.34950975,0.006881714,0.1889801,-0.058670044,9.359222,-0.07406616,2.9269104,0.0063934326,-0.014923096,0.0,-24.057007,16.111755,-6.8847656,0,0.0,0.0,0.0,0.0
0.700836181,0.29848516,0.0381708,-0.9536506,-0.004203059,0.9992427,0.038680147,0.954405,-0.0075372,0.2984196,0.34830943,0.049448844,-0.93607444,-0.012525955,0.998764,0.048099615,0.9372959,-0.005028322,0.3484983,-0.079452515,0.021255493,-0.14918518,9.359375,-0.073913574,2.9264526,0.0095825195,-0.007461548,-0.0095825195,-24.057007,16.111755,-6.8847656,0,0.0,0.0,0.0,0.0
0.705230713,0.29849926,0.038194124,-0.95364535,-0.004210634,0.99924195,0.03870233,0.9544006,-0.0075371657,0.29843378,0.34732345,0.04922334,-0.9364527,-0.012349622,0.9987749,0.04791884,0.9376641,-0.0050785,0.34750584,-0.069885254,0.035614014,-9.0026855E-4,9.359375,-0.073913574,2.9266052,0.0,0.003189087,0.004257202,-24.057007,16.111755,-6.8847656,0,0.0,0.0,0.0,0.0
0.709625244,0.29843313,0.047080144,-0.95326865,-0.0069225123,0.9988631,0.047164787,0.9544054,-0.0074765203,0.29841974,0.34635702,0.04900281,-0.93682206,-0.012177378,0.99878544,0.047741808,0.93802375,-0.005127674,0.3465331,-0.0028381348,0.15470886,-0.019897461,9.359375,-0.07331848,2.9264526,0.018112183,0.0053253174,0.0010681152,-24.23706,17.72461,-6.7123413,0,0.0,0.0,0.0,0.0
0.714019775,0.29848015,0.047151446,-0.95325035,-0.006931301,0.99885964,0.047237143,0.9543907,-0.0074920864,0.29846668,0.34540707,0.048964366,-0.93717474,-0.0120715145,0.9987871,0.047734313,0.9383753,-0.005174651,0.34557918,-0.08888245,-0.07017517,0.080200195,9.359222,-0.07347107,2.9269104,0.003189087,-0.008529663,-0.0010681152,-24.23706,17.72461,-6.7123413,0,0.0,0.0,0.0,0.0
0.718414306,0.29846114,0.047122546,-0.95325774,-0.0069366493,0.998861,0.047205023,0.95439655,-0.007476451,0.2984481,0.3444766,0.04892811,-0.937519,-0.011968036,0.9987886,0.04772824,0.9387186,-0.005221,0.34464487,-0.017211914,0.03981018,-0.048934937,9.359375,-0.07331848,2.9267578,0.003189087,0.004257202,-0.0021362305,-24.23706,17.72461,-6.7123413,0,0.0,0.0,0.0,0.0
0.722808838,0.29847705,0.047400575,-0.953239,-0.0070354086,0.998848,0.0474656,0.9543908,-0.0074609676,0.2984667,0.34356406,0.048892006,-0.9378557,-0.011866731,0.99879014,0.047721494,0.93905425,-0.0052661095,0.3437286,-0.0074768066,0.058807373,0.056259155,9.359222,-0.07316589,2.9269104,-0.0010681152,0.0053253174,0.0010681152,-24.77417,17.546082,-6.8847656,0,0.0,0.0,0.0,0.0
0.727203369,0.29850572,0.047445405,-0.9532278,-0.0070071984,0.99884564,0.047521636,0.9543821,-0.007506023,0.29849356,0.34266973,0.04886218,-0.93818444,-0.011769691,0.9987914,0.04771984,0.93938214,-0.0053100064,0.34283066,0.040405273,-0.12271118,0.0894928,9.359222,-0.0736084,2.9272003,0.0053253174,-0.004272461,0.0095825195,-24.77417,17.546082,-6.8847656,0,0.0,0.0,0.0,0.0
0.7315979,0.29846376,0.04737977,-0.9532442,-0.0070136217,0.99884903,0.04745051,0.95439523,-0.007476562,0.29845253,0.34179366,0.048833847,-0.9385054,-0.011674096,0.9987926,0.047719225,0.9397025,-0.005353927,0.34195107,0.016464233,0.05895996,-0.106399536,9.359222,-0.07331848,2.9267578,-0.0032043457,-0.0063934326,0.013839722,-24.77417,17.546082,-6.8847656,0,0.0,0.0,0.0,0.0
0.735992431,0.29846543,0.00350307,-0.954414,0.0060902275,0.9999659,0.005574806,0.954401,-0.007476486,0.29843393,0.340934,0.048804764,-0.9388195,-0.01158049,0.9987938,0.047717065,0.9400159,-0.0053963806,0.34108797,-0.089035034,0.0206604,-0.06314087,9.359375,-0.07331848,2.9266052,0.004257202,-0.0032043457,0.0063934326,-23.878479,17.366028,-7.4035645,0,0.0,0.0,0.0,0.0
0.740386963,0.29840493,0.0034116749,-0.95443326,0.0060451077,0.9999668,0.0054644486,0.9544202,-0.0074002706,0.29837438,0.34010077,0.047899395,-0.93916833,-0.011190173,0.99883735,0.04689034,0.94032246,-0.0054379823,0.34024134,-0.036514282,0.0055389404,0.023635864,9.359528,-0.0725708,2.9260101,-0.0053253174,0.0,-0.0063934326,-23.878479,17.366028,-7.4035645,0,0.0,0.0,0.0,0.0
0.744781494,0.29839072,0.0033901916,-0.95443773,0.006079848,0.99996656,0.005452685,0.95442444,-0.0074298675,0.29836014,0.3392823,0.047010265,-0.9395092,-0.010809861,0.9988794,0.04607724,0.94062245,-0.0054772287,0.33941028,0.06404114,-0.07078552,-0.024093628,9.359528,-0.07286072,2.9258575,0.012786865,-0.018112183,-0.012786865,-23.878479,17.366028,-7.4035645,0,0.0,0.0,0.0,0.0
0.749176025,0.29776385,-0.04395463,-0.9536271,0.020199332,0.9990059,-0.039739124,0.9544259,-0.007429757,0.29835573,0.33847928,0.046138454,-0.939842,-0.010437828,0.99891984,0.04527955,0.94091594,-0.005516282,0.33859524,-0.05581665,-0.018112183,-0.024093628,9.35968,-0.07286072,2.9258575,0.007461548,0.0,0.0063934326,-23.519897,16.290283,-8.094788,0,0.0,0.0,0.0,0.0
0.753570556,0.29774922,-0.043977525,-0.9536306,0.0202056,0.99900496,-0.039761268,0.95443034,-0.007429792,0.29834154,0.3374337,0.043900307,-0.9403251,-0.009813112,0.9990217,0.043119222,0.9412981,-0.0053223623,0.33753437,-0.04145813,0.024978638,-0.0143585205,9.35968,-0.07286072,2.925705,0.007461548,-0.004272461,-0.0010681152,-23.519897,16.290283,-8.094788,0,0.0,0.0,0.0,0.0
0.757965088,0.29772273,-0.044018973,-0.953637,0.0201887,0.99900323,-0.03981018,0.95443887,-0.007400295,0.29831466,0.33667454,0.042143792,-0.9406775,-0.009145902,0.99909717,0.041487705,0.94157666,-0.005364511,0.33675605,-0.02708435,0.0725708,-0.1002655,9.35968,-0.0725708,2.925415,-0.0010681152,0.0,0.0095825195,-23.519897,16.290283,-8.094788,0,0.0,0.0,0.0,0.0
0.762359619,0.29663277,0.13187395,-0.9458426,-0.032323364,0.9912388,0.12806614,0.95444447,-0.007415789,0.29829648,0.33592844,0.040421452,-0.9410197,-0.008494873,0.9991681,0.03988668,0.9418492,-0.0054052267,0.33599234,-0.017654419,-0.061340332,-0.076171875,9.3598175,-0.07272339,2.9252625,0.0095825195,-0.0138549805,0.007461548,-24.23706,16.290283,-5.329895,0,0.0,0.0,0.0,0.0
0.76675415,0.29667863,0.13195047,-0.9458176,-0.032324355,0.9912283,0.12814637,0.9544301,-0.0074453503,0.29834148,0.33516568,0.04225644,-0.9412111,-0.009040886,0.9990919,0.041635584,0.9421158,-0.005445438,0.33524337,0.10697937,-0.065841675,0.18196106,9.35968,-0.073013306,2.925705,0.0010681152,-0.007461548,-0.004257202,-24.23706,16.290283,-5.329895,0,0.0,0.0,0.0,0.0
0.771148681,0.29669428,0.13197649,-0.945809,-0.03234929,0.991225,0.12816599,0.95442444,-0.0074298675,0.29836014,0.33441815,0.044056136,-0.94139445,-0.009573266,0.999014,0.043351885,0.9423762,-0.0054854364,0.33451018,-0.036514282,0.053710938,0.03816223,9.359528,-0.07286072,2.9258575,-0.013839722,-0.009597778,0.0063934326,-24.23706,16.290283,-5.329895,0,0.0,0.0,0.0,0.0
0.775543213,0.29842308,0.041104306,-0.9535482,-0.005150089,0.999127,0.04145728,0.95441973,-0.0074609504,0.2983742,0.3336848,0.04582022,-0.94157046,-0.0100928685,0.9989344,0.045034934,0.9426307,-0.005524325,0.3337917,-0.0796051,-0.08963013,-3.0517578E-4,9.359528,-0.07316589,2.9260101,0.007461548,-0.0063934326,0.003189087,-24.415588,17.546082,-6.8847656,0,0.0,0.0,0.0,0.0
0.779937744,0.29845536,0.041154034,-0.95353585,-0.005136593,0.9991246,0.04151387,0.9544097,-0.007492114,0.29840553,0.33298436,0.04572591,-0.94182295,-0.009991327,0.9989385,0.044966433,0.9428794,-0.0055630575,0.33308777,-0.045944214,-0.07017517,0.10475159,9.359375,-0.07347107,2.9263,0.004257202,0.003189087,0.008514404,-24.415588,17.546082,-6.8847656,0,0.0,0.0,0.0,0.0
0.784332275,0.29848346,0.041197337,-0.95352525,-0.0051508276,0.999123,0.04155503,0.95440096,-0.007492045,0.2984339,0.33229828,0.045634486,-0.9420697,-0.00989169,0.9989425,0.044900324,0.9431225,-0.005601639,0.33239827,-0.13212585,-0.02708435,0.027832031,9.359375,-0.07347107,2.9266052,-0.0010681152,-0.01171875,-0.008529663,-24.415588,17.546082,-6.8847656,0,0.0,0.0,0.0,0.0
0.788726806,0.29852745,0.023135405,-0.9541206,2.2907928E-4,0.99970436,0.024312392,0.954401,-0.007476486,0.29843393,0.33162633,0.04554575,-0.94231075,-0.009794461,0.9989463,0.044836227,0.94336,-0.0056394474,0.33172297,0.097717285,0.03981018,0.023040771,9.359375,-0.07331848,2.9266052,0.0095825195,-0.0021362305,0.004257202,-24.415588,16.828918,-7.23114,0,0.0,0.0,0.0,0.0
0.793121338,0.29848224,0.023063036,-0.95413643,2.6668143E-4,0.9997058,0.024247948,0.9544151,-0.0074920338,0.29838833,0.33097103,0.04509773,-0.9425627,-0.009579938,0.99896646,0.044432525,0.9435923,-0.0056761885,0.331061,0.05445862,-0.03665161,-0.10101318,9.359528,-0.07347107,2.9261627,0.0095825195,-0.005340576,-0.0010681152,-24.415588,16.828918,-7.23114,0,0.0,0.0,0.0,0.0
0.797515869,0.2984819,0.023062488,-0.9541366,2.5200006E-4,0.99970603,0.024242781,0.9544152,-0.0074764746,0.29838836,0.33032778,0.04465721,-0.9428093,-0.009369443,0.998986,0.04403536,0.94381976,-0.005712505,0.33041126,0.025741577,0.03981018,0.018692017,9.359528,-0.07331848,2.9261627,-0.0032043457,-0.004272461,0.0021362305,-24.415588,16.828918,-7.23114,0,0.0,0.0,0.0,0.0
0.8019104,0.2982124,0.06117931,-0.9525369,-0.0111446325,0.9980989,0.060616586,0.95443445,-0.007460944,0.29832727,0.32969704,0.044225484,-0.9430503,-0.009163978,0.999005,0.043645754,0.94404227,-0.005747785,0.3297743,-0.07019043,0.030075073,-0.17222595,9.35968,-0.07316589,2.9255524,0.007461548,-0.004272461,0.0063934326,-24.415588,17.1875,-6.539917,0,0.0,0.0,0.0,0.0
0.806304931,0.2981999,0.061159544,-0.95254207,-0.011137888,0.99810016,0.06059788,0.95443845,-0.0074609756,0.29831454,0.32907057,0.04456471,-0.94325316,-0.009214484,0.99898976,0.043983392,0.9442604,-0.005782048,0.3291488,0.0016479492,0.015716553,-0.042800903,9.35968,-0.07316589,2.925415,0.0063934326,-0.0010681152,0.008514404,-24.415588,17.1875,-6.539917,0,0.0,0.0,0.0,0.0
0.810699463,0.2982272,0.06120264,-0.95253074,-0.011137717,0.99809736,0.06064332,0.9544299,-0.007476468,0.29834142,0.32845625,0.044896744,-0.9434515,-0.009263407,0.9989747,0.04431398,0.94447374,-0.005815627,0.32853538,-0.08934021,-0.04638672,0.04309082,9.35968,-0.07331848,2.925705,0.01171875,0.017028809,0.0021362305,-24.415588,17.1875,-6.539917,0,0.0,0.0,0.0,0.0
0.815093994,0.29808325,-0.024647245,-0.9542216,0.014487501,0.99966824,-0.021295458,0.9544299,-0.007476468,0.29834142,0.3278547,0.045223,-0.9436452,-0.009310959,0.9989598,0.044638943,0.9446823,-0.005848844,0.3279347,-0.02230835,0.01586914,0.0,9.35968,-0.07331848,2.925705,-0.0063934326,-0.0032043457,0.007461548,-24.595642,15.931702,-8.094788,0,0.0,0.0,0.0,0.0
0.819488525,0.29808286,-0.024647875,-0.9542217,0.0145025365,0.9996681,-0.021291422,0.9544298,-0.0074920272,0.2983414,0.32728052,0.043826614,-0.9439103,-0.008794947,0.9990218,0.043336034,0.9448863,-0.005881397,0.32734582,0.06867981,-0.05580139,0.02394104,9.35968,-0.07347107,2.925705,0.0021209717,0.0095825195,0.003189087,-24.595642,15.931702,-8.094788,0,0.0,0.0,0.0,0.0
0.823883056,0.29810154,-0.02461639,-0.9542166,0.014506998,0.9996687,-0.021256888,0.9544239,-0.007506107,0.29835996,0.32686648,0.04218874,-0.9441284,-0.007876374,0.99909,0.041917842,0.9450377,-0.0062652295,0.32690135,-0.0029907227,-0.0460968,0.03816223,9.359528,-0.0736084,2.9258575,0.0021209717,0.0021209717,0.0063934326,-24.595642,15.931702,-8.094788,0,0.0,0.0,0.0,0.0
0.828277588,0.29844996,0.029446505,-0.95397097,-0.0016250503,0.99953824,0.030344646,0.9544239,-0.007506107,0.29835996,0.32631025,0.04085348,-0.9443795,-0.0073916605,0.9991453,0.0406686,0.9452338,-0.0062900474,0.3263333,0.006576538,-0.0030059814,0.023788452,9.359528,-0.0736084,2.9258575,0.0095825195,-0.0021362305,0.0053253174,-24.77417,16.828918,-7.23114,0,0.0,0.0,0.0,0.0
0.832672119,0.2984173,0.02939328,-0.95398283,-0.001608158,0.99953973,0.030293887,0.9544341,-0.0075060646,0.29832718,0.32575652,0.04062539,-0.9445805,-0.007270366,0.9991545,0.040465232,0.94542575,-0.006314369,0.32577646,0.04473877,0.020950317,-0.09561157,9.35968,-0.0736084,2.9255524,0.0010681152,0.010650635,-0.010650635,-24.77417,16.828918,-7.23114,0,0.0,0.0,0.0,0.0
0.83706665,0.29841647,0.029391933,-0.9539831,-0.0016359575,0.99954,0.030283783,0.95443434,-0.007476503,0.29832727,0.32521322,0.04040079,-0.9447773,-0.0071513616,0.99916345,0.040264804,0.9456136,-0.006338203,0.3252301,-0.05581665,0.05895996,1.5258789E-4,9.35968,-0.07331848,2.9255524,0.013839722,0.0,0.0,-24.77417,16.828918,-7.23114,0,0.0,0.0,0.0,0.0
0.841461181,0.29766244,0.09163854,-0.9502629,-0.020212045,0.99576426,0.0896952,0.9544572,-0.0074921325,0.29825377,0.32468066,0.040180653,-0.9449699,-0.007035515,0.9991722,0.04006805,0.94579756,-0.006360969,0.32469457,-0.04159546,-0.02229309,-0.20979309,9.3598175,-0.07347107,2.9248047,0.004257202,0.006378174,-0.007461548,-24.23706,16.290283,-6.021118,0,0.0,0.0,0.0,0.0
0.845855713,0.29767728,0.091663174,-0.9502558,-0.020207468,0.9957617,0.08972256,0.95445263,-0.0075061005,0.2982679,0.3241482,0.04121132,-0.94510823,-0.0073262127,0.99913,0.04105423,0.9459779,-0.0063835923,0.32416815,0.0015106201,-0.060455322,0.0103302,9.3598175,-0.0736084,2.9249573,0.0053253174,0.014892578,-0.0032043457,-24.23706,16.290283,-6.021118,0,0.0,0.0,0.0,0.0
0.850250244,0.2976761,0.0916612,-0.9502564,-0.020220187,0.9957621,0.0897165,0.95445275,-0.0074920976,0.29826796,0.3236264,0.04222183,-0.9452424,-0.007609936,0.9990877,0.04202153,0.9461544,-0.0064060423,0.32365248,0.03501892,0.05432129,0.0390625,9.3598175,-0.07347107,2.9249573,0.0095825195,0.013824463,0.015960693,-24.23706,16.290283,-6.021118,0,0.0,0.0,0.0,0.0
0.854644775,0.2974131,0.104080066,-0.94905895,-0.023949584,0.9945409,0.10156267,0.95444846,-0.0074765035,0.29828215,0.32311463,0.04321204,-0.94537276,-0.007887208,0.9990452,0.042969625,0.946327,-0.0064277635,0.32314697,0.0015106201,0.01586914,0.058059692,9.3598175,-0.07331848,2.9251099,0.0053253174,0.010650635,-0.007461548,-23.698425,17.546082,-5.5023193,0,0.0,0.0,0.0,0.0
0.859039306,0.2974564,0.10414503,-0.94903827,-0.023973813,0.994534,0.10162352,0.95443434,-0.007476503,0.29832727,0.32261112,0.044431746,-0.9454882,-0.008238779,0.9989916,0.044134893,0.9464958,-0.0064487383,0.32265186,-0.02230835,0.0206604,0.10070801,9.35968,-0.07331848,2.9255524,-0.0010681152,0.0095825195,-0.01171875,-23.698425,17.546082,-5.5023193,0,0.0,0.0,0.0,0.0
0.863433838,0.29744267,0.10412439,-0.9490447,-0.02398102,0.9945362,0.10159954,0.95443845,-0.0074609756,0.29831454,0.32211804,0.045628298,-0.9455993,-0.00858259,0.99893755,0.04527839,0.94666064,-0.0064692935,0.3221674,-0.02230835,0.015716553,-0.057174683,9.35968,-0.07316589,2.925415,0.0010681152,0.003189087,-0.008529663,-23.698425,17.546082,-5.5023193,0,0.0,0.0,0.0,0.0
0.867828369,0.29829866,-0.003191876,-0.9544673,0.008058589,0.9999672,-8.2549197E-4,0.95443857,-0.007445416,0.29831457,0.32163405,0.04680044,-0.9457068,-0.008918525,0.9988832,0.04639881,0.9468221,-0.006489127,0.32169223,0.04953003,0.053863525,0.038604736,9.35968,-0.073013306,2.925415,0.0053253174,0.014892578,-0.01171875,-24.057007,17.1875,-7.575989,0,0.0,0.0,0.0,0.0
0.8722229,0.29837358,-0.0030768646,-0.9544442,0.007981215,0.999968,-7.285732E-4,0.95441586,-0.007400237,0.29838857,0.3211784,0.045801315,-0.94591045,-0.008556369,0.9989294,0.045463238,0.94698006,-0.0065082526,0.32122645,-0.10354614,-0.02798462,-0.019607544,9.359528,-0.0725708,2.9261627,-0.007461548,0.0053253174,0.004257202,-24.057007,17.1875,-7.575989,0,0.0,0.0,0.0,0.0
0.876617431,0.29846567,-0.0029354808,-0.9544159,0.007982167,0.99996793,-5.7939487E-4,0.9543869,-0.0074453773,0.2984795,0.3207329,0.044824433,-0.94610846,-0.008204006,0.99897355,0.044547886,0.9471342,-0.0065260925,0.32077143,-0.0074768066,-0.075424194,-0.015701294,9.359222,-0.073013306,2.9270477,0.02130127,0.017028809,-0.008529663,-24.057007,17.1875,-7.575989,0,0.0,0.0,0.0,0.0
0.881011963,0.2980853,0.08070502,-0.95112133,-0.01703546,0.9967104,0.07923438,0.9543872,-0.0074158157,0.2984796,0.3202977,0.04386987,-0.94630057,-0.0078596715,0.9990158,0.043653425,0.94728434,-0.0065444782,0.32032728,-0.069732666,0.07272339,-0.025283813,9.359222,-0.07272339,2.9270477,-0.004257202,0.024475098,0.0010681152,-24.415588,17.1875,-6.1935425,0,0.0,0.0,0.0,0.0
0.885406494,0.2980853,0.08070502,-0.95112133,-0.01703546,0.9967104,0.07923438,0.9543872,-0.0074158157,0.2984796,0.31985766,0.04460733,-0.94641495,-0.008059238,0.998983,0.044361256,0.9474313,-0.0065619047,0.31989187,-0.08409119,-0.027832031,-0.020492554,9.359222,-0.07272339,2.9270477,0.0095825195,0.003189087,-0.0010681152,-24.415588,17.1875,-6.1935425,0,0.0,0.0,0.0,0.0
0.889801025,0.2981034,0.08073358,-0.9511133,-0.017045477,0.99670815,0.079261325,0.9543814,-0.0074158916,0.2984982,0.31915063,0.046125844,-0.94658077,-0.008451581,0.99891365,0.045826416,0.9476663,-0.0066254265,0.31919378,-0.10787964,0.029632568,0.022445679,9.35907,-0.07272339,2.9272003,-0.011703491,-0.004272461,-0.0032043457,-24.415588,17.1875,-6.1935425,0,0.0,0.0,0.0,0.0
0.894195556,0.29808182,0.08069948,-0.95112294,-0.017078198,0.9967112,0.079215184,0.9543875,-0.0073691388,0.29847968,0.3187335,0.04681869,-0.94668734,-0.008637752,0.9988813,0.046491772,0.947805,-0.0066412357,0.31878138,0.10266113,0.115356445,-0.049224854,9.359222,-0.072265625,2.9270477,0.007461548,0.008514404,0.0053253174,-24.415588,17.1875,-6.1935425,0,0.0,0.0,0.0,0.0
0.898590088,0.29809672,0.08072306,-0.9511162,-0.017071662,0.9967091,0.07924206,0.95438296,-0.0073846634,0.29849383,0.3183241,0.047496967,-0.9467913,-0.00882028,0.99884915,0.047143023,0.9479409,-0.0066557936,0.3183767,0.11701965,-0.052078247,0.08470154,9.359222,-0.07241821,2.9272003,0.01171875,-0.0032043457,-0.0021362305,-24.415588,17.1875,-6.1935425,0,0.0,0.0,0.0,0.0
0.902984619,0.29811597,0.08075352,-0.9511077,-0.017067447,0.9967066,0.07927545,0.95437706,-0.0074002985,0.2985124,0.31792298,0.048162133,-0.9468925,-0.008998485,0.99881727,0.04778192,0.9480738,-0.006670371,0.31798035,-0.002532959,-0.02798462,0.04623413,9.35907,-0.0725708,2.927353,0.015975952,-0.0021362305,-0.0032043457,-24.415588,17.1875,-6.1935425,0,0.0,0.0,0.0,0.0
0.90737915,0.29861796,0.023332478,-0.9540875,8.028885E-5,0.99970055,0.024473088,0.95437276,-0.007384705,0.29852661,0.31753018,0.04881458,-0.94699085,-0.009172529,0.99878544,0.048408847,0.94820374,-0.0066849696,0.3175923,-0.002532959,0.019760132,0.07481384,9.35907,-0.07241821,2.9275055,0.004257202,0.006378174,-0.007461548,-23.339844,17.1875,-6.8847656,0,0.0,0.0,0.0,0.0
0.911773681,0.29863212,0.023353713,-0.95408255,7.35498E-5,0.99970007,0.024493344,0.95436835,-0.007384671,0.2985408,0.3171559,0.048305195,-0.9471425,-0.008978126,0.9988102,0.047933925,0.94833094,-0.006698964,0.31721222,0.016616821,-0.004196167,0.041137695,9.35907,-0.07241821,2.927658,0.004257202,-0.0021362305,-0.0032043457,-23.339844,17.1875,-6.8847656,0,0.0,0.0,0.0,0.0
0.916168213,0.29863137,0.023352671,-0.9540827,4.4170767E-5,0.9997001,0.024483055,0.9543685,-0.0073535526,0.29854086,0.3167892,0.047806405,-0.94729036,-0.008788126,0.998834,0.04746874,0.9484552,-0.006712679,0.31684,-0.12702942,0.0816803,-0.025894165,9.35907,-0.07211304,2.927658,-0.0053253174,-0.0032043457,-0.0010681152,-23.339844,17.1875,-6.8847656,0,0.0,0.0,0.0,0.0
0.920562744,0.29782018,0.0978881,-0.94958997,-0.022227535,0.99517024,0.09561549,0.9543632,-0.0073691797,0.29855758,0.31642964,0.04731756,-0.94743514,-0.008602858,0.99885726,0.047012497,0.948577,-0.006725496,0.3164751,-0.07421875,0.048324585,-0.054763794,9.3589325,-0.072265625,2.9277954,0.008514404,-0.004272461,0.0,-24.057007,16.470337,-5.847168,0,0.0,0.0,0.0,0.0
0.924957275,0.29781878,0.0978858,-0.9495907,-0.02224162,0.9951706,0.09560867,0.95436335,-0.0073536206,0.2985576,0.31642964,0.04731756,-0.94743514,-0.008602858,0.99885726,0.047012497,0.948577,-0.006725496,0.3164751,-0.07421875,0.048171997,-0.054763794,9.3589325,-0.07211304,2.9277954,0.008514404,-0.004272461,0.0,-24.057007,16.470337,-5.847168,0,0.0,0.0,0.0,0.0
0.929351806,0.29783237,0.097908035,-0.94958407,-0.02224973,0.9951683,0.095629536,0.9543589,-0.007353586,0.2985718,0.3157064,0.049323246,-0.94757414,-0.009178208,0.99876004,0.04892965,0.9488126,-0.00675037,0.31576765,0.05027771,-0.009277344,0.09831238,9.3589325,-0.07211304,2.927948,0.014907837,0.008514404,0.008514404,-24.057007,16.470337,-5.847168,0,0.0,0.0,0.0,0.0
0.933746338,0.2972997,0.11758428,-0.94751614,-0.028164124,0.993036,0.114396185,0.95436877,-0.007323991,0.29854095,0.3153555,0.050296478,-0.9476398,-0.009456403,0.9987114,0.049860235,0.9489265,-0.0067624343,0.31542477,0.04055786,0.07182312,-0.088150024,9.35907,-0.07182312,2.927658,-0.0010681152,-0.010665894,0.004257202,-24.954224,17.366028,-5.6747437,0,0.0,0.0,0.0,0.0
0.938140869,0.29728457,0.117560014,-0.9475239,-0.028169863,0.99303883,0.114368826,0.95437324,-0.0073084654,0.29852676,0.3150068,0.05164551,-0.9476832,-0.009853595,0.9986425,0.051147316,0.94903827,-0.006773666,0.31508806,0.030975342,0.03816223,-0.020950317,9.35907,-0.07167053,2.9275055,-0.0063934326,-0.008529663,0.0095825195,-24.954224,17.366028,-5.6747437,0,0.0,0.0,0.0,0.0
0.9425354,0.29731563,0.1176098,-0.947508,-0.028173706,0.9930329,0.11442006,0.95436347,-0.007324058,0.29855767,0.31466424,0.052966986,-0.94772404,-0.010242068,0.99857324,0.052408293,0.9491478,-0.006784362,0.3147578,0.04548645,-0.05267334,0.103256226,9.3589325,-0.07182312,2.9277954,0.007461548,0.0010528564,0.0010681152,-24.954224,17.366028,-5.6747437,0,0.0,0.0,0.0,0.0
0.946929931,0.29752454,0.10885915,-0.94848764,-0.025522575,0.99402994,0.1060801,0.95437294,-0.0073535866,0.29852667,0.31432873,0.05426294,-0.94776213,-0.010621961,0.9985036,0.053645264,0.9492548,-0.006795156,0.31443474,-0.07914734,-0.061950684,-0.10714722,9.35907,-0.07211304,2.9275055,0.0053253174,-0.005340576,0.003189087,-23.698425,16.828918,-5.5023193,0,0.0,0.0,0.0,0.0
0.951324463,0.29754272,0.10888771,-0.94847864,-0.02548846,0.9940265,0.106120855,0.95436823,-0.0074002296,0.29854077,0.3140008,0.055357005,-0.9478075,-0.010937518,0.9984434,0.054690905,0.9493597,-0.0068063242,0.3141175,-0.04084778,-0.12374878,0.021987915,9.35907,-0.0725708,2.927658,-0.004257202,-0.010665894,-0.007461548,-23.698425,16.828918,-5.5023193,0,0.0,0.0,0.0,0.0
0.955718994,0.29755872,0.108912796,-0.9484707,-0.025497768,0.9940237,0.10614436,0.9543629,-0.007400297,0.2985575,0.31317115,0.056032404,-0.9480423,-0.010794494,0.99840355,0.05544312,0.9496353,-0.007129549,0.31327602,-0.06944275,-0.00881958,0.017059326,9.3589325,-0.0725708,2.9277954,0.004257202,-0.008529663,0.0063934326,-23.698425,16.828918,-5.5023193,0,0.0,0.0,0.0,0.0
0.960113525,0.29824552,0.07564878,-0.9514867,-0.015529418,0.997107,0.07440814,0.95436287,-0.0074158567,0.29855746,0.31286666,0.057092056,-0.94807965,-0.011104291,0.99834347,0.05645445,0.9497321,-0.007134964,0.31298235,0.011962891,-0.032608032,0.0074920654,9.3589325,-0.07272339,2.9277954,0.0095825195,-0.014923096,0.0063934326,-25.132751,16.828918,-6.539917,0,0.0,0.0,0.0,0.0
0.964508056,0.29821974,0.07560582,-0.9514981,-0.015456455,0.99710965,0.07438572,0.95437205,-0.0074765026,0.2985264,0.3125755,0.0574634,-0.94815314,-0.011198126,0.99832207,0.056812257,0.94982684,-0.007140582,0.3126945,-0.05041504,-0.13256836,-0.11193848,9.35907,-0.07331848,2.9275055,-0.0021362305,0.0021209717,-0.008529663,-25.132751,16.828918,-6.539917,0,0.0,0.0,0.0,0.0
0.968902588,0.29822084,0.07560764,-0.95149773,-0.0154421935,0.99710953,0.0743921,0.9543719,-0.0074920612,0.29852635,0.31228963,0.057826452,-0.9482253,-0.011288419,0.998301,0.057162527,0.9499198,-0.0071473,0.31241184,-0.03126526,-0.06059265,0.017349243,9.35907,-0.07347107,2.9275055,0.015975952,0.007446289,-0.0021362305,-25.132751,16.828918,-6.539917,0,0.0,0.0,0.0,0.0
0.973297119,0.29832643,0.07160061,-0.95177454,-0.014233818,0.9974053,0.07057186,0.95435786,-0.0075060646,0.29857147,0.3120095,0.05818228,-0.9482958,-0.011376425,0.9982804,0.057505973,0.95001084,-0.007154195,0.31213486,-0.021560669,-0.036514282,0.11746216,9.3589325,-0.0736084,2.927948,0.01171875,0.010650635,-0.0095825195,-24.057007,17.904663,-6.1935425,0,0.0,0.0,0.0,0.0
0.97769165,0.29832748,0.07160216,-0.95177406,-0.014219471,0.9974049,0.07057797,0.9543576,-0.007521623,0.2985714,0.31173673,0.058450755,-0.94836897,-0.011437211,0.9982646,0.05776646,0.95009965,-0.0071612326,0.3118643,0.011962891,-0.031570435,-0.0070343018,9.3589325,-0.07376099,2.927948,0.010650635,0.010650635,-0.0053253174,-24.057007,17.904663,-6.1935425,0,0.0,0.0,0.0,0.0
0.982086181,0.29834023,0.071621224,-0.9517686,-0.014241064,0.9974036,0.07059131,0.95435333,-0.0075060287,0.2985856,0.31146944,0.05871389,-0.94844055,-0.011496356,0.9982491,0.058021907,0.9501866,-0.00716844,0.31159908,-0.14126587,0.020950317,0.01675415,9.3589325,-0.0736084,2.9281006,-0.0010681152,0.018081665,-0.0095825195,-24.057007,17.904663,-6.1935425,0,0.0,0.0,0.0,0.0
0.986480713,0.2985923,-0.0026850728,-0.954377,0.007980278,0.9999681,-3.16581E-4,0.9543474,-0.0075216647,0.29860416,0.3112076,0.05897214,-0.94851047,-0.0115546025,0.99823385,0.05827253,0.95027167,-0.007175192,0.31133935,-0.08843994,-0.022003174,0.030975342,9.35878,-0.07376099,2.9282532,0.0021209717,0.0021209717,0.008514404,-24.057007,17.546082,-7.575989,0,0.0,0.0,0.0,0.0
0.990875244,0.2986196,-0.0026440187,-0.9543686,0.007953115,0.9999684,-2.818401E-4,0.95433915,-0.00750604,0.29863116,0.31096822,0.05774041,-0.9486648,-0.011148755,0.9983058,0.057107296,0.9503549,-0.0071821213,0.3110851,0.04084778,0.020950317,0.073776245,9.35878,-0.0736084,2.928543,0.0063934326,-0.008529663,-0.012786865,-24.057007,17.546082,-7.575989,0,0.0,0.0,0.0,0.0
0.995269775,0.2986196,-0.002643965,-0.9543686,0.0079397345,0.99996847,-2.859705E-4,0.9543392,-0.0074920366,0.2986312,0.31073368,0.056534052,-0.9488143,-0.010752203,0.9983748,0.05596575,0.95043623,-0.0071886,0.31083655,0.050430298,0.04475403,0.021102905,9.35878,-0.07347107,2.928543,0.0010681152,-0.0032043457,0.008514404,-24.057007,17.546082,-7.575989,0,0.0,0.0,0.0,0.0
0.999664306,0.29784027,0.102151975,-0.9491344,-0.023398124,0.99474055,0.09971802,0.9543289,-0.0074920775,0.29866394,0.31050327,0.055351745,-0.9489594,-0.010364409,0.99844104,0.054846674,0.9505158,-0.007194669,0.3105929,0.031417847,-0.017501831,0.12135315,9.358627,-0.07347107,2.9288483,-0.004257202,0.007446289,-0.0063934326,-24.77417,17.904663,-5.847168,0,0.0,0.0,0.0,0.0
1.004058838,0.2977622,0.10203168,-0.9491719,-0.023383517,0.9947532,0.09959588,0.95435363,-0.0074609085,0.2985857,0.31025606,0.05628929,-0.94898504,-0.010636376,0.9983885,0.05574227,0.9505935,-0.007200617,0.31035483,0.11251831,0.077941895,-0.17956543,9.3589325,-0.07316589,2.9281006,0.008514404,-0.0010681152,-0.0021362305,-24.77417,17.904663,-5.847168,0,0.0,0.0,0.0,0.0
1.008453369,0.29773924,0.10199631,-0.94918287,-0.02332708,0.99475646,0.09957629,0.9543622,-0.007506099,0.29855728,0.31001195,0.05720562,-0.9490101,-0.010902203,0.9983364,0.056617573,0.9506701,-0.0072058225,0.3101199,-0.021560669,-0.12271118,-0.097854614,9.3589325,-0.0736084,2.9277954,0.0053253174,0.012756348,-0.007461548,-24.77417,17.904663,-5.847168,0,0.0,0.0,0.0,0.0
1.0128479,0.29817462,0.077778645,-0.9513372,-0.016062237,0.99694234,0.076472856,0.9543762,-0.007521659,0.29851216,0.3097719,0.058102872,-0.9490339,-0.011161171,0.9982846,0.057475056,0.9507454,-0.007211828,0.30988902,-0.002532959,-0.031570435,-0.12135315,9.35907,-0.07376099,2.927353,0.015975952,-0.0063934326,0.0095825195,-24.057007,16.470337,-6.1935425,0,0.0,0.0,0.0,0.0
1.017242431,0.29814273,0.07772678,-0.95135134,-0.016044138,0.99694616,0.07642389,0.95438635,-0.0075216163,0.29847932,0.30954114,0.058496635,-0.949085,-0.011263659,0.9982615,0.057854008,0.9508193,-0.0072180247,0.30966187,-0.055358887,0.006729126,-0.08753967,9.359222,-0.07376099,2.9270477,0.020233154,-0.010665894,-0.0063934326,-24.057007,16.470337,-6.1935425,0,0.0,0.0,0.0,0.0
1.021636963,0.29814383,0.077728614,-0.95135087,-0.016029885,0.99694604,0.07643028,0.9543863,-0.0075371754,0.29847932,0.30923927,0.059457347,-0.94912374,-0.011499557,0.9982044,0.058785245,0.95091474,-0.007264202,0.30936772,0.021255493,-0.026641846,-0.015701294,9.359222,-0.073913574,2.9270477,-0.008529663,-0.0010681152,-0.0021362305,-24.057007,16.470337,-6.1935425,0,0.0,0.0,0.0,0.0
1.026031494,0.2984562,0.05065845,-0.9530779,-0.007936306,0.9986875,0.05059746,0.9543903,-0.007537207,0.29846653,0.3090183,0.059822988,-0.9491727,-0.01159413,0.99818254,0.059137244,0.95098543,-0.007269661,0.30915028,-0.0074768066,-0.0074768066,-0.044296265,9.359222,-0.073913574,2.9269104,-0.008529663,-0.004272461,-0.008529663,-23.519897,18.800354,-6.365967,0,0.0,0.0,0.0,0.0
1.030426025,0.29845405,0.050655473,-0.9530788,-0.007978422,0.99868816,0.050581153,0.9543907,-0.0074920864,0.29846668,0.3088079,0.05963974,-0.9492527,-0.0115191005,0.99819344,0.058967236,0.9510547,-0.007275012,0.30893704,-0.021850586,0.11177063,0.013168335,9.359222,-0.07347107,2.9269104,0.014907837,-0.0063934326,0.0021362305,-23.519897,18.800354,-6.365967,0,0.0,0.0,0.0,0.0
1.034820556,0.29846808,0.050674863,-0.9530734,-0.007956746,0.9986868,0.05060836,0.95438635,-0.0075216163,0.29847932,0.30860153,0.0594601,-0.9493311,-0.011446477,0.9982041,0.05880026,0.9511225,-0.007279353,0.30872792,0.002105713,-0.093826294,0.036972046,9.359222,-0.07376099,2.9270477,-0.004257202,-0.0032043457,-0.0021362305,-23.519897,18.800354,-6.365967,0,0.0,0.0,0.0,0.0
1.039215088,0.2971184,0.120141804,-0.94725215,-0.028696563,0.99272805,0.11690854,0.95440936,-0.007552795,0.2984054,0.30839956,0.059284437,-0.9494078,-0.011374954,0.9982146,0.058637142,0.9511889,-0.007284199,0.30852327,0.001953125,-0.06958008,-0.21128845,9.359375,-0.07406616,2.9263,0.01171875,-0.009597778,-0.0032043457,-24.057007,16.111755,-5.5023193,0,0.0,0.0,0.0,0.0
1.043609619,0.2970887,0.12009212,-0.9472678,-0.028677896,0.992734,0.11686205,0.95441914,-0.007552749,0.29837406,0.30818406,0.060504507,-0.9494007,-0.011734097,0.9981413,0.05980171,0.95125437,-0.0072895708,0.30832118,0.035308838,-0.0025482178,-0.06254578,9.359528,-0.07406616,2.9260101,0.004257202,0.013824463,0.003189087,-24.057007,16.111755,-5.5023193,0,0.0,0.0,0.0,0.0
1.04800415,0.29712677,0.12015577,-0.9472478,-0.028628524,0.9927258,0.11694451,0.95440876,-0.0076290336,0.29840523,0.30797192,0.061699096,-0.9493927,-0.012085222,0.99806815,0.060942106,0.95131874,-0.0072948346,0.3081226,0.045043945,-0.19332886,0.07122803,9.359375,-0.07481384,2.9263,0.0063934326,-0.0032043457,0.0010681152,-24.057007,16.111755,-5.5023193,0,0.0,0.0,0.0,0.0
1.052398681,0.2982671,0.06400485,-0.952334,-0.011848813,0.99792045,0.06335765,0.9544089,-0.007613475,0.29840526,0.30776426,0.06287098,-0.94938314,-0.012427831,0.99799496,0.062061433,0.9513815,-0.0073015187,0.30792856,0.073776245,0.041152954,0.037719727,9.359375,-0.074661255,2.9263,0.0021209717,-0.0010681152,-0.0010681152,-24.415588,16.470337,-6.539917,0,0.0,0.0,0.0,0.0
1.056793213,0.29828006,0.064026244,-0.95232856,-0.011871001,0.9979193,0.06337324,0.9544046,-0.0075978804,0.29841948,0.30757457,0.06289366,-0.9494431,-0.0124164885,0.99799347,0.062087405,0.95144296,-0.0073077576,0.30773833,0.021102905,0.021850586,0.04234314,9.359375,-0.07450867,2.9264526,-0.004257202,0.007446289,-0.004257202,-24.415588,16.470337,-6.539917,0,0.0,0.0,0.0,0.0
1.061187744,0.298293,0.06404758,-0.952323,-0.01189317,0.99791807,0.06338878,0.9544003,-0.007582287,0.2984337,0.30738902,0.06291631,-0.9495017,-0.012405818,0.997992,0.062113166,0.95150304,-0.00731356,0.3075523,-0.09861755,0.0552063,0.013473511,9.359375,-0.07435608,2.9266052,-0.004257202,0.004257202,0.010650635,-24.415588,16.470337,-6.539917,0,0.0,0.0,0.0,0.0
1.065582275,0.2974639,0.10978055,-0.94840044,-0.025588013,0.993927,0.107024774,0.9543901,-0.0075683254,0.2984665,0.30720726,0.062938936,-0.949559,-0.012395786,0.99799055,0.06213872,0.9515619,-0.007318935,0.30737013,-0.050567627,0.02633667,0.075408936,9.359222,-0.07421875,2.9269104,0.004257202,-0.0010681152,0.008514404,-24.23706,16.648865,-5.6747437,0,0.0,0.0,0.0,0.0
1.069976806,0.2974639,0.10978055,-0.94840044,-0.025588013,0.993927,0.107024774,0.9543901,-0.0075683254,0.2984665,0.30701828,0.06387748,-0.94955754,-0.012668179,0.9979309,0.06303562,0.9516193,-0.0073239226,0.30719224,-0.017059326,-0.007171631,-0.0012054443,9.359222,-0.07421875,2.9269104,0.0021209717,-0.008529663,0.0053253174,-24.23706,16.648865,-5.6747437,0,0.0,0.0,0.0,0.0
1.074371338,0.2974745,0.10979778,-0.94839513,-0.025609389,0.9939253,0.10703624,0.95438623,-0.0075527346,0.2984793,0.3068329,0.06479719,-0.9495551,-0.012934795,0.9978715,0.06391463,0.9516755,-0.0073288106,0.30701795,-0.069732666,0.04055786,0.036972046,9.359222,-0.07406616,2.9270477,0.0063934326,0.0053253174,-0.004257202,-24.23706,16.648865,-5.6747437,0,0.0,0.0,0.0,0.0
1.078765869,0.29852268,0.036577072,-0.9537014,-0.0037712716,0.9993026,0.03714554,0.954395,-0.0074921204,0.29845247,0.3066513,0.06569882,-0.9495519,-0.013196176,0.99781257,0.064776324,0.9517305,-0.007333289,0.30684745,-0.122406006,0.16444397,-0.111190796,9.359222,-0.07347107,2.9267578,0.004257202,0.006378174,-0.0021362305,-24.057007,16.828918,-6.8847656,0,0.0,0.0,0.0,0.0
1.0831604,0.29845944,0.036476955,-0.9537249,-0.0037256032,0.9993062,0.0370544,0.954415,-0.007506037,0.29838833,0.30649188,0.06511684,-0.9496434,-0.013002996,0.99785066,0.064225756,0.95178443,-0.0073364656,0.30667984,0.05445862,-0.05088806,-0.15368652,9.359528,-0.0736084,2.9261627,0.017044067,-0.004272461,-0.0138549805,-24.057007,16.828918,-6.8847656,0,0.0,0.0,0.0,0.0
1.087554931,0.29844487,0.036453914,-0.9537304,-0.003731492,0.9993072,0.037028298,0.95441955,-0.007492069,0.29837418,0.30633426,0.064544484,-0.9497333,-0.012812894,0.99788785,0.06368433,0.9518378,-0.007339857,0.3065142,-0.031723022,0.04953003,-0.06254578,9.359528,-0.07347107,2.9260101,-0.0021362305,-0.004272461,0.0021362305,-24.057007,16.828918,-6.8847656,0,0.0,0.0,0.0,0.0
1.091949463,0.29834592,-0.0029605608,-0.95445323,0.008019325,0.99996763,-5.950341E-4,0.9544241,-0.0074765445,0.29836002,0.30605054,0.06409502,-0.9498552,-0.012547884,0.997916,0.06329508,0.95193255,-0.00745282,0.30621698,0.06404114,0.03981018,-0.0049438477,9.359528,-0.07331848,2.9258575,-0.0021362305,-0.0021362305,0.0010681152,-23.519897,16.648865,-7.4035645,0,0.0,0.0,0.0,0.0
1.096343994,0.29837474,-0.0029159794,-0.95444435,0.007976274,0.999968,-5.615491E-4,0.95441544,-0.0074453573,0.29838845,0.30591053,0.062755734,-0.94998974,-0.012126468,0.9980011,0.062022436,0.95198303,-0.0074532945,0.30606005,0.10235596,0.092163086,0.11924744,9.359528,-0.073013306,2.9261627,-0.0021362305,-0.007461548,-0.0021362305,-23.519897,16.648865,-7.4035645,0,0.0,0.0,0.0,0.0
1.100738525,0.29834616,-0.002960223,-0.9544531,0.007946457,0.9999682,-6.174573E-4,0.9544247,-0.0074003055,0.2983602,0.30577317,0.061444014,-0.95011973,-0.011714764,0.9980827,0.06077566,0.9520323,-0.0074531357,0.3059067,-0.0460968,0.08692932,-0.10070801,9.359528,-0.0725708,2.9258575,0.010650635,0.0,0.007461548,-23.519897,16.648865,-7.4035645,0,0.0,0.0,0.0,0.0
1.105133056,0.29836053,-0.0029380026,-0.95444876,0.007939804,0.9999683,-5.961405E-4,0.9544202,-0.0074002706,0.29837438,0.3056374,0.060157537,-0.9502456,-0.011312216,0.9981611,0.05955247,0.9520807,-0.007452079,0.30575588,-0.036514282,0.01991272,0.042785645,9.359528,-0.0725708,2.9260101,0.01171875,0.0095825195,-0.0032043457,-23.519897,16.648865,-7.4035645,0,0.0,0.0,0.0,0.0
1.109527588,0.29832736,-0.002989369,-0.9544589,0.007940218,0.9999682,-6.5009575E-4,0.9544306,-0.007384671,0.29834163,0.3055042,0.058897138,-0.9503675,-0.010918233,0.99823624,0.05835395,0.9521281,-0.007451043,0.30560842,0.00642395,0.034118652,-0.08140564,9.35968,-0.07241821,2.925705,-0.008529663,0.01914978,0.0010681152,-23.519897,16.648865,-7.4035645,0,0.0,0.0,0.0,0.0
1.113922119,0.29834622,-0.0029600847,-0.95445305,0.007916715,0.9999684,-6.266094E-4,0.9544249,-0.0073691877,0.2983603,0.30537254,0.057660833,-0.9504855,-0.01053242,0.9983084,0.057178125,0.95217466,-0.0074497154,0.30546325,-0.09877014,0.024383545,0.018997192,9.359528,-0.072265625,2.9258575,0.004257202,-0.005340576,0.0021362305,-23.519897,16.648865,-7.4035645,0,0.0,0.0,0.0,0.0
1.11831665,0.29801866,0.075270675,-0.95158774,-0.015442923,0.99713594,0.07403711,0.9544351,-0.007369146,0.2983275,0.3052433,0.056449756,-0.9505998,-0.010155151,0.9983777,0.056026082,0.95222026,-0.007448105,0.3053214,-0.0031433105,0.024383545,-0.08604431,9.35968,-0.072265625,2.9255524,0.02130127,0.007446289,-0.0053253174,-25.132751,16.828918,-6.539917,0,0.0,0.0,0.0,0.0
1.122711181,0.2980155,0.075265415,-0.95158917,-0.0154842865,0.99713665,0.07401865,0.9544354,-0.0073240246,0.2983276,0.30510002,0.05682639,-0.95062333,-0.010263537,0.99835634,0.05638572,0.952265,-0.007446526,0.30518177,-0.11328125,0.09576416,-0.07167053,9.35968,-0.07182312,2.9255524,0.0021209717,0.003189087,-0.004257202,-25.132751,16.828918,-6.539917,0,0.0,0.0,0.0,0.0
1.127105713,0.29798543,0.07521535,-0.9516026,-0.015466958,0.9971405,0.073971376,0.9544452,-0.007323992,0.2982967,0.30495942,0.057195377,-0.95064634,-0.010370472,0.99833524,0.05673781,0.9523089,-0.007444076,0.30504486,0.0541687,0.02394104,-0.061798096,9.3598175,-0.07182312,2.9252625,0.010650635,0.0095825195,0.004257202,-25.132751,16.828918,-6.539917,0,0.0,0.0,0.0,0.0
1.131500244,0.29797122,0.07810655,-0.9513741,-0.016320126,0.996918,0.07673417,0.9544353,-0.0073380275,0.29832754,0.3048209,0.057555974,-0.950669,-0.010474823,0.99831456,0.05708193,0.95235205,-0.0074416744,0.30490997,-0.06060791,-0.04774475,0.10549927,9.35968,-0.07196045,2.9255524,0.007461548,0.008514404,-0.0053253174,-24.595642,16.290283,-6.365967,0,0.0,0.0,0.0,0.0
1.135894775,0.29795668,0.078082055,-0.9513806,-0.016339878,0.9969202,0.07670222,0.9544396,-0.007308497,0.2983149,0.30468518,0.057967257,-0.95068747,-0.010594441,0.9982908,0.057474412,0.9523942,-0.0074396017,0.30477855,0.03515625,0.06210327,-0.061950684,9.35968,-0.07167053,2.925415,0.012786865,0.004257202,0.003189087,-24.595642,16.290283,-6.365967,0,0.0,0.0,0.0,0.0
1.140289306,0.29792744,0.07803276,-0.9513937,-0.016294451,0.9969237,0.07666452,0.9544494,-0.0073380284,0.29828247,0.30455178,0.05836981,-0.95070565,-0.010711944,0.99826735,0.057858426,0.95243555,-0.0074369796,0.30464932,-0.022445679,-0.06689453,-0.07601929,9.3598175,-0.07196045,2.9251099,0.0021209717,-0.0032043457,-0.0032043457,-24.595642,16.290283,-6.365967,0,0.0,0.0,0.0,0.0
1.144683838,0.29758778,0.095876485,-0.949868,-0.021628117,0.99536616,0.09369296,0.9544494,-0.0073380284,0.29828247,0.30442047,0.058763318,-0.9507234,-0.010826104,0.9982442,0.05823403,0.9524762,-0.0074350005,0.30452216,-0.0368042,1.373291E-4,-0.008987427,9.3598175,-0.07196045,2.9251099,0.004257202,0.0095825195,0.003189087,-26.029968,17.72461,-6.365967,0,0.0,0.0,0.0,0.0
1.149078369,0.29762992,0.09594556,-0.9498478,-0.0216665,0.99535966,0.09375369,0.9544354,-0.0073240246,0.2983276,0.30428782,0.059506554,-0.9507197,-0.01104689,0.9982003,0.05894274,0.95251614,-0.007433061,0.30439752,-0.05581665,0.04788208,0.11508179,9.35968,-0.07182312,2.9255524,-0.004257202,0.020217896,-0.0010681152,-26.029968,17.72461,-6.365967,0,0.0,0.0,0.0,0.0
1.1534729,0.29765835,0.09599226,-0.94983417,-0.021670014,0.995355,0.09380176,0.95442647,-0.00733796,0.2983559,0.30415845,0.06023627,-0.9507151,-0.011263815,0.9981565,0.05963852,0.9525549,-0.0074308803,0.30427623,-0.07975769,-0.03816223,0.042938232,9.35968,-0.07196045,2.9258575,0.013839722,0.017028809,-0.0053253174,-26.029968,17.72461,-6.365967,0,0.0,0.0,0.0,0.0
1.157867431,0.29748017,0.10452112,-0.9489894,-0.024222722,0.99449563,0.10194004,0.9544207,-0.007338035,0.29837453,0.30408946,0.060728863,-0.9507059,-0.011620713,0.9981283,0.060041137,0.95257264,-0.007209995,0.30422598,-0.017364502,-0.019012451,0.057159424,9.359528,-0.07196045,2.9260101,0.004257202,0.0010528564,-0.0021362305,-23.339844,16.470337,-5.5023193,0,0.0,0.0,0.0,0.0
1.162261963,0.2974924,0.104540445,-0.9489835,-0.024243338,0.99449366,0.10195394,0.9544163,-0.0073239976,0.29838872,0.30396265,0.06160614,-0.95069,-0.0118780825,0.99807453,0.060878966,0.95260996,-0.007212556,0.30410913,-0.012573242,0.05267334,0.047424316,9.359528,-0.07182312,2.9261627,0.0053253174,0.0053253174,-0.02130127,-23.339844,16.470337,-5.5023193,0,0.0,0.0,0.0,0.0
1.166656494,0.29753453,0.10460699,-0.9489629,-0.024282865,0.99448687,0.102011666,0.9544022,-0.0073084487,0.2984343,0.3038383,0.06246621,-0.9506736,-0.012130496,0.998021,0.06170034,0.9526464,-0.007214785,0.30399475,0.054611206,0.023788452,0.15711975,9.359375,-0.07167053,2.9266052,-0.008529663,0.0021209717,-0.0021362305,-23.339844,16.470337,-5.5023193,0,0.0,0.0,0.0,0.0
1.171051025,0.29757136,0.10367019,-0.9490541,-0.024004128,0.9945849,0.10111737,0.9543978,-0.007308415,0.29844847,0.3037171,0.06331038,-0.9506565,-0.01237842,0.9979678,0.06250647,0.95268184,-0.007216658,0.30388355,-0.017211914,-0.07197571,0.051620483,9.359375,-0.07167053,2.9267578,0.007461548,-0.0010681152,-0.0032043457,-25.491333,16.470337,-6.1935425,0,0.0,0.0,0.0,0.0
1.175445556,0.2975919,0.103705905,-0.9490438,-0.023988657,0.99458086,0.101159796,0.95439166,-0.007338051,0.29846698,0.3037171,0.06331038,-0.9506565,-0.01237842,0.9979678,0.06250647,0.95268184,-0.007216658,0.30388355,-0.017059326,-0.07168579,0.051467896,9.359222,-0.07196045,2.9269104,0.007461548,-0.0010681152,-0.0032043457,-25.491333,16.470337,-6.1935425,0,0.0,0.0,0.0,0.0
1.179840088,0.29757285,0.10367275,-0.9490534,-0.023990128,0.9945845,0.10112444,0.9543977,-0.007323974,0.29844844,0.3034833,0.06491247,-0.9506231,-0.012847031,0.99786484,0.06403696,0.9527502,-0.0072214645,0.30366927,0.045043945,-0.01914978,-0.015411377,9.359375,-0.07182312,2.9267578,0.0053253174,-0.005340576,-0.0010681152,-25.491333,16.470337,-6.1935425,0,0.0,0.0,0.0,0.0
1.184234619,0.29755932,0.10364925,-0.9490602,-0.023981564,0.994587,0.10110239,0.95440215,-0.0073240083,0.29843426,0.3034833,0.06491247,-0.9506231,-0.012847031,0.99786484,0.06403696,0.9527502,-0.0072214645,0.30366927,0.045043945,-0.01914978,-0.015258789,9.359375,-0.07182312,2.9266052,0.0053253174,-0.005340576,-0.0010681152,-25.491333,16.470337,-6.1935425,0,0.0,0.0,0.0,0.0
1.18862915,0.29800186,0.08234568,-0.95100695,-0.01763919,0.99657726,0.080764204,0.9544023,-0.00729289,0.29843435,0.30325672,0.0664487,-0.95058924,-0.013296154,0.9977637,0.06550459,0.9528161,-0.007225525,0.30346206,-0.026779175,0.090667725,0.0038909912,9.359375,-0.071517944,2.9266052,0.003189087,-0.010665894,-0.0053253174,-24.415588,16.828918,-6.1935425,0,0.0,0.0,0.0,0.0
1.193023681,0.2979732,0.08229932,-0.9510199,-0.01763766,0.9965811,0.08071587,0.95441127,-0.0072773984,0.298406,0.30315226,0.06676682,-0.9506002,-0.013384618,0.9977424,0.06580948,0.95284814,-0.0072268727,0.30336154,0.073776245,0.057006836,-0.07241821,9.359375,-0.07136536,2.9263,0.0053253174,-0.018112183,-0.0063934326,-24.415588,16.828918,-6.1935425,0,0.0,0.0,0.0,0.0
1.197418213,0.29804772,0.07792509,-0.95136493,-0.016329855,0.9969327,0.0765416,0.95441127,-0.0072773984,0.298406,0.30304933,0.06707764,-0.95061123,-0.0134712225,0.9977216,0.06610732,0.95287967,-0.007227883,0.30326247,-0.041152954,-0.033966064,-0.0053863525,9.359375,-0.07136536,2.9263,0.003189087,-0.0063934326,-0.0095825195,-24.954224,17.72461,-6.365967,0,0.0,0.0,0.0,0.0
1.201812744,0.29807413,0.07796646,-0.9513532,-0.01635936,0.9969294,0.07657592,0.95440245,-0.0072617717,0.29843438,0.30294955,0.06729466,-0.9506277,-0.013529441,0.99770695,0.06631578,0.9529106,-0.007228873,0.30316535,-0.074661255,0.05206299,0.04219055,9.359375,-0.07121277,2.9266052,0.0010681152,-0.0032043457,0.0010681152,-24.954224,17.72461,-6.365967,0,0.0,0.0,0.0,0.0
1.206207275,0.29803213,0.07790068,-0.9513718,-0.01630645,0.9969345,0.076523215,0.9544166,-0.0072928797,0.2983888,0.3028523,0.067508176,-0.9506435,-0.0135870455,0.9976925,0.066520765,0.9529407,-0.007229531,0.30307075,0.025741577,-0.06254578,-0.120162964,9.359528,-0.071517944,2.9261627,0.0063934326,0.0053253174,0.008514404,-24.954224,17.72461,-6.365967,0,0.0,0.0,0.0,0.0
1.210601806,0.29839957,0.04631419,-0.9533167,-0.0068523777,0.9989003,0.046383865,0.9544165,-0.0073084394,0.29838878,0.3027562,0.0677161,-0.95065933,-0.013642403,0.9976784,0.066720605,0.9529704,-0.0072307982,0.30297711,-0.022155762,-0.06239319,0.023483276,9.359528,-0.07167053,2.9261627,-0.0010681152,0.010650635,0.008514404,-24.77417,17.904663,-6.8847656,0,0.0,0.0,0.0,0.0
1.214996338,0.29839957,0.04631419,-0.9533167,-0.0068523777,0.9989003,0.046383865,0.9544165,-0.0073084394,0.29838878,0.30267054,0.06728833,-0.95071703,-0.013504728,0.99770737,0.06631477,0.9529996,-0.007232351,0.30288532,-0.1083374,0.023788452,-0.024398804,9.359528,-0.07167053,2.9261627,-0.007461548,-0.0010681152,-0.004257202,-24.77417,17.904663,-6.8847656,0,0.0,0.0,0.0,0.0
1.219390869,0.29837018,0.046269163,-0.953328,-0.0068671512,0.99890244,0.046331827,0.9544255,-0.007277388,0.29836047,0.30258662,0.0668691,-0.95077336,-0.013369887,0.99773556,0.06591701,0.95302814,-0.007233873,0.30279544,0.06404114,0.042648315,-0.08634949,9.359528,-0.07136536,2.9258575,0.004257202,0.014892578,-0.0021362305,-24.77417,17.904663,-6.8847656,0,0.0,0.0,0.0,0.0
1.2237854,0.29843315,0.037497733,-0.9536936,-0.004248006,0.99927014,0.03796043,0.95442104,-0.007277354,0.29837462,0.30272165,0.065840185,-0.95080215,-0.012972466,0.9978033,0.06496463,0.9529907,-0.007331952,0.30291077,-0.0077819824,0.018707275,0.047576904,9.359528,-0.07136536,2.9260101,0.008514404,0.003189087,0.004257202,-25.132751,16.111755,-7.23114,0,0.0,0.0,0.0,0.0
1.228179931,0.29845878,0.03754215,-0.95368385,-0.0042905984,0.9992688,0.03799386,0.9544129,-0.0072477283,0.29840165,0.30263847,0.06527377,-0.95086765,-0.012795534,0.99784046,0.06442578,0.9530195,-0.00733086,0.30282012,-0.1083374,0.06150818,0.037719727,9.359528,-0.07107544,2.9263,0.0095825195,-0.005340576,0.0021362305,-25.132751,16.111755,-7.23114,0,0.0,0.0,0.0,0.0
1.232574463,0.2984577,0.037540235,-0.9536843,-0.0043197037,0.9992691,0.03798275,0.9544132,-0.007216611,0.29840174,0.30255735,0.06471956,-0.95093143,-0.012623109,0.9978766,0.063898325,0.9530476,-0.007329197,0.30273184,-0.041305542,0.075546265,-5.950928E-4,9.359528,-0.07077026,2.9263,0.014907837,-0.012786865,-0.0010681152,-25.132751,16.111755,-7.23114,0,0.0,0.0,0.0,0.0
1.236968994,0.29814544,0.067975946,-0.95209694,-0.013425155,0.997661,0.067025006,0.95442605,-0.0072011487,0.29836065,0.30247775,0.06417637,-0.9509934,-0.012454808,0.9979117,0.063381135,0.95307505,-0.007326945,0.30264542,0.040100098,0.046676636,-0.09112549,9.359528,-0.070617676,2.9258575,-0.019165039,-0.004272461,0.0021362305,-25.312805,17.007446,-6.7123413,0,0.0,0.0,0.0,0.0
1.241363525,0.29818457,0.06804082,-0.95208,-0.013462339,0.9976567,0.06708167,0.95441335,-0.007185493,0.2984018,0.30239117,0.06425238,-0.9510159,-0.012474531,0.9979068,0.06345393,0.9531023,-0.007324429,0.30255973,0.006576538,0.036956787,0.11433411,9.359528,-0.07046509,2.9263,0.0,-0.004272461,-0.0032043457,-25.312805,17.007446,-6.7123413,0,0.0,0.0,0.0,0.0
1.245758056,0.29820368,0.068072625,-0.9520718,-0.013458268,0.9976543,0.06711641,0.95440733,-0.007201125,0.29842034,0.3023072,0.06432815,-0.95103747,-0.0124946,0.9979019,0.06352639,0.95312864,-0.007321651,0.30247667,-0.031570435,-0.039505005,0.0184021,9.359375,-0.070617676,2.9264526,-0.010635376,0.006378174,0.0063934326,-25.312805,17.007446,-6.7123413,0,0.0,0.0,0.0,0.0
1.250152588,0.29779875,0.09040843,-0.950338,-0.020103838,0.9958785,0.088441074,0.95441693,-0.0072321994,0.2983889,0.30222526,0.06440306,-0.9510584,-0.01251418,0.99789715,0.06359811,0.9531544,-0.0073192404,0.30239567,-0.012573242,-0.05834961,-0.067489624,9.359528,-0.07092285,2.9261627,0.010650635,-0.0021362305,-0.012786865,-24.595642,17.72461,-6.021118,0,0.0,0.0,0.0,0.0
1.254547119,0.29781666,0.09043606,-0.9503298,-0.020098839,0.995876,0.088471755,0.95441157,-0.0072478363,0.2984061,0.30213866,0.06492365,-0.9510505,-0.012668119,0.9978634,0.06409481,0.95317984,-0.0073174997,0.3023156,-0.050720215,-0.05819702,0.052078247,9.359375,-0.07107544,2.9263,-0.008529663,-0.0063934326,0.0021362305,-24.595642,17.72461,-6.021118,0,0.0,0.0,0.0,0.0
1.25894165,0.29780254,0.09041426,-0.9503363,-0.020062704,0.99587774,0.08846009,0.9544167,-0.007277321,0.29838884,0.30205405,0.065434374,-0.9510424,-0.012818788,0.99783003,0.06458221,0.95320463,-0.0073161065,0.30223742,-0.012573242,-0.091430664,-0.057922363,9.359528,-0.07136536,2.9261627,-0.0032043457,-0.0063934326,-0.0010681152,-24.595642,17.72461,-6.021118,0,0.0,0.0,0.0,0.0
1.263336181,0.29716057,0.11736109,-0.94758743,-0.028139614,0.99306273,0.11416882,0.9544128,-0.0072617317,0.29840162,0.30197078,0.06593443,-0.95103437,-0.0129656475,0.99779713,0.06505963,0.953229,-0.0073153307,0.30216047,0.025741577,0.05206299,0.028137207,9.359528,-0.07121277,2.9263,0.014907837,-0.0010681152,-0.0021362305,-24.954224,17.366028,-5.6747437,0,0.0,0.0,0.0,0.0
1.267730713,0.2971319,0.11731501,-0.9476022,-0.028150557,0.9930685,0.114116885,0.9544214,-0.007232233,0.29837474,0.30188224,0.06696514,-0.9509904,-0.013273401,0.99772847,0.06604275,0.9532528,-0.0073142583,0.30208537,-0.026931763,0.09007263,-0.057769775,9.359528,-0.07092285,2.9260101,-0.0063934326,-0.005340576,0.0021362305,-24.954224,17.366028,-5.6747437,0,0.0,0.0,0.0,0.0
1.272125244,0.29710388,0.11727014,-0.9476165,-0.028105237,0.9930735,0.114083804,0.9544314,-0.007261755,0.2983419,0.3017945,0.06797425,-0.9509466,-0.0135750715,0.9976602,0.06700515,0.95327634,-0.0073126173,0.30201116,0.07347107,-0.08679199,-0.0622406,9.35968,-0.07121277,2.925705,-0.0010681152,0.0021209717,0.0010681152,-24.954224,17.366028,-5.6747437,0,0.0,0.0,0.0,0.0
1.276519775,0.29841608,0.023527948,-0.95414585,-9.0233516E-5,0.9996968,0.02462295,0.9544358,-0.0072617885,0.2983277,0.30170766,0.0689622,-0.9509031,-0.013869669,0.9975925,0.067947604,0.95329964,-0.0073116,0.30193776,-0.07975769,-0.019760132,-0.07167053,9.35968,-0.07121277,2.9255524,0.0010681152,0.003189087,-0.0032043457,-22.802734,17.007446,-6.7123413,0,0.0,0.0,0.0,0.0
1.280914306,0.29844886,0.023576383,-0.9541344,-1.0550022E-4,0.9996956,0.024669187,0.9544256,-0.007261829,0.2983605,0.30164808,0.0680546,-0.9509874,-0.013591049,0.99765486,0.06708321,0.95332247,-0.0073106037,0.3018656,0.044891357,0.018554688,0.10519409,9.359528,-0.07121277,2.9258575,0.003189087,-0.0063934326,-0.004257202,-22.802734,17.007446,-6.7123413,0,0.0,0.0,0.0,0.0
1.285308838,0.2984641,0.023598881,-0.9541291,-6.8080146E-5,0.99969494,0.024704585,0.954421,-0.0073084733,0.29837462,0.30159006,0.06716607,-0.951069,-0.013318455,0.99771506,0.06623692,0.9533447,-0.007309628,0.30179548,0.07362366,-0.13900757,0.061950684,9.359528,-0.07167053,2.9260101,-0.010635376,0.0053253174,-0.0010681152,-22.802734,17.007446,-6.7123413,0,0.0,0.0,0.0,0.0
1.289703369,0.2984198,0.04335338,-0.9534496,-0.005939744,0.99903286,0.043566972,0.9544162,-0.007338001,0.2983887,0.30151948,0.06575984,-0.95118964,-0.013261015,0.9978115,0.06477937,0.95336777,-0.0069185016,0.30173162,0.016159058,-0.04774475,0.057006836,9.359528,-0.07196045,2.9261627,0.0095825195,0.0,-0.0032043457,-23.339844,16.828918,-6.539917,0,0.0,0.0,0.0,0.0
1.2940979,0.2984649,0.043422624,-0.9534323,-0.0059624994,0.99902976,0.043632776,0.9544019,-0.0073380102,0.2984342,0.30145922,0.06531198,-0.9512395,-0.013113193,0.9978408,0.0643559,0.95338887,-0.006926892,0.3016648,0.001953125,-0.019012451,0.10923767,9.359375,-0.07196045,2.9266052,0.0053253174,0.0021209717,-0.0063934326,-23.339844,16.828918,-6.539917,0,0.0,0.0,0.0,0.0
1.298492431,0.29847953,0.04344516,-0.95342666,-0.0059550796,0.9990287,0.043658827,0.9543974,-0.0073535354,0.29844835,0.30140108,0.06487447,-0.9512879,-0.012968864,0.9978694,0.06394217,0.9534093,-0.0069351145,0.30160025,-0.103393555,-0.042800903,0.008529663,9.359375,-0.07211304,2.9267578,0.0095825195,-0.004272461,0.008514404,-23.339844,16.828918,-6.539917,0,0.0,0.0,0.0,0.0
1.302886963,0.298416,0.046610195,-0.953297,-0.0069133877,0.9988861,0.046675075,0.95441085,-0.007338079,0.2984059,0.30134428,0.06444615,-0.951335,-0.012827335,0.9978971,0.06353721,0.95342916,-0.0069434824,0.30153725,0.116867065,0.05281067,-0.06762695,9.359375,-0.07196045,2.9263,-0.0010681152,-0.015991211,-0.0021362305,-25.312805,17.72461,-7.05719,0,0.0,0.0,0.0,0.0
1.307281494,0.29839772,0.046581272,-0.9533042,-0.0069321636,0.9988878,0.046638757,0.9544165,-0.0073084394,0.29838878,0.30128688,0.06408961,-0.95137733,-0.01270801,0.99792,0.063200526,0.9534489,-0.006951375,0.30147463,0.049682617,0.06689453,-0.029190063,9.359528,-0.07167053,2.9261627,-0.011703491,0.007446289,-0.007461548,-25.312805,17.72461,-7.05719,0,0.0,0.0,0.0,0.0
1.311676025,0.29836974,0.046536908,-0.9533152,-0.0069174604,0.9988898,0.046596635,0.9544253,-0.0073085064,0.2983604,0.30123016,0.06373962,-0.95141876,-0.01259148,0.9979423,0.062869824,0.9534683,-0.0069585163,0.30141288,0.044891357,-0.014511108,-0.06239319,9.359528,-0.07167053,2.9258575,0.004257202,0.0053253174,0.0063934326,-25.312805,17.72461,-7.05719,0,0.0,0.0,0.0,0.0
1.316070556,0.29830807,0.04643932,-0.9533392,-0.0068570958,0.99889416,0.04651276,0.954445,-0.007337995,0.29829666,0.30117396,0.06339574,-0.95145947,-0.012477013,0.99796414,0.06254488,0.9534876,-0.006965516,0.30135182,-0.0655365,-0.05731201,-0.19108582,9.3598175,-0.07196045,2.9252625,-0.004257202,-0.0010681152,-0.0095825195,-25.312805,17.72461,-7.05719,0,0.0,0.0,0.0,0.0
1.320465088,0.29829407,0.04641715,-0.95334464,-0.0068497523,0.99889517,0.046491712,0.9544494,-0.0073380284,0.29828247,0.30111772,0.063056774,-0.9514999,-0.012363648,0.9979856,0.062224753,0.9535068,-0.006972966,0.30129075,0.011077881,-0.014221191,-0.032928467,9.3598175,-0.07196045,2.9251099,0.0095825195,0.003189087,0.004257202,-25.312805,17.72461,-7.05719,0,0.0,0.0,0.0,0.0
1.324859619,0.29830945,0.046441477,-0.9533387,-0.0068280734,0.9988938,0.0465241,0.95444477,-0.007369112,0.29829657,0.30106226,0.062724136,-0.9515394,-0.012252433,0.99800646,0.061910573,0.9535258,-0.0069802664,0.30123064,0.09727478,-0.080963135,0.048324585,9.3598175,-0.072265625,2.9252625,0.0053253174,-0.0063934326,-0.0095825195,-25.312805,17.72461,-7.05719,0,0.0,0.0,0.0,0.0
1.32925415,0.2983174,0.042718157,-0.9535103,-0.0057451925,0.99906015,0.04296138,0.9544494,-0.0073380284,0.29828247,0.30100816,0.062398635,-0.9515779,-0.012143049,0.99802685,0.061603315,0.9535442,-0.006988044,0.30117193,-0.03201294,0.07196045,-0.042495728,9.3598175,-0.07196045,2.9251099,0.013839722,0.012756348,-0.0032043457,-24.415588,16.828918,-6.8847656,0,0.0,0.0,0.0,0.0
1.333648681,0.29831684,0.04271725,-0.9535105,-0.005758272,0.99906033,0.042956334,0.9544495,-0.007324025,0.29828247,0.3009557,0.062005233,-0.95162016,-0.0120140305,0.99805135,0.061231058,0.95356244,-0.0069950433,0.3011142,0.08769226,0.0574646,0.048477173,9.3598175,-0.07182312,2.9251099,0.004257202,0.007446289,-0.0021362305,-24.415588,16.828918,-6.8847656,0,0.0,0.0,0.0,0.0
1.338043213,0.29837424,0.04280956,-0.9534884,-0.005818213,0.99905664,0.04303479,0.95443124,-0.007292873,0.29834184,0.3009042,0.061619673,-0.9516615,-0.011887893,0.9980752,0.060866117,0.95358026,-0.007001623,0.30105758,-0.10369873,0.052368164,0.1436615,9.35968,-0.071517944,2.925705,0.0095825195,0.0095825195,0.0053253174,-24.415588,16.828918,-6.8847656,0,0.0,0.0,0.0,0.0
1.342437744,0.29780284,0.08975915,-0.95039815,-0.019850679,0.99593675,0.087839864,0.954421,-0.0072929137,0.29837462,0.3008548,0.061243657,-0.95170146,-0.01176554,0.99809825,0.060510017,0.95359737,-0.007007448,0.30100322,-0.07481384,0.004486084,0.071517944,9.359528,-0.071517944,2.9260101,0.008514404,0.0,0.0,-24.057007,17.904663,-5.847168,0,0.0,0.0,0.0,0.0
1.346832275,0.2978153,0.08977768,-0.95039266,-0.019872345,0.9959354,0.08785261,0.9544167,-0.007277321,0.29838884,0.30079597,0.06181454,-0.95168316,-0.011928825,0.998063,0.061056733,0.9536139,-0.0070131575,0.30095068,-0.0796051,0.037857056,-0.014816284,9.359528,-0.07136536,2.9261627,-0.015960693,-0.0138549805,0.0063934326,-24.057007,17.904663,-5.847168,0,0.0,0.0,0.0,0.0
1.351226806,0.29784432,0.08982099,-0.95037943,-0.019902928,0.99593145,0.08788866,0.9544069,-0.0072618052,0.29842022,0.30073836,0.06237435,-0.9516648,-0.0120892,0.99802816,0.06159277,0.9536301,-0.0070184404,0.3008994,-0.022003174,0.042495728,0.09024048,9.359375,-0.07121277,2.9264526,0.012786865,0.004257202,-0.01171875,-24.057007,17.904663,-5.847168,0,0.0,0.0,0.0,0.0
1.355621338,0.2979818,-0.03356287,-0.95398134,0.01694193,0.9994103,-0.029869232,0.9544212,-0.007261796,0.2983747,0.3006825,0.06292381,-0.95164627,-0.012246912,0.99799365,0.062118806,0.95364565,-0.007023308,0.30084983,0.1550293,0.004180908,-0.067337036,9.359528,-0.07121277,2.9260101,-0.007461548,-0.009597778,0.0053253174,-23.878479,18.08319,-8.094788,0,0.0,0.0,0.0,0.0
1.360015869,0.2979673,-0.033583768,-0.95398515,0.016947746,0.99940956,-0.029889418,0.9544256,-0.007261829,0.2983605,0.30109698,0.06045673,-0.9516751,-0.012107761,0.9981502,0.059578404,0.95351666,-0.0064162235,0.301272,0.09277344,-0.010177612,0.004638672,9.359528,-0.07121277,2.9258575,0.010650635,0.007446289,-0.0063934326,-23.878479,18.08319,-8.094788,0,0.0,0.0,0.0,0.0
1.3644104,0.29798225,-0.033562206,-0.95398116,0.016928371,0.99941033,-0.029872773,0.95442134,-0.0072477926,0.2983747,0.30106208,0.058578383,-0.9518037,-0.011521533,0.9982621,0.057793308,0.95353496,-0.0064331363,0.30121377,-0.060455322,0.05192566,0.004486084,9.359528,-0.07107544,2.9260101,0.007461548,-0.0032043457,-0.007461548,-23.878479,18.08319,-8.094788,0,0.0,0.0,0.0,0.0
1.368804931,0.29630363,0.1436545,-0.94422853,-0.035964053,0.98960096,0.13927174,0.9544165,-0.0073084394,0.29838878,0.3010271,0.05673783,-0.95192623,-0.010947616,0.9983683,0.056043968,0.9535527,-0.0064494293,0.30115703,-0.0029907227,-0.14859009,0.052215576,9.359528,-0.07167053,2.9261627,0.003189087,0.013824463,-0.0021362305,-24.415588,16.470337,-5.155945,0,0.0,0.0,0.0,0.0
1.373199463,0.2962367,0.14354338,-0.94426644,-0.035905257,0.98961693,0.1391731,0.9544394,-0.0073240553,0.2983148,0.30095315,0.058482632,-0.951844,-0.011454012,0.9982675,0.057713438,0.9535701,-0.0064666094,0.30110162,-0.02230835,-0.0335083,-0.22955322,9.35968,-0.07182312,2.925415,0.01171875,-0.0021362305,-0.014907837,-24.415588,16.470337,-5.155945,0,0.0,0.0,0.0,0.0
1.377593994,0.2962025,0.14348668,-0.9442858,-0.035912983,0.9896254,0.139111,0.9544498,-0.0072929077,0.29828256,0.30087852,0.060190126,-0.9517611,-0.011949002,0.99816585,0.059347384,0.9535876,-0.0064837583,0.30104586,0.011077881,0.042800903,-0.06643677,9.3598175,-0.071517944,2.9251099,-0.0032043457,0.0021209717,-0.004257202,-24.415588,16.470337,-5.155945,0,0.0,0.0,0.0,0.0
1.381988525,0.29837108,0.038180817,-0.95368594,-0.0044347346,0.9992442,0.038617287,0.95443964,-0.0072929375,0.2983149,0.30080402,0.061862156,-0.95167744,-0.012434086,0.99806356,0.06094726,0.95360494,-0.0064999415,0.30099073,-0.09892273,-0.019454956,-0.028442383,9.35968,-0.071517944,2.925415,0.008514404,-0.005340576,0.004257202,-24.595642,15.931702,-7.05719,0,0.0,0.0,0.0,0.0
1.386383056,0.29837167,0.038181785,-0.95368576,-0.0044201855,0.9992442,0.038622856,0.9544396,-0.007308497,0.2983149,0.30080402,0.061862156,-0.95167744,-0.012434086,0.99806356,0.06094726,0.95360494,-0.0064999415,0.30099073,-0.09892273,-0.019302368,-0.028442383,9.35968,-0.07167053,2.925415,0.008514404,-0.005340576,0.004257202,-24.595642,15.931702,-7.05719,0,0.0,0.0,0.0,0.0
1.390777588,0.29833847,0.038124926,-0.95369846,-0.004431606,0.99924654,0.038559444,0.95444983,-0.0072773485,0.2982826,0.3007117,0.060924977,-0.9517671,-0.012114489,0.99812096,0.06006462,0.9536382,-0.00653196,0.30088472,-0.017654419,0.09051514,-0.09996033,9.3598175,-0.07136536,2.9251099,0.01171875,-0.017044067,-0.0063934326,-24.595642,15.931702,-7.05719,0,0.0,0.0,0.0,0.0
1.395172119,0.29825598,-0.0027749608,-0.9544819,0.007758962,0.99996984,-4.8269145E-4,0.9544544,-0.0072618234,0.29826847,0.3006662,0.060469244,-0.95181054,-0.01195975,0.99814856,0.05963519,0.95365447,-0.006546868,0.30083272,-0.03201294,0.028121948,-0.05671692,9.3598175,-0.07121277,2.9249573,0.0053253174,0.0021209717,0.0053253174,-22.981262,17.1875,-7.23114,0,0.0,0.0,0.0,0.0
1.39956665,0.2981912,-0.0028699108,-0.95450187,0.0077440958,0.99996984,-5.8732554E-4,0.95447475,-0.007216618,0.29820442,0.3006307,0.05920589,-0.9519012,-0.01156245,0.99822426,0.0584354,0.95367056,-0.0065611666,0.30078143,-0.070632935,-0.020202637,-0.032180786,9.360123,-0.07077026,2.9243622,-0.007461548,-0.0032043457,-0.004257202,-22.981262,17.1875,-7.23114,0,0.0,0.0,0.0,0.0
1.403961181,0.29821,-0.0028424289,-0.9544961,0.007750833,0.9999699,-5.5628037E-4,0.9544689,-0.007232251,0.298223,0.30059415,0.057965804,-0.951989,-0.011173414,0.9982969,0.057257406,0.95368665,-0.0065742754,0.3007299,-0.022598267,-0.04399109,0.034713745,9.35997,-0.07092285,2.9245148,0.02130127,-0.012786865,-0.0053253174,-22.981262,17.1875,-7.23114,0,0.0,0.0,0.0,0.0
1.408355713,0.29756707,0.094814606,-0.9499811,-0.021422792,0.99546885,0.09264423,0.95446056,-0.0072166286,0.29824996,0.3005582,0.056750983,-0.9520736,-0.010792149,0.99836665,0.05610346,0.95370245,-0.006587435,0.30067974,0.030075073,0.061203003,0.11103821,9.35997,-0.07077026,2.9248047,0.0010681152,0.006378174,-0.004257202,-23.878479,18.08319,-5.6747437,0,0.0,0.0,0.0,0.0
1.412750244,0.29756847,0.09481661,-0.9499805,-0.02140861,0.99546856,0.09265077,0.95446044,-0.0072321873,0.29824993,0.3005021,0.057513256,-0.9520455,-0.011006759,0.99832296,0.056834724,0.95371765,-0.0066000186,0.3006312,-0.041748047,-0.03919983,-0.018249512,9.35997,-0.07092285,2.9248047,-0.0032043457,-0.009597778,0.004257202,-23.878479,18.08319,-5.6747437,0,0.0,0.0,0.0,0.0
1.417144775,0.2975534,0.09479456,-0.94998735,-0.02141539,0.9954707,0.092625424,0.954465,-0.0072166617,0.29823577,0.30044702,0.058260284,-0.9520175,-0.011216717,0.9982795,0.057551485,0.95373255,-0.006612662,0.3005836,0.08753967,0.013320923,-0.0037384033,9.35997,-0.07077026,2.924652,-0.0063934326,-0.0021362305,0.008514404,-23.878479,18.08319,-5.6747437,0,0.0,0.0,0.0,0.0
1.421539306,0.29787478,-0.030917887,-0.9541041,0.016120745,0.9994958,-0.027355855,0.9544689,-0.007232251,0.298223,0.30039254,0.058991905,-0.95198965,-0.011422541,0.99823654,0.05825339,0.9537473,-0.0066247424,0.30053663,0.044448853,0.13316345,-0.022750854,9.35997,-0.07092285,2.9245148,0.014907837,-0.007461548,-0.0063934326,-24.23706,16.290283,-8.094788,0,0.0,0.0,0.0,0.0
