Time,Rot1,Rot2,Rot3,Rot4,Rot5,Rot6,Rot7,Rot8,Rot9,FRot1,FRot2,FRot3,FRot4,FRot5,FRot6,FRot7,FRot8,FRot9,AccX,AccY,AccZ,GravX,GravY,GravZ,GyroX,GyroY,GyroZ,MagX,MagY,MagZ,Imid
0.0,0.0,0.0,0.0,0.0,0.0,0.0,0.0,0.0,0.0,0.0,0.0,0.0,0.0,0.0,0.0,0.0,0.0,0.0,-0.02633667,-0.055648804,-0.06838989,9.780304,0.026931763,0.71720886,0.0,0.0,0.0,0.0,0.0,0.0,0,0.0,0.0,0.0,0.0
0.004394531,0.060271323,-0.59788215,-0.79931486,0.04153354,0.8015793,-0.5964442,0.9973176,0.002750101,0.07314441,1.0,0.0,0.0,0.0,1.0,0.0,0.0,0.0,1.0,-0.022738457,-0.050898742,-0.06656337,9.780296,0.026969146,0.7172981,0.0,0.0,0.0,-34.277344,32.78656,-27.108765,0,0.0,0.0,0.0,0.0
0.00881958,0.060290582,-0.5978689,-0.79932326,0.041540064,0.8015891,-0.5964304,0.9973161,0.0027552007,0.07316379,0.9994694,-0.012816821,-0.029944055,0.012809426,0.99991786,-4.38801E-4,0.02994722,5.5002038E-5,0.9995515,-0.02362156,-0.043527447,-0.05679369,9.780282,0.027019156,0.71748817,0.0095825195,0.045791626,-0.015975952,-34.277344,32.78656,-27.108765,0,0.0,0.0,0.0,0.0
0.013214111,0.060316678,-0.5978511,-0.79933465,0.04154857,0.80160236,-0.596412,0.9973142,0.0027623803,0.073189855,0.99792075,-0.025374949,-0.059247367,0.025323883,0.999678,-0.0016127327,0.059269212,1.09006025E-4,0.998242,-0.021818161,-0.03846335,-0.057403266,9.78026,0.027089555,0.7177435,0.01171875,0.036209106,0.0021209717,-34.277344,32.78656,-27.108765,0,0.0,0.0,0.0,0.0
0.01763916,0.060342073,-0.59795237,-0.799257,0.041570574,0.80152684,-0.596512,0.9973118,0.002769201,0.07322302,0.99541765,-0.037677597,-0.08788635,0.03751733,0.99928993,-0.0034752593,0.08795488,1.6207353E-4,0.99612445,-0.017704964,-0.04107357,-0.05591023,9.780232,0.027156433,0.7180685,0.017044067,0.04260254,-0.0053253174,-34.25049,32.813416,-27.134705,0,0.0,0.0,0.0,0.0
0.022033691,0.060382035,-0.597925,-0.79927444,0.041587375,0.8015472,-0.59648347,0.9973087,0.0027771592,0.07326519,0.992022,-0.04973119,-0.11584161,0.049370673,0.99876267,-0.0059811124,0.11599572,2.142161E-4,0.9932497,-0.018098831,-0.04237072,-0.04765284,9.780198,0.027234463,0.7184817,0.010650635,0.04260254,-0.0063934326,-34.25049,32.813416,-27.134705,0,0.0,0.0,0.0,0.0
0.02645874,0.060423948,-0.59789634,-0.7992928,0.04160307,0.8015686,-0.59645367,0.99730545,0.0027870522,0.07330826,0.9877937,-0.061536014,-0.14309773,0.060862165,0.9981048,-0.009085614,0.14338562,2.6547498E-4,0.9896668,-0.015599251,-0.03476817,-0.036486506,9.780166,0.027331479,0.7189041,0.0010681152,0.038330078,-0.014923096,-34.25049,32.813416,-27.134705,0,0.0,0.0,0.0,0.0
0.030853271,0.06045408,-0.5980922,-0.79914397,0.041636225,0.8014225,-0.59664774,0.99730223,0.0027964525,0.073351555,0.98279107,-0.07309569,-0.16964306,0.071976595,0.9973249,-0.012745573,0.17012088,3.1590654E-4,0.98542315,-0.0098667145,-0.032573525,-0.0287745,9.780128,0.027423644,0.71932817,0.0,0.023422241,-0.0063934326,-34.233902,32.794144,-27.133408,0,0.0,0.0,0.0,0.0
0.03527832,0.060491003,-0.59806687,-0.7991601,0.041652694,0.8014413,-0.5966213,0.9972993,0.002803047,0.07339109,0.9770697,-0.084419526,-0.19546913,0.08270729,0.9964302,-0.016920228,0.19619976,3.6551748E-4,0.9805639,-0.0039491653,-0.032619502,-0.014729023,9.780099,0.027488314,0.71971583,-0.011703491,-0.0021209717,0.0010681152,-34.233902,32.794144,-27.133408,0,0.0,0.0,0.0,0.0
0.039672851,0.060521368,-0.5980461,-0.79917324,0.041667037,0.8014567,-0.5965995,0.9972969,0.0028078347,0.07342408,0.9706838,-0.09550571,-0.2205708,0.09303934,0.9954288,-0.02156833,0.22162244,4.142681E-4,0.97513247,-2.861023E-6,-0.028340364,0.007039368,9.780071,0.027535254,0.72003907,-0.012771606,-0.027694702,0.008514404,-34.233902,32.794144,-27.133408,0,0.0,0.0,0.0,0.0
0.0440979,0.060557347,-0.5976658,-0.7994551,0.041644745,0.80174047,-0.5962198,0.9972956,0.0028123816,0.07344091,0.96368545,-0.10635818,-0.24494566,0.10296601,0.9943278,-0.026651036,0.24639082,4.6213943E-4,0.96917045,0.0027742386,-0.026429724,0.022593915,9.78006,0.027579848,0.72020423,-0.003189087,-0.05645752,0.008514404,-34.254,32.775833,-27.097614,0,0.0,0.0,0.0,0.0
0.048492431,0.06055335,-0.5976685,-0.7994534,0.041638643,0.80173844,-0.59622294,0.9972961,0.0028151455,0.07343405,0.95612484,-0.11697191,-0.26859418,0.11247414,0.9931351,-0.0321287,0.27050847,5.0914433E-4,0.9627175,0.0034809113,-0.022683617,0.036637545,9.780065,0.027606953,0.7201369,0.0021362305,-0.09373474,0.003189087,-34.254,32.775833,-27.097614,0,0.0,0.0,0.0,0.0
0.05291748,0.060525354,-0.5976878,-0.7994412,0.0416195,0.80172426,-0.5962436,0.99729866,0.0028155164,0.07340009,0.9480486,-0.12736048,-0.29151884,0.12157072,0.99185634,-0.037967905,0.2939804,5.552644E-4,0.95581126,0.0062913895,-0.018624324,0.0445019,9.780085,0.027610576,0.7198035,-0.013839722,-0.12782288,0.0095825195,-34.254,32.775833,-27.097614,0,0.0,0.0,0.0,0.0
0.057342529,0.06042589,-0.59859145,-0.7987722,0.041651823,0.8010496,-0.5971472,0.9973033,0.002812835,0.073336564,0.9395015,-0.13752821,-0.31372422,0.13025548,0.99049765,-0.044134855,0.3168129,6.004694E-4,0.9484879,0.008700371,-0.02191979,0.05443424,9.780126,0.027584264,0.71918017,-0.026611328,-0.14274597,0.012771606,-34.156597,32.67772,-27.072231,0,0.0,0.0,0.0,0.0
0.06173706,0.060344525,-0.59864706,-0.7987367,0.041605365,0.8010081,-0.5972062,0.9973102,0.0028063976,0.07324339,0.926831,-0.14740641,-0.34533408,0.13830827,0.9890759,-0.050987553,0.34907752,-5.057127E-4,0.93709373,0.00737381,-0.025012339,0.05605215,9.780188,0.02752112,0.718266,-0.017028809,-0.16297913,0.004257202,-34.156597,32.67772,-27.072231,0,0.0,0.0,0.0,0.0
0.066162109,0.060237657,-0.59872013,-0.79869,0.041542266,0.8009535,-0.5972838,0.9973193,0.0027995808,0.073119745,0.91731536,-0.15716852,-0.36582863,0.14615229,0.98757166,-0.05780697,0.37036744,-4.3947052E-4,0.9288852,0.012070656,-0.021240206,0.049792707,9.780275,0.027454268,0.7170535,-0.012771606,-0.15553284,0.0063934326,-34.156597,32.67772,-27.072231,0,0.0,0.0,0.0,0.0
0.07055664,0.060061734,-0.5997692,-0.79791564,0.041536346,0.8001681,-0.59833574,0.9973301,0.0027945829,0.07297172,0.9074647,-0.16672233,-0.38563117,0.15359083,0.9860038,-0.06485621,0.3910468,-3.7468947E-4,0.9203707,0.01651001,-0.021740695,0.04055488,9.780381,0.027405255,0.71560174,-0.012771606,-0.15019226,0.008514404,-34.07299,32.62937,-27.091301,0,0.0,0.0,0.0,0.0
0.074981689,0.05992117,-0.599865,-0.7978543,0.04145056,0.8000964,-0.59843767,0.9973421,0.0027875793,0.072807446,0.897311,-0.1760957,-0.40475094,0.16065109,0.984373,-0.07211811,0.41112557,-3.11304E-4,0.91157866,0.02119255,-0.026503881,0.023152351,9.780497,0.027336568,0.7139907,0.010650635,-0.12463379,-0.009597778,-34.07299,32.62937,-27.091301,0,0.0,0.0,0.0,0.0
0.07937622,0.059768528,-0.59996897,-0.7977876,0.04135519,0.8000185,-0.5985484,0.9973552,0.0027817043,0.07262775,0.8868914,-0.18526849,-0.42320108,0.16731702,0.9826879,-0.07955812,0.43061417,-2.4932632E-4,0.90253603,0.020597458,-0.024572913,0.003499508,9.780622,0.027278943,0.71222824,-0.007461548,-0.07989502,-0.0032043457,-34.07299,32.62937,-27.091301,0,0.0,0.0,0.0,0.0
0.083801269,0.059511837,-0.60211563,-0.7961878,0.041411012,0.7984041,-0.6006963,0.99736834,0.002777601,0.072448716,0.87623805,-0.19424474,-0.4409942,0.17359592,0.9809531,-0.08715222,0.44952348,-1.8870569E-4,0.8932685,0.022418976,-0.022513427,-0.0043147802,9.780747,0.027238695,0.7104723,-0.02128601,-0.07563782,-0.004272461,-34.02942,32.529655,-27.144054,0,0.0,0.0,0.0,0.0
0.0881958,0.05936475,-0.6022155,-0.7961232,0.04131526,0.79832864,-0.600803,0.99738103,0.0027744814,0.07227328,0.8653718,-0.20307833,-0.45813847,0.17953996,0.9791625,-0.09490115,0.46786436,-1.2937954E-4,0.88380027,0.02079773,-0.020324979,-0.017670989,9.780867,0.02720809,0.7087515,0.020233154,-0.024505615,-0.0053253174,-34.02942,32.529655,-27.144054,0,0.0,0.0,0.0,0.0
0.092620849,0.059228975,-0.6023078,-0.79606354,0.041224033,0.7982591,-0.6009018,0.9973929,0.0027738512,0.07210963,0.85432994,-0.21172169,-0.47465175,0.18511127,0.97733,-0.102761336,0.48564819,-7.13023E-5,0.8741543,0.020453453,-0.022338362,-0.02200973,9.78098,0.027201902,0.70714647,0.004257202,-0.007461548,-0.0053253174,-34.02942,32.529655,-27.144054,0,0.0,0.0,0.0,0.0
0.09701538,0.059026133,-0.60390544,-0.7948674,0.04125137,0.79705113,-0.6025013,0.99740374,0.0027739534,0.07195877,0.8431394,-0.2201784,-0.49054807,0.19031881,0.97545964,-0.11071257,0.50288635,-1.4399211E-5,0.8643525,0.025639534,-0.020907111,-0.023782432,9.781081,0.02720289,0.70566666,0.015975952,0.023422241,-0.015975952,-34.041813,32.488712,-27.211412,0,0.0,0.0,0.0,0.0
0.101440429,0.058923423,-0.60397506,-0.7948221,0.041176498,0.7969983,-0.60257614,0.99741286,0.0027778617,0.07183145,0.83181804,-0.22848894,-0.5058375,0.19520354,0.9735465,-0.1187551,0.51959056,4.1367857E-5,0.8544154,0.029137611,-0.017429505,-0.019398868,9.78117,0.027241213,0.70441806,0.004257202,0.027679443,-0.0010681152,-34.041813,32.488712,-27.211412,0,0.0,0.0,0.0,0.0
0.105834961,0.058833458,-0.6040361,-0.79478246,0.041110534,0.79695225,-0.60264194,0.99742097,0.002781575,0.07171969,0.82039684,-0.23661886,-0.5205386,0.19974205,0.97160256,-0.12685269,0.5357724,9.609775E-5,0.84436244,0.03294754,-0.015323594,-0.019873142,9.781246,0.02727762,0.7033219,-0.0021362305,0.07136536,-0.0138549805,-34.041813,32.488712,-27.211412,0,0.0,0.0,0.0,0.0
0.110260009,0.058708,-0.60497475,-0.7940775,0.041116904,0.7962399,-0.60358226,0.99742806,0.0027851013,0.07162033,0.8088982,-0.24457163,-0.53466666,0.20394447,0.96963125,-0.1349887,0.5514439,1.4980731E-4,0.834212,0.03417301,-0.019067913,-0.028291881,9.781319,0.027312208,0.7023477,-0.012771606,0.04260254,0.0,-34.01773,32.43189,-27.223522,0,0.0,0.0,0.0,0.0
0.114685058,0.05864155,-0.6050197,-0.794048,0.041062497,0.7962055,-0.6036311,0.9974342,0.0027922636,0.07153435,0.79733807,-0.2523722,-0.5482336,0.20783894,0.9676302,-0.14315987,0.5666171,2.0251321E-4,0.8239812,0.035105705,-0.0140442345,-0.03182262,9.78138,0.027382448,0.7015046,0.019180298,0.050048828,-0.009597778,-34.01773,32.43189,-27.223522,0,0.0,0.0,0.0,0.0
0.119079589,0.05858956,-0.6050549,-0.79402506,0.041017447,0.7961788,-0.60366946,0.99743915,0.0027998455,0.071465574,0.7857405,-0.260002,-0.5612582,0.21141733,0.965608,-0.15134007,0.58130413,2.5430825E-4,0.81368625,0.036478043,-0.009997295,-0.023572564,9.78143,0.027456807,0.7008303,0.0010681152,0.047927856,-0.007461548,-34.01773,32.43189,-27.223522,0,0.0,0.0,0.0,0.0
0.123504638,0.058464933,-0.60676336,-0.7927295,0.041103404,0.7948775,-0.60537606,0.9974429,0.002809384,0.071412496,0.77412355,-0.2674643,-0.5737556,0.21469033,0.9635677,-0.15951587,0.59551716,3.0521903E-4,0.80334246,0.0306139,-0.006654717,-0.018727303,9.781464,0.027550336,0.7003095,0.024505615,0.050048828,0.0010681152,-33.958996,32.377907,-27.286907,0,0.0,0.0,0.0,0.0
0.12789917,0.058440704,-0.6067797,-0.79271877,0.04107734,0.794865,-0.6053942,0.99744534,0.0028168885,0.071377374,0.76437634,-0.27494586,-0.5832099,0.21793707,0.96145916,-0.1676297,0.60682154,0.0010291428,0.7948375,0.03151512,-0.0039423723,-0.014753699,9.781487,0.02762393,0.69996506,0.0095825195,0.04685974,-0.004272461,-33.958996,32.377907,-27.286907,0,0.0,0.0,0.0,0.0
0.132324218,0.058431502,-0.6067859,-0.7927147,0.041054446,0.79486024,-0.605402,0.99744684,0.002830086,0.07135614,0.7527627,-0.28211963,-0.59477466,0.22067271,0.9593786,-0.17577311,0.62020314,0.0010648977,0.7844405,0.023281097,0.0036026165,-0.017562151,9.781503,0.027753353,0.69975686,-0.025558472,0.064971924,0.007446289,-33.958996,32.377907,-27.286907,0,0.0,0.0,0.0,0.0
0.13671875,0.05842868,-0.606837,-0.79267585,0.041044176,0.79482126,-0.605454,0.9974475,0.0028411455,0.071347475,0.74117434,-0.2891349,-0.6058561,0.2231333,0.9572877,-0.18387964,0.6331447,0.0011002015,0.7740327,0.019536972,0.0036017764,4.8667192E-4,9.781509,0.02786181,0.6996719,0.01171875,0.061767578,-0.012786865,-33.93013,32.353477,-27.269379,0,0.0,0.0,0.0,0.0
0.141143798,0.058432374,-0.6068345,-0.7926775,0.041034516,0.7948232,-0.60545224,0.9974477,0.0028508748,0.07134456,0.7296244,-0.29599598,-0.61646944,0.22533047,0.95518845,-0.19194035,0.6456581,0.0011350204,0.7636258,0.018140793,7.361416E-4,0.014707863,9.781509,0.027957214,0.6996432,-0.022354126,0.022354126,0.004257202,-33.93013,32.353477,-27.269379,0,0.0,0.0,0.0,0.0
0.14553833,0.058439158,-0.6068299,-0.79268056,0.041028555,0.7948266,-0.605448,0.9974475,0.0028593384,0.07134635,0.71812564,-0.30270505,-0.62663007,0.227274,0.95308363,-0.1999456,0.6577554,0.0011693375,0.75323075,0.025672913,-5.4273196E-4,0.0260185,9.781509,0.02804022,0.6996609,0.0,-0.008514404,0.0010681152,-33.93013,32.353477,-27.269379,0,0.0,0.0,0.0,0.0
0.149963379,0.058376655,-0.60802364,-0.7917699,0.04111139,0.7939139,-0.60663897,0.9974478,0.0028627901,0.07134272,0.70668924,-0.3092653,-0.63635314,0.22897446,0.95097506,-0.20788737,0.6694483,0.0012031376,0.7428577,0.024687767,-0.006260529,0.037534177,9.781509,0.02807406,0.6996251,-0.0053253174,-0.017044067,0.004257202,-33.94749,32.285484,-27.295908,0,0.0,0.0,0.0,0.0
0.15435791,0.058365684,-0.608031,-0.7917649,0.041102536,0.79390806,-0.60664684,0.99744874,0.0028638132,0.07132861,0.6953185,-0.31570858,-0.6456472,0.23046334,0.9488554,-0.21577787,0.68074876,0.0012363306,0.73251593,0.019435883,-0.009994136,0.037326038,9.781516,0.028084084,0.6994865,-0.02128601,-0.045806885,0.008514404,-33.94749,32.285484,-27.295908,0,0.0,0.0,0.0,0.0
0.158782959,0.058342066,-0.60804695,-0.7917545,0.041088838,0.79389596,-0.6066638,0.9974507,0.0028617491,0.07130147,0.6840295,-0.32200912,-0.65453315,0.23172899,0.9467357,-0.22359149,0.6916684,0.0012688803,0.72221404,0.023768425,-0.013750866,0.03869921,9.781538,0.02806385,0.69922054,-0.023422241,-0.050064087,0.0010681152,-33.94749,32.285484,-27.295908,0,0.0,0.0,0.0,0.0
0.16317749,0.058301758,-0.6081189,-0.7917022,0.041074313,0.7938409,-0.6067369,0.99745363,0.0028551992,0.07126038,0.6728309,-0.3281702,-0.66302556,0.23278162,0.94461775,-0.23132247,0.70221883,0.0013007377,0.71195996,0.026439667,-0.012487304,0.04135102,9.781567,0.027999617,0.6988176,-0.0063934326,-0.06604004,0.004257202,-33.892265,32.27468,-27.28655,0,0.0,0.0,0.0,0.0
0.167602539,0.058254436,-0.6081508,-0.7916812,0.04105329,0.7938165,-0.6067702,0.9974573,0.002845943,0.07120992,0.6617296,-0.33419627,-0.67113847,0.23363198,0.94250256,-0.23896655,0.7124114,0.001331827,0.7017607,0.026816368,-0.014129633,0.044700325,9.781601,0.027908841,0.69832265,-0.025558472,-0.07563782,0.020217896,-33.892265,32.27468,-27.28655,0,0.0,0.0,0.0,0.0
0.172027588,0.058196653,-0.60818976,-0.7916555,0.041022584,0.79378664,-0.60681134,0.9974619,0.0028386267,0.07114523,0.6507329,-0.34008935,-0.6788859,0.234289,0.94039214,-0.24651836,0.72225714,0.0013621093,0.6916233,0.021173477,-0.009240719,0.04565215,9.781648,0.0278371,0.6976884,-0.0010681152,-0.06285095,0.010650635,-33.892265,32.27468,-27.28655,0,0.0,0.0,0.0,0.0
0.176422119,0.058107123,-0.6087066,-0.7912647,0.041020043,0.79339033,-0.6073294,0.9974672,0.0028324546,0.0710708,0.63984686,-0.34585258,-0.6862813,0.234762,0.93828785,-0.25397393,0.73176694,0.0013916398,0.68155354,0.020594597,-0.0041247513,0.042853057,9.7817,0.027776573,0.6969585,-0.0010681152,-0.080963135,-0.0010681152,-33.812946,32.219555,-27.26904,0,0.0,0.0,0.0,0.0
0.180847168,0.058030628,-0.60875803,-0.79123074,0.040972546,0.7933508,-0.60738415,0.99747354,0.0028281463,0.07098101,0.6290742,-0.35150006,-0.693335,0.23506756,0.9361868,-0.26133803,0.7409513,0.0014204561,0.67155725,0.019070625,-0.002632197,0.036071718,9.781765,0.027734332,0.6960782,-0.017028809,-0.05859375,0.0021209717,-33.812946,32.219555,-27.26904,0,0.0,0.0,0.0,0.0
0.185241699,0.05794808,-0.6088137,-0.79119396,0.04091775,0.79330814,-0.6074437,0.99748063,0.0028263107,0.07088196,0.61842275,-0.35702342,-0.7000625,0.23520666,0.93409425,-0.26859942,0.7498207,0.00144861,0.66163945,0.015701294,0.0013972726,0.039580464,9.781834,0.027716327,0.6951068,-0.010635376,-0.07775879,-0.0053253174,-33.812946,32.219555,-27.26904,0,0.0,0.0,0.0,0.0
0.189666748,0.057836436,-0.6093231,-0.7908099,0.04089155,0.792917,-0.607956,0.99748826,0.002824567,0.070775665,0.6078967,-0.36242557,-0.7064767,0.23518786,0.93201154,-0.27575555,0.75838524,0.001476164,0.65180486,0.017041206,-0.0031533316,0.040160418,9.781906,0.027699223,0.6940642,-0.0021362305,-0.06817627,-0.004272461,-33.737595,32.167183,-27.252403,0,0.0,0.0,0.0,0.0
0.194061279,0.057743073,-0.6093858,-0.7907683,0.04082891,0.79286873,-0.60802305,0.99749625,0.0028229107,0.07066324,0.5949076,-0.3678748,-0.7146699,0.2333839,0.9298722,-0.28437567,0.76916635,0.0023847886,0.6390441,0.022377014,-0.0010127835,0.03699273,9.781982,0.027682973,0.69296163,0.010650635,-0.059646606,-0.008529663,-33.737595,32.167183,-27.252403,0,0.0,0.0,0.0,0.0
0.198486328,0.05764782,-0.6094498,-0.790726,0.04076288,0.7928196,-0.60809165,0.9975045,0.0028228927,0.07054726,0.5846766,-0.37304965,-0.7204077,0.23307991,0.9278083,-0.29128256,0.77706313,0.002393551,0.6294182,0.026480675,-0.0045006573,0.034313023,9.782063,0.027682796,0.69182414,-0.013839722,-0.050064087,0.0021209717,-33.737595,32.167183,-27.252403,0,0.0,0.0,0.0,0.0
0.202880859,0.057553794,-0.6094271,-0.7907504,0.04068804,0.79283714,-0.60807395,0.997513,0.0028228753,0.07042718,0.5745819,-0.3781113,-0.7258702,0.23264311,0.9257571,-0.298079,0.78468645,0.002402138,0.61988825,0.023907661,-0.006617084,0.028512597,9.782146,0.027682627,0.69064665,-0.0021362305,-0.03727722,-0.014923096,-33.674934,32.126434,-27.210659,0,0.0,0.0,0.0,0.0
0.207305908,0.057451352,-0.6094958,-0.7907049,0.04062079,0.79278433,-0.60814726,0.9975216,0.0028198261,0.07030473,0.5646265,-0.38306016,-0.7310689,0.23207965,0.92372024,-0.30476213,0.79204535,0.0024105527,0.6104574,0.021941185,-0.0069225207,0.024999619,9.782227,0.027652713,0.68944556,-0.004257202,-0.03727722,-0.004272461,-33.674934,32.126434,-27.210659,0,0.0,0.0,0.0,0.0
0.211700439,0.057352457,-0.6095623,-0.79066086,0.040553935,0.7927332,-0.6082183,0.99753,0.002818406,0.07018534,0.5548119,-0.38790107,-0.73601395,0.23139818,0.92169785,-0.31133255,0.7991487,0.002418738,0.6011286,0.019108772,-0.0031568985,0.015706778,9.78231,0.02763879,0.6882748,0.02130127,-0.034088135,0.013824463,-33.674934,32.126434,-27.210659,0,0.0,0.0,0.0,0.0
0.216125488,0.057240643,-0.60996044,-0.7903618,0.040513046,0.7924268,-0.60862005,0.99753803,0.0028178352,0.07007037,0.54513985,-0.39263636,-0.7407154,0.23060554,0.9196906,-0.31778967,0.8060048,0.0024267314,0.5919041,0.02312088,-3.05878E-4,0.010245383,9.782389,0.027633192,0.6871473,0.004257202,-0.017044067,-0.008529663,-33.669197,32.069794,-27.188246,0,0.0,0.0,0.0,0.0
0.220520019,0.057149187,-0.6100219,-0.790321,0.040448196,0.79237956,-0.608686,0.99754596,0.0028188496,0.06995813,0.5356098,-0.39727604,-0.74518037,0.22971289,0.9176959,-0.32413915,0.8126217,0.0024345533,0.5827864,0.022384644,0.0035843868,0.0026926994,9.782464,0.027643133,0.6860465,0.008529663,-0.012786865,0.003189087,-33.669197,32.069794,-27.188246,0,0.0,0.0,0.0,0.0
0.224945068,0.05706105,-0.610081,-0.7902817,0.04038568,0.792334,-0.60874933,0.9975535,0.0028198133,0.069849946,0.5262251,-0.40181455,-0.74942124,0.22872187,0.9157178,-0.33037433,0.81900764,0.002442239,0.57377744,0.023359299,0.0024919286,-0.0013542175,9.782536,0.027652577,0.6849854,0.0063934326,-0.012786865,-0.012786865,-33.669197,32.069794,-27.188246,0,0.0,0.0,0.0,0.0
0.229370117,0.05691077,-0.61136293,-0.7893013,0.040412266,0.7913453,-0.6100323,0.997561,0.0028199498,0.06974263,0.51698637,-0.40625408,-0.7534472,0.2276386,0.91375685,-0.33649522,0.82517016,0.0024497902,0.564879,0.02763176,0.0017012861,-0.0118585825,9.782611,0.02765392,0.68393314,-0.0010681152,-0.0021209717,-0.017044067,-33.663746,32.05184,-27.253393,0,0.0,0.0,0.0,0.0
0.233764648,0.05682883,-0.61141783,-0.78926456,0.040353026,0.79130274,-0.61009127,0.9975681,0.0028215575,0.06964138,0.5078873,-0.41062504,-0.75725657,0.22648478,0.9118009,-0.34252536,0.8311168,0.0024571936,0.5560925,0.023309708,0.004287271,-0.010352433,9.782682,0.027669692,0.68294036,0.015975952,0.007461548,0.0,-33.663746,32.05184,-27.253393,0,0.0,0.0,0.0,0.0
0.238189697,0.056753855,-0.6114681,-0.7892311,0.04030059,0.79126406,-0.61014515,0.9975745,0.0028216077,0.069549814,0.49893546,-0.41490075,-0.7608685,0.22524951,0.90986335,-0.34844133,0.8368549,0.002464481,0.54741925,0.0228014,-9.0221874E-4,-0.013276458,9.782743,0.027670179,0.68204224,0.010650635,0.0032043457,0.004257202,-33.663746,32.05184,-27.253393,0,0.0,0.0,0.0,0.0
0.242584228,0.056626216,-0.6127152,-0.78827256,0.04033935,0.7902989,-0.6113924,0.9975803,0.0028224327,0.06946816,0.490131,-0.4190832,-0.7642911,0.22393836,0.9079445,-0.3542435,0.8423914,0.0024716235,0.53886056,0.024235725,-0.0024875086,-0.019458473,9.782801,0.02767827,0.68124163,0.008529663,0.027679443,-0.0010681152,-33.595856,32.025787,-27.306662,0,0.0,0.0,0.0,0.0
0.247009277,0.056572363,-0.61275107,-0.7882484,0.040294893,0.79027086,-0.6114313,0.99758506,0.0028277289,0.06939824,0.4814672,-0.42320195,-0.7675216,0.22257121,0.90603197,-0.35995567,0.8477331,0.0024786396,0.5304172,0.025606155,-4.4739246E-4,-0.018702269,9.782847,0.027730208,0.6805559,0.017044067,0.03727722,-0.0063934326,-33.595856,32.025787,-27.306662,0,0.0,0.0,0.0,0.0
0.251403808,0.056529872,-0.61277944,-0.78822947,0.040253915,0.7902489,-0.6114624,0.9975891,0.0028365734,0.06933945,0.4729509,-0.42723075,-0.77057856,0.22113763,0.9041392,-0.36555493,0.8528866,0.0024856213,0.52209026,0.025717735,0.0045653637,-0.02188927,9.782885,0.027816935,0.67997915,0.027694702,0.03727722,-0.015975952,-33.595856,32.025787,-27.306662,0,0.0,0.0,0.0,0.0
0.255828857,0.056428645,-0.61411184,-0.7871991,0.040314615,0.7892139,-0.6127938,0.99759245,0.002843496,0.06929196,0.46458182,-0.43117136,-0.77346945,0.21964245,0.9022666,-0.37104198,0.8578583,0.0024926404,0.5138802,0.027978897,0.0074270014,-0.01997155,9.78292,0.027884828,0.67951363,-0.0010681152,0.043670654,-0.010650635,-33.59407,31.99211,-27.365889,0,0.0,0.0,0.0,0.0
0.260223388,0.056404978,-0.61412764,-0.7871884,0.040287767,0.7892015,-0.6128114,0.99759483,0.0028515507,0.06925673,0.45794886,-0.43538094,-0.77506536,0.21965836,0.90024436,-0.3759127,0.8614134,0.0018992148,0.50790095,0.028219223,0.0065399054,-0.018725812,9.782946,0.027963823,0.67916834,0.0,0.03727722,0.010650635,-33.59407,31.99211,-27.365889,0,0.0,0.0,0.0,0.0
0.264648437,0.056380853,-0.6141437,-0.7871777,0.040261976,0.78918904,-0.6128292,0.99759716,0.0028585023,0.06922179,0.4498373,-0.4391728,-0.7776719,0.21804854,0.89840055,-0.38122335,0.8660838,0.0019182615,0.4998951,0.025094986,0.005224906,-0.023034692,9.78297,0.028032001,0.6788258,-0.013839722,0.045791626,-0.0063934326,-33.59407,31.99211,-27.365889,0,0.0,0.0,0.0,0.0
0.269042968,0.05628382,-0.61559105,-0.7860533,0.040340982,0.78806055,-0.6142745,0.9975995,0.002863551,0.0691886,0.44187123,-0.4428817,-0.7801319,0.21638973,0.896578,-0.3864239,0.8705891,0.0019370663,0.49200705,0.027155876,1.6095489E-4,-0.020424306,9.782993,0.028081512,0.6785004,0.007461548,0.019165039,0.007446289,-33.637238,31.951113,-27.430775,0,0.0,0.0,0.0,0.0
0.273468017,0.056263927,-0.6156043,-0.7860443,0.040322814,0.7880502,-0.614289,0.9976014,0.0028667925,0.0691617,0.43404177,-0.44654185,-0.7824373,0.21470189,0.8947606,-0.39154378,0.87493473,0.001955596,0.48423687,0.03414917,-0.003915848,-0.007933795,9.783008,0.028113287,0.67823625,-0.0063934326,0.007461548,0.007446289,-33.637238,31.951113,-27.430775,0,0.0,0.0,0.0,0.0
0.277862548,0.0562379,-0.6156216,-0.7860326,0.040307198,0.7880367,-0.6143074,0.9976035,0.0028645801,0.06913151,0.42635575,-0.45012188,-0.78460884,0.21297233,0.89296496,-0.39655566,0.87912655,0.0019738197,0.47658426,0.031207085,-0.0022315606,-0.0046417713,9.78303,0.028091595,0.6779403,-0.019165039,-0.0010681152,0.008514404,-33.637238,31.951113,-27.430775,0,0.0,0.0,0.0,0.0
0.282287597,0.056197286,-0.61585796,-0.78585047,0.04031023,0.7878521,-0.614544,0.9976056,0.002857889,0.069100514,0.41881183,-0.4536237,-0.7866525,0.211205,0.8911911,-0.40146095,0.88316995,0.001991635,0.46904898,0.03631401,-0.0063314084,0.0054520965,9.78305,0.028025974,0.67763627,-0.008514404,-0.024505615,0.024475098,-33.62446,31.85838,-27.371416,0,0.0,0.0,0.0,0.0
0.286682129,0.05616325,-0.6158806,-0.785835,0.040296167,0.7878343,-0.6145675,0.9976081,0.0028499754,0.069064975,0.41140735,-0.45705408,-0.7885719,0.20940594,0.88943666,-0.40626547,0.88707,0.0020089601,0.4616306,0.03517151,-0.0078169,0.021564424,9.783076,0.027948374,0.6772879,0.0,-0.025558472,0.012771606,-33.62446,31.85838,-27.371416,0,0.0,0.0,0.0,0.0
0.291107177,0.05612187,-0.61590827,-0.7858163,0.040278267,0.7878127,-0.6145964,0.99761117,0.0028409788,0.06902125,0.40414184,-0.46040976,-0.79037476,0.20757614,0.88770425,-0.4109664,0.89083195,0.0020257805,0.4543285,0.035755157,-0.008017331,0.022124946,9.78311,0.027860159,0.6768593,-0.009567261,-0.05432129,0.0021209717,-33.62446,31.85838,-27.371416,0,0.0,0.0,0.0,0.0
0.295532226,0.05607167,-0.6159959,-0.78575116,0.040259566,0.78774416,-0.61468536,0.9976147,0.002832434,0.06896987,0.39701352,-0.46369258,-0.79206663,0.20571887,0.88599384,-0.41556552,0.89446074,0.0020420845,0.44714183,0.034633636,-0.0048561487,0.031134546,9.783141,0.027776355,0.67635524,-0.004257202,-0.047927856,0.0053253174,-33.621246,31.815144,-27.340965,0,0.0,0.0,0.0,0.0
0.299926757,0.056015406,-0.6160335,-0.78572583,0.040233947,0.787715,-0.6147247,0.997619,0.0028212045,0.06890963,0.3900204,-0.4669055,-0.7936519,0.20383784,0.88430476,-0.42006564,0.89796114,0.0020578913,0.4400699,0.030208588,-0.0073278807,0.029510617,9.783179,0.027666224,0.67576426,-0.013839722,-0.06285095,0.003189087,-33.621246,31.815144,-27.340965,0,0.0,0.0,0.0,0.0
0.304351806,0.05595531,-0.61607367,-0.7856986,0.040201932,0.7876834,-0.614767,0.9976235,0.0028128698,0.06884242,0.38316086,-0.47004908,-0.7951362,0.20193538,0.8826378,-0.42446738,0.90133786,0.0020731578,0.43311185,0.031503677,-0.005630156,0.03117764,9.783223,0.027584488,0.67510515,-0.013839722,-0.050064087,0.007446289,-33.621246,31.815144,-27.340965,0,0.0,0.0,0.0,0.0
0.308746338,0.055895425,-0.6160392,-0.7857298,0.040162276,0.78771037,-0.614735,0.99762845,0.0028041736,0.068770945,0.37643293,-0.47312492,-0.79652435,0.20001416,0.8809928,-0.42877254,0.90459526,0.0020879519,0.42626637,0.035600662,-0.0052067414,0.03786385,9.783272,0.027499208,0.67440426,-0.010635376,-0.051132202,-0.010650635,-33.60927,31.818853,-27.337976,0,0.0,0.0,0.0,0.0
0.313171386,0.055821896,-0.6160883,-0.78569657,0.04012163,0.78767216,-0.6147868,0.9976343,0.0027951351,0.06868782,0.36983517,-0.4761329,-0.7978217,0.19807614,0.8793708,-0.43298128,0.90773773,0.0021022763,0.41953284,0.03517437,-0.0059939213,0.026408732,9.783326,0.027410565,0.6735889,-0.011703491,-0.047927856,0.0053253174,-33.60927,31.818853,-27.337976,0,0.0,0.0,0.0,0.0
0.317565918,0.05574519,-0.6161394,-0.78566194,0.040078145,0.7876321,-0.61484087,0.9976403,0.0027865479,0.06860043,0.3633652,-0.4790764,-0.7990316,0.19612455,0.87777066,-0.437097,0.91076934,0.0021161335,0.41290995,0.03859234,-0.0055446904,0.020636499,9.783385,0.027326353,0.6727319,0.030899048,-0.050064087,0.003189087,-33.60927,31.818853,-27.337976,0,0.0,0.0,0.0,0.0
0.321990966,0.05565298,-0.61655885,-0.7853394,0.040063642,0.787304,-0.61526203,0.99764603,0.002777612,0.0685174,0.3570211,-0.4819569,-0.8001584,0.19416176,0.87619233,-0.44112152,0.9136942,0.002129542,0.40639675,0.037768364,-0.008221559,0.020180702,9.783442,0.027238723,0.6719177,-0.008514404,-0.029830933,-0.0032043457,-33.60681,31.795523,-27.343758,0,0.0,0.0,0.0,0.0
0.326385498,0.055576764,-0.6166097,-0.7853048,0.04002218,0.78726405,-0.6153157,0.99765193,0.0027676434,0.06843165,0.35079923,-0.4847841,-0.8012018,0.1921933,0.8746312,-0.445064,0.916516,0.0021425034,0.3999922,0.03195095,-0.010750087,0.019576073,9.783503,0.027140977,0.671077,0.0,-0.012786865,0.0010681152,-33.60681,31.795523,-27.343758,0,0.0,0.0,0.0,0.0
0.330810547,0.055501945,-0.6166596,-0.78527087,0.039977215,0.787225,-0.61536855,0.9976579,0.002761209,0.06834486,0.3431359,-0.48710918,-0.803108,0.18918622,0.8733386,-0.44887447,0.920036,0.0020880094,0.39182815,0.027860641,-0.0095915515,0.015462339,9.783561,0.027077874,0.6702258,-0.007461548,-0.030883789,-0.0021362305,-33.60681,31.795523,-27.343758,0,0.0,0.0,0.0,0.0
0.335205078,0.055409558,-0.61706126,-0.7849619,0.039958794,0.78691024,-0.61577225,0.9976638,0.0027535406,0.06825938,0.33718455,-0.4898267,-0.80397534,0.18722169,0.8718173,-0.45263964,0.9226346,0.0021014733,0.3856695,0.027565956,-0.012784766,0.007992864,9.783616,0.027002668,0.6693874,0.004257202,-0.02130127,-0.010650635,-33.604477,31.773357,-27.34925,0,0.0,0.0,0.0,0.0
0.339630127,0.055338617,-0.6171086,-0.7849297,0.039916605,0.7868732,-0.6158224,0.99766946,0.0027470319,0.06817736,0.3313495,-0.49249417,-0.80477136,0.18525684,0.87031317,-0.4563276,0.9251418,0.0021145146,0.37961572,0.02895546,-0.009362323,0.0049747825,9.783675,0.02693885,0.6685833,0.018112183,-0.003189087,-0.007461548,-33.604477,31.773357,-27.34925,0,0.0,0.0,0.0,0.0
0.344024658,0.055276077,-0.6171503,-0.78490126,0.039874148,0.78684044,-0.6158669,0.9976746,0.00274544,0.0681018,0.32563064,-0.4951048,-0.80550355,0.18329027,0.8688307,-0.45993254,0.927561,0.002127165,0.37366578,0.031957626,-0.0056768917,-0.0027034879,9.783725,0.026923237,0.66784227,0.004257202,0.0095825195,-0.007461548,-33.604477,31.773357,-27.34925,0,0.0,0.0,0.0,0.0
0.348449707,0.05519344,-0.61775166,-0.78443396,0.03987635,0.7863685,-0.6164694,0.99767905,0.0027447047,0.06803606,0.32002613,-0.49765986,-0.8061749,0.18132363,0.86736965,-0.4634562,0.9298952,0.0021395306,0.36781844,0.037683487,-0.005296154,-0.0016779304,9.7837715,0.026916035,0.66719776,0.019180298,0.025558472,-0.01171875,-33.611267,31.743298,-27.363167,0,0.0,0.0,0.0,0.0
0.352874755,0.055144634,-0.6177842,-0.78441167,0.039846305,0.78634286,-0.61650395,0.997683,0.0027409734,0.06797901,0.31453162,-0.5001728,-0.8067819,0.17936301,0.8659229,-0.46691155,0.9321474,0.002151634,0.36207265,0.04049778,-0.011846684,-0.006262541,9.783808,0.026879437,0.6666382,0.0138549805,0.026626587,-0.0032043457,-33.611267,31.743298,-27.363167,0,0.0,0.0,0.0,0.0
0.357269287,0.055103786,-0.61781144,-0.78439313,0.039816856,0.7863214,-0.61653304,0.9976863,0.0027412395,0.0679286,0.30914804,-0.50263214,-0.80733407,0.17740524,0.86449766,-0.47028837,0.93432057,0.002163421,0.35642734,0.04269123,-0.009968033,-0.010894775,9.783843,0.026882052,0.66614395,0.0063934326,0.03514099,0.0021209717,-33.611267,31.743298,-27.363167,0,0.0,0.0,0.0,0.0
0.361694336,0.05509288,-0.6174534,-0.7846757,0.039764807,0.78660256,-0.61617774,0.99768907,0.002744527,0.067889124,0.3038735,-0.505039,-0.80783457,0.1754517,0.8630938,-0.47358823,0.93641746,0.0021749774,0.35088128,0.03807926,-0.0053398386,-0.0177719,9.783869,0.026914291,0.6657568,0.012786865,0.026626587,-0.017044067,-33.554924,31.741673,-27.333128,0,0.0,0.0,0.0,0.0
0.366088867,0.05507128,-0.6174678,-0.7846659,0.03974645,0.78659123,-0.61619335,0.997691,0.002746873,0.067860745,0.29870805,-0.50738597,-0.8082901,0.17350087,0.86171615,-0.47680473,0.9384407,0.0021863685,0.34543344,0.032269478,-0.0054840706,-0.015297174,9.783885,0.02693729,0.66547835,0.01171875,0.053253174,-0.004272461,-33.554924,31.741673,-27.333128,0,0.0,0.0,0.0,0.0
0.370513916,0.055055242,-0.61747855,-0.7846587,0.03973319,0.786583,-0.61620504,0.99769247,0.0027483224,0.067839906,0.2936481,-0.5096827,-0.80869913,0.17155707,0.8603596,-0.47994736,0.9403929,0.0021975783,0.34008265,0.03273487,-0.005373899,-0.012766898,9.783901,0.026951507,0.665274,0.017044067,0.03727722,0.0010681152,-33.554924,31.741673,-27.333128,0,0.0,0.0,0.0,0.0
0.374908447,0.055027865,-0.6179377,-0.784299,0.039758332,0.78622234,-0.6166635,0.997693,0.0027512552,0.067832306,0.28869206,-0.5119303,-0.80906385,0.16962166,0.85902417,-0.48301756,0.94227666,0.002208593,0.33482793,0.029354095,-2.5672466E-4,-0.001624465,9.783909,0.026980273,0.66519976,0.004257202,0.028747559,0.004257202,-33.54626,31.766985,-27.38241,0,0.0,0.0,0.0,0.0
0.379333496,0.05502497,-0.61793965,-0.7842977,0.03975274,0.7862207,-0.6166658,0.99769336,0.002754041,0.06782657,0.28383607,-0.51413953,-0.80938107,0.16769889,0.85770375,-0.4860262,0.94409436,0.0022194462,0.32966787,0.031410217,5.5184588E-5,0.0036790967,9.7839155,0.027007602,0.66514367,0.0063934326,0.03514099,0.0021209717,-33.54626,31.766985,-27.38241,0,0.0,0.0,0.0,0.0
0.383728027,0.055022534,-0.6179412,-0.7842966,0.039749607,0.7862194,-0.6166675,0.99769354,0.0027551332,0.06782271,0.27908048,-0.5163012,-0.8096586,0.16578647,0.8564041,-0.488965,0.9458482,0.002230138,0.32460144,0.029061317,-0.002744509,0.0072663426,9.783915,0.027018305,0.66510564,0.012786865,0.017028809,0.003189087,-33.54626,31.766985,-27.38241,0,0.0,0.0,0.0,0.0
0.388153076,0.054992247,-0.61841106,-0.7839283,0.03977989,0.78584987,-0.6171364,0.997694,0.0027531355,0.06781598,0.27442333,-0.5184166,-0.8098988,0.16388537,0.85512525,-0.4918357,0.9475407,0.002240638,0.31962723,0.031371117,-0.008726822,0.012379348,9.783921,0.02699872,0.6650398,-0.0021362305,-0.0063934326,0.0095825195,-33.57389,31.719315,-27.377348,0,0.0,0.0,0.0,0.0
0.392547607,0.054981437,-0.6184183,-0.7839234,0.039778434,0.7858443,-0.61714375,0.99769473,0.002748204,0.06780656,0.2698607,-0.52049685,-0.81009763,0.16199969,0.85386056,-0.4946495,0.949174,0.0022508882,0.31474376,0.03188896,-0.0076770782,0.019660652,9.783928,0.026950357,0.6649474,0.0053253174,-0.0234375,0.004257202,-33.57389,31.719315,-27.377348,0,0.0,0.0,0.0,0.0
0.396972656,0.054966964,-0.61842793,-0.78391683,0.039771188,0.78583676,-0.6171539,0.9976958,0.0027457743,0.06779067,0.26360825,-0.5218703,-0.81127185,0.16010602,0.8530242,-0.49670494,0.9512501,0.0010460028,0.30841878,0.027825356,-0.0050257687,0.02449119,9.783941,0.02692654,0.66479176,-0.017028809,-0.024505615,0.013824463,-33.57389,31.719315,-27.377348,0,0.0,0.0,0.0,0.0
0.401367187,0.054926895,-0.61888236,-0.7835608,0.03979533,0.7854789,-0.61760765,0.99769706,0.0027412106,0.06777255,0.25926375,-0.5238769,-0.8113786,0.15824652,0.8517932,-0.49940586,0.952754,0.0010799983,0.30374083,0.033540726,-0.004640203,0.032461584,9.783955,0.026881788,0.66461414,-0.0010681152,-0.041549683,-0.0063934326,-33.600136,31.674028,-27.37254,0,0.0,0.0,0.0,0.0
0.405792236,0.05490343,-0.6188981,-0.78355014,0.039785054,0.78546655,-0.61762404,0.9976987,0.0027360963,0.0677477,0.2550079,-0.5258504,-0.8114508,0.15640424,0.85057634,-0.5020534,0.9542058,0.0011132227,0.29914892,0.03513241,-0.0035475977,0.033883333,9.783975,0.026831644,0.66437066,0.007461548,-0.027694702,0.010650635,-33.600136,31.674028,-27.37254,0,0.0,0.0,0.0,0.0
0.410217285,0.05487429,-0.61891747,-0.7835369,0.03977423,0.78545135,-0.61764413,0.99770075,0.0027282045,0.067718044,0.2508406,-0.527782,-0.81149566,0.15457684,0.8493791,-0.5046396,0.9556071,0.0011456802,0.29464164,0.03712368,-0.011816719,0.031224072,9.783994,0.02675425,0.6640798,0.0,-0.040481567,0.004257202,-33.600136,31.674028,-27.37254,0,0.0,0.0,0.0,0.0
0.414611816,0.054862846,-0.618509,-0.78386015,0.03972608,0.785773,-0.6172379,0.9977033,0.0027237413,0.06768068,0.24676003,-0.52967274,-0.81151485,0.15276492,0.8482013,-0.5071661,0.95695996,0.0011773307,0.29021758,0.031825066,-0.007492058,0.02615416,9.784019,0.026710484,0.66371346,0.010650635,-0.024505615,-0.0010681152,-33.57128,31.684793,-27.350729,0,0.0,0.0,0.0,0.0
0.419036865,0.054823324,-0.61853534,-0.78384215,0.03970421,0.7857523,-0.6172657,0.99770635,0.0027187231,0.067636006,0.242766,-0.5315143,-0.81151545,0.15096627,0.8470485,-0.50962543,0.95826614,0.0012082588,0.2858753,0.03229046,-0.00792541,0.021666527,9.784051,0.026661277,0.6632754,0.020233154,-0.036209106,-0.008529663,-33.57128,31.684793,-27.350729,0,0.0,0.0,0.0,0.0
0.423431396,0.05477967,-0.61856437,-0.7838222,0.039675213,0.78572935,-0.61729664,0.9977099,0.0027169895,0.06758367,0.23885496,-0.53331715,-0.81149316,0.14918424,0.8459145,-0.51202816,0.9595272,0.0012384681,0.28161338,0.033444405,-0.00884521,0.019655466,9.784088,0.026644284,0.6627624,-0.008514404,-0.03515625,0.0010681152,-33.57128,31.684793,-27.350729,0,0.0,0.0,0.0,0.0
0.427856445,0.054787625,-0.6174779,-0.78467786,0.0395638,0.78658354,-0.6162151,0.9977139,0.0027161224,0.06752481,0.23502508,-0.5350822,-0.81144947,0.14741905,0.84479904,-0.5143755,0.960745,0.0012680385,0.2774303,0.031666756,-0.00876916,0.017116308,9.784123,0.02663577,0.66218495,0.0,-0.041549683,-0.015975952,-33.534866,31.721952,-27.30407,0,0.0,0.0,0.0,0.0
0.432250976,0.054741606,-0.61750853,-0.78465694,0.039532043,0.78655946,-0.61624783,0.9977177,0.0027152987,0.067468904,0.23127876,-0.5367864,-0.8114003,0.14566456,0.84371716,-0.5166461,0.96192104,0.0012970002,0.2733246,0.027824402,-0.008218549,0.014943719,9.784157,0.02662768,0.6616364,-0.008514404,-0.03727722,-0.0053253174,-33.534866,31.721952,-27.30407,0,0.0,0.0,0.0,0.0
0.436676025,0.054696087,-0.61753887,-0.7846363,0.039501585,0.7865357,-0.61628014,0.9977214,0.0027137361,0.06741419,0.22760998,-0.53845507,-0.81133217,0.14392795,0.84265316,-0.5188645,0.96305686,0.0013253662,0.269295,0.03350258,-0.009602053,0.011697888,9.784196,0.026612366,0.66110003,-0.003189087,-0.017044067,0.0010681152,-33.534866,31.721952,-27.30407,0,0.0,0.0,0.0,0.0
0.441070556,0.054679062,-0.61700976,-0.7850536,0.039432496,0.7869509,-0.6157544,0.99772507,0.0027122525,0.06735997,0.22401737,-0.540089,-0.8112461,0.14220972,0.84160686,-0.52103204,0.9641539,0.0013531335,0.26534045,0.027884483,-0.00900217,0.0052849054,9.784233,0.026597818,0.66056836,0.0053253174,-0.014907837,-0.007461548,-33.545135,31.76618,-27.302925,0,0.0,0.0,0.0,0.0
0.445495605,0.054639224,-0.6170362,-0.7850355,0.039404925,0.78692997,-0.6157827,0.9977283,0.002711622,0.06731152,0.22050123,-0.5416769,-0.8111506,0.14050695,0.84058565,-0.5231382,0.9652135,0.001380316,0.26145956,0.024709702,-0.0060450416,0.013288677,9.784261,0.026591627,0.660093,-0.003189087,0.0010681152,-0.004272461,-33.545135,31.76618,-27.302925,0,0.0,0.0,0.0,0.0
0.449890136,0.054602508,-0.6170607,-0.78501886,0.03937856,0.78691083,-0.6158089,0.9977314,0.0027118013,0.06726628,0.21705817,-0.5432317,-0.81103945,0.13882324,0.8395816,-0.52519596,0.96623695,0.0014069421,0.25765124,0.025045395,-0.0051591396,0.014420211,9.784287,0.026593374,0.6596491,0.010650635,0.0021362305,0.0021209717,-33.545135,31.76618,-27.302925,0,0.0,0.0,0.0,0.0
0.454315185,0.054622967,-0.61599785,-0.78585184,0.03927806,0.7877433,-0.61475027,0.9977342,0.0027127494,0.06722406,0.21368672,-0.5447542,-0.8109136,0.13715884,0.8385946,-0.5272064,0.9672257,0.0014330393,0.25391436,0.027758598,-0.001691496,0.01500845,9.784312,0.026602663,0.65923494,0.0010681152,0.008529663,-0.009597778,-33.51003,31.78134,-27.241337,0,0.0,0.0,0.0,0.0
0.458709716,0.05459024,-0.6160196,-0.785837,0.03925368,0.78772616,-0.6147737,0.997737,0.0027136502,0.0671832,0.21038912,-0.5462218,-0.81078863,0.13550809,0.83763933,-0.52914834,0.9681808,0.0014586336,0.25024766,0.029857635,-0.0029458795,0.01389873,9.784336,0.026611488,0.6588339,-0.0063934326,0.007461548,0.004257202,-33.51003,31.78134,-27.241337,0,0.0,0.0,0.0,0.0
0.463134765,0.054557282,-0.6160416,-0.7858221,0.039229188,0.787709,-0.6147973,0.99773973,0.0027145043,0.06714206,0.20848672,-0.5476988,-0.8102835,0.13432714,0.8366735,-0.5309742,0.9687567,0.0018580107,0.24800614,0.033759117,-0.003180055,0.0066417456,9.784367,0.026619872,0.6584308,0.0021362305,0.02128601,-0.0053253174,-33.51003,31.78134,-27.241337,0,0.0,0.0,0.0,0.0
0.467559814,0.05450392,-0.61650985,-0.7854584,0.03923905,0.7873425,-0.61526585,0.99774224,0.0027137613,0.06710452,0.20529883,-0.5491053,-0.81014556,0.13270988,0.8357511,-0.53283036,0.96966004,0.0018751405,0.24445044,0.031726837,-0.0057806037,0.011225343,9.784388,0.026612578,0.65806234,-0.0010681152,0.014907837,-0.007461548,-33.530464,31.777813,-27.26927,0,0.0,0.0,0.0,0.0
0.471954345,0.05447731,-0.6165276,-0.78544635,0.039219048,0.78732866,-0.6152849,0.9977445,0.0027146114,0.06707117,0.20217581,-0.55049205,-0.8099898,0.13111523,0.8348383,-0.53465307,0.9705327,0.0018919128,0.240962,0.029557228,-0.0025214497,0.015556872,9.784408,0.026620908,0.65773517,-0.0053253174,0.0095825195,-0.0063934326,-33.530464,31.777813,-27.26927,0,0.0,0.0,0.0,0.0
0.476379394,0.05445027,-0.6165456,-0.785434,0.039199777,0.7873144,-0.6153042,0.9977467,0.002714641,0.06703794,0.19911787,-0.55184996,-0.8098233,0.12954083,0.8339412,-0.53643376,0.97137594,0.0019083668,0.2375397,0.030128479,-0.0039655063,0.011068106,9.784427,0.02662119,0.65740913,-0.003189087,0.018096924,-0.0063934326,-33.530464,31.777813,-27.26927,0,0.0,0.0,0.0,0.0
0.480773925,0.054418806,-0.6167923,-0.7852426,0.03919881,0.7871213,-0.6155515,0.9977485,0.0027170023,0.06701172,0.19612351,-0.5531797,-0.80964667,0.12798671,0.8330597,-0.5381736,0.9721908,0.0019244923,0.23418225,0.033784866,-0.0024885442,0.01273638,9.784445,0.02664435,0.65715206,0.017044067,0.015960693,-0.0021362305,-33.505096,31.78339,-27.287184,0,0.0,0.0,0.0,0.0
0.485198974,0.05440554,-0.61680114,-0.78523654,0.039186522,0.78711426,-0.61556107,0.9977496,0.0027192459,0.06699367,0.19319099,-0.55448663,-0.80945766,0.12645416,0.8321903,-0.5398783,0.9729782,0.0019403426,0.23088881,0.03702545,-0.0034795348,0.016648233,9.784455,0.026666349,0.656975,-0.0010681152,0.023422241,-0.010650635,-33.505096,31.78339,-27.287184,0,0.0,0.0,0.0,0.0
0.489593505,0.054392308,-0.6168099,-0.7852306,0.039174393,0.7871075,-0.61557066,0.99775094,0.0027213776,0.06697574,0.19031973,-0.5557664,-0.80926025,0.12494194,0.8313362,-0.5415438,0.97373915,0.0019559206,0.22765821,0.03435707,-0.0044209734,0.012950242,9.784466,0.026687248,0.6567991,0.0063934326,0.024490356,-0.0010681152,-33.505096,31.78339,-27.287184,0,0.0,0.0,0.0,0.0
0.494018554,0.054313067,-0.618168,-0.78416735,0.03925661,0.7860413,-0.6169263,0.997752,0.0027234023,0.06695949,0.18750857,-0.5570194,-0.809055,0.123450145,0.83049715,-0.5431708,0.9744745,0.00197123,0.22448944,0.03325939,-0.00411829,0.0139788985,9.784475,0.026707102,0.65663964,0.014907837,0.015960693,-0.010650635,-33.54371,31.743902,-27.347385,0,0.0,0.0,0.0,0.0
0.498413086,0.054303,-0.61817473,-0.78416276,0.03924698,0.786036,-0.61693364,0.9977529,0.0027253258,0.0669456,0.18475212,-0.5582748,-0.80882376,0.12198519,0.82965374,-0.5447883,0.9751853,0.001986273,0.22138155,0.031737328,-0.0028724894,0.01877153,9.784485,0.026725965,0.65650344,-0.0063934326,0.018096924,-0.0010681152,-33.54371,31.743902,-27.347385,0,0.0,0.0,0.0,0.0
0.502838134,0.054291546,-0.61818236,-0.7841575,0.039236475,0.78603,-0.6169419,0.9977539,0.0027271532,0.06693008,0.18205345,-0.559504,-0.80858636,0.12054032,0.82882524,-0.54636866,0.9758722,0.0020010541,0.21833327,0.029334068,-0.0024076663,0.010418713,9.784493,0.026743883,0.65635115,0.0,0.020233154,-0.0010681152,-33.54371,31.743902,-27.347385,0,0.0,0.0,0.0,0.0
0.507232666,0.054394085,-0.61590546,-0.78594005,0.039071564,0.7878153,-0.6146709,0.99775475,0.002726555,0.06691688,0.1794114,-0.56070757,-0.8083432,0.11911554,0.8280115,-0.5479129,0.9765363,0.0020155762,0.21534367,0.039021492,-0.008406822,0.014678359,9.784502,0.026738018,0.65622175,0.008529663,0.011703491,-0.007461548,-33.490746,31.813963,-27.249014,0,0.0,0.0,0.0,0.0
0.511657714,0.054383382,-0.61591256,-0.7859352,0.03906369,0.7878098,-0.61467856,0.9977557,0.0027267656,0.066903576,0.17683156,-0.561838,-0.8081266,0.117700614,0.82724476,-0.54937476,0.97717816,0.0020297957,0.21241166,0.04319668,-0.0057342835,0.013226509,9.78451,0.026740076,0.65609115,0.007461548,0.008529663,-0.0010681152,-33.490746,31.813963,-27.249014,0,0.0,0.0,0.0,0.0
0.516052246,0.054379214,-0.61591536,-0.7859334,0.03905467,0.7878076,-0.6146819,0.99775624,0.0027315542,0.066894725,0.17430553,-0.56294495,-0.807905,0.11630611,0.82649183,-0.5508031,0.9777988,0.002043735,0.20953605,0.04285431,-0.00300082,0.0127673745,9.784517,0.026787043,0.6560045,0.003189087,0.007461548,0.0,-33.490746,31.813963,-27.249014,0,0.0,0.0,0.0,0.0
0.520477295,0.054341417,-0.61664087,-0.7853668,0.039099555,0.78723985,-0.6154061,0.99775666,0.0027345475,0.06689011,0.17183247,-0.56402886,-0.80767876,0.11493205,0.82575244,-0.5521987,0.9783988,0.0020574916,0.20671609,0.040614128,-0.0075710863,0.022349358,9.784524,0.026816403,0.6559595,-0.0053253174,0.018096924,-0.017044067,-33.512146,31.808805,-27.29388,0,0.0,0.0,0.0,0.0
0.524902343,0.05434141,-0.61664087,-0.7853668,0.039094962,0.78723973,-0.61540633,0.9977567,0.002738168,0.066887274,0.16940919,-0.5651054,-0.8074382,0.11358146,0.82501614,-0.5535771,0.97897893,0.0020710328,0.20395081,0.038485527,-0.0056964066,0.023535967,9.784531,0.026851924,0.655932,-0.0063934326,0.010635376,-0.0053253174,-33.512146,31.808805,-27.29388,0,0.0,0.0,0.0,0.0
0.529296875,0.05434216,-0.6166403,-0.7853671,0.039092116,0.78724015,-0.6154061,0.9977569,0.0027408318,0.06688611,0.1661983,-0.56569886,-0.8076898,0.11201673,0.8246101,-0.55450004,0.97970927,0.001682191,0.20041655,0.04006195,-0.006541498,0.026803315,9.78453,0.02687804,0.65592045,-0.009567261,-0.012786865,0.004257202,-33.512146,31.808805,-27.29388,0,0.0,0.0,0.0,0.0
0.533721923,0.054276038,-0.6179495,-0.7843421,0.039179485,0.786213,-0.6167123,0.997757,0.0027425822,0.066883475,0.16389133,-0.5667406,-0.807431,0.11071095,0.82389456,-0.5558245,0.98024625,0.0017033638,0.19777356,0.040833473,-0.007814307,0.022260368,9.784536,0.026895221,0.65589494,0.01171875,0.0063934326,-0.0021362305,-33.57734,31.759045,-27.345125,0,0.0,0.0,0.0,0.0
0.538116455,0.05427793,-0.6179483,-0.78434294,0.039176755,0.786214,-0.6167113,0.9977571,0.0027458034,0.06688327,0.16162923,-0.56778795,-0.8071511,0.10943038,0.82317305,-0.55714554,0.98076546,0.0017241482,0.19518207,0.03846264,-0.0035333633,0.027020454,9.784534,0.026926802,0.65589285,-0.012771606,-0.004257202,0.007446289,-33.57734,31.759045,-27.345125,0,0.0,0.0,0.0,0.0
0.542541504,0.054282684,-0.61794513,-0.7843451,0.03917528,0.7862165,-0.6167083,0.9977569,0.0027496407,0.06688611,0.15941472,-0.5688134,-0.8068694,0.108169176,0.8224647,-0.55843633,0.9812677,0.0017445813,0.19264106,0.03621006,-0.0028256886,0.034146488,9.784533,0.026964433,0.6559206,0.012786865,-0.0063934326,-0.017044067,-33.57734,31.759045,-27.345125,0,0.0,0.0,0.0,0.0
0.546936035,0.054280598,-0.61804736,-0.78426474,0.039174248,0.7861361,-0.6168108,0.99775696,0.0027578748,0.06688347,0.15724677,-0.5698175,-0.8065863,0.106927164,0.8217694,-0.5596978,0.9817535,0.0017646825,0.19014955,0.040765762,4.352536E-4,0.030672967,9.784539,0.027045198,0.6558951,-0.017028809,-0.01171875,-0.0010681152,-33.63027,31.774563,-27.367868,0,0.0,0.0,0.0,0.0
0.551361084,0.05428461,-0.6180447,-0.7842666,0.039166298,0.78613824,-0.61680865,0.99775714,0.0027663999,0.06688172,0.15512422,-0.57080275,-0.8063006,0.10570461,0.8210853,-0.56093264,0.98222345,0.0017845463,0.1877067,0.046777725,6.5305457E-4,0.031436503,9.784537,0.02712879,0.65587777,0.007461548,-0.020233154,-0.018112183,-33.63027,31.774563,-27.367868,0,0.0,0.0,0.0,0.0
0.555755615,0.05428562,-0.618044,-0.78426707,0.039158612,0.7861388,-0.61680853,0.9977574,0.0027730188,0.06687776,0.15304641,-0.57176745,-0.8060141,0.10450096,0.82041377,-0.56213945,0.9826781,0.0018041834,0.18531163,0.039313316,-0.0017584432,0.023804665,9.784543,0.027193706,0.65583915,-0.0021362305,-0.013839722,-0.0032043457,-33.63027,31.774563,-27.367868,0,0.0,0.0,0.0,0.0
0.560180664,0.054328196,-0.6172159,-0.78491586,0.039093554,0.7867888,-0.6159828,0.9977575,0.0027800843,0.06687399,0.15101224,-0.57271206,-0.80572706,0.103315994,0.81975454,-0.56331897,0.983118,0.00182356,0.1829633,0.03653145,-7.0540234E-4,0.023257613,9.784549,0.027263006,0.6558024,-0.007461548,0.0021362305,0.0010681152,-33.69848,31.843092,-27.372156,0,0.0,0.0,0.0,0.0
0.564575195,0.05432781,-0.6172161,-0.78491575,0.03908575,0.78678876,-0.6159836,0.9977579,0.0027860191,0.066868864,0.1490229,-0.57361984,-0.8054517,0.10214642,0.8191196,-0.5644548,0.98354375,0.0018426905,0.18066081,0.032212257,-0.0025698505,0.01796496,9.7845545,0.027321212,0.6557523,-0.003189087,-0.0021209717,0.014892578,-33.69848,31.843092,-27.372156,0,0.0,0.0,0.0,0.0
0.569000244,0.05432674,-0.6172169,-0.7849152,0.039076857,0.7867881,-0.615985,0.9977583,0.0027924357,0.06686253,0.14707527,-0.5745088,-0.8051761,0.10099539,0.8184963,-0.56556505,0.9839557,0.0018615571,0.1784033,0.031222343,-9.978767E-4,0.013190985,9.784559,0.027384138,0.6556902,0.017044067,-0.0021209717,0.004257202,-33.69848,31.843092,-27.372156,0,0.0,0.0,0.0,0.0
0.573394775,0.054340232,-0.61696076,-0.78511566,0.039052054,0.78698903,-0.6157299,0.99775857,0.0027985305,0.066858746,0.14516833,-0.5753793,-0.8049005,0.09986262,0.8178845,-0.56665015,0.9843544,0.0018801746,0.17618981,0.03626728,-2.2242777E-4,0.019407868,9.784564,0.027443916,0.6556533,0.003189087,0.008529663,0.0095825195,-33.664707,31.773687,-27.298485,0,0.0,0.0,0.0,0.0
0.577819824,0.05434333,-0.61695874,-0.785117,0.039046038,0.78699046,-0.6157283,0.9977586,0.0028050204,0.06685748,0.1433021,-0.5762265,-0.80462885,0.0987472,0.81728786,-0.56770545,0.9847403,0.0018985418,0.17401981,0.033158302,0.0017044358,0.022657335,9.784569,0.027507572,0.65564114,0.008529663,0.0,0.003189087,-33.664707,31.773687,-27.298485,0,0.0,0.0,0.0,0.0
0.582214355,0.05434564,-0.6169572,-0.7851181,0.03903987,0.7869918,-0.6157272,0.99775875,0.002811186,0.0668555,0.141475,-0.57705605,-0.8043575,0.097649865,0.8167023,-0.56873703,0.9851138,0.0019166714,0.1718924,0.039063454,6.617252E-4,0.021681666,9.784574,0.027568044,0.65562195,0.0063934326,0.015960693,0.007446289,-33.664707,31.773687,-27.298485,0,0.0,0.0,0.0,0.0
0.586639404,0.05430495,-0.61794496,-0.7843437,0.03910426,0.7862163,-0.61671287,0.9977584,0.0028193784,0.066859715,0.13968608,-0.5778684,-0.804087,0.09657032,0.8161277,-0.56974536,0.9854755,0.0019345616,0.16980661,0.034386635,-3.5173818E-4,0.022370636,9.78457,0.027648382,0.65566325,0.0053253174,0.02128601,-0.004272461,-33.641552,31.680899,-27.288998,0,0.0,0.0,0.0,0.0
0.591064453,0.054316487,-0.6179372,-0.78434896,0.039099764,0.7862224,-0.6167054,0.997758,0.002829417,0.06686604,0.13793232,-0.5786844,-0.8038028,0.09551196,0.8155492,-0.5707512,0.9858256,0.0019522579,0.16776189,0.035689354,-0.0013366546,0.016059518,9.784567,0.027746828,0.6557254,0.004257202,0.022354126,-0.012786865,-33.641552,31.680899,-27.288998,0,0.0,0.0,0.0,0.0
0.595458984,0.054328658,-0.61792904,-0.7843545,0.039096348,0.78622866,-0.61669755,0.99775743,0.0028389534,0.06687353,0.13773231,-0.5801637,-0.80277014,0.09460266,0.8144947,-0.57240605,0.9859413,0.0028946267,0.16706727,0.028307915,-0.0010752734,0.018907964,9.784564,0.027840354,0.655799,0.014907837,0.020233154,-0.01171875,-33.641552,31.680899,-27.288998,0,0.0,0.0,0.0,0.0
0.599884033,0.05439052,-0.61696136,-0.7851116,0.039034646,0.7869882,-0.6157319,0.9977565,0.0028434233,0.06688758,0.13602263,-0.58093196,-0.802506,0.09357623,0.81394696,-0.5733532,0.9862765,0.002893513,0.16507664,0.030161858,-0.005808955,0.022503614,9.784554,0.027884187,0.6559367,0.0010681152,0.011703491,0.013824463,-33.628555,31.673391,-27.219484,0,0.0,0.0,0.0,0.0
0.604278564,0.054404218,-0.61695224,-0.7851179,0.039039902,0.78699553,-0.6157224,0.9977555,0.00284697,0.06690163,0.13435125,-0.5816643,-0.80225706,0.09256376,0.8134238,-0.5742593,0.9866011,0.0028925112,0.16312553,0.029050827,-0.0067086928,0.022561014,9.784543,0.027918963,0.6560744,0.018112183,0.026626587,0.012771606,-33.628555,31.673391,-27.219484,0,0.0,0.0,0.0,0.0
0.608703613,0.05441849,-0.61694264,-0.7851244,0.03904579,0.787003,-0.61571246,0.9977546,0.0028503388,0.066916525,0.13271491,-0.58238137,-0.80200917,0.09156842,0.81291056,-0.57514495,0.9869154,0.0028916004,0.1612131,0.025839806,-0.0070843175,0.024994373,9.7845335,0.027952,0.6562205,-0.0010681152,-0.0010681152,0.003189087,-33.628555,31.673391,-27.219484,0,0.0,0.0,0.0,0.0
0.613098144,0.054479275,-0.61601907,-0.78584516,0.0389906,0.78772604,-0.61479044,0.99775326,0.00285276,0.066933684,0.13111296,-0.5830834,-0.80176246,0.09059,0.81240714,-0.57601047,0.98721975,0.002890775,0.15933864,0.030929565,-0.007673096,0.03350109,9.784525,0.027975757,0.65638906,0.008529663,0.0021362305,-0.0053253174,-33.61621,31.66626,-27.153446,0,0.0,0.0,0.0,0.0
0.617523193,0.05449447,-0.61600876,-0.7858521,0.038992662,0.787734,-0.61478,0.99775237,0.0028596513,0.066946976,0.1295467,-0.583752,-0.80153054,0.08962532,0.81192684,-0.57683796,0.98751456,0.0028900146,0.15750141,0.02762413,-0.0068408325,0.032753766,9.784516,0.028043337,0.6565194,-0.003189087,-0.012786865,-0.0032043457,-33.61621,31.66626,-27.153446,0,0.0,0.0,0.0,0.0
0.621917724,0.054507308,-0.6160002,-0.78585804,0.038995452,0.78774095,-0.61477137,0.99775165,0.0028646428,0.06695884,0.12801333,-0.5844066,-0.8012999,0.08867726,0.81145585,-0.5776468,0.98780006,0.0028894073,0.15570073,0.03166771,-0.010344006,0.029657423,9.784508,0.02809228,0.6566356,0.017044067,-0.017044067,-0.017044067,-33.61621,31.66626,-27.153446,0,0.0,0.0,0.0,0.0
0.626342773,0.0544954,-0.6164976,-0.7854686,0.039031863,0.7873515,-0.61526746,0.9977509,0.00287094,0.06697009,0.12651205,-0.58504754,-0.8010706,0.08774554,0.81099385,-0.57843727,0.9880766,0.002888912,0.1539358,0.03263569,-0.006504966,0.029109955,9.7845,0.028154034,0.656746,0.004257202,-0.017044067,0.003189087,-33.622414,31.587769,-27.125273,0,0.0,0.0,0.0,0.0
0.630737304,0.054506756,-0.61648995,-0.7854738,0.039028514,0.78735757,-0.61526006,0.9977504,0.0028799574,0.066976994,0.12504101,-0.5856856,-0.8008353,0.086831525,0.81053317,-0.5792204,0.9883446,0.0028885526,0.15220585,0.032117844,-0.0040846877,0.028627217,9.7844925,0.028242458,0.65681344,-0.0010681152,-0.0063934326,-0.004272461,-33.622414,31.587769,-27.125273,0,0.0,0.0,0.0,0.0
0.635162353,0.054511737,-0.61648667,-0.78547615,0.03902415,0.78736013,-0.6152571,0.9977503,0.0028861887,0.06697823,0.12360073,-0.5863104,-0.80060166,0.08593325,0.8100813,-0.5799859,0.98860425,0.0028883808,0.1505102,0.03856182,-0.0046357624,0.032769144,9.784493,0.028303571,0.6568257,-0.013839722,-0.019165039,-0.012786865,-33.622414,31.587769,-27.125273,0,0.0,0.0,0.0,0.0
0.639556884,0.05451926,-0.6164341,-0.7855169,0.039014887,0.78740126,-0.615205,0.99775016,0.0028936646,0.066978626,0.122190416,-0.58692235,-0.8003698,0.085050516,0.8096381,-0.58073455,0.9888559,0.002888337,0.14884806,0.036782265,-0.0013438258,0.030726314,9.784494,0.028376888,0.6568298,0.0063934326,-0.03302002,0.008514404,-33.610374,31.602846,-27.133068,0,0.0,0.0,0.0,0.0
0.643981933,0.05451673,-0.6164357,-0.7855157,0.039005075,0.7873999,-0.61520725,0.9977507,0.0028999883,0.06697059,0.12080953,-0.58752054,-0.8001403,0.08418287,0.80920404,-0.58146536,0.98909974,0.0028884436,0.14721875,0.03676033,-0.0022791382,0.03126216,9.784503,0.02843891,0.65675116,0.003189087,-0.014907837,-0.0010681152,-33.610374,31.602846,-27.133068,0,0.0,0.0,0.0,0.0
0.648406982,0.054509044,-0.6164409,-0.78551215,0.038993876,0.78739583,-0.6152132,0.99775165,0.0029045187,0.066957615,0.119457215,-0.5881065,-0.79991287,0.083330244,0.8087783,-0.58218014,0.9893362,0.0028886744,0.14562146,0.03745842,-0.002913624,0.033500016,9.784511,0.028483335,0.65662384,0.022369385,-0.041549683,0.0,-33.610374,31.602846,-27.133068,0,0.0,0.0,0.0,0.0
0.652801513,0.05447571,-0.6168792,-0.7851702,0.039011635,0.7870524,-0.6156513,0.9977527,0.002907267,0.06694072,0.11813266,-0.58868057,-0.7996874,0.08249234,0.8083606,-0.5828792,0.98956543,0.0028889913,0.14405543,0.037403107,-0.001107024,0.036150098,9.784518,0.028510278,0.6564579,-0.0021362305,-0.030883789,0.007446289,-33.625793,31.608244,-27.166414,0,0.0,0.0,0.0,0.0
0.657226562,0.054463707,-0.61688733,-0.7851647,0.03899979,0.7870461,-0.6156602,0.99775386,0.0029098766,0.066923924,0.11683451,-0.5892519,-0.7994573,0.08167036,0.80794424,-0.5835718,0.9897877,0.0028893566,0.14252017,0.035428047,-0.0025027841,0.032448947,9.784532,0.028535875,0.6562934,0.003189087,-0.026626587,0.0063934326,-33.625793,31.608244,-27.166414,0,0.0,0.0,0.0,0.0
0.661621093,0.054446064,-0.6168992,-0.78515667,0.038984086,0.7870368,-0.61567307,0.9977554,0.0029123568,0.066900305,0.1155629,-0.5898117,-0.7992293,0.08086264,0.80753565,-0.58424944,0.9900033,0.002889767,0.1410149,0.034030914,-0.005983297,0.031163692,9.784545,0.028560191,0.6560616,0.0095825195,-0.013839722,0.0053253174,-33.625793,31.608244,-27.166414,0,0.0,0.0,0.0,0.0
0.666046142,0.054388374,-0.61768436,-0.78454304,0.039023552,0.7864207,-0.6164574,0.9977571,0.0029124573,0.06687639,0.11281657,-0.5908634,-0.7988447,0.078359984,0.8067642,-0.5856546,0.99052113,0.003474094,0.13731642,0.03174591,-0.011661762,0.025647402,9.784557,0.028561167,0.65582687,0.010650635,-0.034088135,-0.007461548,-33.65837,31.559586,-27.180775,0,0.0,0.0,0.0,0.0
0.670440673,0.054367278,-0.6176986,-0.7845334,0.039007496,0.78640956,-0.6164726,0.9977588,0.0029132515,0.06684982,0.111626126,-0.59140646,-0.79861003,0.07761451,0.80636615,-0.5863016,0.99071467,0.003462861,0.13591325,0.031723022,-0.00892337,0.01493746,9.784576,0.02856896,0.65556645,-0.008514404,-0.007461548,0.013824463,-33.65837,31.559586,-27.180775,0,0.0,0.0,0.0,0.0
0.674865722,0.054349914,-0.6177102,-0.78452545,0.03899119,0.7864004,-0.61648524,0.99776036,0.0029163396,0.06682605,0.11045975,-0.59193873,-0.7983779,0.07688191,0.80597556,-0.58693486,0.99090254,0.0034518691,0.13453723,0.025714874,-0.0025140662,0.01695931,9.784595,0.028599253,0.6553336,0.003189087,-0.004257202,-0.004272461,-33.65837,31.559586,-27.180775,0,0.0,0.0,0.0,0.0
0.679260254,0.054275848,-0.61883336,-0.78364486,0.03905068,0.78551674,-0.6176069,0.9977621,0.002919274,0.06680046,0.10931711,-0.59246033,-0.7981481,0.07616207,0.80559224,-0.58755463,0.9910848,0.0034411584,0.13318802,0.023359299,-0.00241125,0.009093881,9.784612,0.028628029,0.6550826,-0.0021362305,-0.0095825195,0.0,-33.743107,31.4775,-27.194416,0,0.0,0.0,0.0,0.0
0.683685302,0.054255184,-0.6188473,-0.7836354,0.039035324,0.7855059,-0.61762184,0.99776375,0.0029197277,0.066774674,0.10819562,-0.5929943,-0.79790443,0.07545789,0.8051993,-0.5881837,0.9912617,0.0034307207,0.13186514,0.024952888,-0.0077960584,0.0035511255,9.784628,0.028632479,0.6548297,-0.0063934326,0.0095825195,-0.004272461,-33.743107,31.4775,-27.194416,0,0.0,0.0,0.0,0.0
0.688079834,0.05423466,-0.61886114,-0.78362596,0.039018117,0.78549504,-0.6176368,0.9977656,0.0029217156,0.06674785,0.107096925,-0.5935176,-0.7976635,0.07476601,0.80481374,-0.5887995,0.99143344,0.0034205008,0.13056803,0.023591995,-0.005266212,-0.0012124777,9.784644,0.028651966,0.6545665,0.010650635,0.0021362305,-0.007461548,-33.743107,31.4775,-27.194416,0,0.0,0.0,0.0,0.0
0.692504882,0.054271977,-0.6177369,-0.7845098,0.038926475,0.78637934,-0.61651605,0.9977671,0.0029213468,0.06672469,0.10602043,-0.59403044,-0.79742557,0.07408611,0.8044353,-0.58940226,0.99160016,0.0034105254,0.12929597,0.025173187,-0.00978348,0.004294753,9.784659,0.028648352,0.65433943,0.01171875,0.010635376,-0.0021362305,-33.689175,31.516022,-27.146875,0,0.0,0.0,0.0,0.0
0.696899414,0.054255504,-0.617748,-0.78450215,0.038914286,0.7863707,-0.61652803,0.9977686,0.002921697,0.06670416,0.10496786,-0.5945098,-0.7972075,0.0734151,0.80408114,-0.5899692,0.99176204,0.0034007418,0.12804867,0.027872086,-0.006899437,0.009033024,9.784674,0.028651785,0.65413815,0.0021362305,0.011703491,0.018096924,-33.689175,31.516022,-27.146875,0,0.0,0.0,0.0,0.0
0.701324463,0.05424224,-0.6177569,-0.784496,0.038903415,0.7863636,-0.6165377,0.9977697,0.002922807,0.06668699,0.10393668,-0.59497964,-0.7969921,0.07275601,0.80373365,-0.5905242,0.9919193,0.0033911609,0.12682575,0.029718399,-0.005125478,0.013271987,9.784687,0.028662676,0.6539698,0.0138549805,0.0010681152,0.003189087,-33.689175,31.516022,-27.146875,0,0.0,0.0,0.0,0.0
0.705749511,0.054207563,-0.6182185,-0.78413486,0.038922634,0.78600085,-0.6169989,0.9977707,0.0029254172,0.06666989,0.10292649,-0.59544003,-0.79677933,0.07210866,0.80339265,-0.5910673,0.9920718,0.0033817936,0.12562677,0.031472206,-0.0015397351,0.012757957,9.784699,0.028688282,0.6538023,0.003189087,0.02128601,0.004257202,-33.691727,31.552616,-27.205471,0,0.0,0.0,0.0,0.0
0.710144043,0.054197818,-0.61822504,-0.78413033,0.03891252,0.78599566,-0.6170061,0.99777174,0.0029278994,0.06665595,0.10193603,-0.5959005,-0.79656243,0.07147403,0.80305123,-0.59160817,0.99222004,0.0033726664,0.12445126,0.031230927,-0.0017244369,0.017514825,9.784704,0.028712608,0.65366524,0.010650635,0.0095825195,-0.004272461,-33.691727,31.552616,-27.205471,0,0.0,0.0,0.0,0.0
0.714569091,0.05418896,-0.61823106,-0.7841263,0.038906157,0.7859911,-0.61701256,0.99777246,0.0029279226,0.06664502,0.10096583,-0.5963516,-0.7963482,0.07085076,0.80271626,-0.59213746,0.99236387,0.0033637711,0.123298876,0.032676697,-0.007143585,0.02153182,9.784709,0.02871283,0.65355796,0.004257202,0.0095825195,-0.004272461,-33.691727,31.552616,-27.205471,0,0.0,0.0,0.0,0.0
0.718963623,0.054148212,-0.618877,-0.7836194,0.038943775,0.7854826,-0.6176574,0.99777323,0.0029279452,0.06663387,0.100015424,-0.5967937,-0.79613703,0.0702387,0.8023878,-0.5926555,0.99250364,0.0033550542,0.12216917,0.03620529,-0.0072647687,0.01984948,9.784713,0.02871304,0.6534484,-0.0021362305,0.0053253174,0.0021209717,-33.72101,31.578455,-27.269758,0,0.0,0.0,0.0,0.0
0.723388672,0.054141626,-0.61888134,-0.78361636,0.03893992,0.785479,-0.617662,0.99777365,0.0029272656,0.0666263,0.09908326,-0.5972399,-0.79591894,0.0696393,0.8020557,-0.5931754,0.99263936,0.003346512,0.12106166,0.040275574,-0.0073730275,0.026361227,9.784717,0.028706374,0.65337414,-0.015960693,-0.004257202,-0.007461548,-33.72101,31.578455,-27.269758,0,0.0,0.0,0.0,0.0
0.727783203,0.054137643,-0.618884,-0.78361446,0.03893701,0.7854769,-0.61766493,0.99777406,0.0029273198,0.06662136,0.098170154,-0.5976772,-0.7957038,0.06905077,0.8017299,-0.5936844,0.9927712,0.0033381272,0.11997602,0.03336811,-0.00652525,0.030849159,9.78472,0.028706906,0.6533257,0.003189087,0.012771606,0.007446289,-33.72101,31.578455,-27.269758,0,0.0,0.0,0.0,0.0
0.732208252,0.05413459,-0.6189307,-0.78357786,0.038938582,0.7854402,-0.61771154,0.9977742,0.0029281487,0.06661976,0.097193554,-0.598733,-0.7950297,0.06788535,0.8009395,-0.5948845,0.99294764,0.0038480703,0.118491344,0.033270836,-0.004290875,0.037955344,9.784724,0.028715042,0.6533102,0.012786865,-0.0063934326,-0.0063934326,-33.668182,31.558142,-27.253086,0,0.0,0.0,0.0,0.0
0.736602783,0.05412755,-0.61893535,-0.7835746,0.038931556,0.7854364,-0.61771667,0.9977748,0.0029297154,0.066609874,0.09631986,-0.59914076,-0.7948288,0.06732913,0.80063456,-0.59535795,0.99307066,0.003829672,0.11745663,0.03916359,-0.008879034,0.032578528,9.784728,0.0287304,0.653213,0.0021362305,-0.017044067,-0.009597778,-33.668182,31.558142,-27.253086,0,0.0,0.0,0.0,0.0
0.741027832,0.054122344,-0.6189389,-0.7835723,0.038927916,0.78543377,-0.6177205,0.99777526,0.002929648,0.06660351,0.095463954,-0.59954035,-0.79463077,0.066782966,0.8003354,-0.5958215,0.99319017,0.0038116728,0.11644227,0.04188919,-0.012265038,0.038693428,9.784731,0.028729731,0.6531505,-0.003189087,-0.030883789,-0.012786865,-33.668182,31.558142,-27.253086,0,0.0,0.0,0.0,0.0
0.745422363,0.054109484,-0.6189805,-0.7835401,0.03892235,0.7854008,-0.6177625,0.99777615,0.0029295825,0.06658981,0.09462549,-0.59993184,-0.7944355,0.06624678,0.8000421,-0.5962751,0.9933063,0.0037940324,0.115447916,0.03992176,-0.013805564,0.04290116,9.784741,0.028729096,0.6530163,-0.0063934326,-0.020233154,0.0021209717,-33.671783,31.556772,-27.254492,0,0.0,0.0,0.0,0.0
0.749847412,0.05409352,-0.6189912,-0.78353286,0.038911887,0.78539246,-0.61777383,0.9977774,0.0029288214,0.06657076,0.093803965,-0.6003162,-0.79424256,0.06572042,0.7997538,-0.5967199,0.9934192,0.0037767433,0.114473104,0.036616325,-0.011671804,0.04719758,9.784752,0.028721627,0.65282935,-0.003189087,-0.04260254,-0.004272461,-33.671783,31.556772,-27.254492,0,0.0,0.0,0.0,0.0
0.754241943,0.054073036,-0.6190049,-0.7835234,0.03889626,0.7853816,-0.6177886,0.9977792,0.002929576,0.06654495,0.092998914,-0.6006931,-0.7940523,0.06520356,0.79947084,-0.59715563,0.9935289,0.003759785,0.113517255,0.035144806,-0.009898791,0.050157666,9.784769,0.028729027,0.6525762,-0.010635376,-0.039413452,0.004257202,-33.671783,31.556772,-27.254492,0,0.0,0.0,0.0,0.0
0.758666992,0.05410637,-0.61780745,-0.78446573,0.038793556,0.78632396,-0.6165952,0.9977813,0.002929514,0.06651208,0.09220996,-0.6010625,-0.79386467,0.06469598,0.79919326,-0.5975822,0.9936356,0.0037431808,0.1125799,0.038288116,-0.011318065,0.053051412,9.784793,0.028728427,0.65225405,0.003189087,-0.043670654,-0.004272461,-33.71999,31.600332,-27.212645,0,0.0,0.0,0.0,0.0
0.763092041,0.05407432,-0.61782897,-0.78445095,0.038771644,0.7863071,-0.6166182,0.99778396,0.0029287566,0.06647327,0.09143872,-0.6014,-0.7936983,0.064194694,0.7989394,-0.5979757,0.99373937,0.0037269075,0.111660674,0.033852577,-0.013617,0.052523613,9.784816,0.028720992,0.6518733,0.0010681152,-0.043670654,-0.0032043457,-33.71999,31.600332,-27.212645,0,0.0,0.0,0.0,0.0
0.767486572,0.054035805,-0.6178548,-0.7844333,0.03874989,0.7862868,-0.61664534,0.9977868,0.0029242237,0.06642944,0.09068252,-0.6017311,-0.7935341,0.06370232,0.7986901,-0.59836125,0.99384034,0.0037109444,0.11075889,0.03441906,-0.017439783,0.049216926,9.784845,0.028676543,0.6514436,0.0063934326,-0.040481567,0.0010681152,-33.71999,31.600332,-27.212645,0,0.0,0.0,0.0,0.0
0.771911621,0.05396723,-0.6184834,-0.7839424,0.038766116,0.78579235,-0.6172742,0.9977899,0.002922175,0.06638324,0.08994101,-0.6020561,-0.793372,0.06321876,0.7984452,-0.59873915,0.9939386,0.0036952102,0.109874204,0.03447914,-0.016306106,0.048993826,9.784873,0.028656444,0.65099037,-0.013839722,-0.026626587,0.0063934326,-33.73893,31.596853,-27.250633,0,0.0,0.0,0.0,0.0
0.776306152,0.05392847,-0.61850953,-0.7839246,0.038740873,0.78577197,-0.61730194,0.997793,0.002920227,0.06633707,0.08921283,-0.6023872,-0.79320276,0.06274512,0.7981955,-0.5991218,0.99403423,0.0036797493,0.10900614,0.039794922,-0.0142716225,0.039945483,9.784906,0.028637348,0.6505377,0.008529663,-0.024505615,-0.009597778,-33.73893,31.596853,-27.250633,0,0.0,0.0,0.0,0.0
0.780731201,0.053892132,-0.6185338,-0.78390783,0.03871623,0.7857528,-0.6173278,0.99779594,0.002919154,0.066293195,0.08849877,-0.60271215,-0.7930359,0.062279876,0.79795027,-0.59949696,0.99412733,0.0036645592,0.10815445,0.03862095,-0.01306442,0.038052797,9.784938,0.028626837,0.6501077,0.0,-0.012786865,-0.004272461,-33.73893,31.596853,-27.250633,0,0.0,0.0,0.0,0.0
0.785125732,0.05385954,-0.6184934,-0.78394204,0.038687523,0.7857846,-0.6172891,0.9977988,0.0029181354,0.066249974,0.087798625,-0.6030309,-0.7928714,0.061822936,0.79770947,-0.5998646,0.99421793,0.003649651,0.10731894,0.037265778,-0.011438452,0.033875823,9.784967,0.028616851,0.6496839,-0.013839722,-0.003189087,-0.01171875,-33.837566,31.584621,-27.24354,0,0.0,0.0,0.0,0.0
0.789550781,0.053827617,-0.61851484,-0.78392714,0.038663052,0.78576756,-0.61731213,0.9978015,0.0029194236,0.06620968,0.087112084,-0.6033424,-0.7927101,0.061373904,0.7974739,-0.6002237,0.99430615,0.003635021,0.1064991,0.04244232,-0.005846387,0.033012807,9.784996,0.02862949,0.64928895,-0.003189087,-0.012786865,-0.0010681152,-33.837566,31.584621,-27.24354,0,0.0,0.0,0.0,0.0
0.793945312,0.053796183,-0.618536,-0.7839127,0.038639996,0.7857509,-0.6173347,0.997804,0.0029198693,0.06617063,0.08643896,-0.60364807,-0.79255116,0.06093289,0.7972427,-0.6005758,0.99439204,0.003620709,0.105694845,0.04185486,-0.006751118,0.031003594,9.785023,0.028633866,0.6489061,0.008529663,-0.0021209717,0.0053253174,-33.837566,31.584621,-27.24354,0,0.0,0.0,0.0,0.0
0.798370361,0.053716354,-0.61961854,-0.78306293,0.038691647,0.78489774,-0.61841625,0.9978064,0.0029210725,0.066135906,0.08602008,-0.6045715,-0.7918925,0.06006588,0.79653984,-0.6015948,0.9944811,0.004183516,0.104832545,0.044893265,-0.005462939,0.03433925,9.785042,0.028645653,0.6485653,0.012786865,-0.0010681152,-0.007461548,-33.886486,31.581928,-27.314545,0,0.0,0.0,0.0,0.0
0.802764892,0.053689986,-0.6196362,-0.78305066,0.03867315,0.78488374,-0.6184351,0.9978085,0.002920737,0.06610369,0.08536698,-0.6048746,-0.7917317,0.05965098,0.7963099,-0.6019405,0.9945623,0.004158267,0.10405993,0.04395008,-0.009491244,0.03606391,9.78506,0.028642356,0.64824915,0.0053253174,0.008529663,-0.008529663,-33.886486,31.581928,-27.314545,0,0.0,0.0,0.0,0.0
0.807189941,0.053667523,-0.6196514,-0.7830403,0.038658425,0.7848718,-0.61845124,0.9978103,0.0029196397,0.06607687,0.08472667,-0.6051719,-0.7915734,0.059243526,0.7960841,-0.6022793,0.9946415,0.0041335165,0.10330207,0.042574883,-0.009240987,0.04388976,9.785077,0.028631594,0.6479862,0.0,0.0021362305,-0.012786865,-33.886486,31.581928,-27.314545,0,0.0,0.0,0.0,0.0
0.811584472,0.053674355,-0.6191634,-0.7834256,0.038611844,0.78525674,-0.6179652,0.99781173,0.0029193745,0.06605519,0.08409892,-0.6054635,-0.79141724,0.05884345,0.79586244,-0.6026113,0.99471843,0.0041092387,0.102558725,0.037198067,-0.0068563297,0.050568223,9.785093,0.028629,0.64777374,0.003189087,-0.003189087,0.0095825195,-33.8881,31.588373,-27.286936,0,0.0,0.0,0.0,0.0
0.816009521,0.053658295,-0.6191742,-0.7834183,0.038597774,0.7852483,-0.61797684,0.99781305,0.0029213785,0.06603382,0.08348447,-0.6057393,-0.7912713,0.05844969,0.79565275,-0.60292655,0.9947935,0.0040854416,0.101829916,0.04023075,-0.0017398,0.04758358,9.785109,0.02864866,0.6475643,-0.0010681152,-0.01171875,-0.01171875,-33.8881,31.588373,-27.286936,0,0.0,0.0,0.0,0.0
0.820404052,0.053640645,-0.6191861,-0.7834101,0.038583703,0.7852389,-0.6179897,0.99781466,0.0029225056,0.066011205,0.08288218,-0.6060097,-0.79112756,0.058063086,0.7954469,-0.6032354,0.9948665,0.00406216,0.10111517,0.041196823,-0.00309629,0.039503753,9.785123,0.028659707,0.64734244,0.007461548,-0.003189087,-0.0063934326,-33.8881,31.588373,-27.286936,0,0.0,0.0,0.0,0.0
0.824829101,0.053647004,-0.6187221,-0.78377604,0.038535737,0.7856045,-0.61752784,0.99781615,0.002925132,0.06598824,0.08229173,-0.6062749,-0.79098594,0.057683483,0.7952449,-0.6035381,0.99493754,0.0040393667,0.10041413,0.042593002,1.484286E-4,0.033518553,9.785137,0.028685462,0.6471172,0.0021362305,-0.004257202,-0.004272461,-33.889633,31.594496,-27.260708,0,0.0,0.0,0.0,0.0
0.82925415,0.053632077,-0.6187322,-0.7837692,0.03852188,0.7855966,-0.6175388,0.99781746,0.0029276267,0.065967895,0.08171361,-0.60652536,-0.79085386,0.057309758,0.795054,-0.6038251,0.9950068,0.0040170825,0.09972655,0.040567398,5.97246E-4,0.036437035,9.785151,0.028709928,0.6469177,0.020233154,0.0053253174,-0.004272461,-33.889633,31.594496,-27.260708,0,0.0,0.0,0.0,0.0
0.833648681,0.05361682,-0.6187424,-0.7837621,0.038508937,0.7855885,-0.6175499,0.9978188,0.002929219,0.065947875,0.08114698,-0.606771,-0.7907238,0.056942906,0.7948666,-0.60410637,0.9950742,0.0039952933,0.09905233,0.041755676,-8.8372827E-4,0.032752097,9.785163,0.028725542,0.6467213,0.004257202,0.0010681152,-0.0032043457,-33.889633,31.594496,-27.260708,0,0.0,0.0,0.0,0.0
0.83807373,0.053607423,-0.6186359,-0.7838468,0.038488228,0.7856723,-0.61744446,0.9978201,0.0029307315,0.06592807,0.080591634,-0.60701185,-0.79059577,0.056582842,0.7946829,-0.6043819,0.9951399,0.003973972,0.09839124,0.043123245,-0.0010936,0.028061926,9.785175,0.028740374,0.6465271,-0.0053253174,0.011703491,-0.010650635,-33.846306,31.609238,-27.261732,0,0.0,0.0,0.0,0.0
0.842468261,0.05359589,-0.6186437,-0.7838416,0.03847617,0.7856664,-0.6174531,0.9978213,0.0029337246,0.06591152,0.08004732,-0.60724556,-0.7904715,0.056229066,0.79450434,-0.6046496,0.9952039,0.003953107,0.0977428,0.04394436,0.002761282,0.03268224,9.785187,0.028769724,0.64636475,0.01171875,0.007461548,0.007446289,-33.846306,31.609238,-27.261732,0,0.0,0.0,0.0,0.0
0.84689331,0.053588457,-0.61864865,-0.7838381,0.038466346,0.7856623,-0.6174586,0.9978219,0.0029372668,0.06589958,0.079513974,-0.6074748,-0.79034925,0.05588191,0.7943292,-0.6049118,0.9952662,0.0039327196,0.09710712,0.042808533,0.0042620115,0.041343212,9.785197,0.028804474,0.6462479,-0.020217896,-0.004257202,0.007446289,-33.846306,31.609238,-27.261732,0,0.0,0.0,0.0,0.0
0.851287841,0.0535789,-0.618693,-0.7838037,0.03845928,0.78562737,-0.61750346,0.99782276,0.0029406326,0.06588753,0.078991294,-0.6076995,-0.79022896,0.055541184,0.79415745,-0.60516876,0.99532694,0.0039128107,0.09648387,0.044841766,0.0037727244,0.03904414,9.785208,0.028837487,0.64613,0.003189087,-0.003189087,0.003189087,-33.823074,31.587385,-27.245462,0,0.0,0.0,0.0,0.0
0.85571289,0.05357215,-0.6186975,-0.7838006,0.0384494,0.7856238,-0.6175087,0.9978235,0.002944608,0.065876104,0.078479014,-0.6079205,-0.79010993,0.055206854,0.79398835,-0.60542107,0.995386,0.0038933672,0.095872805,0.044858932,0.00569438,0.036620438,9.785217,0.028876478,0.646018,-0.004257202,-0.0010681152,-0.0010681152,-33.823074,31.587385,-27.245462,0,0.0,0.0,0.0,0.0
0.860107422,0.053565603,-0.6187019,-0.7837976,0.038438916,0.78562033,-0.6175137,0.99782425,0.0029491626,0.06586446,0.07797699,-0.6081372,-0.78999287,0.05487873,0.79382247,-0.60566837,0.9954436,0.003874392,0.09527368,0.042960167,0.008230247,0.032409787,9.785227,0.02892115,0.645904,0.003189087,-0.003189087,-0.0021362305,-33.823074,31.587385,-27.245462,0,0.0,0.0,0.0,0.0
0.86453247,0.053511824,-0.6196893,-0.7830208,0.038496483,0.7848417,-0.6184995,0.99782497,0.0029534895,0.06585418,0.07664189,-0.60869133,-0.78969675,0.054968175,0.7934013,-0.6062119,0.9955423,0.0030530423,0.09426642,0.048099518,0.007287726,0.034388125,9.785235,0.028963588,0.6458033,0.0053253174,-0.0063934326,0.012771606,-33.881645,31.557697,-27.290506,0,0.0,0.0,0.0,0.0
0.868927002,0.053504143,-0.61969435,-0.7830173,0.038486723,0.78483754,-0.6185051,0.9978257,0.0029568223,0.06584208,0.07617527,-0.6089124,-0.7895714,0.054645393,0.7932316,-0.6064631,0.9955959,0.0030510514,0.0936989,0.046038628,0.0049641095,0.026713252,9.785244,0.028996274,0.6456847,0.017044067,-0.0010681152,0.004257202,-33.881645,31.557697,-27.290506,0,0.0,0.0,0.0,0.0
0.87335205,0.053497605,-0.6196988,-0.7830143,0.038478993,0.78483415,-0.6185101,0.99782634,0.0029592102,0.06583214,0.075717926,-0.60912913,-0.78944826,0.054328576,0.7930652,-0.6067092,0.9956481,0.0030491669,0.09314237,0.043841362,0.0015672501,0.029462457,9.785252,0.029019697,0.6455873,0.0021362305,0.013839722,-0.004272461,-33.881645,31.557697,-27.290506,0,0.0,0.0,0.0,0.0
0.877746582,0.053504054,-0.6194203,-0.7832342,0.038456284,0.78505397,-0.6182325,0.9978269,0.0029576665,0.06582417,0.07526974,-0.60934156,-0.78932714,0.054017674,0.792902,-0.6069502,0.995699,0.0030473676,0.09259673,0.042470932,-0.00665015,0.03182,9.785259,0.029004563,0.64550936,0.0,0.0053253174,0.0053253174,-33.91043,31.55635,-27.272799,0,0.0,0.0,0.0,0.0
0.88217163,0.05349877,-0.6194238,-0.7832318,0.038453363,0.7850513,-0.6182362,0.9978273,0.00295698,0.065818205,0.07483093,-0.6095441,-0.78921247,0.053712174,0.7927463,-0.6071806,0.9957486,0.0030455736,0.09206188,0.04022026,-0.004409531,0.032847404,9.785258,0.028997816,0.64545053,-0.0063934326,-0.01171875,-0.004272461,-33.91043,31.55635,-27.272799,0,0.0,0.0,0.0,0.0
0.886596679,0.053497694,-0.6194245,-0.7832313,0.03845045,0.7850507,-0.61823714,0.9978275,0.0029586607,0.06581555,0.0744009,-0.60974264,-0.78909975,0.05341249,0.7925936,-0.6074064,0.9957969,0.0030438018,0.09153755,0.03712368,8.08198E-4,0.0404976,9.785258,0.029014295,0.6454244,-0.007461548,-0.004257202,0.007446289,-33.91043,31.55635,-27.272799,0,0.0,0.0,0.0,0.0
0.890991211,0.053542204,-0.61844593,-0.78400123,0.038379088,0.7858218,-0.617261,0.99782777,0.002960258,0.06581001,0.0739796,-0.6099372,-0.78898895,0.05311853,0.7924439,-0.60762745,0.99584407,0.0030420988,0.09102365,0.03849125,-0.002134433,0.04324639,9.785258,0.029029949,0.6453699,0.0021362305,-0.019165039,-0.0021362305,-33.928776,31.582003,-27.230036,0,0.0,0.0,0.0,0.0
0.895416259,0.05353531,-0.6184506,-0.783998,0.038369372,0.78581816,-0.6172663,0.99782854,0.0029640307,0.06579857,0.07356804,-0.6101081,-0.78889537,0.05282827,0.7923123,-0.60782427,0.99588996,0.003040462,0.09051982,0.03930378,0.0010324381,0.042565763,9.785266,0.029066946,0.6452577,-0.010635376,-0.0234375,-0.007461548,-33.928776,31.582003,-27.230036,0,0.0,0.0,0.0,0.0
0.899810791,0.05352485,-0.6184575,-0.7839931,0.038355354,0.7858125,-0.6172741,0.9978296,0.002969172,0.06578167,0.073164776,-0.6102757,-0.7888032,0.05254352,0.79218334,-0.6080171,0.9959348,0.0030389333,0.09002595,0.039357185,-0.0017199889,0.03742999,9.785273,0.029117353,0.64509165,0.012786865,-0.029830933,-0.0053253174,-33.928776,31.582003,-27.230036,0,0.0,0.0,0.0,0.0
0.904235839,0.05347664,-0.6192052,-0.78340614,0.038388975,0.78522354,-0.6180212,0.99783087,0.0029755328,0.06576177,0.07276942,-0.61043996,-0.7887127,0.052263983,0.79205674,-0.60820603,0.9959785,0.003037538,0.08954153,0.037246704,-0.006024707,0.035221994,9.785286,0.029179735,0.64489657,0.010650635,-0.020233154,-0.009597778,-33.88349,31.6153,-27.301716,0,0.0,0.0,0.0,0.0
0.908630371,0.053465154,-0.6192129,-0.7834009,0.038373064,0.7852175,-0.61802995,0.9978321,0.002981576,0.065742865,0.072380826,-0.610616,-0.7886122,0.051990885,0.791921,-0.6084062,0.9960211,0.0030362976,0.089066364,0.03787613,-0.0065237936,0.033602834,9.785298,0.029238997,0.6447112,0.022369385,-0.013839722,-0.014923096,-33.88349,31.6153,-27.301716,0,0.0,0.0,0.0,0.0
0.91305542,0.053454243,-0.61922026,-0.78339577,0.038357947,0.7852117,-0.6180383,0.9978333,0.0029873168,0.06572491,0.071999885,-0.61078864,-0.7885133,0.05172277,0.79178786,-0.6086022,0.99606264,0.0030352033,0.088600315,0.038475037,-0.005082948,0.03134668,9.78531,0.029295295,0.6445351,-0.0021362305,0.010635376,-0.0021362305,-33.88349,31.6153,-27.301716,0,0.0,0.0,0.0,0.0
0.917449951,0.05340891,-0.6200005,-0.78278154,0.03840132,0.7845958,-0.6188173,0.9978341,0.0029905154,0.06571324,0.071626395,-0.610958,-0.78841615,0.051459517,0.7916572,-0.6087945,0.99610317,0.0030342457,0.08814316,0.040246964,-0.007521976,0.027714014,9.785315,0.029326655,0.6444205,-0.012771606,0.017028809,-0.009597778,-33.84047,31.575214,-27.318008,0,0.0,0.0,0.0,0.0
0.921875,0.053400435,-0.62000614,-0.78277755,0.03839038,0.78459114,-0.6188237,0.9978349,0.0029943306,0.065699786,0.07125931,-0.61113966,-0.7883086,0.05120259,0.791517,-0.60899854,0.99614275,0.003033371,0.08769489,0.042640686,-0.004100986,0.02141273,9.785326,0.029364076,0.6442887,0.004257202,0.028747559,0.007446289,-33.84047,31.575214,-27.318008,0,0.0,0.0,0.0,0.0
0.926269531,0.053390555,-0.6200128,-0.78277296,0.03837867,0.78458595,-0.6188311,0.99783593,0.0029979555,0.06568475,0.07089957,-0.6113177,-0.78820294,0.050950468,0.79137945,-0.6091983,0.99618137,0.00303259,0.08725539,0.04180336,-0.0042026397,0.013773203,9.7853365,0.029399626,0.6441414,0.003189087,0.012771606,-0.008529663,-33.84047,31.575214,-27.318008,0,0.0,0.0,0.0,0.0
0.93069458,0.053450324,-0.61874443,-0.78377193,0.038284395,0.7855866,-0.61756617,0.9978363,0.0030028778,0.06567811,0.07054689,-0.61149234,-0.78809917,0.050702963,0.79124457,-0.60939425,0.99621904,0.0030318974,0.08682431,0.04364872,2.3493916E-4,0.019130051,9.785339,0.029447895,0.64407617,-0.010635376,0.02128601,-0.0021362305,-33.862312,31.599924,-27.255667,0,0.0,0.0,0.0,0.0
0.935089111,0.053447295,-0.6187464,-0.7837705,0.0382743,0.785585,-0.6175688,0.9978369,0.0030091105,0.06566948,0.07162586,-0.61097085,-0.7884062,0.051469248,0.7916473,-0.6088066,0.9961027,0.0030276158,0.08814862,0.04181099,0.0029987656,0.010834038,9.785342,0.029509008,0.64399135,-0.012771606,0.026626587,-0.0010681152,-33.862312,31.599924,-27.255667,0,0.0,0.0,0.0,0.0
0.93951416,0.053448748,-0.61874545,-0.7837712,0.038267832,0.7855858,-0.6175684,0.9978371,0.0030150306,0.06566662,0.071259975,-0.61112696,-0.7883184,0.05120904,0.7915268,-0.60898525,0.9961424,0.0030272459,0.087699406,0.038866997,0.008976759,0.011998296,9.785345,0.029567065,0.6439634,0.0095825195,0.020233154,-0.0010681152,-33.862312,31.599924,-27.255667,0,0.0,0.0,0.0,0.0
0.943939209,0.053468566,-0.6183836,-0.7840554,0.03823978,0.7858707,-0.6172075,0.9978371,0.003019098,0.06566623,0.07090152,-0.6112799,-0.78823215,0.050953735,0.7914087,-0.60916007,0.996181,0.0030270014,0.08725907,0.040140152,0.0038976409,0.016672611,9.785348,0.02960696,0.6439597,-0.008514404,0.024490356,0.007446289,-33.829277,31.623398,-27.248322,0,0.0,0.0,0.0,0.0
0.94833374,0.053470727,-0.61838216,-0.78405637,0.038236417,0.78587174,-0.61720634,0.9978371,0.003022962,0.06566585,0.070550814,-0.6114224,-0.78815305,0.050702676,0.79129857,-0.60932404,0.99621874,0.0030268433,0.08682752,0.041588783,0.002902437,0.016564548,9.785351,0.029644862,0.6439562,0.0095825195,0.013839722,-0.0053253174,-33.829277,31.623398,-27.248322,0,0.0,0.0,0.0,0.0
0.952758789,0.053481802,-0.61837465,-0.7840615,0.038237702,0.7858775,-0.6171987,0.9978364,0.003028189,0.06567538,0.07020728,-0.6115621,-0.7880754,0.05045646,0.7911906,-0.6094846,0.9962555,0.0030267658,0.08640461,0.042733192,0.007687429,0.027617574,9.785346,0.029696127,0.64404976,0.004257202,0.014907837,0.0021209717,-33.829277,31.623398,-27.248322,0,0.0,0.0,0.0,0.0
0.95715332,0.053446937,-0.61935407,-0.7832905,0.038310166,0.785106,-0.6181755,0.9978356,0.0030316005,0.065689065,0.069870934,-0.6116988,-0.78799915,0.050215084,0.79108495,-0.6096417,0.99629134,0.0030267944,0.085990354,0.042630196,0.0048273187,0.026820302,9.785334,0.02972957,0.6441837,0.003189087,0.025558472,0.0,-33.878613,31.582907,-27.284525,0,0.0,0.0,0.0,0.0
0.961578369,0.05345756,-0.6193469,-0.78329545,0.038312677,0.7851116,-0.61816823,0.99783486,0.0030356173,0.06569898,0.06954039,-0.6118525,-0.787909,0.049980264,0.79096603,-0.60981524,0.99632627,0.0030268906,0.08558463,0.049708366,0.00665123,0.018670857,9.78533,0.02976897,0.64428115,-0.019165039,0.020233154,0.0021209717,-33.878613,31.582907,-27.284525,0,0.0,0.0,0.0,0.0
0.9659729,0.05346771,-0.61934006,-0.7833001,0.038316105,0.785117,-0.6181612,0.9978342,0.0030386553,0.06570911,0.06921675,-0.61200297,-0.7878207,0.04975005,0.7908497,-0.609985,0.99636036,0.0030270652,0.08518723,0.04901123,0.00456162,0.019061744,9.785326,0.02979877,0.6443806,0.008529663,-0.0010681152,-0.004272461,-33.878613,31.582907,-27.284525,0,0.0,0.0,0.0,0.0
0.970397949,0.05349686,-0.6189597,-0.7835988,0.038294878,0.7854169,-0.6177814,0.99783343,0.0030415433,0.06572032,0.06889981,-0.61215025,-0.78773403,0.049524333,0.79073566,-0.6101512,0.99639356,0.003027297,0.084797874,0.047397614,0.0049698316,0.023248613,9.785315,0.02982708,0.64449036,-0.004257202,0.008529663,-0.004272461,-33.82683,31.607231,-27.275736,0,0.0,0.0,0.0,0.0
0.97479248,0.053500876,-0.618957,-0.7836006,0.038297143,0.785419,-0.61777854,0.99783313,0.0030420297,0.06572489,0.06859002,-0.61228687,-0.7876549,0.049302474,0.79062986,-0.61030614,0.9964259,0.003027582,0.08441658,0.04154873,0.008252988,0.021539927,9.785312,0.02983185,0.6445351,0.012786865,0.0032043457,-0.009597778,-33.82683,31.607231,-27.275736,0,0.0,0.0,0.0,0.0
0.979217529,0.05350024,-0.6189574,-0.78360033,0.038299955,0.78541875,-0.6177788,0.99783313,0.0030394585,0.06572613,0.06828659,-0.61242074,-0.78757715,0.049084995,0.7905262,-0.610458,0.9964575,0.0030278713,0.084043,0.034794807,0.0049381163,0.023538351,9.785309,0.029806627,0.64454716,-0.0021362305,-0.027694702,0.014892578,-33.82683,31.607231,-27.275736,0,0.0,0.0,0.0,0.0
0.98361206,0.053567506,-0.6175913,-0.78467286,0.038211603,0.78649336,-0.6164156,0.9978329,0.003036237,0.06572964,0.06798925,-0.61255187,-0.7875009,0.048871804,0.7904246,-0.6106067,0.99648833,0.0030281032,0.08367689,0.040589333,0.0034712702,0.029484212,9.785306,0.029775035,0.6445815,-0.013839722,-0.020233154,0.008514404,-33.804573,31.657194,-27.224129,0,0.0,0.0,0.0,0.0
0.988037109,0.05356826,-0.61759084,-0.7846732,0.038216025,0.7864937,-0.6164148,0.9978326,0.0030331765,0.06573296,0.067699715,-0.61265296,-0.7874473,0.048660576,0.79034626,-0.610725,0.9965184,0.003028266,0.08331826,0.042502403,0.0030360203,0.028428853,9.785303,0.029745022,0.6446141,-0.0021362305,-0.018112183,0.0053253174,-33.804573,31.657194,-27.224129,0,0.0,0.0,0.0,0.0
0.99243164,0.05356884,-0.61759037,-0.78467345,0.03821914,0.7864941,-0.6164141,0.99783254,0.003031048,0.065735355,0.067416035,-0.61275196,-0.7873945,0.04845359,0.7902695,-0.6108407,0.9965477,0.0030283642,0.082966864,0.045757294,-2.5756657E-4,0.034137905,9.7853,0.02972414,0.6446374,0.0063934326,-0.012786865,0.0053253174,-33.804573,31.657194,-27.224129,0,0.0,0.0,0.0,0.0
0.996856689,0.053566188,-0.61766493,-0.7846149,0.038226657,0.7864354,-0.61648834,0.9978323,0.0030297255,0.06573762,0.06713802,-0.612849,-0.7873428,0.04825069,0.7901943,-0.6109541,0.9965763,0.0030284177,0.08262246,0.044059753,0.0021127928,0.03213954,9.785297,0.02971117,0.6446596,-0.015960693,-0.014907837,-0.010650635,-33.801357,31.632942,-27.20974,0,0.0,0.0,0.0,0.0
1.001281738,0.053565577,-0.6176654,-0.7846147,0.038229685,0.7864351,-0.6164886,0.99783224,0.0030269914,0.065739,0.06660898,-0.6140337,-0.78646415,0.04758502,0.7892727,-0.61219627,0.99664384,0.0033538605,0.08179145,0.040532112,-0.0020844918,0.029530108,9.785295,0.029684352,0.644673,0.02130127,-0.007461548,-0.0032043457,-33.801357,31.632942,-27.20974,0,0.0,0.0,0.0,0.0
1.005676269,0.053566106,-0.617665,-0.7846149,0.03823237,0.7864355,-0.61648804,0.9978321,0.0030251718,0.065741085,0.06634747,-0.6141065,-0.78642946,0.04739923,0.7892161,-0.6122837,0.9966701,0.003347323,0.08147067,0.040772438,-3.3460744E-4,0.029677093,9.785293,0.029666504,0.6446934,0.017044067,-0.004257202,0.0021209717,-33.801357,31.632942,-27.20974,0,0.0,0.0,0.0,0.0
1.010101318,0.053579558,-0.61749816,-0.7847453,0.03822355,0.78656644,-0.61632144,0.99783176,0.0030264766,0.06574686,0.0660912,-0.61417776,-0.7863953,0.047217134,0.7891606,-0.61236924,0.99669576,0.00334088,0.08115628,0.04435253,0.015902976,0.030018926,9.785291,0.029679304,0.6447501,0.0021362305,-0.019165039,0.0021209717,-33.81623,31.627832,-27.19607,0,0.0,0.0,0.0,0.0
1.014495849,0.05358206,-0.6174965,-0.78474647,0.038226727,0.78656775,-0.61631954,0.99783146,0.003025382,0.06575079,0.0658404,-0.6142443,-0.78636444,0.04703841,0.78910893,-0.6124496,0.99672085,0.0033345919,0.08084832,0.045358658,0.009803871,0.024852097,9.785289,0.029668575,0.64478874,0.0063934326,0.017028809,0.017028809,-33.81623,31.627832,-27.19607,0,0.0,0.0,0.0,0.0
1.018920898,0.05358201,-0.6174965,-0.78474647,0.038232844,0.78656775,-0.6163191,0.9978312,0.0030205303,0.06575453,0.065594725,-0.6143094,-0.78633416,0.04686331,0.78905827,-0.6125283,0.9967453,0.0033284076,0.08054663,0.04487896,-2.619736E-4,0.022577226,9.785287,0.029620998,0.64482546,-0.0021362305,0.0010681152,0.010650635,-33.81623,31.627832,-27.19607,0,0.0,0.0,0.0,0.0
1.023315429,0.05358659,-0.6173616,-0.7848523,0.03823081,0.78667384,-0.6161841,0.99783117,0.0030136658,0.0657574,0.06535387,-0.61437315,-0.78630435,0.04669169,0.7890086,-0.61260533,0.99676913,0.0033222502,0.08025088,0.048731804,-0.0052537564,0.020902097,9.785285,0.029553674,0.6448535,-0.0063934326,0.0032043457,-0.0063934326,-33.81243,31.622978,-27.183083,0,0.0,0.0,0.0,0.0
1.027740478,0.053581737,-0.6173649,-0.78485006,0.03823276,0.78667116,-0.6161872,0.9978313,0.0030094008,0.06575477,0.06511803,-0.614433,-0.7862771,0.046523437,0.788962,-0.6126781,0.99679244,0.0033160786,0.07996119,0.045928,-0.0049910676,0.01984173,9.785283,0.029511841,0.6448275,-0.0053253174,-0.007461548,-0.0138549805,-33.81243,31.622978,-27.183083,0,0.0,0.0,0.0,0.0
1.032135009,0.05357309,-0.61737067,-0.784846,0.038229756,0.7866666,-0.61619323,0.9978319,0.0030069042,0.0657461,0.06488681,-0.6144917,-0.78625035,0.04635853,0.7889163,-0.6127495,0.9968152,0.003309945,0.07967719,0.051876068,-0.0030805953,0.022965014,9.785289,0.029487358,0.6447424,0.008529663,-0.0234375,-0.007461548,-33.81243,31.622978,-27.183083,0,0.0,0.0,0.0,0.0
1.036560058,0.05356596,-0.6172501,-0.7849414,0.03821238,0.7867612,-0.6160735,0.9978329,0.0030060878,0.06573022,0.06466011,-0.61454934,-0.786224,0.046196874,0.7888714,-0.6128195,0.99683744,0.0033038843,0.07939877,0.055854797,-0.0024991408,0.037236154,9.785301,0.02947936,0.6445869,0.008529663,-0.03515625,-0.0053253174,-33.808823,31.618366,-27.170746,0,0.0,0.0,0.0,0.0
1.040954589,0.053539332,-0.617268,-0.7849291,0.038197324,0.7867471,-0.6160923,0.99783486,0.003002979,0.065699905,0.06466011,-0.61454934,-0.786224,0.046196874,0.7888714,-0.6128195,0.99683744,0.0033038843,0.07939877,0.055835724,-0.002468653,0.037533462,9.78532,0.029448872,0.6442896,0.008529663,-0.03515625,-0.0053253174,-33.808823,31.618366,-27.170746,0,0.0,0.0,0.0,0.0
1.045379638,0.05349996,-0.61729455,-0.7849109,0.038173966,0.7867263,-0.61612034,0.99783784,0.0029992487,0.065654404,0.06421896,-0.61465716,-0.7861759,0.04588174,0.7887875,-0.61295116,0.99688053,0.0032919683,0.078856654,0.056957245,-0.006175177,0.04782182,9.785346,0.02941228,0.6438432,-0.015960693,-0.078826904,0.0063934326,-33.808823,31.618366,-27.170746,0,0.0,0.0,0.0,0.0
1.04977417,0.053377114,-0.6187481,-0.783774,0.038237106,0.78558373,-0.6175728,0.9978421,0.0029950042,0.06559133,0.06400416,-0.61471,-0.78615206,0.04572834,0.78874636,-0.6130156,0.99690133,0.0032861142,0.07859271,0.056571007,-0.005859552,0.05084759,9.785386,0.029370653,0.6432245,0.0021362305,-0.09587097,-0.0053253174,-33.77846,31.58713,-27.236769,0,0.0,0.0,0.0,0.0
1.054199218,0.053309143,-0.6187937,-0.78374267,0.0381935,0.7855479,-0.6176212,0.99784744,0.0029909716,0.06551077,0.063790955,-0.6147909,-0.7861062,0.04557964,0.78868335,-0.61310774,0.9969219,0.003280292,0.07833281,0.060977936,-0.003164839,0.047698677,9.785439,0.029331105,0.64243454,0.004257202,-0.09906006,0.004257202,-33.77846,31.58713,-27.236769,0,0.0,0.0,0.0,0.0
1.058624267,0.05322848,-0.61884785,-0.7837054,0.038140547,0.7855053,-0.61767864,0.9978537,0.0029871417,0.06541444,0.06358065,-0.6148711,-0.7860605,0.045433,0.7886208,-0.613199,0.996942,0.0032745057,0.07807647,0.058214188,-0.0041967835,0.04298675,9.785496,0.029293535,0.64148957,-0.009567261,-0.090545654,0.0010681152,-33.77846,31.58713,-27.236769,0,0.0,0.0,0.0,0.0
1.063018798,0.05315571,-0.61854637,-0.7839482,0.03805108,0.7857426,-0.6173821,0.997861,0.002987315,0.06530307,0.06337296,-0.6149508,-0.7860149,0.04528822,0.7885587,-0.6132896,0.9969618,0.0032687585,0.077823326,0.055811882,-0.0044958238,0.036789298,9.785565,0.029295227,0.64039725,0.007461548,-0.08415222,-0.0010681152,-33.77655,31.620169,-27.238989,0,0.0,0.0,0.0,0.0
1.067443847,0.053057376,-0.61861235,-0.7839029,0.037979495,0.7856907,-0.6174526,0.997869,0.0029881808,0.06518127,0.05960588,-0.61528003,-0.7860519,0.040852096,0.78829587,-0.61393875,0.9973857,0.004482492,0.072122544,0.05208683,-0.007898809,0.018609226,9.785638,0.029303702,0.6392024,0.0063934326,-0.08308411,-0.018112183,-33.77655,31.620169,-27.238989,0,0.0,0.0,0.0,0.0
1.071838379,0.052957844,-0.61867905,-0.7838569,0.037903134,0.78563815,-0.61752415,0.9978772,0.0029921148,0.06505558,0.05947474,-0.61534685,-0.78600955,0.040795214,0.7882439,-0.6140092,0.9973959,0.0044526053,0.07198381,0.05284977,-0.006853083,0.01053381,9.785715,0.029342271,0.6379697,0.0095825195,-0.041549683,-0.008529663,-33.77655,31.620169,-27.238989,0,0.0,0.0,0.0,0.0
1.076263427,0.05283867,-0.6192299,-0.78342986,0.037858628,0.785204,-0.61807877,0.99788517,0.0029988843,0.06493233,0.059344202,-0.6154136,-0.7859672,0.04073793,0.788192,-0.6140797,0.99740595,0.0044233957,0.0718453,0.05332756,-0.006846886,0.011758089,9.785796,0.029408665,0.6367612,0.003189087,-0.034088135,-0.014923096,-33.78366,31.570913,-27.232477,0,0.0,0.0,0.0,0.0
1.080657959,0.052750032,-0.6192894,-0.7833889,0.037779953,0.78515714,-0.6181433,0.9978929,0.0030106842,0.064813785,0.0592139,-0.6154901,-0.7859171,0.04068101,0.78813237,-0.61415994,0.997416,0.0043949056,0.071707144,0.052105904,-0.009048181,0.005513668,9.785872,0.029524382,0.63559866,-0.011703491,-0.017044067,-0.015975952,-33.78366,31.570913,-27.232477,0,0.0,0.0,0.0,0.0
1.085083007,0.05266488,-0.6193464,-0.7833494,0.037702627,0.78511196,-0.61820513,0.9979003,0.0030233725,0.06469883,0.05908439,-0.61556625,-0.7858672,0.040623613,0.78807306,-0.6142399,0.99742603,0.004367221,0.07156934,0.053099632,-0.004690286,-3.9559603E-4,9.785945,0.02964881,0.63447136,-0.009567261,0.0032043457,-0.028762817,-33.78366,31.570913,-27.232477,0,0.0,0.0,0.0,0.0
1.089477539,0.052505784,-0.6209459,-0.782093,0.037730485,0.78384763,-0.61980593,0.9979076,0.003034649,0.06458512,0.058955792,-0.615642,-0.7858175,0.040565833,0.788014,-0.6143194,0.997436,0.0043403446,0.071432024,0.049973488,-0.0053308625,-0.012189925,9.786015,0.029759388,0.63335615,0.0063934326,0.0095825195,-0.019180298,-33.7187,31.506191,-27.278172,0,0.0,0.0,0.0,0.0
1.093902588,0.052431427,-0.6209956,-0.7820584,0.03765918,0.7838081,-0.6198602,0.9979142,0.0030484726,0.06448237,0.058826465,-0.6157484,-0.78574383,0.04051001,0.787931,-0.61442953,0.99744594,0.0043142303,0.07129517,0.049877167,-0.0047728755,-0.01123637,9.78608,0.029894954,0.6323486,0.0,0.024490356,0.0010681152,-33.7187,31.506191,-27.278172,0,0.0,0.0,0.0,0.0
1.098297119,0.052367814,-0.6210381,-0.7820289,0.037593618,0.7837744,-0.6199068,0.99792004,0.0030638624,0.06439162,0.05869817,-0.6158536,-0.785671,0.040453795,0.78784895,-0.6145385,0.9974558,0.0042889155,0.07115891,0.050750732,-0.010249412,-0.008721411,9.786135,0.030045865,0.6314585,0.008529663,0.025558472,-0.01171875,-33.7187,31.506191,-27.278172,0,0.0,0.0,0.0,0.0
1.102722168,0.05230915,-0.62122464,-0.7818847,0.037546057,0.7836264,-0.62009656,0.9979248,0.0030800386,0.06431537,0.058571216,-0.61595756,-0.785599,0.040397406,0.78776777,-0.6146462,0.9974655,0.0042644143,0.0710236,0.052066803,-0.009962007,0.0019494891,9.78618,0.03020449,0.6307106,0.02130127,0.026626587,-0.019180298,-33.74663,31.480564,-27.269701,0,0.0,0.0,0.0,0.0
1.107116699,0.052266635,-0.6212532,-0.78186494,0.03749189,0.78360385,-0.6201286,0.9979291,0.0030984394,0.064248286,0.058445618,-0.6160632,-0.7855255,0.040341202,0.78768533,-0.6147556,0.99747515,0.004240727,0.07088948,0.05834484,-0.008042552,0.0022182465,9.7862215,0.03038494,0.63005275,-0.0021362305,0.027679443,-0.009597778,-33.74663,31.480564,-27.269701,0,0.0,0.0,0.0,0.0
1.111541748,0.052233614,-0.6212752,-0.7818495,0.037445746,0.78358614,-0.6201535,0.99793255,0.0031159206,0.06419366,0.058321662,-0.6161672,-0.7854531,0.04028499,0.7876041,-0.61486334,0.9974847,0.0042178812,0.070756674,0.061922073,-0.006458631,0.010524929,9.786255,0.030556366,0.629517,0.02130127,0.027679443,-0.008529663,-33.74663,31.480564,-27.269701,0,0.0,0.0,0.0,0.0
1.115936279,0.0522341,-0.62078637,-0.7822377,0.03737203,0.7839735,-0.61966836,0.99793535,0.0031340069,0.0641502,0.05819961,-0.6162696,-0.7853818,0.040229023,0.78752404,-0.61496943,0.99749404,0.0041958424,0.070625514,0.055273056,0.0067633186,0.01162982,9.786279,0.030733718,0.62909055,0.0063934326,0.028747559,0.0010681152,-33.773167,31.510006,-27.261654,0,0.0,0.0,0.0,0.0
1.120361328,0.05221215,-0.6208011,-0.7822275,0.037333317,0.7839618,-0.61968553,0.9979379,0.0031519663,0.06410889,0.05807998,-0.6163601,-0.7853197,0.04017254,0.78745335,-0.6150637,0.99750334,0.004174606,0.07049603,0.056856155,0.008781871,0.011482477,9.786302,0.03090983,0.62868536,0.028762817,0.034072876,0.015960693,-33.773167,31.510006,-27.261654,0,0.0,0.0,0.0,0.0
1.124786377,0.052194998,-0.62081254,-0.7822195,0.03729921,0.78395253,-0.6196991,0.99794006,0.0031690267,0.064074226,0.057962235,-0.6164492,-0.7852584,0.040116336,0.78738374,-0.61515653,0.9975124,0.004154153,0.0703682,0.0583601,0.0020813327,0.007945836,9.786324,0.031077137,0.62834543,-0.0010681152,0.015960693,0.010650635,-33.773167,31.510006,-27.261654,0,0.0,0.0,0.0,0.0
1.129180908,0.052150384,-0.6213996,-0.7817562,0.037306316,0.7834873,-0.62028694,0.9979422,0.0031837563,0.0640413,0.05784663,-0.6165367,-0.7851983,0.04006065,0.7873153,-0.61524767,0.9975214,0.004134451,0.070242405,0.05547905,-0.002353944,0.008895099,9.786345,0.031221583,0.62802255,0.003189087,0.026626587,-0.01171875,-33.77152,31.528973,-27.31451,0,0.0,0.0,0.0,0.0
1.133605957,0.052140407,-0.62140626,-0.78175163,0.037278395,0.78348196,-0.62029535,0.99794376,0.0032000067,0.064016104,0.059177283,-0.617096,-0.78465956,0.04042643,0.78687376,-0.61578846,0.99742854,0.004719701,0.071512036,0.053707123,-0.0010842085,0.010934532,9.786357,0.031380933,0.62777525,0.0095825195,0.02128601,-0.008529663,-33.77152,31.528973,-27.31451,0,0.0,0.0,0.0,0.0
1.138000488,0.05213331,-0.621411,-0.7817483,0.037252605,0.7834781,-0.6203017,0.9979451,0.003216222,0.06399449,0.059036285,-0.61718243,-0.78460217,0.040364277,0.7868061,-0.61587894,0.99743944,0.0046893074,0.071362235,0.053461075,-1.2515113E-4,0.015961826,9.786368,0.031539943,0.62756324,-0.0010681152,0.024490356,-0.009597778,-33.77152,31.528973,-27.31451,0,0.0,0.0,0.0,0.0
1.142425537,0.05215359,-0.6209286,-0.7821303,0.03719691,0.78386056,-0.61982185,0.9979461,0.0032331038,0.063977756,0.058897924,-0.61726725,-0.7845459,0.04030277,0.7867398,-0.6159677,0.9974501,0.004659846,0.071214914,0.055381775,0.0017297082,0.012559831,9.786379,0.0317055,0.6273992,0.010650635,0.022354126,-0.0021362305,-33.752026,31.546991,-27.2956,0,0.0,0.0,0.0,0.0
1.146820068,0.05215303,-0.62092894,-0.78213,0.037181832,0.78386015,-0.6198232,0.9979467,0.0032446305,0.06396796,0.05876278,-0.61734056,-0.78449833,0.04024127,0.78668237,-0.616045,0.99746054,0.004631311,0.07107022,0.05074978,0.0018598959,0.014056623,9.786382,0.031818528,0.6273029,-0.020217896,0.023422241,-0.0053253174,-33.752026,31.546991,-27.2956,0,0.0,0.0,0.0,0.0
1.151245117,0.052155707,-0.62092716,-0.7821313,0.037170812,0.78386164,-0.61982214,0.997947,0.0032548022,0.06396321,0.05863038,-0.61741245,-0.78445166,0.0401807,0.78662616,-0.61612076,0.99747074,0.004603578,0.07092825,0.051137924,3.1502545E-4,0.023813725,9.786385,0.031918276,0.6272564,-0.003189087,0.025558472,0.020217896,-33.752026,31.546991,-27.2956,0,0.0,0.0,0.0,0.0
1.155639648,0.05216576,-0.6208052,-0.7822274,0.03715379,0.78395814,-0.619701,0.9979471,0.0032644651,0.06396104,0.05850067,-0.61748284,-0.7844059,0.040121093,0.786571,-0.616195,0.99748075,0.0045766025,0.07078902,0.051267624,-1.943484E-4,0.030186832,9.7863865,0.032013036,0.6272351,-0.011703491,-0.0021209717,0.0095825195,-33.82315,31.52825,-27.277637,0,0.0,0.0,0.0,0.0
1.160064697,0.052168842,-0.6208032,-0.78222877,0.037145317,0.78395957,-0.61969954,0.99794716,0.0032728664,0.06395819,0.05837378,-0.6175494,-0.784363,0.040062286,0.78651893,-0.61626536,0.9974906,0.0045503597,0.07065252,0.050911903,-0.0016288757,0.025475383,9.786388,0.03209543,0.6272073,-0.0053253174,0.0010681152,0.0,-33.82315,31.52825,-27.277637,0,0.0,0.0,0.0,0.0
1.164459228,0.052169185,-0.62080294,-0.7822289,0.037134416,0.78395975,-0.61969995,0.9979476,0.0032816266,0.06395169,0.05824944,-0.61761457,-0.7843209,0.040004432,0.7864679,-0.6163342,0.9975002,0.0045248102,0.070518635,0.049856186,0.0037046447,0.02750057,9.78639,0.03218133,0.62714344,-0.018096924,-0.004257202,-0.0010681152,-33.82315,31.52825,-27.277637,0,0.0,0.0,0.0,0.0
1.168884277,0.052178632,-0.6204605,-0.7825,0.037096675,0.7842309,-0.61935925,0.9979485,0.0032891703,0.06393711,0.05812766,-0.61767846,-0.7842796,0.039947543,0.78641784,-0.61640173,0.99750954,0.0044999463,0.07038736,0.04597187,0.002793856,0.02184546,9.7864,0.032255307,0.6270004,-0.0053253174,-0.022369385,0.004257202,-33.792072,31.483591,-27.217314,0,0.0,0.0,0.0,0.0
1.173278808,0.052171357,-0.62046534,-0.7824966,0.0370823,0.78422695,-0.619365,0.9979494,0.0032963364,0.063922465,0.058008563,-0.6177342,-0.78424454,0.039890993,0.7863742,-0.6164611,0.9975188,0.004475731,0.070258476,0.042520523,0.0016890466,0.018875659,9.786409,0.032325584,0.62685686,0.0021362305,-0.029830933,0.0021209717,-33.792072,31.483591,-27.217314,0,0.0,0.0,0.0,0.0
1.177703857,0.05216395,-0.6204703,-0.7824932,0.037069283,0.7842231,-0.61937076,0.9979503,0.0033023667,0.06390856,0.057891604,-0.6177889,-0.7842101,0.039835185,0.78633136,-0.61651933,0.9975278,0.004452143,0.07013172,0.036849022,1.6797706E-4,0.018208861,9.786418,0.03238472,0.6267205,-0.012771606,-0.017044067,-0.009597778,-33.792072,31.483591,-27.217314,0,0.0,0.0,0.0,0.0
1.182128906,0.0521147,-0.62131095,-0.7818292,0.037112273,0.7835572,-0.62021035,0.99795127,0.0033066175,0.0638931,0.05777693,-0.61784256,-0.78417623,0.03978028,0.7862893,-0.6165765,0.9975366,0.0044291476,0.07000734,0.03337574,-0.0022192672,0.016400456,9.786427,0.032426402,0.62656885,-0.004257202,-0.004257202,-0.012786865,-33.744617,31.477022,-27.263765,0,0.0,0.0,0.0,0.0
1.186523437,0.052105416,-0.6213171,-0.7818249,0.037105262,0.7835523,-0.62021697,0.99795204,0.003306843,0.06388145,0.057663485,-0.61791205,-0.7841298,0.039727423,0.78623486,-0.6166494,0.9975453,0.0044066967,0.0698851,0.032949448,-0.0106745865,0.02207458,9.786434,0.032428615,0.62645453,0.029830933,-0.0063934326,0.0053253174,-33.744617,31.477022,-27.263765,0,0.0,0.0,0.0,0.0
1.190948486,0.05209459,-0.6213243,-0.78181976,0.037096262,0.7835464,-0.6202247,0.9979529,0.0033077581,0.063867345,0.057552073,-0.61798036,-0.7840842,0.03967542,0.78618133,-0.616721,0.9975538,0.0043846997,0.069764994,0.032064438,-0.007940538,0.013368905,9.786442,0.032437585,0.6263162,0.019180298,-0.003189087,0.0021209717,-33.744617,31.477022,-27.263765,0,0.0,0.0,0.0,0.0
1.195343017,0.05208856,-0.6212834,-0.78185266,0.037083153,0.78357893,-0.62018454,0.9979538,0.0033109619,0.06385466,0.057442695,-0.61804736,-0.7840394,0.039624278,0.7861287,-0.6167913,0.9975621,0.0043631606,0.06964704,0.038167953,-0.0034511052,0.015147209,9.7864485,0.032468997,0.6261916,0.003189087,-0.017044067,-0.008529663,-33.726467,31.46178,-27.247395,0,0.0,0.0,0.0,0.0
1.199768066,0.052076455,-0.62129164,-0.78184706,0.03707052,0.78357244,-0.62019354,0.99795485,0.0033140036,0.063837275,0.05874489,-0.6174638,-0.78440255,0.039701775,0.78658295,-0.61620694,0.99748325,0.005056832,0.07072214,0.039888382,-0.0018198099,0.0020447373,9.786463,0.032498837,0.6260214,-0.011703491,0.018096924,-0.01171875,-33.726467,31.46178,-27.247395,0,0.0,0.0,0.0,0.0
1.204162597,0.05206663,-0.62129813,-0.78184247,0.037058733,0.7835672,-0.62020075,0.99795574,0.0033176707,0.063822225,0.05861128,-0.6175406,-0.7843521,0.039649777,0.7865229,-0.6162869,0.99749315,0.005021976,0.07058446,0.034579277,-9.95636E-4,0.004187107,9.786476,0.032534815,0.62587416,0.0095825195,-0.004257202,-0.004272461,-33.726467,31.46178,-27.247395,0,0.0,0.0,0.0,0.0
1.208587646,0.052047413,-0.6214506,-0.7817226,0.0370549,0.78344625,-0.62035376,0.9979569,0.0033211554,0.06380414,0.058480177,-0.617616,-0.7843026,0.039598584,0.786464,-0.6163655,0.9975029,0.00498789,0.07044927,0.037436485,-2.126731E-4,-0.0040354133,9.7864895,0.032568995,0.62569696,-0.0063934326,0.010635376,-0.018112183,-33.682293,31.51009,-27.292343,0,0.0,0.0,0.0,0.0
1.212982177,0.052038144,-0.6214568,-0.7817183,0.03704397,0.78344136,-0.6203606,0.99795777,0.0033244651,0.06379006,0.058351252,-0.6176928,-0.7842517,0.039548278,0.78640383,-0.6164454,0.99751246,0.004954555,0.07031634,0.034404755,-1.8754601E-4,0.003924668,9.786502,0.032601465,0.6255591,0.012786865,0.0053253174,0.0021209717,-33.682293,31.51009,-27.292343,0,0.0,0.0,0.0,0.0
1.217407226,0.05203053,-0.6214619,-0.7817147,0.03703446,0.78343725,-0.6203664,0.99795854,0.0033276093,0.06377816,0.058224823,-0.61776835,-0.7842017,0.039498825,0.78634477,-0.616524,0.9975218,0.0049219537,0.07018591,0.031525612,-0.0013607256,0.006444514,9.786513,0.03263231,0.6254426,0.003189087,0.011703491,-0.0021362305,-33.682293,31.51009,-27.292343,0,0.0,0.0,0.0,0.0
1.221801757,0.052034575,-0.62125707,-0.7818773,0.037013568,0.78359973,-0.6201624,0.9979591,0.00332982,0.06376922,0.058100775,-0.6178424,-0.7841525,0.039450146,0.7862868,-0.616601,0.9975309,0.004890067,0.07005784,0.038373947,-0.0031847786,0.012167096,9.786517,0.032653984,0.6253549,0.01171875,0.004257202,-0.007461548,-33.676186,31.538055,-27.300406,0,0.0,0.0,0.0,0.0
1.226226806,0.052029874,-0.6212602,-0.7818751,0.037009474,0.78359723,-0.6201658,0.9979595,0.0033303637,0.06376298,0.057979222,-0.61791086,-0.7841075,0.0394019,0.7862332,-0.6166724,0.9975399,0.0048588626,0.06993204,0.040330887,-0.007057674,0.019257605,9.786521,0.032659315,0.6252936,0.0095825195,0.0021362305,0.0095825195,-33.676186,31.538055,-27.300406,0,0.0,0.0,0.0,0.0
1.230621338,0.05202641,-0.62126255,-0.78187346,0.03700433,0.78359544,-0.6201685,0.9979599,0.0033324368,0.063757055,0.05785999,-0.617978,-0.78406334,0.0393545,0.78618056,-0.6167425,0.99754864,0.004828293,0.06980862,0.04314804,-0.001654895,0.018571675,9.786524,0.03267964,0.62523544,0.007461548,0.0010681152,0.003189087,-33.676186,31.538055,-27.300406,0,0.0,0.0,0.0,0.0
1.235046386,0.052081965,-0.6200417,-0.78283817,0.036919195,0.78456163,-0.6189506,0.9979601,0.0033344051,0.06375296,0.057743113,-0.61804384,-0.7840201,0.03930795,0.786129,-0.61681116,0.9975573,0.0047983755,0.06968757,0.04175377,-0.0022679511,0.02077806,9.786527,0.032698948,0.6251954,0.004257202,0.012771606,0.0010681152,-33.71525,31.591478,-27.264883,0,0.0,0.0,0.0,0.0
1.239471435,0.052079253,-0.6200435,-0.78283685,0.036913875,0.7845602,-0.61895275,0.9979605,0.003337054,0.06374753,0.05762979,-0.61808383,-0.7839969,0.03926046,0.7860977,-0.61685413,0.9975657,0.0047690966,0.0695689,0.045936584,-4.638806E-4,0.017621994,9.78653,0.03272492,0.6251421,-0.0010681152,0.011703491,0.013824463,-33.71525,31.591478,-27.264883,0,0.0,0.0,0.0,0.0
1.243865966,0.05208021,-0.6200429,-0.78283733,0.036910478,0.7845607,-0.6189524,0.99796057,0.0033402694,0.06374618,0.057518672,-0.61812305,-0.7839741,0.039213788,0.78606695,-0.61689615,0.9975739,0.004740456,0.06945248,0.04990959,-0.0013905466,0.014107168,9.786532,0.03275646,0.6251289,0.012786865,0.0032043457,0.0021209717,-33.71525,31.591478,-27.264883,0,0.0,0.0,0.0,0.0
1.248291015,0.052140787,-0.6188776,-0.783755,0.03683473,0.7854804,-0.61778945,0.99796015,0.003342625,0.06375175,0.05740987,-0.6181615,-0.7839518,0.039168023,0.786037,-0.61693734,0.9975821,0.0047124526,0.06933845,0.04650879,-0.001784889,0.014771283,9.786528,0.032779556,0.6251835,-0.011703491,0.022354126,-0.007461548,-33.752354,31.64223,-27.231136,0,0.0,0.0,0.0,0.0
1.252685547,0.052151673,-0.6188703,-0.78376,0.03684169,0.785486,-0.61778176,0.9979593,0.003343305,0.06376464,0.057304427,-0.6181758,-0.78394824,0.039121415,0.7860259,-0.61695445,0.99758995,0.004685056,0.069226675,0.051178932,-0.0045383573,0.012693763,9.786523,0.03278624,0.6253101,0.015975952,0.027679443,0.003189087,-33.752354,31.64223,-27.231136,0,0.0,0.0,0.0,0.0
1.257110595,0.052171536,-0.61885697,-0.78376913,0.036852285,0.78549653,-0.6177679,0.997958,0.0033462083,0.06378686,0.057201397,-0.6181897,-0.7839448,0.03907595,0.7860151,-0.6169711,0.99759763,0.0046582213,0.06911751,0.047483444,-0.0016701408,0.021396637,9.78651,0.03281471,0.6255281,-0.007461548,0.039398193,0.0,-33.752354,31.64223,-27.231136,0,0.0,0.0,0.0,0.0
1.261505127,0.052229155,-0.6181403,-0.7843307,0.036818113,0.7860607,-0.61705196,0.9979562,0.0033505228,0.063814044,0.057100724,-0.6182031,-0.7839416,0.039031513,0.7860048,-0.61698705,0.99760514,0.004631981,0.06901085,0.04493618,0.0022364557,0.02194345,9.786492,0.03285702,0.62579465,-0.0021362305,0.030883789,-0.007461548,-33.742744,31.62773,-27.173138,0,0.0,0.0,0.0,0.0
1.265930175,0.052259192,-0.61812013,-0.7843446,0.036836434,0.7860765,-0.6170306,0.9979539,0.003353066,0.06384906,0.057003304,-0.6182018,-0.78394973,0.038987227,0.7860059,-0.61698836,0.9976124,0.0046063517,0.06890691,0.044919014,0.0016538985,0.029794812,9.786468,0.032881953,0.6261379,-0.017028809,0.025558472,0.0010681152,-33.742744,31.62773,-27.173138,0,0.0,0.0,0.0,0.0
1.270324707,0.05229146,-0.61809844,-0.7843595,0.03686135,0.78609353,-0.6170074,0.9979513,0.0033516693,0.06388993,0.058052752,-0.6185459,-0.7836012,0.04020148,0.7857368,-0.61725324,0.99750376,0.004331321,0.07048064,0.03987503,0.0020953417,0.034545183,9.786444,0.03286826,0.62653875,0.0063934326,0.025558472,0.004257202,-33.742744,31.62773,-27.173138,0,0.0,0.0,0.0,0.0
1.274749755,0.05228733,-0.6188651,-0.78375506,0.03693716,0.7854901,-0.61777085,0.9979487,0.0033518972,0.063930295,0.05793762,-0.61853695,-0.78361684,0.040134646,0.7857439,-0.61724854,0.9975131,0.004311728,0.07034889,0.033646584,0.0063301735,0.03592992,9.786421,0.032870505,0.6269348,-0.0010681152,0.025558472,0.018096924,-33.74262,31.569094,-27.17854,0,0.0,0.0,0.0,0.0
1.279144287,0.052329168,-0.618837,-0.7837745,0.036967948,0.7855123,-0.6177409,0.9979454,0.0033513356,0.06398234,0.057824556,-0.6185435,-0.78361994,0.040070705,0.78573877,-0.6172592,0.99752223,0.0042925314,0.07022047,0.0361166,0.0041368343,0.05147654,9.786392,0.03286501,0.6274454,-0.003189087,0.019165039,0.0,-33.74262,31.569094,-27.17854,0,0.0,0.0,0.0,0.0
1.283569336,0.05237137,-0.6188087,-0.783794,0.0370028,0.78553456,-0.6177105,0.9979419,0.0033477694,0.064037174,0.057714652,-0.6185494,-0.7836234,0.0400087,0.7857343,-0.6172689,0.9975311,0.0042737075,0.07009574,0.03440094,0.0044762604,0.053983092,9.786357,0.032830033,0.6279831,0.004257202,0.03300476,-0.0010681152,-33.74262,31.569094,-27.17854,0,0.0,0.0,0.0,0.0
1.287963867,0.05240285,-0.6189568,-0.783675,0.037049275,0.7854179,-0.61785597,0.99793845,0.0033428252,0.064090036,0.057607777,-0.6185546,-0.7836272,0.039948612,0.7857303,-0.6172779,0.9975397,0.0042551886,0.06997457,0.03588295,0.0012235753,0.054680586,9.786324,0.03278155,0.6285015,-0.015960693,0.014907837,0.014892578,-33.670784,31.567177,-27.183672,0,0.0,0.0,0.0,0.0
1.292388916,0.052441645,-0.6189309,-0.7836929,0.03708214,0.78543836,-0.617828,0.9979352,0.0033389062,0.06414095,0.057503622,-0.6185627,-0.7836284,0.03989065,0.785724,-0.61728966,0.997548,0.0042369417,0.069856845,0.03417778,0.0033924691,0.053899646,9.786292,0.03274312,0.62900084,-0.007461548,0.013839722,-0.012786865,-33.670784,31.567177,-27.183672,0,0.0,0.0,0.0,0.0
1.296813964,0.052481636,-0.61890405,-0.7837113,0.037115615,0.7854595,-0.6177992,0.99793196,0.0033351826,0.064193204,0.057402395,-0.6185701,-0.78363,0.039834548,0.7857183,-0.6173005,0.9975561,0.0042189807,0.069742575,0.035671234,0.0028192513,0.061260164,9.786262,0.032706607,0.6295134,-0.0021362305,0.007461548,0.004257202,-33.670784,31.567177,-27.183672,0,0.0,0.0,0.0,0.0
1.301208496,0.05254738,-0.61826515,-0.78421104,0.037100583,0.7859625,-0.61716,0.99792904,0.003335458,0.06423827,0.05730399,-0.61857677,-0.7836319,0.03978023,0.78571314,-0.6173106,0.9975639,0.0042013046,0.06963163,0.03397751,0.004152287,0.062072873,9.786233,0.032709308,0.6299553,0.012786865,-0.003189087,0.0010681152,-33.638397,31.583284,-27.153986,0,0.0,0.0,0.0,0.0
1.305633545,0.05257615,-0.61824584,-0.7842243,0.03712188,0.78597766,-0.61713946,0.9979268,0.0033349409,0.06427414,0.057208896,-0.6185705,-0.7836438,0.0397266,0.7857181,-0.6173077,0.99757147,0.004183988,0.06952377,0.03523445,0.0039896853,0.059560537,9.786213,0.032704245,0.6303072,-0.0010681152,-0.026626587,-0.014923096,-33.638397,31.583284,-27.153986,0,0.0,0.0,0.0,0.0
1.310028076,0.05260073,-0.61822945,-0.78423554,0.037142005,0.78599054,-0.6171217,0.9979246,0.0033329714,0.06430596,0.057116255,-0.61856407,-0.78365564,0.039674453,0.78572327,-0.61730444,0.99757886,0.0041670073,0.069418766,0.03547001,-0.001177296,0.06677306,9.786194,0.032684937,0.6306194,0.024505615,-0.031951904,0.004257202,-33.638397,31.583284,-27.153986,0,0.0,0.0,0.0,0.0
1.314453125,0.05257923,-0.6190481,-0.783591,0.037212763,0.785346,-0.6179376,0.9979232,0.0033311022,0.064329386,0.05702606,-0.61855745,-0.7836675,0.039623838,0.7857287,-0.6173009,0.9975861,0.0041503264,0.069316626,0.033061028,6.1725825E-4,0.07273388,9.786176,0.032666594,0.6308488,0.0,-0.026626587,-0.0010681152,-33.679344,31.562729,-27.194906,0,0.0,0.0,0.0,0.0
1.318847656,0.052590884,-0.6190403,-0.78359634,0.037221517,0.7853522,-0.6179293,0.99792224,0.0033308037,0.06434399,0.056937166,-0.6185673,-0.78366613,0.039575722,0.785721,-0.61731374,0.99759305,0.004133942,0.069216974,0.033159256,-0.0017619319,0.07631683,9.786166,0.032663666,0.63099205,-0.008514404,-0.046875,0.0,-33.679344,31.562729,-27.194906,0,0.0,0.0,0.0,0.0
1.323272705,0.052591424,-0.61904,-0.78359663,0.037222262,0.78535247,-0.6179289,0.9979222,0.0033305201,0.06434487,0.05685027,-0.6185767,-0.78366506,0.03952872,0.7857136,-0.61732614,0.9975999,0.004117879,0.06911957,0.032525063,-0.0021071844,0.07338375,9.786165,0.032660883,0.63100064,-0.0053253174,-0.046875,-0.010650635,-33.679344,31.562729,-27.194906,0,0.0,0.0,0.0,0.0
1.327667236,0.0525528,-0.61962783,-0.7831344,0.03725438,0.78488857,-0.6185158,0.9979229,0.0033295508,0.06433195,0.056765072,-0.618586,-0.78366387,0.039482642,0.7857064,-0.6173383,0.9976066,0.004102132,0.069024086,0.032156944,-0.0031469967,0.07240844,9.786171,0.032651372,0.6308738,-0.0053253174,-0.05859375,-0.0032043457,-33.66446,31.543201,-27.21654,0,0.0,0.0,0.0,0.0
1.332092285,0.052532263,-0.61964154,-0.7831249,0.037244722,0.78487784,-0.61853015,0.99792445,0.003325518,0.06430979,0.05668078,-0.6186068,-0.7836535,0.039438188,0.78569007,-0.6173619,0.9976131,0.0040866802,0.06893026,0.03323555,-0.012244102,0.06990266,9.786184,0.03261182,0.6306564,-0.02128601,-0.067108154,0.0010681152,-33.66446,31.543201,-27.21654,0,0.0,0.0,0.0,0.0
1.336486816,0.05250719,-0.61965835,-0.7831133,0.037231546,0.78486454,-0.61854774,0.99792624,0.0033216858,0.06428187,0.054379147,-0.61894923,-0.78354627,0.03746686,0.7854195,-0.6178287,0.99781716,0.004239982,0.06590053,0.033773422,-0.012506988,0.065434754,9.786204,0.032574248,0.6303828,0.0063934326,-0.04473877,-0.0021362305,-33.66446,31.543201,-27.21654,0,0.0,0.0,0.0,0.0
1.340911865,0.052496646,-0.6193514,-0.78335685,0.03719385,0.78510684,-0.6182425,0.9979282,0.003319602,0.06425154,0.05434173,-0.6189634,-0.7835376,0.0374622,0.78540844,-0.61784315,0.99781936,0.004221616,0.065868184,0.036678314,-0.008462144,0.052129686,9.786223,0.03255381,0.63008535,0.004257202,-0.027694702,-0.004272461,-33.61446,31.578438,-27.219772,0,0.0,0.0,0.0,0.0
1.345306396,0.052469525,-0.6193695,-0.7833444,0.03717684,0.78509265,-0.61826164,0.9979303,0.0033176227,0.06421963,0.05430481,-0.61897117,-0.7835341,0.03745684,0.7854025,-0.61785114,0.9978216,0.0042035757,0.06583583,0.033452988,-0.009168949,0.0414353,9.786242,0.032534394,0.6297723,-0.0010681152,-0.012786865,-0.007461548,-33.61446,31.578438,-27.219772,0,0.0,0.0,0.0,0.0
1.349731445,0.05243907,-0.6193898,-0.7833303,0.037159298,0.7850766,-0.61828303,0.99793255,0.0033141852,0.064184785,0.05426809,-0.6189791,-0.7835304,0.037451237,0.78539634,-0.61785924,0.9978238,0.004185857,0.06580349,0.031817436,-0.011500571,0.026292086,9.786266,0.03250069,0.6294307,-0.0010681152,-0.003189087,-0.008529663,-33.61446,31.578438,-27.219772,0,0.0,0.0,0.0,0.0
1.354156494,0.052366264,-0.6202944,-0.78261906,0.0371992,0.7843621,-0.6191869,0.9979349,0.0033116976,0.06414857,0.054231524,-0.61898726,-0.7835265,0.037445422,0.78538996,-0.61786765,0.997826,0.004168423,0.06577113,0.03313732,-0.010132084,0.018400967,9.78629,0.032476302,0.62907565,0.007461548,0.010635376,0.0,-33.549034,31.558125,-27.257404,0,0.0,0.0,0.0,0.0
1.358551025,0.052335404,-0.62031496,-0.78260493,0.037181806,0.7843459,-0.61920846,0.99793714,0.0033078573,0.06411348,0.05419419,-0.61901337,-0.78350836,0.037440546,0.7853694,-0.61789405,0.9978282,0.004151288,0.06573866,0.036545753,-0.0126474835,0.014981508,9.786312,0.03243864,0.6287315,-0.013839722,0.004257202,-0.009597778,-33.549034,31.558125,-27.257404,0,0.0,0.0,0.0,0.0
1.362976074,0.052306388,-0.6203342,-0.78259146,0.03716848,0.78433067,-0.6192286,0.9979392,0.0033018743,0.06408239,0.054156944,-0.6190395,-0.78349036,0.03743538,0.785349,-0.61792034,0.99783045,0.00413442,0.06570608,0.038586617,-0.016690401,0.00524652,9.786333,0.03237997,0.6284267,0.0010681152,0.0032043457,-0.017044067,-33.549034,31.558125,-27.257404,0,0.0,0.0,0.0,0.0
1.367370605,0.05230289,-0.61996365,-0.7828854,0.037136335,0.7846236,-0.6188591,0.9979405,0.003294635,0.06406126,0.054119926,-0.6190654,-0.7834724,0.0374301,0.7853286,-0.6179465,0.99783266,0.004117769,0.065673605,0.042687416,-0.018121812,0.009563386,9.7863455,0.032308977,0.6282194,0.03302002,0.027679443,0.004257202,-33.513733,31.583689,-27.249971,0,0.0,0.0,0.0,0.0
1.371795654,0.05228825,-0.6199734,-0.7828787,0.037128676,0.784616,-0.61886936,0.99794155,0.0032923466,0.06404498,0.0540835,-0.6190834,-0.7834608,0.0374242,0.78531456,-0.6179648,0.99783486,0.0041013067,0.06564126,0.04753971,-0.012345115,-2.6005507E-4,9.786358,0.032286543,0.62806,-0.008514404,0.034072876,0.0021209717,-33.513733,31.583689,-27.249971,0,0.0,0.0,0.0,0.0
1.376190185,0.052283473,-0.6199765,-0.78287643,0.037127014,0.78461343,-0.61887264,0.9979419,0.0032909515,0.0640402,0.054047626,-0.61910117,-0.7834491,0.037418358,0.78530055,-0.61798286,0.997837,0.0040851277,0.06560939,0.045214653,-0.010934399,-0.0022741556,9.786362,0.03227286,0.628013,0.012786865,0.034072876,-0.01171875,-33.513733,31.583689,-27.249971,0,0.0,0.0,0.0,0.0
1.380615234,0.05226098,-0.6205009,-0.7824624,0.037166476,0.7841988,-0.6193956,0.9979416,0.0032888483,0.06404483,0.05401232,-0.6191187,-0.7834377,0.037412554,0.78528684,-0.6180007,0.99783915,0.004069244,0.065577984,0.0427742,-0.008629102,-0.0014051199,9.786358,0.032252233,0.62805843,0.004257202,0.051116943,-0.0032043457,-33.498123,31.554186,-27.260153,0,0.0,0.0,0.0,0.0
1.385009765,0.052272264,-0.62049335,-0.7824676,0.037175182,0.78420484,-0.6193875,0.9979407,0.0032884066,0.064059116,0.05397727,-0.6191464,-0.7834183,0.03740768,0.78526515,-0.6180286,0.9978412,0.004053636,0.0655473,0.04381466,-0.007651383,-1.9729137E-4,9.786347,0.032247897,0.62819844,-0.007461548,0.041534424,0.0053253174,-33.498123,31.554186,-27.260153,0,0.0,0.0,0.0,0.0
1.389434814,0.05228438,-0.62048537,-0.7824732,0.03718546,0.7842112,-0.6193788,0.9979397,0.0032872087,0.06407502,0.05394319,-0.6191733,-0.7833993,0.037403103,0.7852439,-0.61805576,0.9978432,0.004038331,0.06551757,0.04001522,-0.0093478225,0.007152021,9.786337,0.032236148,0.6283544,-0.0063934326,0.043670654,-0.007461548,-33.498123,31.554186,-27.260153,0,0.0,0.0,0.0,0.0
1.393829345,0.052317068,-0.6200178,-0.78284156,0.03716407,0.78458095,-0.61891174,0.9979388,0.003286071,0.06408936,0.053910058,-0.61919963,-0.78338087,0.037398845,0.7852233,-0.6180823,0.9978452,0.0040233093,0.065488786,0.035208702,-0.0090452265,0.00336802,9.786327,0.032224987,0.62849486,-0.0053253174,0.017028809,0.01171875,-33.51023,31.570944,-27.243961,0,0.0,0.0,0.0,0.0
1.398254394,0.052327715,-0.62001073,-0.78284645,0.037175003,0.7845864,-0.61890393,0.99793774,0.0032835114,0.06410451,0.05387813,-0.61921597,-0.78337014,0.037394132,0.7852105,-0.61809886,0.9978471,0.0040085646,0.06546071,0.034953117,-0.012812022,0.007179916,9.786318,0.03219989,0.6286436,0.003189087,0.020233154,0.010650635,-33.51023,31.570944,-27.243961,0,0.0,0.0,0.0,0.0
1.402648925,0.05233928,-0.62000304,-0.78285176,0.03718842,0.78459257,-0.6188954,0.99793667,0.0032795235,0.06412194,0.054679234,-0.61855847,-0.783834,0.03768803,0.7857275,-0.61742365,0.9977925,0.004219092,0.066275224,0.033512115,-0.015657293,0.014602184,9.786309,0.03216079,0.6288146,-0.012771606,0.012771606,-0.004272461,-33.51023,31.570944,-27.243961,0,0.0,0.0,0.0,0.0
1.407073974,0.05228689,-0.6213117,-0.7818169,0.03728631,0.7835565,-0.6202006,0.9979358,0.0032772913,0.06413617,0.054632425,-0.6185873,-0.78381443,0.037678126,0.78570485,-0.6174531,0.9977954,0.0042003007,0.066232175,0.02735424,-0.015982214,0.02454871,9.786301,0.0321389,0.6289542,0.0095825195,0.0053253174,-0.009597778,-33.46794,31.533075,-27.297703,0,0.0,0.0,0.0,0.0
1.411468505,0.05229085,-0.62130916,-0.7818188,0.037295844,0.7835587,-0.6201974,0.99793524,0.0032720596,0.0641452,0.05458543,-0.61864185,-0.7837746,0.0376704,0.785662,-0.61750805,0.9977982,0.004181841,0.06619018,0.025574684,-0.015302885,0.035000324,9.786293,0.032087587,0.62904257,-0.008514404,-0.026626587,-0.009597778,-33.46794,31.533075,-27.297703,0,0.0,0.0,0.0,0.0
1.415893554,0.05228818,-0.62131095,-0.78181756,0.037298255,0.78355724,-0.62019897,0.9979352,0.003268645,0.06414459,0.054539595,-0.6186953,-0.7837357,0.037663125,0.78562003,-0.61756194,0.99780107,0.004163645,0.06614939,0.025313377,-0.007011343,0.04525894,9.786292,0.0320541,0.62903655,0.004257202,-0.041549683,0.012771606,-33.46794,31.533075,-27.297703,0,0.0,0.0,0.0,0.0
1.420318603,0.052328315,-0.62013763,-0.7827459,0.03721173,0.7844863,-0.6190288,0.99793637,0.0032654025,0.06412724,0.054494455,-0.6187477,-0.7836974,0.0376559,0.78557885,-0.6176147,0.99780375,0.0041457447,0.066109195,0.025298119,-0.001528481,0.05588734,9.786299,0.032022286,0.628866,-0.010635376,-0.059646606,0.0063934326,-33.490482,31.595749,-27.270937,0,0.0,0.0,0.0,0.0
1.424713134,0.05229786,-0.62015784,-0.7827319,0.037196644,0.78447026,-0.61904985,0.99793845,0.0032599862,0.0640939,0.05445115,-0.61877555,-0.7836785,0.037647113,0.78555703,-0.617643,0.99780643,0.004128138,0.06606959,0.023591995,-0.0013246443,0.058248162,9.786321,0.031969175,0.6285392,0.0138549805,-0.0980072,0.008514404,-33.490482,31.595749,-27.270937,0,0.0,0.0,0.0,0.0
1.429138183,0.05225502,-0.62018627,-0.7827122,0.037174147,0.7844479,-0.6190797,0.9979417,0.003253364,0.064046234,0.054408085,-0.61880314,-0.7836596,0.037638187,0.7855353,-0.6176711,0.9978091,0.0041107745,0.0660301,0.02866745,3.2011047E-4,0.057296515,9.786349,0.031904224,0.62807155,-0.009567261,-0.08628845,0.0095825195,-33.490482,31.595749,-27.270937,0,0.0,0.0,0.0,0.0
