Time,Rot1,Rot2,Rot3,Rot4,Rot5,Rot6,Rot7,Rot8,Rot9,FRot1,FRot2,FRot3,FRot4,FRot5,FRot6,FRot7,FRot8,FRot9,AccX,AccY,AccZ,GravX,GravY,GravZ,GyroX,GyroY,GyroZ,MagX,MagY,MagZ,Imid
0.0,0.0,0.0,0.0,0.0,0.0,0.0,0.0,0.0,0.0,0.0,0.0,0.0,0.0,0.0,0.0,0.0,0.0,0.0,0.08604431,-0.0062713623,-0.041305542,9.758911,0.0062713623,0.9654541,0.0,0.0,0.0,0.0,0.0,0.0,0,0.0,0.0,0.0,0.0
0.004425049,0.0,0.0,0.0,0.0,0.0,0.0,0.0,0.0,0.0,1.0,0.0,0.0,0.0,1.0,0.0,0.0,0.0,1.0,-0.009887695,0.12313843,-0.16415405,9.759064,0.006134033,0.96380615,0.0,0.0,0.0,0.0,0.0,0.0,0,0.0,0.0,0.0,0.0
0.008850098,0.097375356,0.12927268,-0.98681635,-0.013214491,0.991609,0.12859656,0.99516004,5.181423E-4,0.09826655,1.0,0.0,0.0,0.0,1.0,0.0,0.0,0.0,1.0,0.095458984,-0.0769043,-0.17835999,9.759064,0.0050811768,0.96365356,-0.012756348,-0.0234375,0.010650635,-27.28424,20.773315,0.0289917,0,0.0,0.0,0.0,0.0
0.013275147,0.09731938,0.12919919,-0.98683155,-0.013168623,0.9916186,0.12852725,0.9951661,4.8701878E-4,0.09820508,0.9995631,0.0025927045,-0.029443063,-0.0025918854,0.99999666,6.597904E-5,0.029443135,1.0362836E-5,0.99956644,0.061813354,-0.057434082,-0.17297363,9.759201,0.004776001,0.9630585,0.009597778,0.014907837,0.019165039,-27.28424,20.773315,0.0289917,0,0.0,0.0,0.0,0.0
0.017700196,0.0974736,0.12940168,-0.98678976,-0.013163678,0.9915921,0.12873115,0.99515104,4.4189516E-4,0.09835746,0.9983622,0.005472031,-0.056946747,-0.005484851,0.999985,-6.882494E-5,0.056945514,3.8105669E-4,0.9983772,0.033218384,-0.028274536,-0.11701965,9.759064,0.004333496,0.96455383,0.005340576,0.020233154,-0.0053253174,-27.28424,20.773315,0.0289917,0,0.0,0.0,0.0,0.0
0.022125244,0.096744336,0.18399873,-0.97815394,-0.018573176,0.9829265,0.1830595,0.99513596,4.5745508E-4,0.09851,0.9963339,0.007957841,-0.08517937,-0.007961482,0.9999683,2.9696926E-4,0.08517903,3.8227346E-4,0.9963656,0.08125305,0.11042786,-0.24301147,9.758911,0.004486084,0.9660492,-0.011703491,0.04685974,0.0053253174,-27.28424,21.84906,1.411438,0,0.0,0.0,0.0,0.0
0.026550293,0.09697851,0.18428616,-0.97807664,-0.018569192,0.98287255,0.18334863,0.9951132,3.8121577E-4,0.09873956,0.99355394,0.011499572,-0.112775706,-0.011469486,0.99993384,9.1560424E-4,0.11277877,3.8377708E-4,0.99362004,0.028884888,-0.018096924,-0.024978638,9.758606,0.0037384033,0.96829224,-0.004257202,0.05644226,0.0053253174,-27.28424,21.84906,1.411438,0,0.0,0.0,0.0,0.0
0.030975342,0.09712251,0.18446292,-0.97802895,-0.01862846,0.98283935,0.1835203,0.99509805,3.952198E-4,0.098892085,0.99007666,0.0149761755,-0.13972794,-0.014882853,0.99988776,0.0017128214,0.1397379,3.8372586E-4,0.9901885,0.072128296,0.010482788,0.05014038,9.758453,0.0038757324,0.9697876,-0.020217896,0.053253174,0.012786865,-27.28424,21.84906,1.411438,0,0.0,0.0,0.0,0.0
0.035400391,0.09817497,0.12625453,-0.98712796,-0.012877424,0.9919979,0.12559667,0.9950859,3.8121664E-4,0.099015184,0.9859486,0.01838667,-0.16603373,-0.018195149,0.9998309,0.0026746346,0.16605483,3.8395575E-4,0.98611647,-0.009140015,0.06329346,0.09681702,9.758316,0.0037384033,0.97099304,-0.025543213,0.034072876,-0.0032043457,-27.464294,20.23468,-0.14343262,0,0.0,0.0,0.0,0.0
0.039794922,0.09824682,0.12635219,-0.98710823,-0.012910447,0.9919853,0.12569149,0.9950783,3.952175E-4,0.09909068,0.9812392,0.02055035,-0.19169614,-0.02024269,0.99978876,0.0035633964,0.19172886,3.8390097E-4,0.9814479,0.053115845,0.06315613,0.20141602,9.758316,0.0038757324,0.9717407,-0.015960693,0.019165039,0.0063934326,-27.464294,20.23468,-0.14343262,0,0.0,0.0,0.0,0.0
0.044219971,0.098275356,0.12639098,-0.9871004,-0.012917985,0.9919804,0.1257297,0.99507535,3.9521634E-4,0.09911995,0.97597176,0.02267263,-0.21671417,-0.022216825,0.99974287,0.004539653,0.21676138,3.841273E-4,0.97622454,0.15367126,-0.027816772,0.11013794,9.758316,0.0038757324,0.97203064,-0.018081665,-0.003189087,-0.0010681152,-27.464294,20.23468,-0.14343262,0,0.0,0.0,0.0,0.0
0.04864502,0.09831247,0.12644142,-0.9870903,-0.012882534,0.99197394,0.1257839,0.9950721,3.5009754E-4,0.0991523,0.9701869,0.024753151,-0.24109061,-0.02411526,0.9996935,0.005596462,0.24115525,3.8434908E-4,0.97048646,0.024536133,-0.11355591,0.06674194,9.758163,0.0034332275,0.9723358,-0.017028809,-0.0021209717,0.010650635,-27.464294,20.23468,-0.14343262,0,0.0,0.0,0.0,0.0
0.053070069,0.09829788,0.12642159,-0.9870943,-0.012863065,0.9919766,0.12576593,0.9950739,3.3453302E-4,0.09913536,0.96392316,0.026792973,-0.26482865,-0.025937319,0.99964094,0.006728006,0.2649138,3.8366407E-4,0.964272,0.096206665,-0.03678894,-0.03366089,9.758316,0.0032806396,0.9721832,-0.011703491,0.009597778,0.004257202,-27.464294,20.23468,-0.14343262,0,0.0,0.0,0.0,0.0
0.057495117,0.09829403,0.12641636,-0.9870953,-0.012893265,0.9919772,0.12575768,0.9950739,3.6565238E-4,0.09913536,0.95721745,0.02879149,-0.28793377,-0.027681421,0.9995854,0.007926866,0.2880426,3.8268144E-4,0.9576175,-0.013916016,0.087387085,-0.004928589,9.758316,0.0035858154,0.9721832,-0.0021209717,0.0063934326,0.008514404,-27.464294,20.23468,-0.14343262,0,0.0,0.0,0.0,0.0
0.061920166,0.09783492,0.1607411,-0.9821358,-0.016301926,0.98699653,0.15991272,0.9950691,3.656563E-4,0.09918311,0.95010483,0.030749818,-0.3104114,-0.029348167,0.99952704,0.0091860015,0.31054705,3.8234086E-4,0.95055795,0.019744873,0.010772705,0.1478424,9.758163,0.0035858154,0.972641,0.0021362305,0.004272461,0.004257202,-25.132751,19.69757,0.72021484,0,0.0,0.0,0.0,0.0
0.066345215,0.09781758,0.16071919,-0.9821411,-0.016312562,0.9870001,0.15988965,0.99507064,3.8121676E-4,0.099167705,0.9425976,0.03336221,-0.33225995,-0.03159172,0.9994433,0.01073062,0.33243296,3.820072E-4,0.9431268,5.950928E-4,0.029769897,-0.053115845,9.758163,0.0037384033,0.9724884,0.0010681152,0.018096924,-0.0010681152,-25.132751,19.69757,0.72021484,0,0.0,0.0,0.0,0.0
0.070770264,0.09783029,0.16073525,-0.9821372,-0.016330382,0.9869975,0.159904,0.9950691,3.9522003E-4,0.09918311,0.9347469,0.03592168,-0.3534938,-0.03373457,0.99935454,0.0123487655,0.35370922,3.8199138E-4,0.93535537,-0.032928467,0.020065308,0.023345947,9.758163,0.0038757324,0.972641,-0.013824463,0.0053253174,0.0021362305,-25.132751,19.69757,0.72021484,0,0.0,0.0,0.0,0.0
0.075592041,0.09862711,0.10738488,-0.98931354,-0.011048213,0.99421746,0.10681575,0.99506307,3.9521762E-4,0.099243194,0.9265834,0.03843007,-0.37412077,-0.03577821,0.99926126,0.014033399,0.37438366,3.8225597E-4,0.9272738,0.029327393,-0.061325073,-0.0012054443,9.758163,0.0038757324,0.9732361,0.015991211,-0.010650635,-0.0032043457,-26.567078,21.490479,-0.31585693,0,0.0,0.0,0.0,0.0
0.080413819,0.09861346,0.10736797,-0.98931664,-0.011031029,0.99421924,0.10680048,0.9950647,3.8121446E-4,0.09922779,0.9265834,0.03843007,-0.37412077,-0.03577821,0.99926126,0.014033399,0.37438366,3.8225597E-4,0.9272738,0.029327393,-0.061187744,-0.0010528564,9.758163,0.0037384033,0.9730835,0.015991211,-0.010650635,-0.0032043457,-26.567078,21.490479,-0.31585693,0,0.0,0.0,0.0,0.0
0.085266114,0.09863023,0.10738874,-0.98931277,-0.011019348,0.994217,0.106822506,0.99506307,3.656541E-4,0.099243194,0.9096623,0.040769838,-0.41334277,-0.037584376,0.9991679,0.01583873,0.41364458,0.0011273335,0.9104377,0.06285095,-0.008361816,0.017959595,9.758163,0.0035858154,0.9732361,0.012786865,0.0053253174,0.0010681152,-26.567078,21.490479,-0.31585693,0,0.0,0.0,0.0,0.0
0.090087891,0.098901145,0.07735307,-0.99208623,-0.008053772,0.9970037,0.07693361,0.9950647,3.8121446E-4,0.09922779,0.9007757,0.04210499,-0.43223876,-0.038442336,0.9991126,0.017212018,0.43257987,0.0011121,0.90159494,0.24002075,0.020202637,-0.0010528564,9.758163,0.0037384033,0.9730835,-0.007446289,-0.0010528564,-0.0032043457,-26.92566,21.490479,-1.008606,0,0.0,0.0,0.0,0.0
0.094909668,0.098901145,0.07735307,-0.99208623,-0.008053772,0.9970037,0.07693361,0.9950647,3.8121446E-4,0.09922779,0.8917079,0.04281061,-0.45058224,-0.03870498,0.9990826,0.01832696,0.45095345,0.0010974823,0.8925468,0.12509155,0.015411377,0.018112183,9.758163,0.0037384033,0.9730835,0.004272461,-0.0063934326,-0.0095825195,-26.92566,21.490479,-1.008606,0,0.0,0.0,0.0,0.0
0.099731446,0.098901145,0.07735307,-0.99208623,-0.008053772,0.9970037,0.07693361,0.9950647,3.8121446E-4,0.09922779,0.88245857,0.0435021,-0.46837425,-0.038933437,0.99905276,0.019436903,0.4687761,0.0010831569,0.88331634,0.13946533,0.0010375977,0.008529663,9.758163,0.0037384033,0.9730835,0.005340576,-0.0063934326,0.0,-26.92566,21.490479,-1.008606,0,0.0,0.0,0.0,0.0
0.10458374,0.09822056,0.12483767,-0.9873035,-0.012754681,0.992177,0.12418501,0.9950829,3.9521934E-4,0.09904446,0.8730495,0.044179738,-0.48562613,-0.03912898,0.999023,0.020540573,0.48605913,0.001069118,0.8739252,0.14888,-0.06611633,0.02947998,9.758316,0.0038757324,0.97128296,0.007461548,0.0,-0.004257202,-26.567078,21.131897,0.0289917,0,0.0,0.0,0.0,0.0
0.109405518,0.09807539,0.12465521,-0.98734105,-0.012688441,0.9922,0.1240083,0.99509805,3.656561E-4,0.098892085,0.86346126,0.045797497,-0.50233173,-0.04011728,0.9989502,0.02211627,0.5028173,0.00105564,0.8643921,0.043395996,-0.104141235,-0.10308838,9.758453,0.0035858154,0.9697876,-0.015960693,-0.043670654,-0.01171875,-26.567078,21.131897,0.0289917,0,0.0,0.0,0.0,0.0
0.114227295,0.09797537,0.12452951,-0.98736674,-0.012632054,0.9922159,0.12388763,0.9951087,3.3453476E-4,0.09878579,0.8537512,0.04737911,-0.51852113,-0.041036855,0.99887645,0.023703204,0.51906157,0.0010418404,0.8547362,0.11985779,0.04460144,-0.025436401,9.758606,0.0032806396,0.96875,-0.006378174,-0.0234375,-0.0010681152,-26.567078,21.131897,0.0289917,0,0.0,0.0,0.0,0.0
0.11907959,0.09785494,0.12192138,-0.98770416,-0.012371292,0.99253964,0.121292606,0.99512374,3.5009434E-4,0.09863325,0.84393775,0.048926443,-0.53420526,-0.041890677,0.9988018,0.025298698,0.534803,0.0010276943,0.8449761,0.0574646,0.13542175,-0.13407898,9.758759,0.0034332275,0.96725464,-0.012756348,-0.020233154,0.007461548,-27.105713,20.593262,-0.14343262,0,0.0,0.0,0.0,0.0
0.123901367,0.09773646,0.12176521,-0.9877353,-0.012325522,0.99255896,0.12114026,0.995136,3.345335E-4,0.098510005,0.8340397,0.05039022,-0.54939836,-0.04263947,0.99872905,0.026871517,0.5500542,0.0010141425,0.8351283,0.004638672,0.0541687,-0.065841675,9.758911,0.0032806396,0.9660492,-0.004257202,-0.022369385,0.008514404,-27.105713,20.593262,-0.14343262,0,0.0,0.0,0.0,0.0
0.128112793,0.09776804,0.12180683,-0.987727,-0.012333563,0.9925539,0.12118127,0.99513286,3.3453765E-4,0.09854235,0.82407147,0.051821478,-0.5641107,-0.043327976,0.9986559,0.02844562,0.5648265,0.0010005503,0.8252091,0.07661438,0.0014953613,0.09666443,9.758759,0.0032806396,0.96635437,0.0,-0.0234375,0.0053253174,-27.105713,20.593262,-0.14343262,0,0.0,0.0,0.0,0.0
0.132293701,0.095824905,0.22660756,-0.9692609,-0.022652317,0.973986,0.2254728,0.9951404,3.5009475E-4,0.09846531,0.8140494,0.053224843,-0.5783517,-0.043961722,0.99858207,0.030020418,0.5791294,9.872301E-4,0.815235,0.10998535,0.006134033,-0.18510437,9.758911,0.0034332275,0.9656067,-0.007446289,-0.0021209717,0.007461548,-25.671387,20.593262,2.2766113,0,0.0,0.0,0.0,0.0
0.136505127,0.095799126,0.2265765,-0.9692707,-0.0226272,0.97399336,0.22544408,0.9951435,3.34536E-4,0.09843449,0.80389005,0.056726396,-0.59206665,-0.046254132,0.9983893,0.032854047,0.5929766,9.744874E-4,0.80521905,0.13392639,-0.008056641,-0.065093994,9.758911,0.0032806396,0.9653015,0.012786865,-0.015975952,-0.0010681152,-25.671387,20.593262,2.2766113,0,0.0,0.0,0.0,0.0
0.140716553,0.09581372,0.22659408,-0.96926504,-0.02263242,0.9739893,0.22546126,0.9951421,3.3453552E-4,0.098449916,0.7937,0.060156602,-0.6053276,-0.048417155,0.9981885,0.035714436,0.60637945,9.616884E-4,0.79517484,0.023788452,0.0014953613,0.035308838,9.758911,0.0032806396,0.9654541,-0.004257202,-0.0053253174,0.013839722,-25.671387,20.593262,2.2766113,0,0.0,0.0,0.0,0.0
0.144897461,0.096435934,0.1941736,-0.9762155,-0.019427992,0.9809671,0.19319952,0.99514955,3.3453282E-4,0.09837288,0.7834929,0.063517876,-0.61814594,-0.050455566,0.99798024,0.038596082,0.61934894,9.491454E-4,0.78511524,0.052368164,-0.0128479,-0.20335388,9.759064,0.0032806396,0.9647064,-0.018081665,-0.0063934326,0.0095825195,-27.642822,22.566223,1.7578125,0,0.0,0.0,0.0,0.0
0.149108887,0.096435934,0.1941736,-0.9762155,-0.019427992,0.9809671,0.19319952,0.99514955,3.3453282E-4,0.09837288,0.77331424,0.066149406,-0.6305627,-0.051859885,0.9978093,0.041075226,0.63189846,9.368531E-4,0.7750507,0.14334106,0.011077881,0.026489258,9.759064,0.0032806396,0.9647064,-0.007446289,0.008529663,-0.004257202,-27.642822,22.566223,1.7578125,0,0.0,0.0,0.0,0.0
0.153320313,0.09643299,0.19417007,-0.9762165,-0.019442834,0.98096776,0.1931945,0.99514955,3.5009248E-4,0.09837288,0.7634566,0.06828414,-0.64223933,-0.05255914,0.9976658,0.04359454,0.643717,4.7300625E-4,0.76526344,-0.0050964355,0.010925293,0.021697998,9.759064,0.0034332275,0.9647064,-0.0010528564,0.0063934326,0.0095825195,-27.642822,22.566223,1.7578125,0,0.0,0.0,0.0,0.0
0.157531739,0.097732075,0.107741386,-0.9893635,-0.010941879,0.9941788,0.1071849,0.99515253,3.5009353E-4,0.09834205,0.75330365,0.07081947,-0.65384877,-0.053792063,0.99748904,0.046065524,0.65546936,4.7054797E-4,0.7552216,0.047576904,-0.0034332275,-0.07376099,9.759064,0.0034332275,0.96440125,-0.011703491,0.009597778,-0.0021362305,-27.28424,21.84906,-0.31585693,0,0.0,0.0,0.0,0.0
0.161712647,0.09777413,0.10779405,-0.9893537,-0.010996848,0.99417317,0.10723237,0.9951478,3.95221E-4,0.098389804,0.74327236,0.07155902,-0.6651507,-0.053637527,0.9974362,0.047370117,0.6668352,4.6813887E-4,0.7452051,0.18180847,9.0026855E-4,-0.04548645,9.758911,0.0038757324,0.964859,0.004272461,0.008529663,-0.0053253174,-27.28424,21.84906,-0.31585693,0,0.0,0.0,0.0,0.0
0.165924073,0.09773747,0.10774815,-0.98936224,-0.011035029,0.99417806,0.107182495,0.99515104,4.4189516E-4,0.09835746,0.73327744,0.0722848,-0.6760762,-0.053461,0.9973839,0.048654202,0.6778245,4.6668053E-4,0.7352236,0.08589172,0.12973022,-0.078704834,9.759064,0.004333496,0.96455383,-0.015960693,0.014907837,-0.0138549805,-27.28424,21.84906,-0.31585693,0,0.0,0.0,0.0,0.0
0.170135498,0.096619256,0.18267676,-0.9784139,-0.018415203,0.98317283,0.18174678,0.99515104,4.5745485E-4,0.09835746,0.7233258,0.072995126,-0.68663776,-0.053262297,0.99733216,0.049916264,0.6884496,4.6618484E-4,0.72528404,-3.0517578E-4,0.038604736,0.012268066,9.759064,0.004486084,0.96455383,0.0,-0.004257202,-0.004257202,-26.38855,20.593262,1.2390137,0,0.0,0.0,0.0,0.0
0.174316407,0.09658838,0.18263781,-0.9784243,-0.018421255,0.9831801,0.18170704,0.9951539,4.730159E-4,0.09832819,0.7133441,0.07520201,-0.6967674,-0.05412379,0.9971682,0.052212782,0.6987208,4.6601024E-4,0.7153943,-0.029037476,0.02407837,-0.10235596,9.759064,0.004638672,0.9642639,-0.0021209717,0.0063934326,-0.0021362305,-26.38855,20.593262,1.2390137,0,0.0,0.0,0.0,0.0
0.178527832,0.09657633,0.18262263,-0.9784283,-0.018401725,0.9831829,0.18169372,0.99515545,4.574569E-4,0.09831277,0.70342076,0.07736361,-0.70655084,-0.05491409,0.99700284,0.054495756,0.70864916,4.6615035E-4,0.70556086,0.047576904,-0.037994385,-0.030380249,9.759064,0.004486084,0.9641113,0.008529663,0.007461548,0.0063934326,-26.38855,20.593262,1.2390137,0,0.0,0.0,0.0,0.0
0.182739258,0.09703467,0.15621662,-0.98294485,-0.015807744,0.98772264,0.15541543,0.99515545,4.574569E-4,0.09831277,0.69356245,0.07948131,-0.7159986,-0.05563595,0.99683625,0.056763873,0.718245,4.6597648E-4,0.6957902,-3.0517578E-4,0.0098724365,0.017501831,9.759064,0.004486084,0.9641113,-0.0053253174,-0.004257202,-0.0063934326,-28.181458,20.951843,0.5477905,0,0.0,0.0,0.0,0.0
0.186950684,0.097042695,0.15622737,-0.9829423,-0.01585556,0.9877209,0.1554215,0.9951539,5.0257944E-4,0.09832819,0.68380517,0.0810222,-0.72515225,-0.05592616,0.99671215,0.058626603,0.7275182,4.658061E-4,0.68608826,0.061950684,0.12434387,0.026931763,9.759064,0.004928589,0.9642639,-0.010650635,0.0032043457,0.008514404,-28.181458,20.951843,0.5477905,0,0.0,0.0,0.0,0.0
0.191131592,0.09698074,0.15614451,-0.98296165,-0.015853096,0.98773414,0.15533854,0.99516004,5.181423E-4,0.09826655,0.6741246,0.08253231,-0.7339921,-0.0561723,0.9965883,0.060468767,0.73647857,4.665416E-4,0.67646074,0.081100464,0.038009644,-0.116119385,9.759064,0.0050811768,0.96365356,-0.0053253174,-0.017044067,-0.008529663,-28.181458,20.951843,0.5477905,0,0.0,0.0,0.0,0.0
0.195343018,0.09682017,0.16163775,-0.98208916,-0.016349455,0.9868501,0.16080952,0.9951676,4.8701954E-4,0.098189674,0.6645245,0.08401035,-0.74252915,-0.056374636,0.9964648,0.0622885,0.745137,4.6757358E-4,0.6669113,-0.067474365,0.019165039,-0.124938965,9.759201,0.004776001,0.9629059,0.0,-0.004257202,0.0063934326,-27.105713,21.669006,0.89416504,0,0.0,0.0,0.0,0.0
0.199554444,0.09693388,0.16177858,-0.98205477,-0.016321097,0.9868271,0.16095378,0.99515706,4.2633805E-4,0.09829737,0.6550027,0.08556953,-0.75076586,-0.056608517,0.9963321,0.06417039,0.7535031,4.679625E-4,0.6574442,-0.033828735,-0.06163025,0.08470154,9.759064,0.004180908,0.96395874,-0.022354126,-0.0095825195,0.0063934326,-27.105713,21.669006,0.89416504,0,0.0,0.0,0.0,0.0
0.203735352,0.09691652,0.16175708,-0.98205996,-0.016331773,0.9868304,0.16093111,0.9951585,4.4189848E-4,0.09828196,0.64557236,0.08710016,-0.7587159,-0.05680109,0.9961994,0.066032514,0.7615838,4.6713E-4,0.6480662,0.042785645,0.033966064,-0.025283813,9.759064,0.004333496,0.96380615,-0.020217896,0.017028809,0.004257202,-27.105713,21.669006,0.89416504,0,0.0,0.0,0.0,0.0
0.207946778,0.09715514,0.1456149,-0.9845594,-0.01474415,0.9893413,0.14486721,0.99516004,4.4189917E-4,0.09826655,0.63623536,0.088599555,-0.7663907,-0.05695317,0.9960672,0.06787072,0.7693899,4.6662538E-4,0.6387792,0.071517944,-0.028274536,-0.034713745,9.759064,0.004333496,0.96365356,0.0032043457,-0.007446289,-0.014907837,-26.38855,21.310425,0.5477905,0,0.0,0.0,0.0,0.0
0.212158203,0.097167894,0.14563061,-0.9845558,-0.014763255,0.9893389,0.14488108,0.9951585,4.5745829E-4,0.09828196,0.6270136,0.089743346,-0.7738217,-0.056861896,0.9959648,0.06943205,0.7769302,4.6613088E-4,0.62958646,0.052368164,0.06254578,0.060897827,9.759064,0.004486084,0.96380615,0.0,0.0010681152,-0.0053253174,-26.38855,21.310425,0.5477905,0,0.0,0.0,0.0,0.0
0.216369629,0.09721059,0.14568317,-0.98454386,-0.014790467,0.98933125,0.1449312,0.9951539,4.730159E-4,0.09832819,0.61789155,0.090864465,-0.7809953,-0.056744535,0.99586314,0.07096919,0.784213,4.6595745E-4,0.6204915,0.08589172,0.014511108,0.11790466,9.759064,0.004638672,0.9642639,-0.0021209717,-0.0010528564,0.003189087,-26.38855,21.310425,0.5477905,0,0.0,0.0,0.0,0.0
0.220550537,0.09628061,0.20037916,-0.97497606,-0.020186704,0.9797183,0.19936033,0.9951495,4.870175E-4,0.09837287,0.60815424,0.091580756,-0.7885185,-0.056542866,0.99579734,0.072045356,0.7918026,7.704082E-4,0.6107766,0.033218384,0.04310608,0.1414032,9.759064,0.004776001,0.9647064,0.007461548,-0.013839722,0.0,-26.92566,21.490479,1.7578125,0,0.0,0.0,0.0,0.0
0.224761963,0.09629678,0.20039895,-0.9749703,-0.020192048,0.9797142,0.19937968,0.9951478,4.870243E-4,0.098389804,0.5991849,0.093771994,-0.7951001,-0.05704886,0.99559337,0.0744258,0.7985755,7.647404E-4,0.60189414,0.08125305,0.019165039,0.03112793,9.758911,0.004776001,0.964859,-0.0095825195,0.0,-0.008529663,-26.92566,21.490479,1.7578125,0,0.0,0.0,0.0,0.0
0.228973389,0.09632749,0.20043655,-0.9749595,-0.020187953,0.97970647,0.19941784,0.9951449,4.7301903E-4,0.09841908,0.59032345,0.09591937,-0.8014473,-0.05749983,0.9953888,0.07677807,0.8051161,7.5918605E-4,0.5931167,-0.08634949,-0.057296753,0.08828735,9.758911,0.004638672,0.9651489,-0.007446289,-0.0095825195,-0.0032043457,-26.92566,21.490479,1.7578125,0,0.0,0.0,0.0,0.0
0.233642578,0.09773229,0.10942992,-0.9891782,-0.011217439,0.9939944,0.10885441,0.9951495,4.5745415E-4,0.09837287,0.58157194,0.09802413,-0.8075676,-0.057898317,0.99518377,0.07910173,0.811432,7.534627E-4,0.5844463,-3.0517578E-4,-0.033203125,-0.12194824,9.759064,0.004486084,0.9647064,0.009597778,-0.012771606,0.0021362305,-25.312805,21.310425,-0.14343262,0,0.0,0.0,0.0,0.0
0.238342285,0.09764812,0.109329805,-0.98919755,-0.011151489,0.9940054,0.10876037,0.9951585,4.1077888E-4,0.09828196,0.5730371,0.09825237,-0.8136185,-0.05719012,0.99516124,0.07989604,0.8175315,7.4754254E-4,0.5758833,-3.0517578E-4,-0.008804321,-0.020492554,9.759064,0.0040283203,0.96380615,0.012786865,-0.012771606,0.007461548,-25.312805,21.310425,-0.14343262,0,0.0,0.0,0.0,0.0
0.243011475,0.097629264,0.109307386,-0.98920196,-0.011055278,0.99400806,0.108747356,0.9951615,3.1897696E-4,0.09825269,0.56461054,0.09847405,-0.8194619,-0.056484032,0.9951393,0.08066747,0.82342243,7.4080727E-4,0.56742835,0.028427124,-0.11804199,0.07556152,9.759064,0.0031280518,0.96351624,-0.013824463,-0.019165039,0.0063934326,-25.312805,21.310425,-0.14343262,0,0.0,0.0,0.0,0.0
0.247711182,0.09785746,0.082589,-0.99176764,-0.008443711,0.9965837,0.08215691,0.99516463,3.345332E-4,0.0982205,0.55629444,0.098690845,-0.825104,-0.05578071,0.9951179,0.081418246,0.82911104,7.323707E-4,0.5590836,-0.0052337646,0.030227661,-0.0725708,9.759201,0.0032806396,0.96321106,-0.01914978,-0.013839722,0.008514404,-26.747131,21.669006,-0.83465576,0,0.0,0.0,0.0,0.0
0.252380371,0.097782984,0.0824965,-0.9917826,-0.008428404,0.99659127,0.0820655,0.9951721,3.3453567E-4,0.098144986,0.5481188,0.09836905,-0.8305958,-0.05478826,0.9951498,0.08170214,0.83460414,7.24414E-4,0.5508498,0.100112915,0.030227661,-0.18196106,9.759201,0.0032806396,0.9624634,0.0,-0.0021209717,0.0,-26.747131,21.669006,-0.83465576,0,0.0,0.0,0.0,0.0
0.257080078,0.097767785,0.08247762,-0.99178565,-0.008425282,0.99659276,0.082046844,0.9951736,3.345362E-4,0.09812958,0.54005295,0.09805183,-0.8358999,-0.0538144,0.9951811,0.081967585,0.83990884,7.166164E-4,0.54272705,0.109695435,-0.0032806396,-0.03816223,9.759201,0.0032806396,0.9623108,0.0063934326,-0.018096924,-0.010650635,-26.747131,21.669006,-0.83465576,0,0.0,0.0,0.0,0.0
0.261749268,0.09773612,0.0824383,-0.991792,-0.008434318,0.99659604,0.08200645,0.9951767,3.5009708E-4,0.09809876,0.53209823,0.09774057,-0.8410222,-0.052859794,0.99521166,0.08221657,0.845031,7.0897484E-4,0.5347169,0.061813354,0.025283813,-0.052215576,9.759201,0.0034332275,0.9620056,0.004272461,-0.003189087,0.003189087,-26.747131,21.669006,-0.83465576,0,0.0,0.0,0.0,0.0
0.266448975,0.0977045,0.08239902,-0.9917986,-0.008443357,0.9965995,0.0819661,0.9951797,3.6565238E-4,0.09806796,0.52425486,0.09743474,-0.8459689,-0.051924214,0.9952417,0.082449354,0.84997696,7.0179725E-4,0.52681947,0.047286987,0.053863525,-0.08065796,9.759354,0.0035858154,0.9617157,-0.0010528564,0.017028809,-0.0053253174,-26.747131,21.669006,-0.83465576,0,0.0,0.0,0.0,0.0
0.271118164,0.09767535,0.082362816,-0.9918043,-0.008421839,0.99660224,0.08193185,0.9951827,3.5009373E-4,0.09803714,0.5165231,0.097134225,-0.850746,-0.051007405,0.995271,0.08266671,0.85475266,6.950744E-4,0.5190351,0.047286987,-0.06088257,-0.07077026,9.759354,0.0034332275,0.9614105,0.0010681152,0.0053253174,0.0063934326,-26.747131,21.669006,-0.83465576,0,0.0,0.0,0.0,0.0
0.275817871,0.095978454,0.20406716,-0.97424066,-0.020362956,0.9789568,0.20304894,0.99517506,3.5009652E-4,0.09811416,0.50890344,0.096839,-0.85535926,-0.050108615,0.9952998,0.08286974,0.859364,6.8817474E-4,0.511364,0.033081055,-0.0082092285,0.17747498,9.759201,0.0034332275,0.9621582,0.010665894,0.020233154,0.0010681152,-24.954224,20.951843,1.9302368,0,0.0,0.0,0.0,0.0
0.280487061,0.09590173,0.20397818,-0.9742667,-0.02035368,0.9789753,0.20296049,0.9951827,3.6565345E-4,0.09803714,0.50127465,0.098998964,-0.8596062,-0.050462194,0.99508727,0.08517526,0.86381555,6.8141316E-4,0.5038078,-5.950928E-4,0.044296265,-0.19526672,9.759354,0.0035858154,0.9614105,-0.007446289,0.011703491,0.007461548,-24.954224,20.951843,1.9302368,0,0.0,0.0,0.0,0.0
0.285186768,0.095944285,0.2040275,-0.97425216,-0.020383418,0.978965,0.2030071,0.995178,3.8121734E-4,0.09808489,0.4937608,0.10111347,-0.8636992,-0.050772153,0.99487466,0.087444715,0.86811435,6.750979E-4,0.49636385,0.004348755,0.034561157,0.11550903,9.759201,0.0037384033,0.9618683,0.0010681152,0.0032043457,-0.0032043457,-24.954224,20.951843,1.9302368,0,0.0,0.0,0.0,0.0
0.289855957,0.09664822,0.16691108,-0.98122364,-0.016730247,0.98597187,0.1660709,0.995178,3.6565744E-4,0.09808489,0.48692903,0.102502316,-0.8674061,-0.050328784,0.99473274,0.08929595,0.8719903,1.7469712E-4,0.48952308,0.018707275,-0.037094116,-0.004196167,9.759201,0.0035858154,0.9618683,0.005340576,0.008529663,0.01171875,-27.105713,20.951843,0.89416504,0,0.0,0.0,0.0,0.0
0.294555664,0.09667393,0.166944,-0.9812155,-0.016753625,0.98596627,0.16610165,0.99517506,3.8121623E-4,0.09811416,0.4796773,0.10379565,-0.8712842,-0.050216034,0.9945986,0.09084007,0.8760069,1.7851632E-4,0.4822986,0.018707275,0.034561157,0.110443115,9.759201,0.0037384033,0.9621582,-0.0010528564,0.010650635,0.010650635,-27.105713,20.951843,0.89416504,0,0.0,0.0,0.0,0.0
0.299224854,0.09667647,0.16694725,-0.9812147,-0.016738677,0.9859657,0.16610639,0.99517506,3.6565636E-4,0.09811416,0.4725404,0.10506361,-0.87502414,-0.050084632,0.99446553,0.09235759,0.8798847,1.8257031E-4,0.47518718,0.090530396,-0.008361816,-0.018844604,9.759201,0.0035858154,0.9621582,-0.013824463,0.012771606,-0.008529663,-27.105713,20.951843,0.89416504,0,0.0,0.0,0.0,0.0
0.303924561,0.09662513,0.17009705,-0.9806787,-0.017032262,0.98542726,0.16924252,0.99517506,3.5009652E-4,0.09811416,0.46551722,0.106306106,-0.8786312,-0.049934838,0.99433345,0.09384847,0.883629,1.8623204E-4,0.46818772,0.104904175,-0.046524048,0.019454956,9.759201,0.0034332275,0.9621582,0.005340576,0.008529663,0.0063934326,-27.464294,22.744751,1.2390137,0,0.0,0.0,0.0,0.0
0.30859375,0.096632525,0.17010587,-0.9806764,-0.01708,0.9854257,0.16924667,0.9951735,3.9521948E-4,0.09812957,0.458604,0.10758714,-0.8821039,-0.049797073,0.99419564,0.095369175,0.8872444,1.8950933E-4,0.46129966,0.052230835,0.11582947,0.052825928,9.759201,0.0038757324,0.9623108,0.005340576,0.011703491,-0.0010681152,-27.464294,22.744751,1.2390137,0,0.0,0.0,0.0,0.0
0.313171387,0.09660276,0.17007041,-0.9806854,-0.017071282,0.98543185,0.16921192,0.9951767,3.952207E-4,0.09809876,0.45180342,0.108842544,-0.88545305,-0.049642827,0.994059,0.096862406,0.89073527,1.9362353E-4,0.4545225,0.033081055,0.0056915283,-0.07136536,9.759201,0.0038757324,0.9620056,-0.013824463,0.009597778,-0.0010681152,-27.464294,22.744751,1.2390137,0,0.0,0.0,0.0,0.0
0.317687989,0.09614705,0.1930613,-0.9764646,-0.019319043,0.9811867,0.1920927,0.9951797,3.9521576E-4,0.09806796,0.44511387,0.11007196,-0.88868314,-0.049471892,0.9939236,0.098328054,0.8941064,1.9765548E-4,0.44785467,-0.10115051,0.010482788,-0.104599,9.759354,0.0038757324,0.9617157,0.0063934326,0.0032043457,0.010650635,-28.720093,19.69757,1.0665894,0,0.0,0.0,0.0,0.0
0.321990967,0.09614413,0.19305713,-0.9764657,-0.019333826,0.9811875,0.19208705,0.9951797,4.1077542E-4,0.09806796,0.4385115,0.11174131,-0.891752,-0.04949071,0.99373734,0.10018399,0.89736193,2.0160669E-4,0.4412954,0.07601929,0.0390625,0.015106201,9.759354,0.0040283203,0.9617157,0.010665894,0.0021362305,0.0053253174,-28.720093,19.69757,1.0665894,0,0.0,0.0,0.0,0.0
0.326293946,0.09614413,0.19305713,-0.9764657,-0.019333826,0.9811875,0.19208705,0.9951797,4.1077542E-4,0.09806796,0.43201947,0.113376886,-0.89470935,-0.049485415,0.993552,0.10200762,0.90050566,2.0579006E-4,0.43484434,0.018554688,7.4768066E-4,0.0055389404,9.759354,0.0040283203,0.9617157,-0.011703491,0.0,-0.0010681152,-28.720093,19.69757,1.0665894,0,0.0,0.0,0.0,0.0
0.330596924,0.09737408,0.11725786,-0.9883161,-0.011908832,0.9931014,0.11665229,0.9951767,4.1078057E-4,0.09809876,0.42563692,0.11497945,-0.8975594,-0.049457155,0.99336785,0.103799365,0.9035415,2.0988977E-4,0.42850062,0.095321655,-0.03274536,0.091430664,9.759201,0.0040283203,0.9620056,0.0032043457,-0.01171875,0.0010681152,-26.92566,19.69757,-0.31585693,0,0.0,0.0,0.0,0.0
0.334899903,0.097380385,0.11726649,-0.98831445,-0.011986835,0.9931003,0.11665326,0.99517506,4.8702318E-4,0.09811416,0.41943872,0.11502503,-0.9004668,-0.048763514,0.9933626,0.10417736,0.90647304,2.1390758E-4,0.42226374,0.004348755,0.0287323,0.072128296,9.759201,0.004776001,0.9621582,0.0021362305,-0.022369385,-0.004257202,-26.92566,19.69757,-0.31585693,0,0.0,0.0,0.0,0.0
0.339202881,0.09733525,0.11720461,-0.9883263,-0.011975349,0.9931077,0.116592236,0.99517965,4.870178E-4,0.098067954,0.4133453,0.115069866,-0.9032744,-0.048082452,0.9933574,0.104542814,0.909304,2.1936989E-4,0.41613245,0.013763428,0.019165039,-0.104599,9.759354,0.004776001,0.9617157,-0.018081665,-0.003189087,-0.017044067,-26.92566,19.69757,-0.31585693,0,0.0,0.0,0.0,0.0
0.34350586,0.09648032,0.17384766,-0.98003495,-0.017494528,0.98477244,0.17296578,0.99518114,4.574551E-4,0.09805255,0.4073547,0.115112565,-0.90598637,-0.047411773,0.9933525,0.104895554,0.91203856,2.2472285E-4,0.41010448,0.052078247,-0.081100464,-0.04219055,9.759354,0.004486084,0.9615631,0.0,-0.0010528564,0.0010681152,-27.105713,22.027588,1.2390137,0,0.0,0.0,0.0,0.0
0.347808838,0.096490175,0.1738596,-0.98003185,-0.01752735,0.98477036,0.17297454,0.99517965,4.870178E-4,0.098067954,0.40141255,0.11629193,-0.9084845,-0.047211174,0.9932151,0.10627779,0.91467977,2.293775E-4,0.40417928,0.008987427,0.06225586,0.03904724,9.759354,0.004776001,0.9617157,-0.0010528564,-0.007446289,-0.007461548,-27.105713,22.027588,1.2390137,0,0.0,0.0,0.0,0.0
0.352111817,0.096490175,0.1738596,-0.98003185,-0.01752735,0.98477036,0.17297454,0.99517965,4.870178E-4,0.098067954,0.39557418,0.1174478,-0.91089356,-0.046999723,0.99307907,0.10763394,0.91723067,2.3453031E-4,0.39835647,0.1765747,0.0047912598,0.02468872,9.759354,0.004776001,0.9617157,0.0010681152,-0.013839722,-0.0021362305,-27.105713,22.027588,1.2390137,0,0.0,0.0,0.0,0.0
0.356414795,0.097388245,0.10731087,-0.9894442,-0.0110145835,0.9942253,0.10674528,0.9951855,5.025804E-4,0.09800786,0.39007148,0.117802955,-0.9132178,-0.046457004,0.993037,0.10825582,0.9196119,1.9785517E-4,0.39282817,0.08081055,0.04295349,-0.13752747,9.759354,0.004928589,0.9611206,0.010665894,0.0032043457,0.0053253174,-27.28424,21.84906,-0.31585693,0,0.0,0.0,0.0,0.0
0.360717774,0.0974002,0.107325844,-0.9894414,-0.011032933,0.9942237,0.106758505,0.9951841,5.181395E-4,0.09802172,0.38449273,0.11759324,-0.9156076,-0.045718994,0.99306184,0.108341984,0.9219952,2.0394968E-4,0.3872013,0.042495728,0.052368164,0.034729004,9.759354,0.0050811768,0.96125793,0.0,0.0,0.008514404,-27.28424,21.84906,-0.31585693,0,0.0,0.0,0.0,0.0
0.365020752,0.097391374,0.10731478,-0.98944354,-0.010985715,0.994225,0.106752045,0.9951855,4.730169E-4,0.09800786,0.3790115,0.11738802,-0.91791624,-0.044996828,0.9930861,0.10842175,0.92429733,2.1023347E-4,0.38167316,0.056869507,-0.11955261,-0.041748047,9.759354,0.004638672,0.9611206,-0.010650635,0.0021362305,-0.0063934326,-27.28424,21.84906,-0.31585693,0,0.0,0.0,0.0,0.0
0.369323731,0.0972707,0.11167184,-0.9889732,-0.011373312,0.9937451,0.111092046,0.99519295,4.4190066E-4,0.09793234,0.37362635,0.117186666,-0.920147,-0.044288836,0.9931099,0.10849543,0.92652136,2.1548914E-4,0.3762421,0.13348389,0.038757324,-0.0074920654,9.759354,0.004333496,0.9603729,-0.011703491,0.009597778,-0.010650635,-26.747131,22.027588,-0.14343262,0,0.0,0.0,0.0,0.0
0.373626709,0.097253874,0.11165139,-0.9889771,-0.011384981,0.9937474,0.11107037,0.99519455,4.5746125E-4,0.09791694,0.37362635,0.117186666,-0.920147,-0.044288836,0.9931099,0.10849543,0.92652136,2.1548914E-4,0.3762421,0.13348389,0.038604736,-0.0073394775,9.759354,0.004486084,0.96022034,-0.011703491,0.009597778,-0.010650635,-26.747131,22.027588,-0.14343262,0,0.0,0.0,0.0,0.0
0.377929688,0.097193494,0.11157797,-0.9889914,-0.011370919,0.9937556,0.11099799,0.9952005,4.5745686E-4,0.097855315,0.36312893,0.11696754,-0.9243679,-0.042978797,0.99313575,0.108785465,0.93074715,2.2507121E-4,0.36566344,0.01361084,-0.009262085,-0.1695404,9.759506,0.004486084,0.95962524,-0.006378174,0.0063934326,0.0,-26.747131,22.027588,-0.14343262,0,0.0,0.0,0.0,0.0
0.382232666,0.09762645,0.0616886,-0.99330944,-0.0064745476,0.99809533,0.061349474,0.995202,4.4189778E-4,0.0978399,0.35801885,0.116859786,-0.92637265,-0.042342387,0.99314845,0.108919166,0.9327538,2.2971892E-4,0.36051396,0.09022522,-0.013900757,-0.030532837,9.759506,0.004333496,0.95947266,-0.0095825195,0.0032043457,0.004257202,-26.38855,22.744751,-1.1810303,0,0.0,0.0,0.0,0.0
0.386535645,0.097613074,0.061672963,-0.9933117,-0.0064411582,0.99809635,0.061337058,0.9952036,4.1077888E-4,0.0978245,0.3530415,0.11575931,-0.9284189,-0.041364603,0.9932773,0.1081168,0.93469286,2.3396249E-4,0.3554564,0.14289856,-0.09500122,-0.02079773,9.759506,0.0040283203,0.95932007,0.004272461,-0.0021209717,-0.0010681152,-26.38855,22.744751,-1.1810303,0,0.0,0.0,0.0,0.0
0.390838623,0.09760928,0.061668534,-0.99331236,-0.0065025478,0.99809664,0.06132658,0.9952036,4.730181E-4,0.0978245,0.3481518,0.114680395,-0.93039703,-0.040415265,0.9934024,0.10732313,0.9365666,2.3749883E-4,0.3504897,0.08065796,0.16294861,0.017501831,9.759506,0.004638672,0.95932007,0.0032043457,-0.008514404,0.01171875,-26.38855,22.744751,-1.1810303,0,0.0,0.0,0.0,0.0
0.395141602,0.096835986,0.13433069,-0.9861938,-0.0136630265,0.99093646,0.13363512,0.9952066,5.3370296E-4,0.097793676,0.34334877,0.113622844,-0.93230975,-0.039495323,0.99352396,0.106537916,0.9383772,2.4220921E-4,0.34561282,0.08065796,0.16714478,-0.07795715,9.759506,0.0052337646,0.9590149,0.0,-0.017044067,-0.0032043457,-25.491333,21.131897,0.3753662,0,0.0,0.0,0.0,0.0
0.39944458,0.096833944,0.13432823,-0.9861942,-0.013678131,0.9909367,0.13363115,0.9952066,5.492628E-4,0.097793676,0.33857375,0.11403751,-0.9340039,-0.039098356,0.9934764,0.10712578,0.94012713,2.4803908E-4,0.34082368,0.04234314,0.028121948,-0.010925293,9.759506,0.0053863525,0.9590149,-0.004257202,-0.0010528564,-0.008529663,-25.491333,21.131897,0.3753662,0,0.0,0.0,0.0,0.0
0.403747559,0.096862145,0.13436212,-0.98618686,-0.013699389,0.9909321,0.13366309,0.9952035,5.632649E-4,0.097824484,0.3338861,0.11444382,-0.9356402,-0.038704786,0.99342966,0.10770048,0.9418184,2.5406355E-4,0.33612186,-0.05342102,0.03756714,0.06060791,9.759506,0.0055236816,0.95932007,0.004272461,-0.004257202,0.0053253174,-25.491333,21.131897,0.3753662,0,0.0,0.0,0.0,0.0
0.408050537,0.09669013,0.1474334,-0.9843345,-0.014965525,0.98907185,0.1466729,0.995202,5.492603E-4,0.0978399,0.32928494,0.11484266,-0.9372207,-0.03831499,0.99338365,0.10826295,0.9434529,2.6024756E-4,0.33150643,0.05192566,-0.043685913,0.07002258,9.759506,0.0053863525,0.95947266,-0.010650635,0.0053253174,0.0021362305,-27.464294,21.669006,0.5477905,0,0.0,0.0,0.0,0.0
0.412353516,0.09667964,0.14742018,-0.98433745,-0.014931331,0.9890738,0.146663,0.9952036,5.1814155E-4,0.0978245,0.32475874,0.1154958,-0.9387185,-0.03801407,0.9933079,0.109060906,0.9450326,2.6602778E-4,0.32697588,-0.019897461,-0.08169556,-0.05911255,9.759506,0.0050811768,0.95932007,-0.0053253174,0.0032043457,0.0,-27.464294,21.669006,0.5477905,0,0.0,0.0,0.0,0.0
0.416656494,0.096669175,0.14740698,-0.9843405,-0.014897137,0.9890757,0.14665309,0.995205,4.870226E-4,0.09780908,0.32031614,0.11613557,-0.9401649,-0.037711862,0.9932333,0.10984243,0.9465597,2.7107005E-4,0.32252833,0.09022522,-0.08139038,-0.006286621,9.759506,0.004776001,0.9591675,-0.0053253174,0.010650635,0.003189087,-27.464294,21.669006,0.5477905,0,0.0,0.0,0.0,0.0
0.420959473,0.09668147,0.14477779,-0.98472947,-0.01462214,0.98946404,0.14403827,0.9952079,4.7302013E-4,0.097779796,0.31672263,0.11667925,-0.94131434,-0.038276214,0.99316907,0.11022807,0.9477456,0.0011182268,0.31902516,-0.019897461,-0.023788452,-0.106552124,9.759506,0.004638672,0.95887756,0.005340576,0.013839722,-0.01171875,-27.28424,20.773315,0.3753662,0,0.0,0.0,0.0,0.0
0.425262451,0.09668366,0.14478065,-0.98472875,-0.014607097,0.98946357,0.14404263,0.9952079,4.5746026E-4,0.097779796,0.3124302,0.11724222,-0.9426779,-0.03794085,0.9931027,0.11093895,0.9491828,0.0011053226,0.31472355,0.12854004,-0.033203125,0.037109375,9.759506,0.004486084,0.95887756,0.0063934326,0.018096924,-0.0063934326,-27.28424,20.773315,0.3753662,0,0.0,0.0,0.0,0.0
0.42956543,0.09666651,0.14475822,-0.9847338,-0.014618,0.989467,0.14401904,0.9952095,4.730209E-4,0.097764395,0.3082179,0.11779395,-0.9439948,-0.03760641,0.99303746,0.11163496,0.95057213,0.0010923654,0.31050172,0.14289856,0.028869629,-0.029785156,9.759506,0.004638672,0.958725,-0.004257202,0.017028809,-0.01171875,-27.28424,20.773315,0.3753662,0,0.0,0.0,0.0,0.0
0.433868408,0.09683136,0.13329133,-0.9863352,-0.013482356,0.9910768,0.1326085,0.9952095,4.57461E-4,0.097764395,0.30408406,0.11833415,-0.9452671,-0.03727349,0.9929732,0.11231574,0.9519157,0.0010799784,0.30635807,0.05671692,-0.052368164,0.008529663,9.759506,0.004486084,0.958725,-0.003189087,0.010650635,-0.0032043457,-29.257202,22.744751,0.20141602,0,0.0,0.0,0.0,0.0
0.438171387,0.09690694,0.13338839,-0.98631465,-0.013486557,0.9910637,0.13270557,0.995202,4.4189778E-4,0.0978399,0.30003637,0.118633576,-0.9465222,-0.036872383,0.9929375,0.11276299,0.9532148,0.001067528,0.30229166,0.07107544,-0.033050537,0.18495178,9.759506,0.004333496,0.95947266,-0.0010528564,0.012771606,-0.0032043457,-29.257202,22.744751,0.20141602,0,0.0,0.0,0.0,0.0
0.442474365,0.09690694,0.13338839,-0.98631465,-0.013486557,0.9910637,0.13270557,0.995202,4.4189778E-4,0.0978399,0.29606602,0.11892895,-0.94773453,-0.0364767,0.9929022,0.11320184,0.9544707,0.0010550154,0.29830274,0.0758667,0.019607544,0.031723022,9.759506,0.004333496,0.95947266,-0.007446289,0.008529663,-0.004257202,-29.257202,22.744751,0.20141602,0,0.0,0.0,0.0,0.0
0.446777344,0.096710816,0.14987114,-0.98396426,-0.015120195,0.98870534,0.14910716,0.9951976,4.5745552E-4,0.09788459,0.29217023,0.11921839,-0.9489065,-0.03608599,0.9928675,0.11363059,0.95568526,0.001042753,0.29438844,0.08065796,0.029022217,0.13183594,9.759506,0.004486084,0.95991516,-0.0095825195,0.012771606,0.012786865,-27.642822,22.566223,0.72021484,0,0.0,0.0,0.0,0.0
0.451080323,0.096698135,0.1498557,-0.98396784,-0.01510107,0.98870784,0.14909355,0.99519926,4.4189655E-4,0.097869195,0.2883368,0.11983265,-0.950001,-0.0357967,0.99279356,0.11436574,0.95685965,0.0010310471,0.29054856,0.104599,-0.028274536,-0.030822754,9.759506,0.004333496,0.9597626,-0.007446289,0.0,-0.004257202,-27.642822,22.566223,0.72021484,0,0.0,0.0,0.0,0.0
0.455383301,0.09667808,0.14983132,-0.98397356,-0.015141007,0.9887114,0.14906512,0.9952005,4.8702038E-4,0.097855315,0.2845757,0.120434284,-0.9510585,-0.03550759,0.9927208,0.11508548,0.9579957,0.0010192641,0.28678054,0.02798462,0.10534668,-0.045043945,9.759506,0.004776001,0.95962524,0.01171875,0.004272461,0.0021362305,-27.642822,22.566223,0.72021484,0,0.0,0.0,0.0,0.0
0.45968628,0.09660858,0.15400034,-0.9833365,-0.015579258,0.98807067,0.15321116,0.9952005,5.181399E-4,0.097855315,0.28088573,0.12102334,-0.95208013,-0.03521999,0.99264914,0.11578955,0.9590947,0.0010086193,0.2830834,0.05192566,0.076309204,0.017196655,9.759506,0.0050811768,0.95962524,0.0,0.017028809,-0.01171875,-27.822876,20.951843,0.5477905,0,0.0,0.0,0.0,0.0
0.463989258,0.09660858,0.15400034,-0.9833365,-0.015579258,0.98807067,0.15321116,0.9952005,5.181399E-4,0.097855315,0.27726287,0.12168432,-0.9530573,-0.034957353,0.9925684,0.11655923,0.96015793,9.988098E-4,0.27945614,0.09980774,-0.009857178,0.0028381348,9.759506,0.0050811768,0.95962524,-0.003189087,0.0032043457,0.0,-27.822876,20.951843,0.5477905,0,0.0,0.0,0.0,0.0
0.468292237,0.09663692,0.15403774,-0.98332787,-0.01558742,0.98806477,0.15324792,0.9951976,5.181384E-4,0.09788459,0.2737091,0.12233202,-0.9540011,-0.03469479,0.99248874,0.11731314,0.9611865,9.891965E-4,0.2758975,0.11895752,-0.0050811768,0.08874512,9.759506,0.0050811768,0.95991516,0.010665894,0.0,0.0,-27.822876,20.951843,0.5477905,0,0.0,0.0,0.0,0.0
0.472595215,0.09660858,0.15400034,-0.9833365,-0.015579258,0.98807067,0.15321116,0.9952005,5.181399E-4,0.097855315,0.27022368,0.122967474,-0.95491266,-0.034432787,0.99241024,0.11805228,0.9621816,9.797753E-4,0.27240688,0.104599,0.0140686035,-0.088150024,9.759506,0.0050811768,0.95962524,-0.004257202,-0.0010528564,0.003189087,-27.822876,20.951843,0.5477905,0,0.0,0.0,0.0,0.0
0.476898194,0.096576415,0.15395789,-0.98334634,-0.015585665,0.9880772,0.15316789,0.9952035,5.3370127E-4,0.097824484,0.26680446,0.12358941,-0.9557933,-0.03417097,0.99233294,0.11877554,0.96314466,9.7054255E-4,0.26898202,0.03277588,0.033065796,-0.04953003,9.759506,0.0052337646,0.95932007,0.007461548,-0.01171875,0.01171875,-27.822876,20.951843,0.5477905,0,0.0,0.0,0.0,0.0
0.481201172,0.09655915,0.15393509,-0.98335147,-0.0155963665,0.9880806,0.15314394,0.995205,5.492619E-4,0.09780908,0.26345018,0.12419802,-0.95664454,-0.03390981,0.99225694,0.119483046,0.9640768,9.618057E-4,0.2656218,0.12854004,0.042495728,-0.039794922,9.759506,0.0053863525,0.9591675,0.009597778,-0.017044067,0.0021362305,-27.822876,20.951843,0.5477905,0,0.0,0.0,0.0,0.0
0.485504151,0.096457,0.16226973,-0.9820207,-0.016400559,0.98674625,0.16143967,0.995202,5.3370045E-4,0.0978399,0.2601599,0.124793954,-0.95746714,-0.033649612,0.9921822,0.12017547,0.964979,9.535549E-4,0.26232532,-0.015106201,-0.024383545,0.08439636,9.759506,0.0052337646,0.95947266,-0.011703491,0.007461548,-0.0021362305,-26.747131,21.310425,0.89416504,0,0.0,0.0,0.0,0.0
0.489807129,0.09642966,0.16223575,-0.98202896,-0.01637696,0.98675185,0.16140786,0.995205,5.1814225E-4,0.09780908,0.25621065,0.1250944,-0.95849234,-0.032638017,0.99214476,0.12076212,0.9660698,3.4274615E-4,0.2582809,0.06628418,-0.048171997,-0.06852722,9.759506,0.0050811768,0.9591675,0.004272461,-0.012771606,0.010650635,-26.747131,21.310425,0.89416504,0,0.0,0.0,0.0,0.0
0.494110108,0.09642253,0.1622269,-0.98203117,-0.016420407,0.98675334,0.1613947,0.995205,5.6326576E-4,0.09780908,0.25305453,0.12583911,-0.959233,-0.03243681,0.9920506,0.12158725,0.9669081,3.4625406E-4,0.25512472,0.0184021,0.104599,-0.0014953613,9.759506,0.0055236816,0.9591675,-0.0053253174,0.0063934326,0.008514404,-26.747131,21.310425,0.89416504,0,0.0,0.0,0.0,0.0
0.498413086,0.09690106,0.13038497,-0.98671675,-0.013308616,0.99146324,0.12970519,0.995205,5.6326576E-4,0.09780908,0.24995926,0.1265687,-0.9599483,-0.032235544,0.9919578,0.12239539,0.9677196,3.505943E-4,0.25202903,0.01361084,0.008834839,0.012863159,9.759506,0.0055236816,0.9591675,-0.0053253174,-0.003189087,-0.0053253174,-27.105713,21.669006,0.20141602,0,0.0,0.0,0.0,0.0
0.502716065,0.096946135,0.13044125,-0.98670495,-0.013320143,0.991456,0.12976058,0.9952005,5.632632E-4,0.097855315,0.2469444,0.12664504,-0.9607182,-0.031874612,0.991948,0.12256877,0.96850526,3.5484773E-4,0.24899279,0.004043579,0.02319336,0.103393555,9.759506,0.0055236816,0.95962524,0.012786865,0.007461548,-0.004257202,-27.105713,21.669006,0.20141602,0,0.0,0.0,0.0,0.0
0.507019043,0.096929125,0.13042001,-0.98670936,-0.013331411,0.99145865,0.12973815,0.995202,5.7882385E-4,0.0978399,0.2439884,0.126721,-0.9614632,-0.031520545,0.99193835,0.122738734,0.96926576,3.5901603E-4,0.24601576,0.05192566,-0.02003479,0.012557983,9.759506,0.0056762695,0.95947266,0.0010681152,-0.0063934326,0.013839722,-27.105713,21.669006,0.20141602,0,0.0,0.0,0.0,0.0
0.511322022,0.095622174,0.20658904,-0.97374403,-0.020794611,0.9784277,0.20554069,0.9952005,5.943827E-4,0.097855315,0.24108902,0.12679498,-0.96218455,-0.03117299,0.9919289,0.1229038,0.97000223,3.6341217E-4,0.24309574,0.01361084,0.07556152,0.041137695,9.759506,0.0058288574,0.95962524,0.026641846,-0.003189087,0.0,-26.567078,22.207642,2.1026611,0,0.0,0.0,0.0,0.0
0.515625,0.09563795,0.2066074,-0.97373855,-0.020861542,0.9784238,0.20555255,0.9951976,6.5506384E-4,0.09788459,0.2381979,0.12840074,-0.9626915,-0.031200308,0.9917223,0.12455291,0.97071534,3.6803156E-4,0.2402323,-0.0390625,0.12763977,0.055221558,9.759506,0.00642395,0.95991516,0.0010681152,-0.0021209717,0.0021362305,-26.567078,22.207642,2.1026611,0,0.0,0.0,0.0,0.0
0.519927979,0.09567049,0.20664527,-0.9737273,-0.020856459,0.9784158,0.20559107,0.9951946,6.3950225E-4,0.09791542,0.23536351,0.12997444,-0.9631774,-0.031219149,0.9915173,0.12616996,0.97140586,3.737722E-4,0.23742467,0.08544922,-0.015838623,0.08843994,9.759506,0.0062713623,0.96022034,-0.0053253174,0.010650635,0.0010681152,-26.567078,22.207642,2.1026611,0,0.0,0.0,0.0,0.0
0.524230957,0.0973128,0.10862995,-0.98930776,-0.011274236,0.9940821,0.1080452,0.99518996,6.3950924E-4,0.09796161,0.232585,0.13151708,-0.9636428,-0.03122866,0.9913138,0.12775625,0.97207457,3.790868E-4,0.23467183,0.008987427,-0.015838623,0.1550293,9.759354,0.0062713623,0.96066284,0.012786865,0.007461548,-0.008529663,-28.001404,22.207642,-0.31585693,0,0.0,0.0,0.0,0.0
0.528533936,0.09735311,0.10868093,-0.98929816,-0.011330427,0.9940765,0.10809088,0.99518543,6.861856E-4,0.09800785,0.22992335,0.13105997,-0.96434355,-0.030772999,0.9913744,0.12739658,0.9727221,3.8429524E-4,0.23197323,0.052078247,0.122543335,0.12104797,9.759354,0.006729126,0.9611206,-0.007446289,0.004272461,-0.0021362305,-28.001404,22.207642,-0.31585693,0,0.0,0.0,0.0,0.0
0.532836914,0.09735311,0.10868093,-0.98929816,-0.011330427,0.9940765,0.10809088,0.99518543,6.861856E-4,0.09800785,0.22731358,0.130613,-0.9650227,-0.030329864,0.9914334,0.12704334,0.9733492,3.9033307E-4,0.22932774,0.047286987,0.0028381348,-0.0034484863,9.759354,0.006729126,0.9611206,-0.004257202,-0.01171875,0.007461548,-28.001404,22.207642,-0.31585693,0,0.0,0.0,0.0,0.0
0.537139893,0.0969569,0.13840975,-0.9856176,-0.014224091,0.9903748,0.13767855,0.995187,6.706269E-4,0.097992435,0.224754,0.13017495,-0.96568114,-0.029897673,0.99149096,0.12669572,0.97395676,3.962501E-4,0.22673349,0.042495728,-0.04008484,-0.022445679,9.759354,0.006576538,0.960968,-0.0021209717,0.0010681152,0.0021362305,-26.38855,22.38617,0.5477905,0,0.0,0.0,0.0,0.0
0.541442871,0.09702834,0.1384935,-0.9855988,-0.014258072,0.99036306,0.1377593,0.9951795,6.8618153E-4,0.09806795,0.22222573,0.13033974,-0.9662439,-0.029608943,0.9914693,0.12693274,0.9745456,4.0173763E-4,0.22418922,0.037704468,0.055511475,0.16833496,9.759354,0.006729126,0.9617157,-0.004257202,-0.012771606,0.0021362305,-26.38855,22.38617,0.5477905,0,0.0,0.0,0.0,0.0
0.54574585,0.09701124,0.13847344,-0.9856034,-0.014269309,0.9903659,0.13773805,0.99518096,7.0174225E-4,0.098052524,0.21974817,0.1305029,-0.96678835,-0.02932586,0.99144787,0.1271659,0.9751158,4.074265E-4,0.22169596,0.047286987,0.041000366,-0.023040771,9.759354,0.006881714,0.9615631,0.01171875,0.0032043457,0.0010681152,-26.38855,22.38617,0.5477905,0,0.0,0.0,0.0,0.0
0.550048828,0.096699655,0.15788738,-0.9827109,-0.016153146,0.98745686,0.15706041,0.9951825,6.8618363E-4,0.09803712,0.21731846,0.13066238,-0.967316,-0.029047634,0.9914269,0.12739335,0.9756685,4.133128E-4,0.21925078,0.028137207,-0.049819946,-0.032470703,9.759354,0.006729126,0.9614105,0.007461548,-0.0010528564,0.010650635,-27.464294,22.38617,0.89416504,0,0.0,0.0,0.0,0.0
0.554351807,0.096643865,0.1578196,-0.9827273,-0.016121738,0.98746765,0.15699543,0.9951884,6.7062787E-4,0.09797702,0.21418229,0.13165313,-0.96788085,-0.029253924,0.99129546,0.12836444,0.9763555,8.20924E-4,0.21616931,0.052078247,-0.04966736,-0.15637207,9.759354,0.006576538,0.9608154,-0.0053253174,-0.010650635,-0.007461548,-27.464294,22.38617,0.89416504,0,0.0,0.0,0.0,0.0
0.558868408,0.0965958,0.15776119,-0.9827414,-0.01613956,0.9874771,0.15693502,0.9951929,7.017506E-4,0.09793233,0.21184863,0.13217743,-0.968323,-0.029055547,0.9912257,0.12894696,0.9768705,8.179181E-4,0.21383029,0.056869507,0.08409119,-0.098464966,9.759354,0.006881714,0.9603729,0.0010681152,0.009597778,-0.004257202,-27.464294,22.38617,0.89416504,0,0.0,0.0,0.0,0.0
0.56338501,0.095088035,0.23174295,-0.9681185,-0.023370573,0.9727768,0.23056258,0.9951945,7.017408E-4,0.0979154,0.20955977,0.13269003,-0.9687508,-0.02885882,0.99115723,0.12951632,0.97736984,8.1559474E-4,0.21153595,0.08544922,0.012268066,-0.060012817,9.759506,0.006881714,0.96022034,-0.015960693,0.0010681152,0.0063934326,-26.567078,21.131897,2.4490356,0,0.0,0.0,0.0,0.0
0.567932129,0.09510091,0.23175853,-0.9681136,-0.023389585,0.97277325,0.23057638,0.9951929,7.157545E-4,0.09793233,0.20727198,0.13468766,-0.96896726,-0.028976323,0.99088776,0.1315363,0.9778541,8.1331766E-4,0.20928602,0.037704468,0.031280518,0.059555054,9.759354,0.007019043,0.9603729,0.0138549805,0.019165039,-0.0032043457,-26.567078,21.131897,2.4490356,0,0.0,0.0,0.0,0.0
0.572448731,0.09508633,0.23174088,-0.96811914,-0.023384292,0.97277725,0.23055917,0.9951944,7.157556E-4,0.09791692,0.20502956,0.13664512,-0.9691703,-0.029082874,0.9906197,0.13351679,0.9783236,8.1136636E-4,0.20708035,0.023345947,0.012130737,-0.021697998,9.759354,0.007019043,0.96022034,-0.015960693,-0.0010528564,0.008514404,-26.567078,21.131897,2.4490356,0,0.0,0.0,0.0,0.0
0.57699585,0.09657587,0.16028796,-0.9823344,-0.016435744,0.9870701,0.15944484,0.99518996,7.468721E-4,0.09796161,0.20283096,0.13856257,-0.9693606,-0.029178532,0.99035335,0.13545795,0.97877896,8.094542E-4,0.20491739,0.12869263,0.07885742,0.10714722,9.759354,0.0073242188,0.96066284,-0.006378174,-0.007446289,0.004257202,-27.464294,22.027588,0.89416504,0,0.0,0.0,0.0,0.0
0.581512451,0.096563414,0.16027258,-0.9823382,-0.016416486,0.9870725,0.15943128,0.9951914,7.313133E-4,0.0979462,0.2007191,0.13899778,-0.96973777,-0.02897217,0.9902924,0.13594723,0.97922033,8.0820255E-4,0.20279767,-0.019744873,-0.07420349,-0.017196655,9.759354,0.007171631,0.96051025,0.004272461,0.014907837,-0.008529663,-27.464294,22.027588,0.89416504,0,0.0,0.0,0.0,0.0
0.586059571,0.096582934,0.16029668,-0.9823323,-0.016392272,0.98706865,0.15945788,0.99518996,7.017486E-4,0.09796161,0.19864844,0.13942394,-0.97010297,-0.028767584,0.99023247,0.13642621,0.97964853,8.0666476E-4,0.20071903,0.052078247,-0.054763794,0.035324097,9.759354,0.006881714,0.96066284,0.008529663,0.0021362305,-0.0032043457,-27.464294,22.027588,0.89416504,0,0.0,0.0,0.0,0.0
0.590576172,0.09672769,0.15421765,-0.98329073,-0.01580456,0.9880367,0.15340728,0.99518543,7.017454E-4,0.09800785,0.19661894,0.13984203,-0.9704562,-0.02856481,0.9901735,0.13689592,0.9800638,8.045665E-4,0.19868143,-0.024536133,-0.016448975,0.116256714,9.759354,0.006881714,0.9611206,-0.003189087,-0.010650635,0.0053253174,-26.029968,22.027588,0.89416504,0,0.0,0.0,0.0,0.0
0.595123291,0.096739024,0.15423092,-0.9832875,-0.015821766,0.98803455,0.15341891,0.99518406,7.157482E-4,0.098021716,0.19463383,0.14012985,-0.97081476,-0.028340483,0.9901328,0.13723642,0.9804665,8.0251007E-4,0.19668469,0.037704468,0.055221558,0.049087524,9.759354,0.007019043,0.96125793,-0.015960693,-0.01171875,0.0053253174,-26.029968,22.027588,0.89416504,0,0.0,0.0,0.0,0.0
0.599639893,0.09680239,0.15430507,-0.9832697,-0.015825005,0.98802304,0.15349305,0.9951778,7.01751E-4,0.098084874,0.192688,0.14041217,-0.971162,-0.028119773,0.9900928,0.13756996,0.9808571,8.0077484E-4,0.19472738,0.018707275,-0.064331055,0.16818237,9.759201,0.006881714,0.9618683,0.008529663,-0.0021209717,-0.004257202,-26.029968,22.027588,0.89416504,0,0.0,0.0,0.0,0.0
0.604187012,0.097240366,0.12393844,-0.9875139,-0.0128633045,0.9922897,0.12327118,0.9951778,7.1575487E-4,0.098084874,0.19078179,0.1406903,-0.97149813,-0.027902488,0.99005336,0.13789797,0.98123586,7.987944E-4,0.19280975,-0.038757324,0.040863037,-0.004196167,9.759201,0.007019043,0.9618683,0.0010681152,-0.01171875,0.0010681152,-26.029968,22.027588,0.20141602,0,0.0,0.0,0.0,0.0
0.608703614,0.097240366,0.12393844,-0.9875139,-0.0128633045,0.9922897,0.12327118,0.9951778,7.1575487E-4,0.098084874,0.18893,0.14035563,-0.9719083,-0.027572807,0.99010086,0.13762295,0.9816034,7.971336E-4,0.19092976,0.071380615,-0.002243042,0.0053863525,9.759201,0.007019043,0.9618683,0.0,-0.004257202,-0.0021362305,-26.029968,22.027588,0.20141602,0,0.0,0.0,0.0,0.0
0.613250733,0.09727069,0.1239742,-0.98750645,-0.012856604,0.99228525,0.12330774,0.9951749,7.0174894E-4,0.09811415,0.18711436,0.14002764,-0.9723068,-0.027250834,0.9901473,0.1373527,0.9819601,7.95506E-4,0.18908665,0.061813354,-0.026031494,0.091278076,9.759201,0.006881714,0.9621582,-0.008514404,-0.010650635,-0.007461548,-26.029968,22.027588,0.20141602,0,0.0,0.0,0.0,0.0
0.617767334,0.09773917,0.078888044,-0.9920805,-0.008419573,0.9968832,0.07844045,0.99517643,6.8619015E-4,0.09809874,0.18533482,0.13970691,-0.9726936,-0.026936319,0.9901926,0.13708787,0.9823062,7.9363084E-4,0.18728034,-0.019592285,-0.025878906,-0.061798096,9.759201,0.006729126,0.9620056,0.004272461,-0.008514404,0.014892578,-28.89862,20.951843,-1.1810303,0,0.0,0.0,0.0,0.0
0.622283936,0.097630925,0.078737475,-0.99210316,-0.008441212,0.9968952,0.07828711,0.9951869,7.3131005E-4,0.09799243,0.18324395,0.13855624,-0.9732542,-0.025632063,0.99035454,0.13616472,0.98273325,-4.8486727E-6,0.18502797,0.12390137,0.08380127,-0.017654419,9.759354,0.007171631,0.960968,-0.003189087,-0.007446289,0.01171875,-28.89862,20.951843,-1.1810303,0,0.0,0.0,0.0,0.0
0.626831055,0.097646125,0.078758605,-0.9921,-0.008444494,0.9968935,0.07830801,0.99518543,7.3130894E-4,0.09800785,0.18156011,0.13736407,-0.9737387,-0.025188314,0.9905206,0.13503495,0.9830572,9.8744895E-6,0.183299,-0.09156799,-0.0023956299,0.020492554,9.759354,0.007171631,0.9611206,-0.013824463,-0.020233154,-0.0032043457,-28.89862,20.951843,-1.1810303,0,0.0,0.0,0.0,0.0
0.631347657,0.097359255,0.10727456,-0.98945105,-0.011283529,0.99422914,0.10668232,0.9951853,7.779881E-4,0.098007835,0.17990895,0.13619597,-0.97420913,-0.024757463,0.9906819,0.1339269,0.9833717,2.4303166E-5,0.1816044,0.09516907,0.14559937,0.034866333,9.759354,0.0076293945,0.9611206,0.008529663,-0.0010528564,0.0010681152,-27.28424,21.84906,-0.31585693,0,0.0,0.0,0.0,0.0
0.635894776,0.09731082,0.10721392,-0.98946244,-0.011301894,0.99423575,0.106619634,0.9951899,8.075554E-4,0.097961605,0.17827542,0.1356186,-0.9745899,-0.024442015,0.9907611,0.13339788,0.983677,3.937685E-5,0.17994316,0.06643677,0.04953003,-0.12269592,9.759354,0.0079193115,0.96066284,-0.008514404,-0.019165039,0.007461548,-27.28424,21.84906,-0.31585693,0,0.0,0.0,0.0,0.0
0.640411377,0.09731082,0.10721392,-0.98946244,-0.011301894,0.99423575,0.106619634,0.9951899,8.075554E-4,0.097961605,0.17667289,0.1350515,-0.9749604,-0.024134912,0.9908386,0.13287745,0.9839737,5.474041E-5,0.17831376,0.061660767,0.030380249,0.011367798,9.759354,0.0079193115,0.96066284,0.0063934326,0.0,0.0,-27.28424,21.84906,-0.31585693,0,0.0,0.0,0.0,0.0
0.644958496,0.09732381,0.109639764,-0.9891952,-0.011590557,0.99397105,0.10902875,0.9951853,8.5423095E-4,0.098007835,0.17510165,0.13449572,-0.97532064,-0.023835689,0.99091417,0.13236678,0.9842618,6.97967E-5,0.1767165,0.028137207,0.087387085,0.092315674,9.759354,0.008377075,0.9611206,0.005340576,-0.007446289,-0.004257202,-26.208496,20.414734,-0.31585693,0,0.0,0.0,0.0,0.0
0.649475098,0.0973493,0.10967259,-0.9891891,-0.011626221,0.9939674,0.109058194,0.9951824,8.8379194E-4,0.09803711,0.17356074,0.13399938,-0.9756643,-0.023553617,0.9909814,0.13191311,0.9845415,8.5485364E-5,0.17515165,0.037704468,0.09666443,0.087249756,9.759354,0.008666992,0.9614105,0.0,0.0032043457,0.0021362305,-26.208496,20.414734,-0.31585693,0,0.0,0.0,0.0,0.0
0.654022217,0.09732919,0.10964669,-0.9891939,-0.011668173,0.99397016,0.109028056,0.9951838,9.3047245E-4,0.09802169,0.17205054,0.13351358,-0.9759983,-0.023279415,0.99104697,0.13146847,0.98481303,1.01451486E-4,0.17361829,0.10954285,0.12973022,-0.022735596,9.759354,0.009124756,0.96125793,-0.012756348,0.0063934326,0.0053253174,-26.208496,20.414734,-0.31585693,0,0.0,0.0,0.0,0.0
0.658538819,0.09731692,0.10820269,-0.98935413,-0.011523613,0.99412847,0.10759132,0.99518675,9.304752E-4,0.09799242,0.1705694,0.13303697,-0.9763233,-0.023012867,0.9911111,0.13103151,0.9850769,1.18031894E-4,0.17211479,0.07601929,-0.028274536,-0.07511902,9.759354,0.009124756,0.960968,0.0010681152,0.0053253174,-0.0032043457,-26.747131,22.744751,-0.14343262,0,0.0,0.0,0.0,0.0
0.663085938,0.09730347,0.10818683,-0.9893572,-0.011505,0.99413013,0.107577235,0.99518824,9.1491675E-4,0.097977,0.16911736,0.13254106,-0.9766433,-0.022748,0.9911775,0.13057442,0.9853334,1.3428075E-4,0.17064038,0.09516907,-0.018539429,-0.0031433105,9.759354,0.008972168,0.9608154,-0.006378174,0.011703491,0.0063934326,-26.747131,22.744751,-0.14343262,0,0.0,0.0,0.0,0.0
0.667602539,0.09729,0.10817098,-0.9893602,-0.011486391,0.9941318,0.107563145,0.9951897,8.993583E-4,0.09796159,0.16769359,0.13205473,-0.97695464,-0.022489417,0.9912424,0.13012572,0.98558265,1.4989346E-4,0.16919483,0.023345947,-0.04232788,-0.055664063,9.759354,0.00881958,0.96066284,-0.010650635,0.0032043457,0.004257202,-26.747131,22.744751,-0.14343262,0,0.0,0.0,0.0,0.0
0.672149658,0.09653711,0.16084917,-0.9822464,-0.016671,0.9869785,0.15998562,0.9951897,9.30478E-4,0.09796159,0.16629742,0.13157776,-0.9772576,-0.022236919,0.9913058,0.12968521,0.9858249,1.6488275E-4,0.1677775,0.032928467,0.062698364,0.006591797,9.759354,0.009124756,0.96066284,-0.0053253174,0.010650635,-0.004257202,-27.28424,20.773315,0.72021484,0,0.0,0.0,0.0,0.0
0.67666626,0.096539564,0.16085236,-0.98224574,-0.016656026,0.98697805,0.1599903,0.9951897,9.1491814E-4,0.09796159,0.16490518,0.1321644,-0.97741437,-0.022166727,0.9912278,0.13029236,0.9860603,1.8019463E-4,0.16638824,-0.019744873,-0.018539429,-0.0029907227,9.759354,0.008972168,0.96066284,0.0032043457,0.007461548,0.0010681152,-27.28424,20.773315,0.72021484,0,0.0,0.0,0.0,0.0
0.681182862,0.096532494,0.16084315,-0.9822479,-0.01669945,0.9869795,0.15997678,0.9951897,9.6004165E-4,0.09796159,0.16354057,0.13273934,-0.97756577,-0.022096014,0.991151,0.1308875,0.98628914,1.948891E-4,0.16502641,-0.06285095,0.09591675,-0.022140503,9.759354,0.009414673,0.96066284,-0.003189087,0.020233154,-0.0053253174,-27.28424,20.773315,0.72021484,0,0.0,0.0,0.0,0.0
0.685729981,0.09651981,0.16082664,-0.9822519,-0.016681606,0.98698235,0.15996197,0.99519134,9.4603933E-4,0.09794619,0.16220303,0.13330254,-0.977712,-0.022026004,0.9910754,0.13147041,0.9865116,2.1019214E-4,0.16369155,0.032928467,-0.018844604,-0.021987915,9.759354,0.009277344,0.96051025,-0.004257202,0.020233154,0.01171875,-27.28424,20.773315,0.72021484,0,0.0,0.0,0.0,0.0
0.690246582,0.096534684,0.160846,-0.9822472,-0.016685974,0.986979,0.15998095,0.9951897,9.4603776E-4,0.09796159,0.1612654,0.13383089,-0.97779477,-0.022288581,0.99100405,0.13196282,0.98665935,5.1261834E-4,0.16279759,-0.014953613,-0.014053345,0.040100098,9.759354,0.009277344,0.96066284,0.0010681152,0.0063934326,-0.004257202,-27.28424,20.773315,0.72021484,0,0.0,0.0,0.0,0.0
0.694793701,0.096522234,0.16082978,-0.98225105,-0.016666628,0.98698175,0.1599666,0.99519134,9.3047944E-4,0.09794619,0.15997298,0.13437225,-0.97793293,-0.022211816,0.9909308,0.13252474,0.9868715,5.2128674E-4,0.16150682,0.11911011,-0.018692017,-0.031570435,9.759354,0.009124756,0.96051025,-0.011703491,0.019165039,-0.0010681152,-27.28424,20.773315,0.72021484,0,0.0,0.0,0.0,0.0
0.699310303,0.097256854,0.109865226,-0.98917687,-0.011773788,0.993946,0.10923731,0.99518967,0.0010222809,0.09796158,0.15870592,0.13490242,-0.9780664,-0.022134779,0.9908588,0.13307513,0.9870778,5.2947056E-4,0.16024119,0.004196167,0.018692017,0.10714722,9.759354,0.010025024,0.96066284,-0.0053253174,0.007461548,0.019165039,-26.747131,22.38617,-0.14343262,0,0.0,0.0,0.0,0.0
0.703857422,0.09725854,0.109867245,-0.9891765,-0.011758594,0.99394584,0.10924083,0.99518967,0.001006721,0.09796158,0.15748675,0.13440245,-0.97833216,-0.021897757,0.9909267,0.13260767,0.9872783,5.3932675E-4,0.15900095,0.023345947,-0.024230957,0.0018005371,9.759354,0.0098724365,0.96066284,0.021316528,-0.003189087,-0.017044067,-26.747131,22.38617,-0.14343262,0,0.0,0.0,0.0,0.0
0.708374024,0.097288735,0.10990338,-0.9891695,-0.011765513,0.9939419,0.109276436,0.9951867,0.001006718,0.09799241,0.1562916,0.1339125,-0.978591,-0.021666354,0.99099296,0.13214928,0.98747325,5.486746E-4,0.15778528,0.12390137,0.004486084,0.06373596,9.759354,0.0098724365,0.960968,-0.0095825195,0.0021362305,-0.0032043457,-26.747131,22.38617,-0.14343262,0,0.0,0.0,0.0,0.0
0.712921143,0.09688347,0.14528047,-0.98463553,-0.015238831,0.98938996,0.14448255,0.99517906,0.0010067261,0.09806944,0.15512057,0.13343303,-0.9788428,-0.021440893,0.99105763,0.13170032,0.9876628,5.5783545E-4,0.15659435,0.033081055,-0.019439697,0.22579956,9.759201,0.0098724365,0.9617157,-0.008514404,0.0,0.01171875,-26.38855,21.310425,0.5477905,0,0.0,0.0,0.0,0.0
0.717437744,0.09686063,0.14525233,-0.98464197,-0.015278036,0.98939407,0.14445043,0.99518067,0.001051835,0.0980525,0.15395886,0.13367018,-0.9789939,-0.021331066,0.9910257,0.13195843,0.987847,5.6681316E-4,0.15542851,0.018554688,0.10939026,-0.03741455,9.759354,0.010314941,0.9615631,0.0010681152,-0.003189087,-0.0063934326,-26.38855,21.310425,0.5477905,0,0.0,0.0,0.0,0.0
0.721984864,0.096894234,0.14529371,-0.9846326,-0.015271475,0.98938805,0.14449263,0.9951775,0.0010362883,0.098084845,0.15281977,0.13390198,-0.97914064,-0.021223612,0.9909944,0.13221057,0.98802614,5.7651364E-4,0.15428542,0.071380615,-0.0149383545,0.06283569,9.759201,0.0101623535,0.9618683,-0.0053253174,-0.015975952,-0.007461548,-26.38855,21.310425,0.5477905,0,0.0,0.0,0.0,0.0
0.726501465,0.09706812,0.13692746,-0.9858137,-0.014429066,0.99058056,0.13616881,0.99517316,0.0010067201,0.09812953,0.15170403,0.13413,-0.979283,-0.02111769,0.9909636,0.13245846,0.98820037,5.857092E-4,0.15316568,0.042648315,-0.1056366,0.12944031,9.759201,0.0098724365,0.9623108,-0.0021209717,-0.0053253174,-0.0053253174,-25.491333,20.773315,0.3753662,0,0.0,0.0,0.0,0.0
0.731048584,0.09696107,0.13679661,-0.98584247,-0.014416836,0.9905987,0.13603865,0.99518377,0.0010222748,0.098021686,0.15061492,0.13418597,-0.9794434,-0.02098744,0.990956,0.13253587,0.9883697,5.941294E-4,0.15206897,0.061660767,0.11924744,0.073028564,9.759354,0.010025024,0.96125793,0.0063934326,-0.014907837,0.0,-25.491333,20.773315,0.3753662,0,0.0,0.0,0.0,0.0
0.735565186,0.097001515,0.13684604,-0.9858316,-0.0144727,0.9905919,0.13608277,0.99517906,0.0010674098,0.09806944,0.1495453,0.1342382,-0.9796001,-0.020859273,0.9909489,0.13260901,0.9885348,6.026923E-4,0.15099186,0.028289795,0.09965515,0.12045288,9.759201,0.010467529,0.9617157,0.0063934326,-0.028762817,0.004257202,-25.491333,20.773315,0.3753662,0,0.0,0.0,0.0,0.0
0.740081787,0.09676304,0.1468742,-0.98441094,-0.015410421,0.98915464,0.14606719,0.9951881,0.0010362831,0.09797699,0.14849772,0.13429037,-0.9797523,-0.020734701,0.9909418,0.1326814,0.9886954,6.119867E-4,0.14993708,0.037704468,-0.0101623535,0.10220337,9.759354,0.0101623535,0.9608154,0.0021362305,-0.020233154,-0.0021362305,-26.92566,22.566223,0.72021484,0,0.0,0.0,0.0,0.0
0.744628907,0.09678627,0.14690173,-0.98440456,-0.015463586,0.98915046,0.14608958,0.995185,0.0010829591,0.098007806,0.14746511,0.13454226,-0.9798737,-0.020641524,0.99090767,0.13295086,0.98885185,6.204726E-4,0.14890146,0.07601929,0.0947113,0.07795715,9.759354,0.010620117,0.9611206,-0.0021209717,-0.029815674,0.004257202,-26.92566,22.566223,0.72021484,0,0.0,0.0,0.0,0.0
0.749145508,0.09670019,0.14679976,-0.9844282,-0.015424963,0.98916566,0.14599103,0.995194,0.0010674091,0.097916886,0.14645351,0.13478965,-0.97999144,-0.020550763,0.99087405,0.13321528,0.9890041,6.297223E-4,0.14788702,0.013763428,0.07571411,0.050125122,9.759354,0.010467529,0.96022034,-0.004257202,-0.019165039,-0.0053253174,-26.92566,22.566223,0.72021484,0,0.0,0.0,0.0,0.0
0.753692627,0.09689766,0.12810683,-0.9870155,-0.013587497,0.9917599,0.1273887,0.99520165,0.0010674006,0.09783987,0.1454603,0.13503003,-0.98010623,-0.02046045,0.9908413,0.13347243,0.98915255,6.3847605E-4,0.14689083,0.0758667,0.023040771,0.09875488,9.759506,0.010467529,0.95947266,-0.0010528564,-0.0234375,0.0063934326,-27.642822,21.131897,0.0289917,0,0.0,0.0,0.0,0.0
0.758209229,0.09679824,0.12797679,-0.98704207,-0.013516455,0.99177665,0.12726511,0.99521226,0.0010222722,0.097732015,0.14300093,0.13528247,-0.9804332,-0.019971212,0.99080694,0.13380097,0.989521,4.4677936E-4,0.14438808,0.07092285,-0.053115845,0.06150818,9.759659,0.010025024,0.9584198,-0.006378174,-0.0234375,0.0021362305,-27.642822,21.131897,0.0289917,0,0.0,0.0,0.0,0.0
0.762756348,0.096647836,0.12778011,-0.98708236,-0.0134916045,0.991802,0.12707008,0.99522716,0.0010362752,0.09757947,0.14208046,0.13513644,-0.98058724,-0.019835752,0.9908269,0.13367352,0.9896563,4.5828923E-4,0.14345767,-0.029785156,0.056869507,0.04862976,9.759811,0.0101623535,0.95692444,-0.008514404,-0.028762817,0.0053253174,-27.642822,21.131897,0.0289917,0,0.0,0.0,0.0,0.0
0.767272949,0.0970137,0.09579092,-0.99066263,-0.0104031805,0.9954009,0.09523032,0.9952287,0.0010673963,0.09756406,0.14117536,0.1349894,-0.9807382,-0.019702567,0.99084693,0.13354464,0.98978853,4.6984892E-4,0.14254281,0.022888184,0.10923767,-0.05177307,9.759811,0.010467529,0.95677185,-0.004257202,-0.038345337,0.0010681152,-27.105713,22.38617,-0.48980713,0,0.0,0.0,0.0,0.0
0.771820069,0.09696406,0.09573059,-0.9906733,-0.010453148,0.9954066,0.09516486,0.995233,0.0011280839,0.09751935,0.14030035,0.1342073,-0.98097104,-0.019482527,0.99095315,0.13278653,0.9899173,4.8179989E-4,0.14164577,-0.020202637,0.017654419,0.12583923,9.759811,0.011062622,0.95632935,-0.003189087,-0.020233154,-0.004257202,-27.105713,22.38617,-0.48980713,0,0.0,0.0,0.0,0.0
0.7762146,0.09696553,0.09573237,-0.990673,-0.010437907,0.9954065,0.095168136,0.995233,0.0011125242,0.09751935,0.13944142,0.13343954,-0.98119825,-0.019269124,0.99105686,0.13204187,0.9900428,4.947256E-4,0.14076562,0.022888184,-0.039627075,-0.0034484863,9.759811,0.010910034,0.95632935,-0.003189087,-0.020233154,-0.012786865,-27.105713,22.38617,-0.48980713,0,0.0,0.0,0.0,0.0
0.780578614,0.0955077,0.19019607,-0.9770894,-0.019662311,0.98174554,0.18918048,0.99523455,0.0011436455,0.097503945,0.1385993,0.1326871,-0.98141956,-0.019060975,0.9911578,0.13131185,0.9901651,5.0708157E-4,0.13990295,-0.010635376,0.06539917,-0.0368042,9.759811,0.01121521,0.95617676,-0.014892578,-0.013839722,-0.0010681152,-27.642822,21.131897,1.411438,0,0.0,0.0,0.0,0.0
0.784973145,0.0955476,0.19024733,-0.9770755,-0.019690992,0.9817355,0.1892291,0.9952301,0.0011592001,0.097548634,0.13773724,0.13384236,-0.98138404,-0.019121889,0.9910025,0.13247038,0.9902842,5.198128E-4,0.13905728,0.051620483,0.041290283,0.10160828,9.759811,0.011367798,0.95661926,0.0010681152,-0.0053253174,0.0021362305,-27.642822,21.131897,1.411438,0,0.0,0.0,0.0,0.0
0.789337158,0.09548107,0.19016184,-0.9770987,-0.019637922,0.98175216,0.1891485,0.9952375,0.001128089,0.09747312,0.1368931,0.13497537,-0.981347,-0.019180205,0.99084884,0.13360672,0.99040014,5.3260056E-4,0.13822922,0.15696716,-0.058944702,-0.18016052,9.759811,0.011062622,0.9558716,0.004272461,0.0021362305,0.0010681152,-27.642822,21.131897,1.411438,0,0.0,0.0,0.0,0.0
0.793701172,0.09595527,0.1638733,-0.9818035,-0.01709381,0.9864808,0.16298336,0.9952389,0.0011436505,0.09745925,0.13606445,0.13608384,-0.9813092,-0.019234454,0.9906972,0.13471875,0.99051327,5.445103E-4,0.13741618,0.022888184,0.03187561,-0.041152954,9.759811,0.01121521,0.95573425,-0.007446289,0.015975952,-0.0010681152,-28.720093,21.131897,0.72021484,0,0.0,0.0,0.0,0.0
0.798065186,0.09589702,0.16379477,-0.9818223,-0.01706057,0.98649377,0.16290775,0.99524504,0.0011280817,0.09739624,0.13526228,0.13664074,-0.9813426,-0.019213831,0.9906205,0.13528427,0.9906235,5.564931E-4,0.13661897,0.12809753,-0.039779663,-0.15068054,9.759949,0.011062622,0.9551239,-0.014892578,0.007461548,0.003189087,-28.720093,21.131897,0.72021484,0,0.0,0.0,0.0,0.0
0.802429199,0.09582173,0.16369328,-0.98184663,-0.017053636,0.98651063,0.16280654,0.9952524,0.0011436499,0.09732072,0.13447502,0.1371849,-0.981375,-0.019192059,0.9905453,0.13583699,0.9907311,5.679249E-4,0.13583645,-0.044281006,0.017501831,-0.18823242,9.759949,0.01121521,0.9543762,-0.0021209717,0.017028809,-0.008529663,-28.720093,21.131897,0.72021484,0,0.0,0.0,0.0,0.0
0.806823731,0.09570145,0.16896583,-0.9809647,-0.017545277,0.9856212,0.1680562,0.9952554,0.0011280759,0.097289935,0.1337019,0.1377161,-0.98140615,-0.019169694,0.99047154,0.13637663,0.99083614,5.794394E-4,0.13506791,0.027389526,-0.006286621,-0.092178345,9.760101,0.011062622,0.9540863,0.0021362305,-0.014907837,-0.008529663,-27.642822,21.84906,1.0665894,0,0.0,0.0,0.0,0.0
0.811187744,0.09570145,0.16896583,-0.9809647,-0.017545277,0.9856212,0.1680562,0.9952554,0.0011280759,0.097289935,0.13294175,0.13834253,-0.98142135,-0.019160807,0.9903843,0.13701047,0.9909386,5.904121E-4,0.13431416,-0.08274841,-0.011062622,-0.0012054443,9.760101,0.011062622,0.9540863,0.007461548,0.0,-0.012786865,-27.642822,21.84906,1.0665894,0,0.0,0.0,0.0,0.0
0.815551758,0.095656864,0.1689101,-0.98097867,-0.017532066,0.98563087,0.16800155,0.99526,0.0011280811,0.0972437,0.13219671,0.13895638,-0.9814353,-0.019151155,0.99029833,0.13763165,0.9910385,6.011654E-4,0.13357535,0.046539307,-0.020629883,-0.11566162,9.760101,0.011062622,0.95362854,-0.010650635,0.007461548,0.003189087,-27.642822,21.84906,1.0665894,0,0.0,0.0,0.0,0.0
0.819915772,0.09589846,0.15217975,-0.98368937,-0.0158861,0.98835224,0.15135239,0.9952644,0.0011125262,0.097199,0.13146564,0.1395568,-0.98144823,-0.019140517,0.9902139,0.13823934,0.99113595,6.1170367E-4,0.13285029,0.08963013,-0.025268555,-0.076919556,9.760101,0.010910034,0.95318604,-0.004257202,0.010650635,-0.007461548,-27.28424,21.84906,0.72021484,0,0.0,0.0,0.0,0.0
0.824279785,0.09590054,0.15218233,-0.98368883,-0.015872573,0.98835194,0.1513563,0.9952644,0.0010985223,0.097199,0.13154961,0.14072946,-0.9812696,-0.019409174,0.9900479,0.1393864,0.99111956,7.0940686E-4,0.13297185,0.104003906,-0.034713745,-3.0517578E-4,9.760101,0.010772705,0.95318604,-0.013824463,0.012771606,-0.0032043457,-27.28424,21.84906,0.72021484,0,0.0,0.0,0.0,0.0
0.828674317,0.09589254,0.15217242,-0.9836911,-0.015823353,0.9883534,0.15135115,0.9952659,0.0010518446,0.09718359,0.13083711,0.14095871,-0.9813319,-0.019346694,0.9900152,0.13962656,0.9912151,7.1718916E-4,0.13225783,0.14230347,-0.1348114,-0.04324341,9.760101,0.010314941,0.95303345,0.0,0.013839722,0.0021362305,-27.28424,21.84906,0.72021484,0,0.0,0.0,0.0,0.0
0.83303833,0.095570475,0.1758304,-0.9797704,-0.018072214,0.98442006,0.17490199,0.9952586,9.91154E-4,0.09725913,0.13013878,0.14118317,-0.98139256,-0.019284163,0.98998326,0.13986182,0.9913083,7.238823E-4,0.13155782,0.027389526,0.05731201,0.09965515,9.760101,0.009719849,0.9537811,0.01171875,0.008529663,-0.0095825195,-27.28424,20.773315,1.0665894,0,0.0,0.0,0.0,0.0
0.837402344,0.09561105,0.17588301,-0.97975695,-0.018116215,0.9844106,0.17495053,0.9952539,0.0010222845,0.09730686,0.1294469,0.14187796,-0.9813838,-0.019283691,0.9898839,0.14056325,0.9913989,7.2922773E-4,0.13087332,0.15203857,0.066589355,0.13272095,9.759949,0.010025024,0.9542389,-0.01914978,0.011703491,0.013839722,-27.28424,20.773315,1.0665894,0,0.0,0.0,0.0,0.0
0.841766358,0.09557997,0.17584272,-0.97976726,-0.018106608,0.98441786,0.174911,0.99525714,0.0010222718,0.097274534,0.12876968,0.14255983,-0.98137414,-0.019283175,0.9897859,0.14125158,0.991487,7.3508883E-4,0.13020341,0.084854126,0.009124756,-0.082458496,9.760101,0.010025024,0.9539337,-0.0053253174,0.009597778,0.0053253174,-27.28424,20.773315,1.0665894,0,0.0,0.0,0.0,0.0
0.846130371,0.09626365,0.14103232,-0.9853138,-0.014755125,0.9900044,0.14026216,0.99524647,0.0010362808,0.09738238,0.1281053,0.14322717,-0.9813639,-0.019281551,0.9896895,0.14192532,0.9915731,7.4083253E-4,0.1295461,-0.049072266,0.018554688,0.28520203,9.759949,0.0101623535,0.9549866,-0.006378174,0.0021362305,-0.004257202,-27.642822,21.490479,0.3753662,0,0.0,0.0,0.0,0.0
0.850524903,0.096292086,0.14106879,-0.9853058,-0.0147627955,0.9899993,0.14029802,0.9952436,0.0010362777,0.09741166,0.12746981,0.14318329,-0.981453,-0.019189792,0.9896959,0.1418935,0.9916568,7.467415E-4,0.12890399,0.099365234,0.004196167,0.05986023,9.759949,0.0101623535,0.9552765,-0.0021209717,-0.012771606,0.0095825195,-27.642822,21.490479,0.3753662,0,0.0,0.0,0.0,0.0
0.854888916,0.096261494,0.14102957,-0.98531437,-0.014770188,0.99000484,0.14025792,0.99524647,0.0010518405,0.09738238,0.12684758,0.143141,-0.9815398,-0.019100098,0.989702,0.14186297,0.9917383,7.525322E-4,0.1282753,0.099365234,0.02798462,-0.049987793,9.759949,0.010314941,0.9549866,-0.014892578,-0.0063934326,-0.010650635,-27.642822,21.490479,0.3753662,0,0.0,0.0,0.0,0.0
0.85925293,0.095436245,0.18995923,-0.9771426,-0.019547243,0.9817915,0.18895385,0.9952436,0.0010673972,0.09741166,0.12623708,0.14309879,-0.98162466,-0.019012358,0.9897081,0.14183219,0.9918179,7.5851835E-4,0.1276585,0.022750854,0.05656433,0.05986023,9.759949,0.010467529,0.9552765,-0.010650635,0.004272461,0.0010681152,-25.491333,21.84906,1.7578125,0,0.0,0.0,0.0,0.0
0.863616944,0.09540813,0.18992715,-0.9771515,-0.01953857,0.98179764,0.18892248,0.99524647,0.0010674002,0.09738238,0.1256205,0.14403953,-0.9815662,-0.019051492,0.98957163,0.14277609,0.99189544,7.646959E-4,0.12705465,-0.029922485,-0.0056915283,-0.049987793,9.759949,0.010467529,0.9549866,0.019180298,-0.007446289,0.01171875,-25.491333,21.84906,1.7578125,0,0.0,0.0,0.0,0.0
0.868011475,0.0953554,0.18986697,-0.9771683,-0.019568045,0.9818092,0.18885921,0.99525094,0.0011125286,0.097336136,0.12501568,0.14496067,-0.9815078,-0.019088548,0.9894371,0.14370045,0.99197114,7.7075005E-4,0.12646224,0.037109375,-0.044418335,0.07496643,9.759949,0.010910034,0.9545288,0.0138549805,-0.007446289,-0.0032043457,-25.491333,21.84906,1.7578125,0,0.0,0.0,0.0,0.0
0.872375489,0.09620865,0.14035107,-0.9854164,-0.014818866,0.99010116,0.1395715,0.9952509,0.0011747679,0.09733613,0.12442199,0.14586206,-0.9814497,-0.019124389,0.98930466,0.14460498,0.9920451,7.7758566E-4,0.12588076,0.032333374,0.17521667,-0.02558899,9.759949,0.011520386,0.9545288,0.024505615,-0.015975952,-0.01171875,-24.954224,20.951843,0.5477905,0,0.0,0.0,0.0,0.0
0.876739502,0.096189596,0.14032853,-0.98542154,-0.014843649,0.9901044,0.13954645,0.9952524,0.0012043334,0.09732072,0.123859115,0.14575186,-0.9815372,-0.019035317,0.9893209,0.14450565,0.9921172,7.855293E-4,0.12531084,0.089782715,0.08395386,-0.030227661,9.759949,0.011810303,0.9543762,-0.008514404,-0.010650635,0.013839722,-24.954224,20.951843,0.5477905,0,0.0,0.0,0.0,0.0
0.881103516,0.09621744,0.1403615,-0.9854141,-0.014866503,0.9900996,0.13957731,0.9952493,0.0012198894,0.09735153,0.12330711,0.14564344,-0.9816229,-0.018948628,0.98933685,0.14440773,0.9921877,7.939054E-4,0.12475201,0.041900635,0.03591919,0.11312866,9.759949,0.011962891,0.9546814,0.0,-0.010650635,-0.0021362305,-24.954224,20.951843,0.5477905,0,0.0,0.0,0.0,0.0
0.88546753,0.0971107,0.06362809,-0.9932376,-0.0073630735,0.997973,0.063211545,0.9952464,0.0011747626,0.097382374,0.12276655,0.14553784,-0.9817062,-0.01886425,0.9893524,0.14431232,0.9922563,8.024251E-4,0.12420484,-0.020339966,-0.102493286,0.045776367,9.759949,0.011520386,0.9549866,-0.008514404,-0.0053253174,-0.014907837,-26.747131,22.38617,-1.1810303,0,0.0,0.0,0.0,0.0
0.889862061,0.097108856,0.06362586,-0.993238,-0.0073922183,0.9979731,0.06320645,0.9952463,0.0012043259,0.09738236,0.12164574,0.14389859,-0.9820873,-0.018997973,0.9895916,0.14264496,0.99239177,0.0013055154,0.12311339,0.085006714,0.07437134,0.036209106,9.759949,0.011810303,0.9549866,0.0010681152,-0.008514404,-0.007461548,-26.747131,22.38617,-1.1810303,0,0.0,0.0,0.0,0.0
0.894226074,0.097119644,0.06363884,-0.9932361,-0.0074407244,0.9979722,0.063214734,0.9952448,0.0012510035,0.09739622,0.12116784,0.1423006,-0.9823792,-0.018726502,0.9898226,0.14106905,0.99245536,0.0013034915,0.12259946,0.104156494,0.117004395,0.050430298,9.759949,0.012268066,0.9551239,-0.0021209717,-0.004257202,0.0021362305,-26.747131,22.38617,-1.1810303,0,0.0,0.0,0.0,0.0
0.898590088,0.09716352,0.063691676,-0.9932284,-0.0074781626,0.9979688,0.0632641,0.99524033,0.0012805612,0.097442456,0.120699145,0.14073446,-0.9826624,-0.018462997,0.9900465,0.13952419,0.9925174,0.0013024418,0.12209615,0.14245605,0.08320618,0.11701965,9.759949,0.012557983,0.95558167,-0.014892578,-0.0010528564,-0.0053253174,-26.747131,22.38617,-1.1810303,0,0.0,0.0,0.0,0.0
0.902954102,0.09711681,0.06363544,-0.9932366,-0.007485212,0.99797237,0.06320696,0.9952448,0.0012961267,0.09739622,0.12024001,0.13920034,-0.9829373,-0.018207068,0.9902634,0.13801064,0.9925779,0.0013020042,0.121603705,0.022750854,0.02558899,-0.09321594,9.759949,0.012710571,0.9551239,0.005340576,-0.0063934326,0.003189087,-26.747131,22.38617,-1.1810303,0,0.0,0.0,0.0,0.0
0.907318115,0.097192846,0.063726984,-0.9932232,-0.007499018,0.99796647,0.063297495,0.9952373,0.0012961351,0.0974731,0.119788654,0.13769548,-0.98320425,-0.017957726,0.99047375,0.13652568,0.992637,0.0013018867,0.121120214,0.008529663,-0.0031433105,0.17417908,9.759811,0.012710571,0.9558716,0.0,-0.004257202,0.007461548,-26.747131,22.38617,-1.1810303,0,0.0,0.0,0.0,0.0
0.911712647,0.095131025,0.20492475,-0.97414374,-0.021281227,0.9787768,0.20382114,0.99523723,0.0013412586,0.09747309,0.11934736,0.1362222,-0.9834631,-0.017715173,0.9906775,0.13507167,0.9926945,0.0013017717,0.12064794,0.065979004,0.13049316,-0.0029907227,9.759811,0.013153076,0.9558716,-0.004257202,0.0053253174,0.01171875,-28.89862,20.951843,1.5853882,0,0.0,0.0,0.0,0.0
0.91607666,0.09522952,0.20505776,-0.97410613,-0.021253668,0.9787491,0.20395735,0.9952284,0.0012805639,0.097564034,0.11886399,0.13760385,-0.9833293,-0.01781878,0.9904865,0.13645148,0.99275064,0.0013025614,0.120185114,0.08514404,-0.036499023,-0.04698181,9.759811,0.012557983,0.95677185,0.008529663,0.0063934326,0.015960693,-28.89862,20.951843,1.5853882,0,0.0,0.0,0.0,0.0
0.920440674,0.09521795,0.20504212,-0.97411054,-0.02123383,0.9787524,0.20394363,0.99522996,0.0012650061,0.09754862,0.11839205,0.1389603,-0.9831954,-0.017918408,0.9902971,0.13780636,0.99280524,0.0013021214,0.11973326,-0.029785156,-0.0076293945,-0.027679443,9.759811,0.0124053955,0.95661926,-0.01914978,0.026626587,0.010650635,-28.89862,20.951843,1.5853882,0,0.0,0.0,0.0,0.0
0.924804688,0.09708719,0.097456515,-0.99049294,-0.010742463,0.99523896,0.09687052,0.99521786,0.001235447,0.09767189,0.11792914,0.14028907,-0.9830624,-0.01801442,0.99010974,0.13913374,0.9928586,0.0013013791,0.11929002,0.12838745,0.05491638,0.06687927,9.759659,0.0121154785,0.9578247,0.0,0.020233154,0.0095825195,-26.38855,21.310425,-0.48980713,0,0.0,0.0,0.0,0.0
0.929199219,0.09704178,0.09740005,-0.9905029,-0.010732464,0.99524444,0.096814826,0.99522245,0.0012354526,0.09762566,0.117517136,0.13943471,-0.9832333,-0.01785121,0.99023044,0.13829339,0.9929104,0.0013000604,0.11885812,0.03262329,0.0070343018,-0.090667725,9.759659,0.0121154785,0.95736694,-0.006378174,0.022354126,0.01171875,-26.38855,21.310425,-0.48980713,0,0.0,0.0,0.0,0.0
0.933563233,0.0971492,0.09753362,-0.99047923,-0.01072501,0.9952315,0.096949644,0.9952121,0.0012043203,0.097732,0.117112234,0.1385962,-0.98340017,-0.017691696,0.9903481,0.13746855,0.9929611,0.0012987682,0.11843389,0.05656433,0.016906738,0.004043579,9.759659,0.011810303,0.9584198,-0.007446289,0.015975952,-0.004257202,-26.38855,21.310425,-0.48980713,0,0.0,0.0,0.0,0.0
0.937927246,0.096909635,0.11171524,-0.9890037,-0.012116192,0.99373955,0.11106296,0.9952194,0.001219889,0.09765647,0.116717435,0.13777706,-0.9835622,-0.017536052,0.9904624,0.13666268,0.99301034,0.0012968793,0.118020296,0.12359619,0.03591919,-0.2059021,9.759659,0.011962891,0.9576721,-0.017028809,0.024490356,0.0053253174,-26.029968,21.310425,-0.14343262,0,0.0,0.0,0.0,0.0
0.94229126,0.096938096,0.11175006,-0.9889969,-0.012138413,0.9937356,0.111095734,0.9952164,0.0012354451,0.097687304,0.116323926,0.1372567,-0.98368156,-0.017417448,0.99053466,0.13615328,0.9930586,0.0012953394,0.11761355,0.13796997,0.030975342,0.100250244,9.759659,0.0121154785,0.9579773,0.0,0.010650635,-0.004257202,-26.029968,21.310425,-0.14343262,0,0.0,0.0,0.0,0.0
0.946655274,0.09693981,0.11175215,-0.98899657,-0.012123229,0.99373543,0.111099325,0.9952164,0.0012198854,0.097687304,0.11593875,0.13674739,-0.9837979,-0.017302094,0.9906051,0.13565457,0.99310565,0.0012941416,0.11721554,0.018249512,-0.04067993,-0.0050964355,9.759659,0.011962891,0.9579773,-0.013824463,0.0032043457,0.003189087,-26.029968,21.310425,-0.14343262,0,0.0,0.0,0.0,0.0
0.951049805,0.09589034,0.17868014,-0.9792233,-0.018693505,0.9839063,0.1777041,0.99521637,0.0012650086,0.0976873,0.11556119,0.13624828,-0.9839116,-0.017189125,0.9906739,0.13516583,0.9931516,0.0012926565,0.11682544,0.06135559,0.102508545,-3.0517578E-4,9.759659,0.0124053955,0.9579773,0.0,0.0021362305,0.004257202,-26.38855,20.951843,1.2390137,0,0.0,0.0,0.0,0.0
0.955413819,0.09590883,0.17870305,-0.9792174,-0.018669266,0.98390234,0.17772949,0.9952151,0.0012354435,0.09770118,0.115167744,0.13709962,-0.98383945,-0.017235532,0.9905564,0.13601805,0.9931965,0.0012921036,0.116443135,0.06613159,-0.05999756,0.047439575,9.759659,0.0121154785,0.9581146,0.0032043457,0.0,-0.0010681152,-26.38855,20.951843,1.2390137,0,0.0,0.0,0.0,0.0
0.959777832,0.09585104,0.17863138,-0.97923607,-0.018651554,0.98391515,0.17765926,0.99522084,0.0012354506,0.09764106,0.11568745,0.13882047,-0.98353714,-0.017334905,0.9903169,0.1377384,0.99313444,0.0011149169,0.11697369,0.14753723,-0.01689148,-0.13871765,9.759659,0.0121154785,0.95751953,-0.013824463,0.013839722,0.0010681152,-26.38855,20.951843,1.2390137,0,0.0,0.0,0.0,0.0
0.964141846,0.095849134,0.17589553,-0.9797314,-0.018421104,0.984408,0.17493296,0.9952254,0.00128056,0.09759486,0.11529069,0.13961911,-0.9834707,-0.017376702,0.9902047,0.13853806,0.9931798,0.0011173276,0.1165875,0.056411743,0.12150574,-0.10475159,9.759811,0.012557983,0.957077,-0.0095825195,0.0,0.0063934326,-27.642822,22.924805,1.411438,0,0.0,0.0,0.0,0.0
0.96850586,0.09575358,0.17578214,-0.9797611,-0.018439837,0.98442817,0.17481732,0.99523425,0.0013272507,0.097503915,0.1149017,0.14034665,-0.9834126,-0.01741141,0.99010175,0.13926692,0.9932242,0.0011205922,0.11620802,-0.044143677,-0.09440613,-0.060760498,9.759811,0.013015747,0.95617676,-0.003189087,0.0010681152,0.0021362305,-27.642822,22.924805,1.411438,0,0.0,0.0,0.0,0.0
0.972900391,0.09579422,0.17583038,-0.9797485,-0.018466095,0.98441947,0.17486314,0.9952298,0.0013412486,0.097548604,0.11451865,0.14105728,-0.98335564,-0.017445281,0.9900008,0.13997887,0.9932679,0.0011247254,0.11583433,0.051620483,0.029937744,0.111190796,9.759811,0.013153076,0.95661926,-0.0010528564,-0.013839722,-0.02130127,-27.642822,22.924805,1.411438,0,0.0,0.0,0.0,0.0
0.977264405,0.09531515,0.20093025,-0.9749574,-0.02086723,0.97960466,0.19984795,0.9952284,0.0012961236,0.097564034,0.114144,0.14175461,-0.98329896,-0.017478453,0.9899012,0.14067747,0.99331045,0.001129056,0.11546893,-0.0010528564,-0.10847473,0.05836487,9.759811,0.012710571,0.95677185,-0.007446289,-0.01171875,-0.0063934326,-26.567078,21.131897,1.7578125,0,0.0,0.0,0.0,0.0
0.981628418,0.09532683,0.20094462,-0.9749534,-0.020886892,0.97960186,0.19986045,0.9952269,0.0013116812,0.09757944,0.11376838,0.14294384,-0.9831703,-0.017567776,0.9897301,0.14186472,0.99335194,0.0011323973,0.115111195,-0.044143677,0.04458618,0.02468872,9.759811,0.012863159,0.95692444,0.0063934326,-0.019165039,0.0021362305,-26.567078,21.131897,1.7578125,0,0.0,0.0,0.0,0.0
0.985992432,0.0952974,0.20090845,-0.97496367,-0.020877186,0.97960913,0.1998251,0.9952299,0.0013116852,0.09754861,0.11340045,0.1441094,-0.9830426,-0.017654845,0.9895611,0.14302838,0.99339247,0.001135983,0.114760906,0.065979004,-0.008087158,-0.089920044,9.759811,0.012863159,0.95661926,-0.02128601,0.007461548,0.0,-26.567078,21.131897,1.7578125,0,0.0,0.0,0.0,0.0
0.990356446,0.09616296,0.15273732,-0.9835772,-0.016167333,0.98826605,0.1518848,0.9952343,0.0012961313,0.09750392,0.11303913,0.14525072,-0.98291624,-0.017739166,0.9893942,0.14416793,0.99343216,0.0011394972,0.11441689,0.037246704,-0.06059265,-0.11820984,9.759811,0.012710571,0.95617676,0.0063934326,-0.008514404,-0.004257202,-27.105713,20.593262,0.5477905,0,0.0,0.0,0.0,0.0
0.994750977,0.096208505,0.15279692,-0.98356336,-0.016164646,0.98825663,0.15194486,0.9952299,0.0012805657,0.09754861,0.1127017,0.14540055,-0.98293287,-0.01771028,0.9893722,0.14432245,0.993471,0.0011426299,0.11407901,-0.09202576,-0.017333984,0.13034058,9.759811,0.012557983,0.95661926,-0.0095825195,-0.020233154,-0.0010681152,-27.105713,20.593262,0.5477905,0,0.0,0.0,0.0,0.0
0.99911499,0.09619717,0.1527821,-0.98356694,-0.016238192,0.988259,0.15192278,0.9952298,0.0013568084,0.097548604,0.11237185,0.14554857,-0.9829487,-0.017681818,0.98935044,0.14447509,0.9935089,0.0011453886,0.1137487,0.046829224,0.17822266,0.0010528564,9.759811,0.013305664,0.95661926,-0.017028809,-0.0021209717,-0.0021362305,-27.105713,20.593262,0.5477905,0,0.0,0.0,0.0,0.0
1.003479004,0.096701495,0.11502608,-0.9886445,-0.0125569,0.99336165,0.11434669,0.99523425,0.0013568144,0.097503915,0.11204829,0.14569333,-0.9829642,-0.017655281,0.98932916,0.1446242,0.9935459,0.001149617,0.11342489,0.07077026,0.09681702,0.13078308,9.759811,0.013305664,0.95617676,0.008529663,-0.02130127,0.003189087,-26.38855,20.951843,-0.14343262,0,0.0,0.0,0.0,0.0
1.007843018,0.09664272,0.11495194,-0.9886588,-0.012542788,0.99337006,0.11427364,0.99524003,0.0013568223,0.097443804,0.11174382,0.14508127,-0.98308945,-0.017543921,0.9894191,0.14402123,0.9935822,0.0011537609,0.11310676,0.051620483,0.005844116,-0.12719727,9.759811,0.013305664,0.95558167,-0.014892578,-0.022369385,0.0053253174,-26.38855,20.951843,-0.14343262,0,0.0,0.0,0.0,0.0
1.012237549,0.096561044,0.11484896,-0.98867875,-0.012446796,0.9933821,0.114179686,0.9952492,0.0012805726,0.09735152,0.11144421,0.14447992,-0.983212,-0.017434826,0.9895071,0.14342877,0.9936178,0.0011578222,0.11279382,0.1328888,-0.074798584,-0.22206116,9.759949,0.012557983,0.9546814,0.0,-0.018096924,-0.008529663,-26.38855,20.951843,-0.14343262,0,0.0,0.0,0.0,0.0
1.016601563,0.09688251,0.08250915,-0.9918699,-0.009315447,0.9965894,0.081991844,0.9952522,0.0012961363,0.0973207,0.1111489,0.14388847,-0.9833321,-0.01732627,0.98959327,0.1428462,0.9936527,0.0011602773,0.11248525,0.089782715,0.02079773,-0.06852722,9.759949,0.012710571,0.9543762,-0.023406982,0.0,0.0063934326,-26.38855,20.951843,-0.83465576,0,0.0,0.0,0.0,0.0
1.020965576,0.09688251,0.08250915,-0.9918699,-0.009315447,0.9965894,0.081991844,0.9952522,0.0012961363,0.0973207,0.11086993,0.1426655,-0.9835417,-0.017148389,0.9897703,0.14163591,0.993687,0.0011629944,0.112182245,0.075424194,0.006439209,0.012878418,9.759949,0.012710571,0.9543762,-0.0021209717,-0.013839722,-0.010650635,-26.38855,20.951843,-0.83465576,0,0.0,0.0,0.0,0.0
1.02532959,0.09685092,0.08246911,-0.99187636,-0.009324438,0.9965928,0.081950784,0.9952553,0.0013116797,0.09728992,0.11133506,0.14259747,-0.9834991,-0.016726512,0.98978055,0.1416147,0.99364215,6.838269E-4,0.11258243,0.13752747,0.020645142,-0.087387085,9.760101,0.012863159,0.9540863,-0.018081665,0.010650635,0.0053253174,-26.38855,20.951843,-0.83465576,0,0.0,0.0,0.0,0.0
1.029693604,0.09609155,0.14192626,-0.98520213,-0.015080563,0.98987633,0.14112873,0.9952583,0.001296124,0.09725909,0.11105092,0.14139928,-0.98370415,-0.016560897,0.9899524,0.14042784,0.9936767,6.9638394E-4,0.11227682,0.080062866,-0.017486572,-0.07751465,9.760101,0.012710571,0.9537811,0.014923096,-0.0021209717,0.0,-26.38855,21.669006,0.5477905,0,0.0,0.0,0.0,0.0
1.034088135,0.09609812,0.14193422,-0.9852004,-0.015143304,0.98987526,0.1411306,0.9952567,0.0013568047,0.0972745,0.11075202,0.14140983,-0.98373634,-0.016531473,0.9899509,0.14044198,0.9937106,7.083788E-4,0.111976765,-0.044433594,0.13513184,0.061203003,9.760101,0.013305664,0.9539337,-0.0010528564,0.0,0.013839722,-26.38855,21.669006,0.5477905,0,0.0,0.0,0.0,0.0
1.038452149,0.0961131,0.14195235,-0.98519635,-0.015147247,0.9898726,0.14114842,0.9952552,0.0013568025,0.097289905,0.110459186,0.14142032,-0.9837678,-0.016503882,0.9899494,0.14045586,0.99374366,7.213473E-4,0.11168298,0.07527161,0.005844116,0.022735596,9.760101,0.013305664,0.9540863,0.009597778,0.009597778,0.008514404,-26.38855,21.669006,0.5477905,0,0.0,0.0,0.0,0.0
1.042816162,0.0952666,0.18836962,-0.9774667,-0.01963168,0.9820973,0.18734863,0.9952582,0.001341247,0.09725908,0.11017247,0.14143096,-0.9837984,-0.016476916,0.9899478,0.14046982,0.99377584,7.340564E-4,0.11139535,0.09442139,-0.032302856,-0.05836487,9.760101,0.013153076,0.9537811,-0.0053253174,0.017028809,-0.0010681152,-28.720093,21.84906,1.411438,0,0.0,0.0,0.0,0.0
1.047180176,0.09527201,0.18837662,-0.97746485,-0.019603463,0.9820961,0.18735842,0.9952583,0.0013116837,0.09725909,0.10987546,0.14237322,-0.9836957,-0.01655354,0.98981273,0.1414096,0.9938075,7.462002E-4,0.11111292,0.108795166,-0.08468628,0.0038909912,9.760101,0.012863159,0.9537811,-0.0021209717,0.010650635,0.0010681152,-28.720093,21.84906,1.411438,0,0.0,0.0,0.0,0.0
1.05154419,0.09528676,0.18839568,-0.9774597,-0.01960821,0.9820924,0.18737708,0.9952567,0.0013116817,0.0972745,0.10958434,0.14329666,-0.9835941,-0.016627517,0.98967946,0.14233072,0.9938384,7.575099E-4,0.110836044,0.060913086,-0.0032958984,0.051620483,9.760101,0.012863159,0.9539337,0.0010681152,-0.003189087,0.003189087,-28.720093,21.84906,1.411438,0,0.0,0.0,0.0,0.0
1.055938721,0.09631975,0.12598494,-0.9873451,-0.013548264,0.99203134,0.1252612,0.9952583,0.0013116837,0.09725909,0.10929925,0.1442019,-0.9834935,-0.016699586,0.98954797,0.14323375,0.9938686,7.6859334E-4,0.11056497,0.027389526,0.020645142,-0.024841309,9.760101,0.012863159,0.9537811,-0.003189087,0.014907837,0.003189087,-26.747131,22.027588,0.20141602,0,0.0,0.0,0.0,0.0
1.060302735,0.09625745,0.12590942,-0.9873608,-0.013562568,0.9920409,0.12518401,0.9952641,0.0013412549,0.09719897,0.10904073,0.14383802,-0.98357546,-0.016631858,0.98960096,0.14287534,0.99389815,7.794552E-4,0.1102991,0.060913086,0.053878784,-0.1583252,9.760101,0.013153076,0.95318604,0.012786865,-0.003189087,-0.0032043457,-26.747131,22.027588,0.20141602,0,0.0,0.0,0.0,0.0
1.064666748,0.096255526,0.1259071,-0.9873612,-0.013577706,0.9920411,0.12518021,0.9952641,0.0013568148,0.09719897,0.108785994,0.14347988,-0.983656,-0.0165659,0.98965293,0.14252254,0.9939272,7.906911E-4,0.11003725,0.022598267,0.048934937,-0.014663696,9.760101,0.013305664,0.95318604,-0.0053253174,0.007461548,0.0,-26.747131,22.027588,0.20141602,0,0.0,0.0,0.0,0.0
1.069030762,0.09664266,0.0937753,-0.99089175,-0.010474737,0.9955926,0.09319857,0.9952641,0.0013723746,0.09719897,0.10853625,0.14312886,-0.9837347,-0.016501741,0.9897038,0.14217667,0.99395555,8.020136E-4,0.10978061,0.056121826,0.029632568,0.009277344,9.760101,0.013458252,0.95318604,0.0063934326,0.010650635,-0.0095825195,-27.642822,21.490479,-0.66223145,0,0.0,0.0,0.0,0.0
1.073425293,0.0966578,0.093794875,-0.9908884,-0.010478079,0.9955907,0.09321788,0.99526256,0.0013723725,0.097214386,0.10830199,0.14214484,-0.98390317,-0.016369317,0.9898455,0.1412015,0.9939832,8.1342075E-4,0.10952905,0.07048035,0.029632568,0.066589355,9.760101,0.013458252,0.9533386,0.004272461,0.0021362305,0.007461548,-27.642822,21.490479,-0.66223145,0,0.0,0.0,0.0,0.0
1.077789307,0.09682134,0.09400634,-0.9908524,-0.010529792,0.9955707,0.093425065,0.9952461,0.001387931,0.097382344,0.10807266,0.14118077,-0.9840672,-0.01624011,0.9899835,0.14024602,0.9940103,8.2459976E-4,0.10928294,0.1328888,-0.004043579,0.16070557,9.759949,0.01361084,0.9549866,-0.0021209717,0.0063934326,-0.004257202,-27.642822,21.490479,-0.66223145,0,0.0,0.0,0.0,0.0
1.082153321,0.096752994,0.10906512,-0.9893147,-0.012036487,0.9940336,0.108408205,0.9952357,0.0014190556,0.0974885,0.10785089,0.14024004,-0.98422605,-0.016115157,0.9901172,0.13931356,0.99403644,8.358664E-4,0.109045,0.056411743,0.029174805,-0.0031433105,9.759811,0.013916016,0.95602417,0.007461548,0.026626587,-0.0032043457,-27.105713,22.744751,-0.14343262,0,0.0,0.0,0.0,0.0
1.086517334,0.09672764,0.10903486,-0.9893205,-0.01199957,0.994037,0.10838145,0.9952386,0.00138794,0.09745922,0.10763054,0.13961782,-0.98433864,-0.016026618,0.9902051,0.13869752,0.99406177,8.475302E-4,0.10881392,0.008529663,-0.08543396,-0.055526733,9.759811,0.01361084,0.95573425,-0.02128601,0.023422241,-0.007461548,-27.105713,22.744751,-0.14343262,0,0.0,0.0,0.0,0.0
1.090881348,0.09672597,0.10903288,-0.98932093,-0.012014769,0.9940371,0.108377956,0.9952385,0.0014034997,0.097459204,0.1078788,0.13879873,-0.9844272,-0.01664092,0.99031943,0.1378059,0.99402475,0.0015154418,0.10914421,0.10429382,0.029327393,-0.0028533936,9.759811,0.013763428,0.95573425,0.004272461,0.008529663,-0.0095825195,-27.105713,22.744751,-0.14343262,0,0.0,0.0,0.0,0.0
1.095275879,0.09511047,0.20582911,-0.97395504,-0.021448066,0.978587,0.20471352,0.9952357,0.0014190556,0.0974885,0.10765775,0.13820454,-0.9845351,-0.01654175,0.9904026,0.13721937,0.9940504,0.0015132029,0.10891065,0.061203003,0.033966064,0.08784485,9.759811,0.013916016,0.95602417,0.0021362305,0.015975952,-0.0010681152,-27.464294,23.46344,2.2766113,0,0.0,0.0,0.0,0.0
1.099639893,0.09513399,0.20585588,-0.97394705,-0.021485798,0.97858125,0.20473666,0.9952326,0.0014486148,0.097519316,0.107409075,0.13956448,-0.98437047,-0.016655888,0.99021184,0.1385753,0.9940754,0.00151132,0.1086823,0.07556152,0.09112549,0.068374634,9.759811,0.014205933,0.95632935,-0.003189087,0.008529663,-0.0032043457,-27.464294,23.46344,2.2766113,0,0.0,0.0,0.0,0.0
1.104003907,0.09516195,0.20588768,-0.9739376,-0.021494908,0.97857445,0.20476767,0.99522966,0.0014486106,0.09754859,0.1071658,0.14089751,-0.9842069,-0.016767843,0.990023,0.13990436,0.99409974,0.0015100659,0.10845916,-0.005844116,-0.004638672,0.106399536,9.759811,0.014205933,0.95661926,0.007461548,0.012771606,0.0,-27.464294,23.46344,2.2766113,0,0.0,0.0,0.0,0.0
1.10836792,0.09513399,0.20585588,-0.97394705,-0.021485798,0.97858125,0.20473666,0.9952326,0.0014486148,0.097519316,0.106927775,0.14220427,-0.9840449,-0.016877092,0.98983616,0.14120726,0.9941235,0.0015088368,0.108240984,0.042037964,0.014511108,-0.07527161,9.759811,0.014205933,0.95632935,-0.008514404,-0.007446289,0.003189087,-27.464294,23.46344,2.2766113,0,0.0,0.0,0.0,0.0
1.112731934,0.09510714,0.20582533,-0.9739561,-0.02153876,0.97858745,0.20470081,0.99523395,0.0015093,0.097503886,0.10669387,0.14348401,-0.9838846,-0.016983425,0.9896515,0.14248332,0.9941469,0.0015076323,0.1080266,0.022888184,0.13363647,-0.04638672,9.759811,0.014801025,0.95617676,-0.007446289,-0.01171875,0.003189087,-27.464294,23.46344,2.2766113,0,0.0,0.0,0.0,0.0
1.117126465,0.09507659,0.20579056,-0.9739664,-0.021467095,0.97859496,0.20467296,0.9952385,0.0014486234,0.097459204,0.10646412,0.14473732,-0.98372585,-0.017088164,0.98946893,0.14373294,0.9941697,0.0015076657,0.10781624,0.027679443,-0.057296753,0.116867065,9.759811,0.014205933,0.95573425,-0.008514404,-0.015975952,0.0,-27.464294,23.46344,2.2766113,0,0.0,0.0,0.0,0.0
1.121490479,0.09586283,0.16675419,-0.98132735,-0.017706154,0.9859973,0.16581808,0.995237,0.0014797408,0.09747307,0.10623817,0.14596464,-0.98356885,-0.017188866,0.9892886,0.14495684,0.9941921,0.0015064848,0.10760919,0.032470703,0.06210327,0.035324097,9.759811,0.014511108,0.9558716,-0.027679443,-0.020233154,0.004257202,-28.54004,21.669006,0.89416504,0,0.0,0.0,0.0,0.0
1.125854492,0.09590737,0.16681226,-0.9813131,-0.017719498,0.98598754,0.16587506,0.9952325,0.0014797342,0.09751931,0.10603064,0.1463811,-0.9835294,-0.017203448,0.9892271,0.14537446,0.99421406,0.0015059499,0.107406646,-0.029785156,0.018997192,0.10668945,9.759811,0.014511108,0.95632935,-0.014892578,-0.017044067,-0.0021362305,-28.54004,21.669006,0.89416504,0,0.0,0.0,0.0,0.0
1.130218506,0.095892526,0.16679291,-0.9813179,-0.01771505,0.9859908,0.1658561,0.995234,0.0014797364,0.09750389,0.105828024,0.14679036,-0.9834901,-0.017217811,0.98916644,0.14578484,0.99423534,0.0015054255,0.10720895,-0.034576416,-0.0049438477,-0.012863159,9.759811,0.014511108,0.95617676,-0.018081665,-0.01171875,-0.008529663,-28.54004,21.669006,0.89416504,0,0.0,0.0,0.0,0.0
1.13458252,0.095659316,0.18011357,-0.9789833,-0.019013185,0.9836446,0.17911333,0.9952325,0.0014797342,0.09751931,0.10562921,0.14719103,-0.9834517,-0.017231645,0.98910695,0.14618663,0.99425626,0.0015049118,0.10701493,0.051620483,0.009429932,0.034866333,9.759811,0.014511108,0.95632935,0.005340576,-0.0063934326,0.0021362305,-25.849915,23.283386,1.7578125,0,0.0,0.0,0.0,0.0
1.138977051,0.09564174,0.18009447,-0.9789886,-0.019023791,0.9836482,0.17909314,0.995234,0.0014952963,0.09750389,0.10542996,0.14785121,-0.9833741,-0.017273609,0.9890085,0.14684641,0.9942767,0.0015044082,0.106825046,0.027679443,0.052368164,-0.0368042,9.759811,0.014663696,0.95617676,0.004272461,-0.012771606,-0.007461548,-25.849915,23.283386,1.7578125,0,0.0,0.0,0.0,0.0
1.143341065,0.09560413,0.18005356,-0.9789998,-0.019058447,0.9836556,0.17904869,0.99523693,0.0015404242,0.09747306,0.1052344,0.14849775,-0.9832976,-0.01731471,0.98891157,0.14749251,0.99429667,0.001504226,0.10663872,0.042037964,0.10939026,-0.08917236,9.759811,0.015106201,0.9558716,0.008529663,-0.004257202,-0.0032043457,-25.849915,23.283386,1.7578125,0,0.0,0.0,0.0,0.0
1.147705078,0.096090004,0.15167792,-0.98374814,-0.016357495,0.98842853,0.15080181,0.9952382,0.0016011095,0.09745918,0.105042115,0.14913048,-0.9832224,-0.017355474,0.9888164,0.14812478,0.99431634,0.00150495,0.106455594,0.07556152,0.14230347,-0.017211914,9.759811,0.015701294,0.95573425,0.004272461,-0.0021209717,0.0053253174,-27.464294,20.951843,0.5477905,0,0.0,0.0,0.0,0.0
1.152069092,0.09610572,0.15169841,-0.9837435,-0.01634628,0.9884255,0.15082347,0.9952369,0.0015855476,0.097473055,0.10486301,0.14918146,-0.98323375,-0.017335966,0.9888087,0.1481784,0.99433553,0.0015068732,0.10627566,0.022888184,-0.020324707,0.035324097,9.759811,0.015548706,0.9558716,0.009597778,-0.013839722,-0.0095825195,-27.464294,20.951843,0.5477905,0,0.0,0.0,0.0,0.0
1.156463623,0.096054256,0.15163134,-0.9837588,-0.016378688,0.98843575,0.150753,0.99524134,0.0016322115,0.097426996,0.10468795,0.1492318,-0.9832448,-0.01731663,0.98880106,0.14823139,0.99435437,0.0015084466,0.106099755,0.022750854,0.08932495,-0.1126709,9.759949,0.01600647,0.9554291,0.0010681152,-0.0234375,0.0,-27.464294,20.951843,0.5477905,0,0.0,0.0,0.0,0.0
1.160827637,0.094702154,0.21574357,-0.97184676,-0.02261796,0.97644866,0.21456115,0.99524873,0.0016617873,0.097351484,0.104198195,0.1494462,-0.9832642,-0.01753357,0.9887683,0.1484247,0.994402,0.0017745476,0.10564819,0.080215454,0.10340881,-0.17417908,9.759949,0.016296387,0.9546814,-0.0021209717,-0.004257202,-0.004257202,-27.105713,20.593262,1.9302368,0,0.0,0.0,0.0,0.0
1.165191651,0.094708316,0.21575145,-0.9718444,-0.022589993,0.97644687,0.21457177,0.99524873,0.0016322236,0.097351484,0.10401084,0.15077981,-0.9830805,-0.017646916,0.9885658,0.14975408,0.99441963,0.0017722924,0.105482355,0.056274414,-0.08303833,-0.016159058,9.759949,0.01600647,0.9546814,0.0010681152,-0.014907837,-0.0053253174,-27.105713,20.593262,1.9302368,0,0.0,0.0,0.0,0.0
1.169555664,0.09466269,0.21569304,-0.9718619,-0.02258982,0.9764598,0.21451317,0.995253,0.0016477905,0.09730678,0.1038272,0.15208665,-0.9828986,-0.017756969,0.9883656,0.15105684,0.99443686,0.0017694911,0.10531983,0.21429443,0.022140503,-0.08276367,9.759949,0.016159058,0.9542389,-0.007446289,0.0032043457,-0.0095825195,-27.105713,20.593262,1.9302368,0,0.0,0.0,0.0,0.0
1.173919678,0.09561834,0.1692268,-0.9809279,-0.01812754,0.9855757,0.1682616,0.99525297,0.001692914,0.09730677,0.10364623,0.1533659,-0.9827189,-0.017864427,0.9881679,0.15233214,0.9944538,0.0017670571,0.10515967,-0.063446045,0.1126709,-0.025299072,9.759949,0.016601563,0.9542389,-0.012756348,0.010650635,-0.008529663,-28.361511,22.207642,1.0665894,0,0.0,0.0,0.0,0.0
1.178314209,0.09565398,0.16927177,-0.9809166,-0.018092586,0.985568,0.16831012,0.9952501,0.0016477858,0.097336054,0.10348561,0.15368353,-0.98268616,-0.017872192,0.9881185,0.152651,0.99447036,0.0017655742,0.10500271,0.022750854,-0.08798218,0.08454895,9.759949,0.016159058,0.9545288,0.019180298,0.007461548,0.0063934326,-28.361511,22.207642,1.0665894,0,0.0,0.0,0.0,0.0
1.182678223,0.095704444,0.16933545,-0.98090065,-0.01815319,0.985557,0.16836812,0.99524426,0.0016928993,0.097396165,0.10332897,0.1539957,-0.9826538,-0.01787901,0.98806995,0.15296444,0.9944865,0.0017632184,0.10484954,0.085006714,-0.0118255615,-0.035751343,9.759949,0.016601563,0.9551239,0.007461548,0.0063934326,0.003189087,-28.361511,22.207642,1.0665894,0,0.0,0.0,0.0,0.0
1.187042237,0.09579393,0.16336012,-0.98190475,-0.017601205,0.98656493,0.16241829,0.9952456,0.0017240209,0.097382285,0.103176385,0.15430288,-0.98262167,-0.017886786,0.988022,0.15327278,0.99450225,0.0017618121,0.10470052,0.108947754,0.07406616,-0.045196533,9.759949,0.016906738,0.9549866,-0.006378174,0.020233154,-0.012786865,-26.208496,19.69757,0.72021484,0,0.0,0.0,0.0,0.0
1.19140625,0.095791705,0.16335717,-0.9819054,-0.01761467,0.9865654,0.16241401,0.9952456,0.0017380248,0.097382285,0.10302866,0.15448414,-0.9826086,-0.017882397,0.98799366,0.15345576,0.9945176,0.0017610562,0.10455422,0.017959595,0.049987793,-0.002105713,9.759949,0.017044067,0.9549866,-0.004257202,0.0010681152,-0.0032043457,-26.208496,19.69757,0.72021484,0,0.0,0.0,0.0,0.0
1.195770264,0.095837034,0.16341695,-0.98189116,-0.017614014,0.98655564,0.16247405,0.99524117,0.0017240134,0.09742698,0.10288379,0.15466172,-0.98259586,-0.017878301,0.9879659,0.153635,0.9945327,0.0017605956,0.10441077,0.080215454,-0.05041504,0.13632202,9.759949,0.016906738,0.9554291,0.0032043457,0.004272461,-0.0021362305,-26.208496,19.69757,0.72021484,0,0.0,0.0,0.0,0.0
1.200164795,0.09655613,0.11552203,-0.9886008,-0.013002154,0.99330336,0.11480163,0.99524266,0.0017691391,0.097411565,0.102742754,0.15483695,-0.9825831,-0.017874233,0.98793846,0.15381187,0.99454737,0.0017598639,0.10427111,0.12809753,0.10714722,-0.02633667,9.759949,0.017349243,0.9552765,0.0021362305,0.011703491,-0.0021362305,-27.822876,22.027588,-0.14343262,0,0.0,0.0,0.0,0.0
1.204528809,0.0966095,0.11558952,-0.98858774,-0.012954233,0.9932956,0.114874035,0.995238,0.0017084723,0.09745917,0.10262134,0.15405284,-0.982719,-0.017771764,0.988061,0.15303443,0.99456173,0.0017600495,0.104133934,0.089920044,-0.15560913,0.1455841,9.759811,0.01675415,0.95573425,0.01171875,0.010650635,0.0021362305,-27.822876,22.027588,-0.14343262,0,0.0,0.0,0.0,0.0
1.208892823,0.09663635,0.11562348,-0.9885811,-0.012976294,0.9932917,0.11490595,0.9952352,0.0017240272,0.09748845,0.10250334,0.15328565,-0.9828512,-0.017670628,0.98818034,0.15227388,0.9945757,0.0017590179,0.104000434,0.113861084,0.05970764,0.06390381,9.759811,0.016906738,0.95602417,-0.014892578,0.0032043457,-0.0053253174,-27.822876,22.027588,-0.14343262,0,0.0,0.0,0.0,0.0
1.213256836,0.09696259,0.08353311,-0.9917764,-0.009818773,0.99650353,0.082971305,0.99523956,0.0016929151,0.09744375,0.10238818,0.1525344,-0.9829801,-0.017572178,0.98829657,0.15152904,0.99458927,0.001758318,0.10387025,0.07077026,-0.09799194,-0.11282349,9.759811,0.016601563,0.95558167,-0.004257202,0.008529663,-0.0010681152,-27.822876,22.38617,-0.83465576,0,0.0,0.0,0.0,0.0
1.217651367,0.09696132,0.083531514,-0.9917767,-0.00983405,0.9965037,0.08296821,0.99523956,0.0017084749,0.09744375,0.102285765,0.15116046,-0.98320293,-0.017409163,0.9885076,0.15016489,0.9946027,0.0017570099,0.10374184,0.07556152,0.03590393,0.006881714,9.759811,0.01675415,0.95558167,0.004272461,0.0,0.0,-27.822876,22.38617,-0.83465576,0,0.0,0.0,0.0,0.0
1.222015381,0.09700402,0.08358492,-0.991768,-0.009858399,0.9964992,0.08301942,0.9952352,0.0017240272,0.09748845,0.10218503,0.14981373,-0.98341954,-0.017250013,0.98871267,0.14882767,0.9946158,0.0017560392,0.103615925,0.08514404,0.050125122,0.12614441,9.759811,0.016906738,0.95602417,-0.0053253174,-0.0021209717,0.003189087,-27.822876,22.38617,-0.83465576,0,0.0,0.0,0.0,0.0
1.226379395,0.0964551,0.12989193,-0.98682547,-0.014366277,0.99152666,0.12910652,0.99523365,0.0017240247,0.09750386,0.101418704,0.14792857,-0.9837842,-0.016852876,0.9889966,0.14697498,0.9947011,0.0016735828,0.10279578,0.10908508,0.0070343018,0.06852722,9.759811,0.016906738,0.95617676,0.008529663,-0.010650635,0.0021362305,-25.671387,20.593262,0.20141602,0,0.0,0.0,0.0,0.0
1.230743408,0.09642329,0.12985237,-0.98683375,-0.014372254,0.9915318,0.12906624,0.99523664,0.0017380336,0.09747303,0.10132007,0.1475683,-0.98384845,-0.016801335,0.9890504,0.14661829,0.99471194,0.0016745917,0.102690004,0.027679443,0.026046753,-0.06523132,9.759811,0.017044067,0.9558716,-0.003189087,-0.015975952,0.0063934326,-25.671387,20.593262,0.20141602,0,0.0,0.0,0.0,0.0
1.235107422,0.09646834,0.1299084,-0.986822,-0.014383694,0.99152446,0.12912133,0.9952321,0.0017380257,0.09751927,0.10122279,0.14721444,-0.9839115,-0.016751006,0.98910314,0.14626792,0.9947227,0.0016758605,0.10258577,-0.06808472,0.016464233,0.08274841,9.759811,0.017044067,0.95632935,-0.0010528564,0.0063934326,0.003189087,-25.671387,20.593262,0.20141602,0,0.0,0.0,0.0,0.0
1.239501953,0.09648413,0.12667505,-0.9872408,-0.014065208,0.99194276,0.12590376,0.9952351,0.0017380309,0.09748844,0.10112816,0.14686875,-0.9839729,-0.016701978,0.9891545,0.14592563,0.99473315,0.0016771037,0.10248438,-0.0010528564,-0.0026855469,-0.06538391,9.759811,0.017044067,0.95602417,0.017044067,-0.015975952,0.0021362305,-26.38855,21.669006,0.20141602,0,0.0,0.0,0.0,0.0
1.243865967,0.09647083,0.12665889,-0.98724407,-0.014047865,0.99194473,0.12588926,0.99523664,0.0017240298,0.09747303,0.10103589,0.14646545,-0.98404247,-0.01664732,0.9892143,0.14552599,0.99474347,0.0016783222,0.10238442,0.037246704,-0.05041504,-0.036499023,9.759811,0.016906738,0.9558716,0.009597778,0.0063934326,0.007461548,-26.38855,21.669006,0.20141602,0,0.0,0.0,0.0,0.0
1.248229981,0.09648221,0.12667271,-0.98724127,-0.014080342,0.99194306,0.12589994,0.9952351,0.0017535908,0.09748844,0.10094528,0.14606988,-0.9841106,-0.016593494,0.98927283,0.14513403,0.99475354,0.0016792364,0.10228623,-0.034576416,0.073776245,0.03517151,9.759811,0.017196655,0.95602417,-0.0095825195,-0.0010528564,0.007461548,-26.38855,21.669006,0.20141602,0,0.0,0.0,0.0,0.0
1.252593994,0.096278995,0.14130822,-0.9852727,-0.015505859,0.98996407,0.14046586,0.9952336,0.0017535881,0.097503856,0.10085664,0.14568245,-0.9841771,-0.016541462,0.98932993,0.14475007,0.99476343,0.0016807235,0.10219029,-0.07287598,0.011520386,0.025436401,9.759811,0.017196655,0.95617676,-0.003189087,0.004272461,-0.004257202,-25.671387,21.310425,0.5477905,0,0.0,0.0,0.0,0.0
1.256958008,0.09628307,0.1413131,-0.9852716,-0.015477207,0.9899634,0.14047356,0.99523365,0.0017240247,0.09750386,0.100765206,0.14559501,-0.9841994,-0.01652036,0.9893428,0.1446645,0.99477303,0.0016821808,0.10209661,-0.034576416,-0.06478882,0.020645142,9.759811,0.016906738,0.95617676,0.021316528,-0.004257202,-0.0021362305,-25.671387,21.310425,0.5477905,0,0.0,0.0,0.0,0.0
1.261352539,0.09632651,0.14136514,-0.98525995,-0.015488571,0.9899561,0.14052466,0.9952293,0.0017240171,0.09754856,0.100675695,0.1455094,-0.98422116,-0.016499124,0.9893554,0.14458078,0.99478245,0.0016830177,0.102004826,-0.020202637,-0.016906738,0.106399536,9.759811,0.016906738,0.95661926,-0.0095825195,-0.0053253174,0.0010681152,-25.671387,21.310425,0.5477905,0,0.0,0.0,0.0,0.0
1.265716553,0.09635292,0.139543,-0.985517,-0.015325067,0.99021447,0.13870981,0.99522924,0.0017380207,0.09754855,0.10058874,0.14542656,-0.98424244,-0.016478548,0.9893676,0.14449975,0.9947916,0.0016838377,0.10191565,0.08514404,0.045196533,-0.0037384033,9.759811,0.017044067,0.95661926,0.004272461,-0.008514404,0.0,-27.28424,21.490479,0.3753662,0,0.0,0.0,0.0,0.0
1.270080567,0.096399724,0.1396022,-0.9855041,-0.015323465,0.9902061,0.13876937,0.9952247,0.001724009,0.09759478,0.10050406,0.14530894,-0.9842684,-0.01645497,0.9893849,0.14438409,0.99480057,0.0016849214,0.10182825,-0.082458496,-0.03605652,0.11073303,9.759811,0.016906738,0.957077,0.0010681152,-0.013839722,-0.0063934326,-27.28424,21.490479,0.3753662,0,0.0,0.0,0.0,0.0
1.27444458,0.09635483,0.13954541,-0.98551655,-0.015311501,0.9902142,0.13871357,0.9952293,0.0017240171,0.09754856,0.10042206,0.14519486,-0.98429364,-0.016431872,0.98940164,0.14427191,0.9948092,0.0016857032,0.10174357,0.027679443,-0.0025482178,-0.089920044,9.759811,0.016906738,0.95661926,-0.003189087,-0.0095825195,0.003189087,-27.28424,21.490479,0.3753662,0,0.0,0.0,0.0,0.0
1.278839112,0.09616831,0.15327124,-0.9834936,-0.016621063,0.9881828,0.15237679,0.9952263,0.0016928925,0.09757938,0.100340754,0.14508191,-0.98431855,-0.016408995,0.9894182,0.14416084,0.9948178,0.0016864695,0.10165961,0.09950256,-0.09799194,0.05821228,9.759811,0.016601563,0.95692444,-0.008514404,-0.008514404,-0.0095825195,-27.105713,22.744751,0.89416504,0,0.0,0.0,0.0,0.0
1.283203125,0.096148714,0.15324812,-0.9834991,-0.016647061,0.98818624,0.15235102,0.99522775,0.0017240144,0.09756397,0.100257285,0.14524579,-0.9843028,-0.016413903,0.9893941,0.14432523,0.99482614,0.001686598,0.10157802,0.046829224,0.10758972,-0.018249512,9.759811,0.016906738,0.95677185,0.007461548,0.0010681152,-0.0021362305,-27.105713,22.744751,0.89416504,0,0.0,0.0,0.0,0.0
1.287567139,0.09613168,0.153228,-0.9835039,-0.01665652,0.9881893,0.15232992,0.99522924,0.0017380207,0.09754855,0.10017509,0.14540593,-0.9842876,-0.016419208,0.98937064,0.14448579,0.9948343,0.0016873464,0.10149774,0.037246704,0.0068969727,-0.046829224,9.759811,0.017044067,0.95661926,0.007461548,-0.003189087,0.004257202,-27.105713,22.744751,0.89416504,0,0.0,0.0,0.0,0.0
1.291931153,0.097050816,0.08642087,-0.99152035,-0.010140958,0.99625725,0.085841134,0.99522775,0.0017240144,0.09756397,0.10032384,0.14446406,-0.9844112,-0.01582135,0.9895094,0.14359984,0.99482906,0.0011682274,0.101556994,0.032470703,-0.026473999,0.07272339,9.759811,0.016906738,0.95677185,0.015991211,0.0021362305,0.0095825195,-27.822876,21.669006,-0.83465576,0,0.0,0.0,0.0,0.0
1.296295166,0.097005665,0.086362556,-0.9915298,-0.010145318,0.99626225,0.085782185,0.9952321,0.0017380257,0.09751927,0.10026168,0.14330737,-0.98458654,-0.015703592,0.9896775,0.14244927,0.99483716,0.0011793431,0.10147717,0.14738464,0.035614014,-0.104003906,9.759811,0.017044067,0.95632935,0.014923096,-0.003189087,0.010650635,-27.822876,21.669006,-0.83465576,0,0.0,0.0,0.0,0.0
1.300689698,0.09703447,0.08639978,-0.9915238,-0.010151462,0.99625903,0.08581893,0.99522924,0.0017380207,0.09754855,0.10019963,0.14217247,-0.9847573,-0.015588368,0.98984116,0.14132032,0.9948452,0.0011905167,0.101397954,0.061203003,-0.0026855469,0.053726196,9.759811,0.017044067,0.95661926,0.014923096,-0.010650635,0.0063934326,-27.822876,21.669006,-0.83465576,0,0.0,0.0,0.0,0.0
1.305053711,0.09571824,0.17708883,-0.9795292,-0.018966211,0.9841933,0.1760787,0.99522775,0.0017240144,0.09756397,0.10013933,0.14106083,-0.9849233,-0.015475775,0.9900002,0.14021449,0.9948531,0.0012014669,0.10132098,0.118652344,0.0692749,-0.16668701,9.759811,0.016906738,0.95677185,-0.007446289,0.012771606,0.007461548,-26.747131,21.310425,1.2390137,0,0.0,0.0,0.0,0.0
1.309417725,0.09581246,0.17720534,-0.9794989,-0.018963438,0.9841724,0.17619587,0.99521875,0.0016929061,0.097656414,0.100052215,0.1417834,-0.9848284,-0.01554852,0.98989695,0.14093348,0.9948607,0.0012119177,0.10124591,0.023040771,-0.035751343,-0.07182312,9.759659,0.016601563,0.9576721,-0.004257202,0.022354126,0.008514404,-26.747131,21.310425,1.2390137,0,0.0,0.0,0.0,0.0
1.313781739,0.09588942,0.17730048,-0.9794742,-0.019048229,0.98415524,0.17628303,0.99520975,0.0017535734,0.097747326,0.09996866,0.14249378,-0.9847343,-0.015619579,0.9897949,0.14164038,0.9948679,0.0012215375,0.10117415,0.023040771,0.078567505,-0.04399109,9.759659,0.017196655,0.9585724,0.005340576,0.027694702,0.0021362305,-26.747131,21.310425,1.2390137,0,0.0,0.0,0.0,0.0
1.318145752,0.09603706,0.17748302,-0.97942674,-0.019000418,0.98412246,0.17647086,0.99519634,0.0016617752,0.09788447,0.09988825,0.14319181,-0.98464125,-0.015690748,0.9896942,0.14233486,0.9948749,0.0012321783,0.1011056,0.05671692,-0.10247803,0.0073394775,9.759506,0.016296387,0.95991516,0.01171875,0.022354126,-0.0053253174,-26.747131,21.310425,1.2390137,0,0.0,0.0,0.0,0.0
1.322540283,0.0960115,0.17745145,-0.9794349,-0.019055568,0.98412806,0.17643377,0.99519783,0.0017240164,0.09786905,0.099812366,0.14387947,-0.9845487,-0.015759354,0.9895944,0.14301917,0.99488145,0.0012407703,0.101041205,0.02798462,0.13632202,-0.045181274,9.759506,0.016906738,0.9597626,-0.012756348,0.03302002,0.007461548,-26.747131,21.310425,1.2390137,0,0.0,0.0,0.0,0.0
1.326904297,0.09602122,0.17746346,-0.97943187,-0.019088423,0.9841259,0.17644258,0.9951962,0.001753577,0.097884454,0.09973745,0.14455268,-0.9844577,-0.015827607,0.9894963,0.14368899,0.9948879,0.0012504352,0.100977756,0.004043579,0.092926025,0.06478882,9.759506,0.017196655,0.95991516,0.009597778,0.011703491,0.01171875,-26.747131,21.310425,1.2390137,0,0.0,0.0,0.0,0.0
1.331268311,0.09689392,0.13037607,-0.9867186,-0.01453284,0.99146295,0.12957585,0.9951886,0.0017847107,0.09796148,0.09966415,0.14521259,-0.984368,-0.015895046,0.9893997,0.14434554,0.9948942,0.0012604981,0.10091585,0.18615723,0.06867981,0.1837616,9.759354,0.017501831,0.96066284,0.0021362305,0.004272461,-0.004257202,-27.105713,21.669006,0.20141602,0,0.0,0.0,0.0,0.0
1.335632324,0.0969129,0.13039976,-0.98671365,-0.014506454,0.99146,0.12960222,0.9951872,0.0017535886,0.0979769,0.09960896,0.14491616,-0.98441726,-0.015866954,0.98944306,0.14405051,0.9949001,0.0012709823,0.10085678,0.07601929,-0.079437256,0.07347107,9.759354,0.017196655,0.9608154,0.01171875,-0.0021209717,0.0053253174,-27.105713,21.669006,0.20141602,0,0.0,0.0,0.0,0.0
1.339996338,0.09687316,0.13035014,-0.98672414,-0.014466622,0.9914666,0.12955636,0.99519163,0.0017240327,0.09793221,0.0995553,0.14462614,-0.9844653,-0.015838947,0.9894855,0.14376192,0.99490595,0.0012806344,0.100799255,-0.029327393,-0.04084778,0.117004395,9.759354,0.016906738,0.9603729,0.0,0.0010681152,0.0021362305,-27.105713,21.669006,0.20141602,0,0.0,0.0,0.0,0.0
1.344390869,0.097026706,0.12333719,-0.9876101,-0.013711563,0.99236345,0.122583725,0.99518734,0.0016477823,0.097976916,0.0995019,0.1443409,-0.9845126,-0.015810719,0.98952717,0.14347814,0.99491173,0.0012895024,0.100741975,0.037704468,-0.0736084,0.08784485,9.759354,0.016159058,0.9608154,0.018112183,-0.020233154,0.0053253174,-26.567078,21.131897,0.0289917,0,0.0,0.0,0.0,0.0
1.348754883,0.09702126,0.12333033,-0.9876114,-0.0137554575,0.99236417,0.122572534,0.9951873,0.0016929056,0.09797691,0.09945288,0.14392143,-0.98457897,-0.015767647,0.98958826,0.14306098,0.99491733,0.001296668,0.10068671,0.047286987,0.12704468,0.006439209,9.759354,0.016601563,0.9608154,-0.022354126,0.0010681152,0.008514404,-26.567078,21.131897,0.0289917,0,0.0,0.0,0.0,0.0
1.353118897,0.09698932,0.123290196,-0.98761964,-0.01376311,0.9923692,0.1225315,0.99519026,0.0017084704,0.09794608,0.09940477,0.14351021,-0.9846439,-0.015726367,0.989648,0.1426519,0.9949228,0.0013045927,0.10063262,0.052078247,0.03112793,-0.069869995,9.759354,0.01675415,0.96051025,0.0032043457,0.0053253174,-0.007461548,-26.567078,21.131897,0.0289917,0,0.0,0.0,0.0,0.0
1.35748291,0.09682698,0.13467747,-0.9861472,-0.01486059,0.990888,0.1338658,0.9951903,0.0016929107,0.097946085,0.099356845,0.14310637,-0.9847075,-0.015686076,0.98970646,0.14225014,0.99492824,0.0013126703,0.10057889,-0.034118652,-0.016601563,0.011520386,9.759354,0.016601563,0.96051025,0.0032043457,0.013839722,0.0063934326,-26.567078,21.84906,0.3753662,0,0.0,0.0,0.0,0.0
1.361877442,0.09682698,0.13467747,-0.9861472,-0.01486059,0.990888,0.1338658,0.9951903,0.0016929107,0.097946085,0.09891134,0.14338565,-0.9847117,-0.015965898,0.98966557,0.14250326,0.9949682,0.001626618,0.10017842,-0.014953613,-0.026168823,-0.017196655,9.759354,0.016601563,0.96051025,-0.006378174,-0.0053253174,-0.0053253174,-26.567078,21.84906,0.3753662,0,0.0,0.0,0.0,0.0
1.366882324,0.0967561,0.13459162,-0.98616594,-0.014811144,0.99089974,0.13378452,0.9951979,0.0016617777,0.09786906,0.0988697,0.14321159,-0.9847412,-0.015943412,0.9896908,0.14233066,0.99497265,0.0016279438,0.10013371,-0.02468872,-0.049804688,-0.17926025,9.759506,0.016296387,0.9597626,-0.0095825195,-0.004257202,-0.0032043457,-26.567078,21.84906,0.3753662,0,0.0,0.0,0.0,0.0
1.371887207,0.09649717,0.15127476,-0.98377043,-0.016410844,0.98849046,0.15039082,0.99519795,0.0016322143,0.09786907,0.09882753,0.14303929,-0.9847705,-0.015920391,0.9897157,0.14215988,0.99497724,0.0016286206,0.100088395,-0.05342102,0.15637207,0.074523926,9.759506,0.01600647,0.9597626,0.009597778,0.009597778,0.0010681152,-27.822876,21.310425,0.5477905,0,0.0,0.0,0.0,0.0
1.37689209,0.09651804,0.15130182,-0.9837642,-0.016477834,0.98848605,0.15041138,0.99519473,0.0016928918,0.09789987,0.09882753,0.14303929,-0.9847705,-0.015920391,0.9897157,0.14215988,0.99497724,0.0016286206,0.100088395,-0.05342102,0.15577698,0.07421875,9.759506,0.016601563,0.96006775,0.009597778,0.009597778,0.0010681152,-27.822876,21.310425,0.5477905,0,0.0,0.0,0.0,0.0
1.381896973,0.096534416,0.15132308,-0.9837593,-0.016482493,0.9884829,0.15043227,0.9951932,0.0016929156,0.097916804,0.098736204,0.14336666,-0.98473203,-0.015943188,0.9896683,0.14248675,0.99498594,0.0016311655,0.10000181,0.047286987,0.0121154785,0.05970764,9.759354,0.016601563,0.96022034,-0.003189087,0.0032043457,0.0021362305,-27.822876,21.310425,0.5477905,0,0.0,0.0,0.0,0.0
1.386932373,0.09753402,0.069248974,-0.99282,-0.008443691,0.99759793,0.06875273,0.99519634,0.0016773348,0.09788447,0.09869214,0.14352588,-0.98471326,-0.015954303,0.98964524,0.14264573,0.9949901,0.0016324006,0.09996006,0.0471344,-0.035598755,-0.08364868,9.759506,0.016448975,0.95991516,0.008529663,0.008529663,-0.0021362305,-26.38855,20.23468,-1.1810303,0,0.0,0.0,0.0,0.0
1.391937256,0.0975503,0.06927037,-0.992817,-0.008431397,0.99759656,0.068775415,0.9951949,0.0016617727,0.097899884,0.098674655,0.14204681,-0.98492944,-0.015801795,0.9898586,0.1411746,0.9949943,0.0016332993,0.099918544,-0.0103302,-0.030654907,0.03591919,9.759506,0.016296387,0.96006775,-0.012756348,0.004272461,-0.0063934326,-26.38855,20.23468,-1.1810303,0,0.0,0.0,0.0,0.0
1.396942139,0.09753402,0.069248974,-0.99282,-0.008443691,0.99759793,0.06875273,0.99519634,0.0016773348,0.09788447,0.09865767,0.14059745,-0.9851391,-0.01565221,0.9900655,0.13973302,0.99499834,0.0016338687,0.099878214,0.06150818,0.036209106,-0.026184082,9.759506,0.016448975,0.95991516,0.0138549805,-0.0053253174,-0.0021362305,-26.38855,20.23468,-1.1810303,0,0.0,0.0,0.0,0.0
1.401947022,0.09661122,0.14494435,-0.9847118,-0.01582417,0.98943835,0.14408755,0.99519634,0.0016617752,0.09788447,0.09864045,0.13917635,-0.98534256,-0.0155059155,0.99026626,0.13831954,0.9950023,0.0016347381,0.09983836,0.04234314,-0.045013428,-0.0070343018,9.759506,0.016296387,0.95991516,0.0032043457,-0.010650635,0.003189087,-27.464294,22.027588,0.5477905,0,0.0,0.0,0.0,0.0
1.406738282,0.09659627,0.14492582,-0.98471606,-0.015820133,0.9894411,0.14406936,0.9951979,0.0016617777,0.09786906,0.09859992,0.13929176,-0.98533034,-0.015512515,0.99025005,0.13843493,0.99500626,0.0016352788,0.09979934,0.12854004,-0.049804688,-0.002090454,9.759506,0.016296387,0.9597626,0.014923096,-0.004257202,-0.004257202,-27.464294,22.027588,0.5477905,0,0.0,0.0,0.0,0.0
1.411102295,0.09656983,0.14489305,-0.9847234,-0.015798911,0.98944587,0.14403856,0.9952008,0.0016477788,0.09783978,0.0985598,0.1394045,-0.9853184,-0.0155188795,0.9902342,0.13854766,0.99501014,0.0016358087,0.099760674,0.03755188,-0.025726318,-0.07841492,9.759506,0.016159058,0.95947266,-0.027679443,0.0,-0.0063934326,-27.464294,22.027588,0.5477905,0,0.0,0.0,0.0,0.0
1.415466309,0.09664448,0.13830316,-0.9856633,-0.0151361115,0.9903886,0.13748209,0.9952038,0.0016322238,0.09780896,0.09851997,0.13951433,-0.98530686,-0.015524689,0.9902187,0.13865751,0.995014,0.0016360481,0.09972224,0.12374878,-0.04951477,-0.08769226,9.759506,0.01600647,0.9591675,0.004272461,0.0021362305,0.0021362305,-26.92566,21.490479,0.3753662,0,0.0,0.0,0.0,0.0
1.419830323,0.09661392,0.13826503,-0.9856717,-0.015143688,0.9903939,0.13744307,0.99520665,0.0016477884,0.09777968,0.09848243,0.13949011,-0.9853141,-0.015516868,0.99022216,0.13863403,0.9950178,0.0016359716,0.099683926,0.12854004,0.06523132,-0.068237305,9.759506,0.016159058,0.95887756,-0.004257202,-0.015975952,0.0063934326,-26.92566,21.490479,0.3753662,0,0.0,0.0,0.0,0.0
1.424194336,0.096565634,0.13820474,-0.9856848,-0.015145002,0.99040234,0.13738246,0.9952114,0.0016617742,0.09773193,0.09844508,0.13946562,-0.98532116,-0.01550936,0.99022555,0.13861021,0.99502164,0.0016362079,0.09964585,0.08050537,0.041152954,-0.10609436,9.759659,0.016296387,0.9584198,0.0063934326,-0.004257202,0.0010681152,-26.92566,21.490479,0.3753662,0,0.0,0.0,0.0,0.0
1.42855835,0.095715456,0.18574753,-0.97792447,-0.019824203,0.98259604,0.18469453,0.99521136,0.0017084532,0.097731926,0.09891057,0.13894302,-0.98534846,-0.015430808,0.99029917,0.13809215,0.9949767,0.0015459497,0.100095056,0.14753723,0.05027771,-0.02947998,9.759659,0.01675415,0.9584198,0.007461548,0.007461548,0.0021362305,-27.28424,21.490479,1.411438,0,0.0,0.0,0.0,0.0
1.432922364,0.0957035,0.18573262,-0.9779286,-0.019804677,0.9825989,0.18468148,0.99521285,0.0016928961,0.09771652,0.09884857,0.13988252,-0.98522174,-0.015521234,0.9901669,0.13902737,0.9949814,0.0015491998,0.10004773,0.08529663,-0.045318604,-0.038894653,9.759659,0.016601563,0.9582672,0.024505615,0.0053253174,-0.004257202,-27.28424,21.490479,1.411438,0,0.0,0.0,0.0,0.0
