Time,Rot1,Rot2,Rot3,Rot4,Rot5,Rot6,Rot7,Rot8,Rot9,FRot1,FRot2,FRot3,FRot4,FRot5,FRot6,FRot7,FRot8,FRot9,AccX,AccY,AccZ,GravX,GravY,GravZ,GyroX,GyroY,GyroZ,MagX,MagY,MagZ,Imid
0.0,0.0,0.0,0.0,0.0,0.0,0.0,0.0,0.0,0.0,0.0,0.0,0.0,0.0,0.0,0.0,0.0,0.0,0.0,-9.781647,-0.010772705,-0.69924927,9.781647,0.010772705,0.69924927,0.0,0.0,0.0,0.0,0.0,0.0,0,0.0,0.0,0.0,0.0
0.004394531,0.0693233,0.21199805,-0.9748082,-0.016205512,0.97726935,0.21138084,0.9974626,0.0011436471,0.071183085,1.0,0.0,0.0,0.0,1.0,0.0,0.0,0.0,1.0,0.044143677,0.02947998,0.08244324,9.781647,0.01121521,0.6980591,0.0,0.0,0.0,-27.822876,22.744751,2.9678345,0,0.0,0.0,0.0,0.0
0.00881958,0.06905958,0.21168673,-0.97489464,-0.016125217,0.97733694,0.21107478,0.99748224,0.0011436518,0.07090797,0.99954116,0.0042723664,-0.029986357,-0.004271131,0.9999909,1.05251034E-4,0.029986534,2.2872926E-5,0.9995503,0.0056915283,-0.02796936,0.10908508,9.781799,0.01121521,0.6953583,-0.003189087,-0.031951904,-0.007461548,-27.822876,22.744751,2.9678345,0,0.0,0.0,0.0,0.0
0.013214111,0.06875169,0.21132323,-0.97499526,-0.016031686,0.97741556,0.21071734,0.99750495,0.0011436422,0.070586845,0.99820143,0.00845284,-0.05935112,-0.008440626,0.9999643,4.5649317E-4,0.059352856,4.5288485E-5,0.9982371,-0.028137207,0.0390625,0.040405273,9.7821045,0.01121521,0.69221497,0.017044067,-0.07136536,-0.0010681152,-27.822876,22.744751,2.9678345,0,0.0,0.0,0.0,0.0
0.01763916,0.06892481,0.17428261,-0.98228043,-0.013311941,0.98469496,0.17377694,0.997533,0.0010985172,0.07018996,0.9960342,0.012542124,-0.08808258,-0.012499292,0.9999213,0.0010378301,0.08808867,6.725555E-5,0.99611264,0.067337036,0.029922485,0.058654785,9.782394,0.010772705,0.688324,-0.003189087,-0.07562256,0.0,-28.001404,22.924805,2.1026611,0,0.0,0.0,0.0,0.0
0.022033692,0.06854272,0.17382576,-0.98238814,-0.013195696,0.98477584,0.17332757,0.9975609,0.001082954,0.06979296,0.99310327,0.01579449,-0.11617375,-0.015697729,0.99987525,0.0017478375,0.116186865,8.788077E-5,0.99322736,0.0095825195,0.034866333,0.11042786,9.7827,0.010620117,0.684433,0.0010681152,-0.09693909,0.012771606,-28.001404,22.924805,2.1026611,0,0.0,0.0,0.0,0.0
0.02645874,0.06819362,0.17340834,-0.98248625,-0.013165697,0.98484945,0.17291163,0.9975853,0.0011436469,0.06944349,0.98945135,0.018972369,-0.14361736,-0.0187911,0.99982,0.0026185683,0.14364119,1.07782216E-4,0.9896298,0.11477661,0.04862976,0.07077026,9.782852,0.01121521,0.68099976,-0.004257202,-0.100128174,0.0053253174,-28.001404,22.924805,2.1026611,0,0.0,0.0,0.0,0.0
0.030853272,0.06655631,0.24928337,-0.9661408,-0.01829433,0.9684299,0.24861373,0.9976149,0.0011280872,0.06901559,0.98416775,0.022591835,-0.17579408,-0.022325587,0.99974465,0.0034924087,0.1758281,4.8758983E-4,0.9844208,-0.0052337646,-0.013442993,-0.06388855,9.783142,0.011062622,0.6768036,0.004257202,-0.08308411,-0.008529663,-25.849915,20.414734,3.4866333,0,0.0,0.0,0.0,0.0
0.03527832,0.06620592,0.24886234,-0.9662735,-0.018126864,0.9685383,0.24820364,0.99764127,0.0010829584,0.06863405,0.97905195,0.027177336,-0.20178883,-0.026718901,0.9996305,0.0049958285,0.20185003,5.003998E-4,0.9794163,0.04234314,-0.08961487,0.097854614,9.783447,0.010620117,0.6730652,0.003189087,-0.09161377,0.0010681152,-25.849915,20.414734,3.4866333,0,0.0,0.0,0.0,0.0
0.039703369,0.065774806,0.24834426,-0.96643615,-0.018024951,0.96867126,0.24769185,0.9976717,0.001128081,0.06819055,0.9733512,0.031661883,-0.22712347,-0.03095,0.99949855,0.0066958573,0.22722156,5.1205093E-4,0.973843,0.11387634,0.015258789,-0.07975769,9.783752,0.011062622,0.66871643,0.019180298,-0.09480286,0.0021209717,-25.849915,20.414734,3.4866333,0,0.0,0.0,0.0,0.0
0.044097901,0.06550084,0.24801494,-0.9665394,-0.017868415,0.9687556,0.24737272,0.99769247,0.0010674036,0.067885935,0.9671077,0.036045432,-0.2518002,-0.03501469,0.99935,0.008574364,0.2519456,5.243715E-4,0.96774125,0.041885376,-0.01763916,0.03337097,9.783905,0.010467529,0.6657257,0.0021362305,-0.09161377,-0.008529663,-25.849915,20.414734,3.4866333,0,0.0,0.0,0.0,0.0
0.048522949,0.06529129,0.24776308,-0.9666181,-0.017828673,0.96882004,0.24712323,0.99770695,0.0010985237,0.0676728,0.96036303,0.04033385,-0.2758188,-0.038914543,0.99918616,0.010619038,0.27602264,5.3523213E-4,0.961151,0.108795166,-0.032318115,-0.093826294,9.784042,0.010772705,0.66363525,-0.008514404,-0.07243347,0.008514404,-25.849915,20.414734,3.4866333,0,0.0,0.0,0.0,0.0
0.052917481,0.065234035,0.24769425,-0.96663964,-0.01780908,0.9688377,0.24705563,0.99771106,0.0010985283,0.06761239,0.95315653,0.044530578,-0.2991816,-0.042650577,0.9990078,0.012814025,0.2994554,5.46498E-4,0.9541101,0.046539307,-0.0036010742,-0.16984558,9.784042,0.010772705,0.66304016,-0.0010681152,-0.038345337,-0.008529663,-25.849915,20.414734,3.4866333,0,0.0,0.0,0.0,0.0
0.057342529,0.06572514,0.21139048,-0.9751894,-0.0153045,0.9774012,0.21083844,0.9977204,0.0010674018,0.06747504,0.9455263,0.048641194,-0.32189113,-0.046225917,0.99881613,0.015147305,0.32224685,5.575386E-4,0.94665545,0.027236938,-0.07989502,-0.35523987,9.784195,0.010467529,0.6616974,0.0063934326,-0.019165039,-0.007461548,-27.642822,21.490479,2.7954102,0,0.0,0.0,0.0,0.0
0.061737061,0.06579468,0.21147689,-0.97516596,-0.015341524,0.9773824,0.21092246,0.99771523,0.001082956,0.067550935,0.93754447,0.051923774,-0.3439685,-0.048942406,0.99865085,0.017350549,0.34440535,5.6773575E-4,0.93882084,-0.04937744,0.0013427734,-0.16925049,9.784195,0.010620117,0.66244507,0.008529663,0.0,-0.007461548,-27.642822,21.490479,2.7954102,0,0.0,0.0,0.0,0.0
0.066162109,0.06595456,0.21167552,-0.975112,-0.015390191,0.9773394,0.21111807,0.9977039,0.0010829606,0.067717716,0.9292128,0.05514192,-0.36540774,-0.051528513,0.99847835,0.019641224,0.3659348,5.780402E-4,0.9306403,0.027389526,-0.03694153,-0.06074524,9.784042,0.010620117,0.66407776,0.0,0.031951904,-0.004272461,-27.642822,21.490479,2.7954102,0,0.0,0.0,0.0,0.0
0.070556641,0.06528073,0.261379,-0.96302617,-0.018827492,0.9652356,0.2607024,0.9976893,0.0011125235,0.0679324,0.9205642,0.058299202,-0.38621604,-0.053987507,0.998299,0.02201118,0.3868423,5.881386E-4,0.92214566,-0.039505005,0.034576416,0.09037781,9.783905,0.010910034,0.6661835,0.003189087,0.045791626,-0.004272461,-25.849915,21.84906,4.1778564,0,0.0,0.0,0.0,0.0
0.076660156,0.065532155,0.26165873,-0.9629332,-0.018885469,0.96515995,0.26097858,0.9976718,0.0010829578,0.06819055,0.91157126,0.062414046,-0.4063771,-0.0572502,0.99805015,0.024865359,0.4071367,5.9862627E-4,0.91336703,-0.005844116,0.10189819,0.011230469,9.783752,0.010620117,0.66871643,0.003189087,0.04046631,-0.0053253174,-25.849915,21.84906,4.1778564,0,0.0,0.0,0.0,0.0
0.08279419,0.06571553,0.26186267,-0.9628652,-0.019028954,0.96510434,0.26117292,0.9976569,0.0011592013,0.06840532,0.91157126,0.062414046,-0.4063771,-0.0572502,0.99805015,0.024865359,0.4071367,5.9862627E-4,0.91336703,-0.0056915283,0.10115051,0.009124756,9.7836,0.011367798,0.67082214,0.003189087,0.04046631,-0.0053253174,-25.849915,21.84906,4.1778564,0,0.0,0.0,0.0,0.0
0.088897705,0.065021865,0.30286554,-0.95081264,-0.021907799,0.95303255,0.30207446,0.9976433,0.0011887671,0.06860307,0.8928303,0.07041519,-0.44485474,-0.06330281,0.9975176,0.03084542,0.4459224,6.2082504E-4,0.8950714,0.04234314,0.038619995,0.15083313,9.783447,0.011657715,0.67276,-0.0021362305,0.047927856,-0.009597778,-27.28424,20.056152,4.522705,0,0.0,0.0,0.0,0.0
0.094146729,0.065073244,0.30293,-0.95078856,-0.02194528,0.953012,0.30213642,0.9976391,0.001204322,0.06866346,0.8928303,0.07041519,-0.44485474,-0.06330281,0.9975176,0.03084542,0.4459224,6.2082504E-4,0.8950714,0.04234314,0.038467407,0.15023804,9.783447,0.011810303,0.6733551,-0.0021362305,0.047927856,-0.009597778,-27.28424,20.056152,4.522705,0,0.0,0.0,0.0,0.0
0.098632813,0.06518297,0.30306768,-0.95073724,-0.022006873,0.95296836,0.3022701,0.99763066,0.0012198903,0.068786874,0.87387216,0.07981493,-0.47955927,-0.070327796,0.9968094,0.037748776,0.4810421,7.38744E-4,0.8766972,0.023345947,0.02394104,0.08200073,9.783295,0.011962891,0.67456055,0.0010681152,0.023422241,-0.0010681152,-27.28424,20.056152,4.522705,0,0.0,0.0,0.0,0.0
0.103118897,0.0651732,0.30305544,-0.95074177,-0.021986552,0.9529721,0.3022592,0.99763167,0.0012043318,0.068771385,0.87387216,0.07981493,-0.47955927,-0.070327796,0.9968094,0.037748776,0.4810421,7.38744E-4,0.8766972,0.023345947,0.024093628,0.08215332,9.783295,0.011810303,0.67440796,0.0010681152,0.023422241,-0.0010681152,-27.28424,20.056152,4.522705,0,0.0,0.0,0.0,0.0
0.107604981,0.06727025,0.1890894,-0.97965294,-0.014193158,0.98195916,0.18855993,0.9976339,0.0012198943,0.06874042,0.85354227,0.088811435,-0.5133987,-0.07649685,0.99604815,0.045125127,0.5153774,7.5718126E-4,0.856963,0.07601929,0.0095825195,-0.051620483,9.783295,0.011962891,0.6741028,-0.022354126,-0.010650635,0.003189087,-26.747131,21.310425,2.2766113,0,0.0,0.0,0.0,0.0
0.111968994,0.06727602,0.18909647,-0.9796512,-0.014163155,0.98195785,0.18856907,0.9976339,0.0011887745,0.06874042,0.84336704,0.09082936,-0.52960557,-0.0773297,0.9958662,0.04765162,0.5317444,7.664355E-4,0.8469045,0.028137207,-0.066711426,0.010635376,9.783295,0.011657715,0.6741028,-0.007461548,-0.01171875,-0.007461548,-26.747131,21.310425,2.2766113,0,0.0,0.0,0.0,0.0
0.116149902,0.06712723,0.2011501,-0.9772577,-0.014995107,0.9795597,0.20059392,0.99763167,0.0011887719,0.068771385,0.8330935,0.09280671,-0.5452908,-0.078077994,0.99568385,0.05017483,0.5475938,7.748823E-4,0.83674395,0.032928467,3.0517578E-4,0.05821228,9.783295,0.011657715,0.67440796,-0.007461548,-0.0021209717,-0.0063934326,-25.849915,22.207642,2.7954102,0,0.0,0.0,0.0,0.0
0.120330811,0.06710629,0.2011265,-0.9772639,-0.0149431685,0.9795646,0.20057388,0.99763393,0.001143651,0.06874042,0.8227204,0.09498885,-0.5604536,-0.078947134,0.99547803,0.052828446,0.5629373,7.8316015E-4,0.8264992,0.07601929,-0.12852478,-0.056411743,9.783295,0.01121521,0.6741028,0.0021362305,-0.015975952,0.0063934326,-25.849915,22.207642,2.7954102,0,0.0,0.0,0.0,0.0
0.124511719,0.06707694,0.20109345,-0.9772728,-0.014934761,0.9795714,0.20054136,0.997636,0.0011436355,0.06870993,0.812283,0.09712643,-0.5751198,-0.07972779,0.99527174,0.05547655,0.5777887,7.9036993E-4,0.816186,0.02319336,0.0055389404,-0.07527161,9.783447,0.01121521,0.67381287,0.004257202,-0.0063934326,0.0021209717,-25.849915,22.207642,2.7954102,0,0.0,0.0,0.0,0.0
0.128692627,0.06493252,0.3114331,-0.94804704,-0.022448443,0.95026743,0.310625,0.9976371,0.0011125173,0.06869444,0.801797,0.09922016,-0.58930224,-0.0804235,0.9950652,0.058114853,0.5921603,7.9743523E-4,0.80581987,0.06628418,-0.080337524,-0.0368042,9.783447,0.010910034,0.6736603,-0.008514404,-0.0053253174,-0.0010681152,-26.92566,21.490479,5.215454,0,0.0,0.0,0.0,0.0
0.132873535,0.06492311,0.31142235,-0.9480512,-0.02247721,0.9502709,0.31061226,0.9976371,0.0011436368,0.06869444,0.7910896,0.1035441,-0.60287297,-0.08284511,0.99462456,0.062118545,0.60606426,8.037369E-4,0.7954153,0.06628418,0.05342102,-0.04638672,9.783447,0.01121521,0.6736603,0.012786865,0.014907837,-0.0032043457,-26.92566,21.490479,5.215454,0,0.0,0.0,0.0,0.0
0.137054443,0.064956225,0.31146026,-0.94803643,-0.022523634,0.95025843,0.31064704,0.99763393,0.0011747706,0.06874042,0.7803595,0.10777944,-0.61597294,-0.08510463,0.9941745,0.066138245,0.61951286,8.105348E-4,0.784986,0.047286987,0.067474365,0.12075806,9.783295,0.011520386,0.6741028,0.024505615,0.0053253174,-0.0010681152,-26.92566,21.490479,5.215454,0,0.0,0.0,0.0,0.0
0.141235352,0.067310385,0.18987523,-0.97949815,-0.014225323,0.9818075,0.18934533,0.99763066,0.0011887706,0.068786874,0.76962066,0.11192898,-0.62861437,-0.08720817,0.9937158,0.07016767,0.6325178,8.1781956E-4,0.7745453,0.10475159,0.057769775,0.12509155,9.783295,0.011657715,0.67456055,0.014907837,-0.0053253174,0.0,-28.001404,20.773315,2.1026611,0,0.0,0.0,0.0,0.0
0.14541626,0.067307495,0.18987143,-0.9794991,-0.014240302,0.9818082,0.1893405,0.99763066,0.0012043305,0.068786874,0.7591076,0.113496356,-0.6409947,-0.08725212,0.993538,0.07258906,0.64509124,8.252386E-4,0.7641051,0.023345947,0.038467407,0.014968872,9.783295,0.011810303,0.67456055,0.0095825195,-0.010650635,-0.012786865,-28.001404,20.773315,2.1026611,0,0.0,0.0,0.0,0.0
0.149597168,0.06734134,0.18991594,-0.9794882,-0.014219981,0.9817997,0.18938649,0.9976287,0.0011747645,0.068816304,0.74860984,0.115032025,-0.65295553,-0.08724063,0.9933614,0.07498089,0.65724605,8.328204E-4,0.7536756,0.09516907,-0.076156616,0.081710815,9.783295,0.011520386,0.67485046,0.0021362305,-0.014907837,0.0,-28.001404,20.773315,2.1026611,0,0.0,0.0,0.0,0.0
0.153778076,0.066196725,0.25306728,-0.96518135,-0.018511273,0.96744806,0.25239202,0.9976349,0.0011592119,0.06872648,0.7381379,0.11653761,-0.66450846,-0.08717658,0.99318594,0.077343166,0.66899383,8.396593E-4,0.74326754,0.10954285,0.0053863525,0.077804565,9.783295,0.011367798,0.67396545,0.012786865,-0.017044067,-0.009597778,-26.747131,20.951843,3.6590576,0,0.0,0.0,0.0,0.0
0.157958984,0.06611699,0.25297087,-0.965212,-0.018451253,0.9674732,0.25229958,0.99764127,0.0011280817,0.06863405,0.7275862,0.11929912,-0.67556345,-0.08800454,0.992858,0.080549344,0.68034804,8.4605033E-4,0.7328887,-0.07736206,0.06315613,0.16011047,9.783447,0.011062622,0.6730652,0.0010681152,-0.027694702,0.0053253174,-26.747131,20.951843,3.6590576,0,0.0,0.0,0.0,0.0
0.162139893,0.06594316,0.25276068,-0.96527904,-0.01839044,0.9675282,0.2520933,0.9976539,0.0011280784,0.06845024,0.7155741,0.1208774,-0.6879988,-0.087862864,0.9926669,0.083021365,0.69298905,0.0010416048,0.7209474,0.11402893,-0.018234253,-9.0026855E-4,9.7836,0.011062622,0.67126465,0.0138549805,-0.03514099,0.010650635,-26.747131,20.951843,3.6590576,0,0.0,0.0,0.0,0.0
0.166320801,0.06640604,0.21969447,-0.97330606,-0.016139863,0.97556806,0.21910387,0.9976621,0.0011592074,0.06832944,0.7051249,0.12354443,-0.6982376,-0.088526525,0.9923385,0.08618219,0.7035354,0.0010433343,0.71065956,0.05656433,0.029327393,0.17268372,9.7836,0.011367798,0.67007446,0.007461548,-0.038345337,-0.0021362305,-26.567078,20.414734,2.7954102,0,0.0,0.0,0.0,0.0
0.170501709,0.06622556,0.21946827,-0.97336936,-0.016035305,0.975619,0.21888451,0.99767584,0.0011125259,0.06813015,0.69479644,0.12548204,-0.70817524,-0.088631384,0.99209535,0.08883307,0.7137243,0.0010456517,0.700426,0.07556152,-0.027664185,0.11238098,9.783752,0.010910034,0.66812134,0.012786865,-0.043670654,-0.0032043457,-26.567078,20.414734,2.7954102,0,0.0,0.0,0.0,0.0
0.174682617,0.06593433,0.21910322,-0.97347134,-0.015943808,0.975701,0.21852516,0.9976965,0.0011125315,0.067825526,0.6845339,0.12737584,-0.71776646,-0.08867299,0.99185395,0.091448374,0.72356784,0.0010469892,0.6902525,-0.020355225,-0.037231445,-0.15756226,9.783905,0.010910034,0.6651306,-0.015960693,-0.05218506,0.0053253174,-26.567078,20.414734,2.7954102,0,0.0,0.0,0.0,0.0
0.178863526,0.065468974,0.23709837,-0.96927714,-0.0171687,0.97148496,0.23647878,0.9977069,0.001159207,0.06767279,0.67434216,0.12922388,-0.72702396,-0.08865297,0.9916149,0.09402427,0.73307794,0.0010483001,0.68014383,0.017807007,-0.04248047,-0.060302734,9.784042,0.011367798,0.66363525,-0.008514404,-0.055389404,-0.0053253174,-26.208496,21.490479,3.4866333,0,0.0,0.0,0.0,0.0
0.183044434,0.065273866,0.23687156,-0.96934575,-0.017135244,0.9715403,0.23625396,0.9977203,0.0011887681,0.067475036,0.6641955,0.131401,-0.73591995,-0.08882594,0.9913288,0.09683635,0.74226296,0.0010505182,0.6701079,0.05596924,0.057769775,-0.044006348,9.784195,0.011657715,0.6616974,0.0095825195,-0.028762817,-0.012786865,-26.208496,21.490479,3.4866333,0,0.0,0.0,0.0,0.0
0.187225342,0.06510209,0.23667188,-0.96940607,-0.017064758,0.97158897,0.2360588,0.9977327,0.0011747605,0.067291215,0.6541324,0.13352932,-0.7445004,-0.08893347,0.99104434,0.099609375,0.7511336,0.0010532832,0.6601494,-0.04473877,-0.076156616,0.010467529,9.784348,0.011520386,0.65989685,0.0095825195,-0.040481567,-0.0032043457,-26.208496,21.490479,3.4866333,0,0.0,0.0,0.0,0.0
0.19140625,0.064852476,0.24340704,-0.96775365,-0.017529923,0.9699233,0.24277802,0.99774075,0.0012198937,0.06716884,0.64415777,0.1356104,-0.75277525,-0.08897854,0.9907617,0.10234312,0.75969964,0.0010557127,0.65027326,0.14199829,0.0574646,0.026046753,9.784348,0.011962891,0.6586914,0.010650635,-0.04473877,-0.0032043457,-27.28424,21.131897,3.4866333,0,0.0,0.0,0.0,0.0
0.195587158,0.06471475,0.24323778,-0.9678054,-0.017515322,0.96996576,0.24260955,0.99775004,0.0012510056,0.067031495,0.63426435,0.13778672,-0.76073885,-0.08905595,0.99046135,0.105144374,0.76796997,0.0010589963,0.64048505,0.012557983,0.033218384,0.032180786,9.7845,0.012268066,0.65734863,0.003189087,-0.026626587,-0.0053253174,-27.28424,21.131897,3.4866333,0,0.0,0.0,0.0,0.0
0.199768067,0.06465012,0.24315833,-0.96782976,-0.017461458,0.96998584,0.24253361,0.99775517,0.0012198923,0.06695559,0.6244685,0.13991542,-0.76841575,-0.08907371,0.9901629,0.10790425,0.77595425,0.0010628365,0.6307883,0.041290283,0.0143585205,0.11431885,9.7845,0.011962891,0.65660095,0.0021362305,-0.03514099,-0.004272461,-27.28424,21.131897,3.4866333,0,0.0,0.0,0.0,0.0
0.203948975,0.06517457,0.20415035,-0.9767675,-0.014850871,0.97893864,0.2036132,0.99776334,0.0012354429,0.066833735,0.6147748,0.14199929,-0.7758145,-0.08903523,0.98986614,0.11062398,0.783661,0.0010659776,0.62118775,0.103393555,-0.03366089,0.06762695,9.784653,0.0121154785,0.65541077,-0.009567261,-0.027694702,0.0063934326,-27.464294,21.310425,2.62146,0,0.0,0.0,0.0,0.0
0.208129883,0.06505389,0.20399968,-0.9768071,-0.014831095,0.9789701,0.20346367,0.9977715,0.001251013,0.06671136,0.6052566,0.14324868,-0.7830353,-0.08846056,0.98968613,0.11267679,0.79109997,0.0010693669,0.61168593,-0.025894165,0.105041504,0.0018005371,9.784653,0.012268066,0.6542053,-0.018096924,-0.03302002,-0.007461548,-27.464294,21.310425,2.62146,0,0.0,0.0,0.0,0.0
0.212310791,0.06496829,0.2038928,-0.9768352,-0.014789964,0.97899246,0.20335941,0.99777764,0.0012354434,0.06661902,0.5958439,0.14446981,-0.78999907,-0.08785979,0.9895086,0.114688,0.7982798,0.0010729998,0.60228574,0.16072083,-1.5258789E-4,0.08888245,9.78479,0.0121154785,0.65330505,-0.003189087,-0.025558472,0.0053253174,-27.464294,21.310425,2.62146,0,0.0,0.0,0.0,0.0
0.216491699,0.064589076,0.21745458,-0.9739311,-0.015604748,0.97606975,0.2168972,0.9977899,0.0011887603,0.06643676,0.5865397,0.14566416,-0.79671407,-0.0872349,0.9893335,0.116658814,0.80520886,0.0010762486,0.59299034,-0.030975342,-0.071502686,-0.105651855,9.784943,0.011657715,0.6515198,0.0063934326,-0.028762817,0.0021209717,-26.208496,21.84906,3.1402588,0,0.0,0.0,0.0,0.0
0.220672608,0.064412475,0.21725094,-0.9739882,-0.015629211,0.976115,0.21669173,0.997801,0.0012650167,0.06626945,0.5773205,0.14710885,-0.8031563,-0.086748436,0.9891197,0.118814506,0.8118964,0.0010784988,0.58380055,0.10310364,-4.4250488E-4,0.025283813,9.784943,0.0124053955,0.6498718,-0.011703491,-0.031951904,0.0021209717,-26.208496,21.84906,3.1402588,0,0.0,0.0,0.0,0.0
0.225799561,0.06435359,0.21718307,-0.97400725,-0.015611378,0.97613,0.21662495,0.997805,0.0012650021,0.066208,0.5682134,0.14852023,-0.8093672,-0.086233266,0.98890877,0.12092665,0.8183504,0.0010822291,0.5747186,0.03112793,0.004348755,-0.1512909,9.785095,0.0124053955,0.64927673,0.014907837,-0.039413452,-0.018112183,-26.208496,21.84906,3.1402588,0,0.0,0.0,0.0,0.0
0.230926514,0.064315654,0.21277456,-0.9749823,-0.015313169,0.97710055,0.21222669,0.99781215,0.0012805709,0.06610111,0.55828476,0.1491877,-0.8161257,-0.08570408,0.9888073,0.12212654,0.82521087,0.00176392,0.564822,0.09815979,-0.08198547,0.022140503,9.785095,0.012557983,0.6482239,0.014907837,-0.017044067,-0.0021362305,-28.720093,21.490479,2.7954102,0,0.0,0.0,0.0,0.0
0.236083984,0.064306974,0.21276334,-0.97498536,-0.015280311,0.977103,0.21221761,0.99781317,0.0012510086,0.066085614,0.54942733,0.15046643,-0.82188165,-0.085097454,0.98861355,0.124103375,0.8311967,0.0017542529,0.5559756,0.08380127,-0.08648682,-0.05911255,9.785095,0.012268066,0.6480713,0.022369385,-0.0234375,-0.008529663,-28.720093,21.490479,2.7954102,0,0.0,0.0,0.0,0.0
0.241210938,0.06423033,0.21266438,-0.97501194,-0.015348951,0.97712433,0.212114,0.99781704,0.0013412606,0.06602519,0.5406886,0.15171911,-0.82742804,-0.08447062,0.98842204,0.12604144,0.83697104,0.0017441881,0.54724437,0.09815979,0.14724731,0.061203003,9.785095,0.013153076,0.6474762,0.004257202,-0.018096924,-0.01171875,-28.720093,21.490479,2.7954102,0,0.0,0.0,0.0,0.0
0.246368408,0.06430706,0.20649604,-0.9763319,-0.014877584,0.9784466,0.20596339,0.99781924,0.00128056,0.06599319,0.53206855,0.15294452,-0.83277315,-0.08382608,0.98823327,0.12793837,0.8425416,0.0017361298,0.5386286,-0.036071777,-5.950928E-4,0.013626099,9.785248,0.012557983,0.647171,0.018112183,-0.015975952,-0.009597778,-26.567078,21.490479,2.7954102,0,0.0,0.0,0.0,0.0
0.251495361,0.06430706,0.20649604,-0.9763319,-0.014877584,0.9784466,0.20596339,0.99781924,0.00128056,0.06599319,0.53206855,0.15294452,-0.83277315,-0.08382608,0.98823327,0.12793837,0.8425416,0.0017361298,0.5386286,-0.036071777,-5.950928E-4,0.013626099,9.785248,0.012557983,0.647171,0.018112183,-0.015975952,-0.009597778,-26.567078,21.490479,2.7954102,0,0.0,0.0,0.0,0.0
0.256652832,0.06429532,0.206482,-0.9763356,-0.014858271,0.97844946,0.20595059,0.99782026,0.0012650017,0.06597769,0.51521003,0.15507482,-0.8429178,-0.08235823,0.9879012,0.13140881,0.85309774,0.0017180891,0.5217483,0.002243042,-0.057891846,-0.029327393,9.785248,0.0124053955,0.64701843,-0.0021362305,-0.01171875,-0.0053253174,-26.567078,21.490479,2.7954102,0,0.0,0.0,0.0,0.0
0.261688233,0.06423411,0.20640886,-0.97635514,-0.014856197,0.97846496,0.20587751,0.99782425,0.0012805666,0.065917276,0.50696194,0.15610757,-0.8477146,-0.081607744,0.98773855,0.13308898,0.8580966,0.0017090273,0.51348543,0.0980072,0.037719727,-0.1484375,9.785248,0.012557983,0.64642334,0.0010681152,-0.007446289,-0.0063934326,-26.567078,21.490479,2.7954102,0,0.0,0.0,0.0,0.0
0.265991211,0.06430077,0.20648853,-0.9763339,-0.014907475,0.9784482,0.2059539,0.99781924,0.0013116794,0.06599319,0.49883395,0.15711804,-0.8523372,-0.08084743,0.9875784,0.13473183,0.86291856,0.0017004581,0.5053402,0.0070343018,0.08050537,0.18121338,9.785248,0.012863159,0.647171,0.003189087,-0.003189087,0.007446289,-26.567078,21.490479,2.7954102,0,0.0,0.0,0.0,0.0
0.27029419,0.06432293,0.206515,-0.9763269,-0.014882256,0.9784426,0.20598203,0.9978181,0.0012805786,0.0660097,0.4908283,0.15810974,-0.8567899,-0.08008066,0.9874201,0.13634017,0.86756825,0.0016926826,0.49731526,0.05986023,-0.053253174,0.07571411,9.785095,0.012557983,0.6473236,0.017044067,-0.013839722,-0.0021362305,-26.567078,21.490479,2.7954102,0,0.0,0.0,0.0,0.0
0.274597168,0.06400535,0.2254984,-0.9721387,-0.01612624,0.9742426,0.22492468,0.99781924,0.00128056,0.06599319,0.48294416,0.159082,-0.86107945,-0.0793067,0.9872639,0.13791434,0.8720524,0.0016844405,0.48940963,0.0692749,-0.034103394,-0.04862976,9.785248,0.012557983,0.647171,-0.004257202,-0.004257202,-0.009597778,-25.491333,20.773315,3.1402588,0,0.0,0.0,0.0,0.0
0.278900147,0.06385197,0.22531803,-0.9721907,-0.016047977,0.9742844,0.22474927,0.9978303,0.0012510105,0.06582587,0.47515008,0.16041848,-0.86515796,-0.07871147,0.9870476,0.13979056,0.8763771,0.0016763628,0.48162255,0.11715698,-0.019439697,-0.12359619,9.785248,0.012268066,0.6455231,0.0021362305,-0.010650635,0.004257202,-25.491333,20.773315,3.1402588,0,0.0,0.0,0.0,0.0
0.283203125,0.0637093,0.22515023,-0.9722389,-0.015987445,0.9743233,0.22458528,0.9978404,0.001235444,0.06567303,0.4674752,0.16172431,-0.869087,-0.078098945,0.9868346,0.14162658,0.88054955,0.0016678558,0.4739512,0.021240234,0.06687927,-0.011962891,9.7854,0.0121154785,0.6440277,0.0010681152,-0.027694702,0.003189087,-25.491333,20.773315,3.1402588,0,0.0,0.0,0.0,0.0
0.287506104,0.06334967,0.23768444,-0.9692745,-0.016770631,0.97134167,0.23709527,0.9978504,0.001235439,0.06552028,0.4599192,0.16300035,-0.8728718,-0.077470884,0.9866246,0.14342289,0.88457483,0.0016592076,0.4663954,0.15518188,-0.01449585,0.05177307,9.785538,0.0121154785,0.64253235,0.0053253174,-0.03302002,0.0095825195,-27.28424,21.490479,3.4866333,0,0.0,0.0,0.0,0.0
0.291809082,0.06314312,0.23743434,-0.96934927,-0.01671878,0.9714028,0.2368483,0.9978644,0.0012509968,0.06530701,0.45246166,0.16450477,-0.8764797,-0.076947115,0.98637486,0.14540868,0.888458,0.0016507324,0.458955,-0.031723022,0.047576904,-0.056259155,9.78569,0.012268066,0.6404419,0.0138549805,-0.038345337,-0.0021362305,-27.28424,21.490479,3.4866333,0,0.0,0.0,0.0,0.0
0.296112061,0.06310036,0.23738253,-0.9693647,-0.016704753,0.97141546,0.23679735,0.99786735,0.0012510004,0.06526208,0.4427039,0.16569822,-0.8812249,-0.07607369,0.9861747,0.14721471,0.89343494,0.0018654985,0.4491887,0.054473877,-0.019439697,-0.09892273,9.78569,0.012268066,0.6399994,0.0053253174,-0.041534424,-0.0010681152,-27.28424,21.490479,3.4866333,0,0.0,0.0,0.0,0.0
0.300415039,0.0635933,0.19473784,-0.97879165,-0.013882647,0.98085463,0.19424629,0.9978794,0.0012354556,0.06507926,0.43552208,0.16714188,-0.8845248,-0.07551878,0.9859311,0.14911994,0.8970047,0.0018532085,0.44201708,0.12150574,-0.14857483,-0.044448853,9.78569,0.0121154785,0.63819885,0.015975952,-0.014907837,-0.009597778,-27.105713,22.027588,2.62146,0,0.0,0.0,0.0,0.0
0.304718018,0.06352245,0.19465318,-0.97881305,-0.0139245875,0.9808712,0.19415882,0.99788326,0.0012961241,0.06501781,0.4285214,0.16769516,-0.8878332,-0.074574746,0.98583716,0.15021205,0.9004488,0.0018408535,0.43495816,-0.05102539,0.08544922,-0.02947998,9.785843,0.012710571,0.63760376,0.015975952,-0.03727722,-0.010650635,-27.105713,22.027588,2.62146,0,0.0,0.0,0.0,0.0
0.309020996,0.06345673,0.1945747,-0.97883296,-0.013937918,0.9808868,0.19407938,0.99788725,0.0013272489,0.06495584,0.42163497,0.16823564,-0.89102226,-0.07363759,0.9857451,0.15127486,0.9037707,0.0018299589,0.4280131,0.0016479492,0.07077026,-0.19168091,9.785843,0.013015747,0.6369934,-0.02128601,-0.010650635,-0.008529663,-27.105713,22.027588,2.62146,0,0.0,0.0,0.0,0.0
0.313323975,0.062194467,0.2674787,-0.96155447,-0.018686041,0.9635628,0.26682872,0.9978891,0.0013723747,0.06492639,0.4148622,0.16876367,-0.8940963,-0.072707266,0.98565483,0.15230936,0.9069747,0.0018199047,0.42118126,0.07826233,0.09906006,-0.04774475,9.785843,0.013458252,0.6367035,0.007461548,-0.02130127,-0.007461548,-28.181458,20.951843,4.005432,0,0.0,0.0,0.0,0.0
0.317626953,0.062119003,0.26738322,-0.9615859,-0.018674552,0.96358925,0.2667339,0.99789405,0.0013879414,0.06485047,0.4080943,0.17075829,-0.8968281,-0.07239699,0.9853112,0.15466206,0.9100647,0.0018109541,0.4144623,0.15487671,0.03666687,-0.19064331,9.785843,0.01361084,0.6359558,-0.008514404,-0.013839722,-0.015975952,-28.181458,20.951843,4.005432,0,0.0,0.0,0.0,0.0
0.321929932,0.0620865,0.26734206,-0.9615994,-0.018614305,0.96360075,0.26669663,0.9978972,0.001341245,0.06480299,0.40144172,0.1727104,-0.8994529,-0.07206194,0.984971,0.15696882,0.9130452,0.0018024939,0.40785432,0.05895996,-0.10173035,-0.11357117,9.7859955,0.013153076,0.63549805,-0.010635376,-0.012771606,-0.008529663,-28.181458,20.951843,4.005432,0,0.0,0.0,0.0,0.0
0.32623291,0.062480275,0.24758488,-0.96684945,-0.017363736,0.9688653,0.24697898,0.9978952,0.001356802,0.06483398,0.39490396,0.17462195,-0.90197456,-0.07170319,0.9846339,0.15923157,0.91592,0.001793269,0.40135676,0.04937744,0.013015747,0.06808472,9.7859955,0.013305664,0.6358032,0.0053253174,-0.0053253174,0.014892578,-27.822876,21.310425,3.6590576,0,0.0,0.0,0.0,0.0
0.330535889,0.062437687,0.24753207,-0.9668658,-0.017349215,0.96887875,0.24692707,0.9978981,0.0013568059,0.06478904,0.38851005,0.1760921,-0.904462,-0.07116516,0.984372,0.16108114,0.91869223,0.0017845397,0.3949701,0.03501892,0.032180786,-0.07991028,9.7859955,0.013305664,0.6353607,-0.0053253174,0.0053253174,0.014892578,-27.822876,21.310425,3.6590576,0,0.0,0.0,0.0,0.0
0.334838867,0.062437687,0.24753207,-0.9668658,-0.017349215,0.96887875,0.24692707,0.9978981,0.0013568059,0.06478904,0.3822275,0.17753142,-0.9068543,-0.07061555,0.9841135,0.1628926,0.92136616,0.001775985,0.38869178,0.07331848,-0.025268555,-0.027236938,9.7859955,0.013305664,0.6353607,-0.004257202,-0.004257202,-0.004272461,-27.822876,21.310425,3.6590576,0,0.0,0.0,0.0,0.0
0.339141846,0.06290724,0.2195755,-0.9735653,-0.015562172,0.9755945,0.21902761,0.997898,0.0013723654,0.064789034,0.3760558,0.17894156,-0.9091546,-0.070056014,0.9838581,0.16466744,0.92394495,0.0017676014,0.38252148,0.12120056,0.05117798,0.039794922,9.7859955,0.013458252,0.6353607,0.017044067,0.0010681152,-0.0021362305,-25.491333,19.69757,2.7954102,0,0.0,0.0,0.0,0.0
0.343444824,0.06291724,0.21958792,-0.9735617,-0.01558118,0.9755916,0.21903883,0.9978971,0.001387924,0.064802974,0.37003335,0.17975748,-0.9114618,-0.06927504,0.98370934,0.16588195,0.926432,0.0017596966,0.376458,-0.06555176,0.04623413,0.010925293,9.7859955,0.01361084,0.63549805,0.003189087,-0.0063934326,0.0053253174,-25.491333,19.69757,2.7954102,0,0.0,0.0,0.0,0.0
0.347747803,0.062951185,0.2196302,-0.97355,-0.015575802,0.9755821,0.21908148,0.997895,0.0013723827,0.064834975,0.36411765,0.1805572,-0.9136835,-0.06849752,0.9835629,0.16706905,0.9288307,0.0017522612,0.37050036,-0.017501831,-0.06373596,0.10638428,9.785843,0.013458252,0.6358032,0.0095825195,0.0010681152,-0.01171875,-25.491333,19.69757,2.7954102,0,0.0,0.0,0.0,0.0
0.352050781,0.06331046,0.1988433,-0.9779842,-0.014180982,0.98003036,0.19834131,0.9978931,0.0013116967,0.06486597,0.35830766,0.18134171,-0.9158225,-0.06772361,0.9834185,0.16823013,0.931144,0.0017446636,0.36464754,-0.06060791,-0.14453125,0.06777954,9.785843,0.012863159,0.6361084,-0.0053253174,-0.0010528564,-0.0053253174,-26.567078,22.207642,2.7954102,0,0.0,0.0,0.0,0.0
0.35635376,0.06331813,0.19885218,-0.9779819,-0.01421324,0.9800287,0.19834813,0.99789226,0.0013412593,0.06487992,0.35263085,0.18169235,-0.91795397,-0.06680267,0.9833539,0.16897494,0.93337506,0.0017360044,0.35889846,0.03517151,-0.09214783,-0.047286987,9.785843,0.013153076,0.6362457,0.003189087,0.019165039,0.0095825195,-26.567078,22.207642,2.7954102,0,0.0,0.0,0.0,0.0
0.360656738,0.06332699,0.19886246,-0.9779793,-0.014247417,0.9800265,0.19835618,0.9978911,0.0013723775,0.06489541,0.3470554,0.1820361,-0.92000836,-0.06589438,0.9832903,0.16969989,0.93552685,0.0017281094,0.35325137,0.10699463,0.08470154,0.048339844,9.785843,0.013458252,0.6363983,0.020233154,0.008529663,-0.0138549805,-26.567078,22.207642,2.7954102,0,0.0,0.0,0.0,0.0
0.364959717,0.062268827,0.25953713,-0.9637234,-0.018168697,0.96573204,0.25890413,0.99789405,0.0013879414,0.06485047,0.34243268,0.18312126,-0.921524,-0.06508028,0.9830894,0.17117184,0.9372857,0.0013582115,0.34855953,0.06867981,0.02708435,-0.11402893,9.785843,0.01361084,0.6359558,-0.012771606,0.013839722,0.0010681152,-27.28424,20.773315,3.831482,0,0.0,0.0,0.0,0.0
0.369262695,0.06225327,0.25951785,-0.96372974,-0.01816315,0.9657373,0.25888517,0.99789506,0.001387921,0.06483396,0.33696008,0.1846622,-0.92323226,-0.06461135,0.98280114,0.17299521,0.9392994,0.001358806,0.34309602,0.030227661,0.012710571,-0.046844482,9.7859955,0.01361084,0.6358032,0.0053253174,0.007461548,-0.0063934326,-27.28424,20.773315,3.831482,0,0.0,0.0,0.0,0.0
0.373565674,0.062291343,0.25956506,-0.96371466,-0.018144527,0.9657248,0.25893366,0.9978931,0.0013568203,0.06486597,0.33158782,0.18617144,-0.9248728,-0.06413298,0.9825163,0.17478164,0.941242,0.0013593883,0.33773017,0.15487671,-0.077941895,0.09172058,9.785843,0.013305664,0.6361084,0.008529663,0.0053253174,-0.0010681152,-27.28424,20.773315,3.831482,0,0.0,0.0,0.0,0.0
0.377868652,0.06262215,0.24465127,-0.96758676,-0.017197164,0.9696103,0.24404992,0.9978893,0.0013568151,0.0649264,0.3263154,0.18765105,-0.9264477,-0.06364613,0.9822348,0.1765331,0.9431158,0.001359337,0.3324616,0.09262085,-0.015686035,0.15815735,9.785843,0.013305664,0.6367035,-0.0010681152,0.0053253174,-0.0021362305,-27.28424,20.773315,3.4866333,0,0.0,0.0,0.0,0.0
0.382171631,0.06259648,0.2446192,-0.9675966,-0.01717246,0.96961826,0.24401939,0.9978911,0.0013412578,0.06489541,0.32116136,0.188798,-0.9280144,-0.06305305,0.982015,0.17796302,0.94492316,0.0013592866,0.32728958,0.05432129,-0.049057007,-0.042648315,9.785843,0.013153076,0.6363983,-0.010635376,-0.0021209717,0.0063934326,-27.28424,20.773315,3.4866333,0,0.0,0.0,0.0,0.0
0.386474609,0.06261452,0.24464174,-0.96758974,-0.017164152,0.96961266,0.24404249,0.9978902,0.0013272527,0.0649109,0.31610236,0.1899211,-0.92952096,-0.062457785,0.9817984,0.17936245,0.946667,0.001358926,0.32221085,0.10699463,-0.020187378,0.024246216,9.785843,0.013015747,0.6365509,0.0095825195,0.004272461,0.003189087,-27.28424,20.773315,3.4866333,0,0.0,0.0,0.0,0.0
0.390777588,0.063014254,0.22168554,-0.97308,-0.015698394,0.9751173,0.22113311,0.9978893,0.0013412553,0.0649264,0.3111377,0.19102193,-0.9309694,-0.06186144,0.98158485,0.1807329,0.9483494,0.0013582924,0.31722492,0.01600647,0.032333374,0.07197571,9.785843,0.013153076,0.6367035,0.014907837,-0.007446289,-0.0032043457,-25.849915,21.131897,3.1402588,0,0.0,0.0,0.0,0.0
0.395080567,0.06303905,0.22171465,-0.97307175,-0.015721936,0.97511065,0.22116068,0.99788725,0.0013568124,0.06495584,0.3062947,0.19163716,-0.93244773,-0.06112033,0.9814649,0.1816341,0.94997257,0.0013579517,0.31233045,0.10220337,0.032180786,0.06210327,9.785843,0.013305664,0.6369934,0.012786865,0.0,-0.0053253174,-25.849915,21.131897,3.1402588,0,0.0,0.0,0.0,0.0
0.399383545,0.06307209,0.22175345,-0.9730609,-0.01571617,0.97510195,0.2211999,0.9978852,0.0013412499,0.064986825,0.30154228,0.19224058,-0.93387145,-0.060387194,0.9813469,0.18251486,0.9515386,0.0013579288,0.30752647,0.10220337,-0.015533447,0.095321655,9.785843,0.013153076,0.6372986,0.004257202,0.0032043457,-0.009597778,-25.849915,21.131897,3.1402588,0,0.0,0.0,0.0,0.0
0.403686524,0.06311213,0.218497,-0.9737946,-0.015488507,0.9758368,0.21795142,0.99788636,0.0013272476,0.064971335,0.2968789,0.19283263,-0.93524253,-0.0596616,0.98123074,0.18337601,0.9530496,0.0013575953,0.3028114,0.05911255,-0.06806946,-0.019454956,9.785843,0.013015747,0.637146,-0.0010681152,0.0,0.010650635,-26.38855,22.38617,3.312683,0,0.0,0.0,0.0,0.0
0.407989502,0.0631667,0.21855876,-0.9737773,-0.015457196,0.975823,0.21801524,0.99788326,0.0012805643,0.06501781,0.29230636,0.19334729,-0.93657565,-0.058923822,0.98112947,0.18415482,0.95450777,0.0013569883,0.29818314,0.03517151,-0.101135254,0.12854004,9.785843,0.012557983,0.63760376,0.008529663,0.010650635,0.003189087,-26.38855,22.38617,3.312683,0,0.0,0.0,0.0,0.0
0.412292481,0.06323429,0.2186352,-0.9737556,-0.015431408,0.9758058,0.21809344,0.9978794,0.0012354364,0.06507824,0.28782043,0.19385283,-0.9378595,-0.058194473,0.9810297,0.18491663,0.9559147,0.0013554598,0.29364154,0.13572693,-0.11984253,0.14230347,9.785843,0.0121154785,0.63819885,0.003189087,0.0010681152,0.0,-26.38855,22.38617,3.312683,0,0.0,0.0,0.0,0.0
0.416595459,0.06347163,0.19798082,-0.97814876,-0.014077662,0.9802052,0.19748355,0.9978844,0.0012354426,0.06500233,0.28341994,0.19434974,-0.93909603,-0.057473786,0.9809314,0.1856621,0.9572722,0.0013530593,0.28918552,0.03994751,-1.5258789E-4,-0.18734741,9.785843,0.0121154785,0.6374512,0.012786865,-0.0053253174,0.0021209717,-24.954224,20.951843,2.62146,0,0.0,0.0,0.0,0.0
0.420898438,0.06347163,0.19798082,-0.97814876,-0.014077662,0.9802052,0.19748355,0.9978844,0.0012354426,0.06500233,0.2791248,0.1944224,-0.94036657,-0.056643814,0.980917,0.18599293,0.95858276,0.0013507069,0.28481108,0.02558899,0.004638672,-0.010177612,9.785843,0.0121154785,0.6374512,0.007461548,0.0,-0.0010681152,-24.954224,20.951843,2.62146,0,0.0,0.0,0.0,0.0
0.425201416,0.06340447,0.19790332,-0.9781688,-0.014027189,0.9802209,0.19740927,0.9978894,0.0012043292,0.06492641,0.27491003,0.19449359,-0.94159263,-0.05582867,0.98090285,0.18631354,0.95984775,0.0013484015,0.28051838,0.006439209,-0.08602905,-0.19139099,9.785843,0.011810303,0.6367035,0.010650635,0.0032043457,0.0,-24.954224,20.951843,2.62146,0,0.0,0.0,0.0,0.0
0.429504395,0.06272145,0.23976439,-0.9688028,-0.016697729,0.9708303,0.23918512,0.99789137,0.0011747679,0.06489542,0.27113464,0.19554755,-0.9424687,-0.054594032,0.9806941,0.18777281,0.960992,5.4145476E-4,0.27657586,0.11656189,-0.109680176,-0.076156616,9.785843,0.011520386,0.6363983,-0.018096924,0.004272461,0.007446289,-26.92566,21.131897,3.4866333,0,0.0,0.0,0.0,0.0
0.433807373,0.06273619,0.2397823,-0.9687975,-0.016702598,0.9708259,0.23920275,0.99789035,0.0011747667,0.06491091,0.26702288,0.19643612,-0.94345725,-0.05403897,0.98051643,0.18885773,0.9621738,5.5412104E-4,0.27243552,0.02079773,0.0052337646,0.057754517,9.785843,0.011520386,0.6365509,0.004257202,0.011703491,0.018096924,-26.92566,21.131897,3.4866333,0,0.0,0.0,0.0,0.0
0.438110352,0.06276239,0.2398141,-0.96878797,-0.016725648,0.97081816,0.23923309,0.9978884,0.0011887681,0.064941905,0.2629899,0.19730712,-0.9444078,-0.053487003,0.98034155,0.18991987,0.9633148,5.665339E-4,0.26837328,0.20275879,0.043395996,0.10055542,9.785843,0.011657715,0.6368561,0.0063934326,0.0063934326,-0.0021362305,-26.92566,21.131897,3.4866333,0,0.0,0.0,0.0,0.0
0.44241333,0.06335544,0.20511451,-0.9766853,-0.014521185,0.9787371,0.20460346,0.9978853,0.001219884,0.06498683,0.2590347,0.19816121,-0.94532174,-0.052938823,0.98016924,0.1909599,0.96441615,5.7897856E-4,0.26438826,-0.01272583,0.03352356,-0.067489624,9.785843,0.011962891,0.6372986,0.003189087,0.013839722,-0.004272461,-27.642822,21.84906,2.7954102,0,0.0,0.0,0.0,0.0
0.446716309,0.063425295,0.2052,-0.97666276,-0.014557482,0.9787192,0.20468669,0.99788034,0.0012354376,0.06506275,0.25519347,0.1983004,-0.94633675,-0.052213233,0.9801411,0.1913039,0.9654792,5.917967E-4,0.2604795,0.11178589,0.052520752,0.1951294,9.785843,0.0121154785,0.63804626,0.0234375,0.018096924,-0.0021362305,-27.642822,21.84906,2.7954102,0,0.0,0.0,0.0,0.0
0.451019287,0.06345604,0.20523764,-0.97665286,-0.014566502,0.97871137,0.20472379,0.9978783,0.0012354542,0.06509475,0.25142658,0.19843851,-0.9473156,-0.05150133,0.98011315,0.19163981,0.96650517,6.046695E-4,0.25664634,0.1837616,0.018997192,0.08947754,9.78569,0.0121154785,0.63835144,0.01171875,0.004272461,-0.0053253174,-27.642822,21.84906,2.7954102,0,0.0,0.0,0.0,0.0
0.455322266,0.0631854,0.22355027,-0.9726423,-0.01575672,0.9746917,0.22299771,0.9978774,0.0012354532,0.065108694,0.2477318,0.1985746,-0.94826007,-0.05080216,0.9800856,0.19196717,0.9674958,6.172852E-4,0.25288638,0.025741577,-1.5258789E-4,0.04624939,9.78569,0.0121154785,0.63848877,0.0021362305,0.004272461,-0.0010681152,-25.671387,21.669006,3.312683,0,0.0,0.0,0.0,0.0
0.459625244,0.06320858,0.22357655,-0.9726347,-0.015794102,0.97468555,0.22302157,0.9978754,0.0012650143,0.06513968,0.2440891,0.19907545,-0.9490993,-0.05020687,0.979984,0.19264136,0.9684523,6.2964857E-4,0.24919836,0.054473877,0.047439575,0.093826294,9.78569,0.0124053955,0.63879395,-0.011703491,0.009597778,0.003189087,-25.671387,21.669006,3.312683,0,0.0,0.0,0.0,0.0
0.463928223,0.06321166,0.22358005,-0.9726337,-0.015780708,0.97468483,0.22302595,0.9978754,0.0012510105,0.06513968,0.24051686,0.19956677,-0.9499077,-0.049620006,0.979884,0.19330068,0.96937585,6.423559E-4,0.24558114,0.10235596,-0.019439697,-0.016311646,9.78569,0.012268066,0.63879395,0.003189087,0.007461548,0.0063934326,-25.671387,21.669006,3.312683,0,0.0,0.0,0.0,0.0
0.468231201,0.06322989,0.22360076,-0.97262776,-0.01577038,0.9746801,0.22304738,0.99787444,0.0012354495,0.06515518,0.23701346,0.20004827,-0.95068675,-0.049040515,0.9797858,0.19394527,0.9702678,6.5452897E-4,0.24203289,0.20291138,-0.06716919,0.050582886,9.78569,0.0121154785,0.63894653,0.0053253174,0.008529663,-0.0063934326,-25.671387,21.669006,3.312683,0,0.0,0.0,0.0,0.0
0.47253418,0.06320363,0.22357097,-0.9726363,-0.01574639,0.9746869,0.22301911,0.99787647,0.0012198922,0.06512419,0.23357792,0.20052052,-0.9514373,-0.04846851,0.97968924,0.19457576,0.9711293,6.661474E-4,0.2385527,0.054473877,-0.0095825195,-0.07362366,9.78569,0.011962891,0.63864136,0.003189087,0.0021362305,-0.0063934326,-25.671387,21.669006,3.312683,0,0.0,0.0,0.0,0.0
0.476837158,0.063193746,0.22355974,-0.9726395,-0.015789552,0.9746895,0.22300504,0.9978764,0.0012650157,0.06512419,0.23020835,0.20098267,-0.9521607,-0.04790362,0.9795945,0.19519155,0.97196156,6.7722227E-4,0.23513864,0.011367798,0.085754395,0.0077819824,9.78569,0.0124053955,0.63864136,0.022369385,0.0032043457,0.0,-25.671387,21.669006,3.312683,0,0.0,0.0,0.0,0.0
0.481140137,0.06358733,0.19582227,-0.97857565,-0.013984917,0.9806386,0.19532636,0.9978783,0.001265018,0.06509475,0.22690375,0.20143531,-0.9528581,-0.047347188,0.97950155,0.19579302,0.9727656,6.889781E-4,0.23178998,0.19332886,0.023498535,-0.0541687,9.78569,0.0124053955,0.63835144,0.004257202,-0.0021209717,-0.01171875,-26.38855,21.669006,2.62146,0,0.0,0.0,0.0,0.0
0.485443115,0.063609734,0.19584876,-0.9785689,-0.01402285,0.9806334,0.19535041,0.9978764,0.0012961354,0.06512419,0.22368914,0.20132314,-0.95364153,-0.046671383,0.9795246,0.19583993,0.97354245,7.0049893E-4,0.22850506,0.09277344,0.06628418,0.09877014,9.78569,0.012710571,0.63864136,0.008529663,-0.0021209717,0.007446289,-26.38855,21.669006,2.62146,0,0.0,0.0,0.0,0.0
0.489959717,0.06361273,0.19585228,-0.97856796,-0.0140078515,0.9806326,0.19535491,0.9978764,0.0012805755,0.06512419,0.2205366,0.20121372,-0.95439863,-0.04601013,0.97954714,0.19588399,0.97429293,7.1241165E-4,0.22528386,-0.012573242,-0.043670654,-0.011367798,9.78569,0.012557983,0.63864136,0.0095825195,-0.010650635,-0.0010681152,-26.38855,21.669006,2.62146,0,0.0,0.0,0.0,0.0
0.494476318,0.063295305,0.21952142,-0.9735523,-0.015505731,0.975607,0.21897662,0.99787444,0.0012354495,0.06515518,0.2174447,0.20110655,-0.95513034,-0.045362033,0.97956914,0.19592512,0.975018,7.237749E-4,0.22212471,0.15982056,-0.01449585,0.16070557,9.78569,0.0121154785,0.63894653,0.010650635,0.0010681152,-0.007461548,-28.720093,22.207642,3.1402588,0,0.0,0.0,0.0,0.0
0.499023438,0.06333829,0.21957488,-0.9735374,-0.015519058,0.9755948,0.21902926,0.99787146,0.0012354458,0.065200105,0.2174447,0.20110655,-0.95513034,-0.045362033,0.97956914,0.19592512,0.975018,7.237749E-4,0.22212471,0.15982056,-0.01449585,0.16026306,9.78569,0.0121154785,0.63938904,0.010650635,0.0010681152,-0.007461548,-28.720093,22.207642,3.1402588,0,0.0,0.0,0.0,0.0
0.503540039,0.063316815,0.2195482,-0.97354484,-0.015480572,0.97560096,0.21900508,0.9978735,0.0012043287,0.065170676,0.21095324,0.20123447,-0.9565581,-0.044149052,0.97954273,0.19633348,0.9764986,8.139466E-4,0.21552202,0.12150574,-0.07644653,-0.07885742,9.78569,0.011810303,0.6390991,0.0053253174,-0.0021209717,-0.007461548,-28.720093,22.207642,3.1402588,0,0.0,0.0,0.0,0.0
0.508087158,0.063874006,0.18193428,-0.98123395,-0.013071861,0.9833099,0.18146828,0.99787235,0.001235447,0.065186165,0.20802626,0.20160148,-0.9571217,-0.043637376,0.9794673,0.1968238,0.9771493,8.217542E-4,0.21255228,0.020950317,0.09082031,0.04548645,9.78569,0.0121154785,0.6392517,-0.007461548,-0.004257202,-0.008529663,-26.747131,21.669006,2.2766113,0,0.0,0.0,0.0,0.0
0.51260376,0.06384402,0.18189818,-0.98124266,-0.013063883,0.9833167,0.18143266,0.99787444,0.0012354495,0.06515518,0.20518966,0.2012089,-0.95781636,-0.04297653,0.979548,0.19656737,0.9777782,8.300281E-4,0.20964038,0.15023804,-0.02407837,-0.078704834,9.78569,0.0121154785,0.63894653,0.003189087,0.0021362305,0.0,-26.747131,21.669006,2.2766113,0,0.0,0.0,0.0,0.0
0.517150879,0.06382903,0.18188012,-0.981247,-0.013059895,0.98332,0.18141484,0.9978754,0.0012354506,0.06513968,0.20240691,0.20082343,-0.9584891,-0.042330462,0.9796271,0.19631323,0.9783862,8.3813653E-4,0.20678423,0.040100098,0.004638672,-0.035461426,9.78569,0.0121154785,0.63879395,0.010650635,0.011703491,0.0021209717,-26.747131,21.669006,2.2766113,0,0.0,0.0,0.0,0.0
0.521667481,0.0637416,0.18161891,-0.98130095,-0.013026149,0.9833683,0.1811554,0.9978815,0.001235439,0.06504726,0.19967744,0.20044528,-0.9591405,-0.041698996,0.9797045,0.19606178,0.978974,8.460828E-4,0.20398326,0.07347107,0.009429932,-0.23088074,9.785843,0.0121154785,0.6378937,-0.015960693,0.0021362305,0.0021209717,-25.671387,21.310425,2.2766113,0,0.0,0.0,0.0,0.0
0.5262146,0.063713096,0.18158545,-0.98130906,-0.013018642,0.98337454,0.1811224,0.99788344,0.0012354414,0.06501783,0.19699892,0.20006946,-0.9597727,-0.041080464,0.9797813,0.19580837,0.9795427,8.538699E-4,0.20123482,0.09262085,-0.02407837,-0.07258606,9.785843,0.0121154785,0.63760376,0.0053253174,-0.007446289,0.0053253174,-25.671387,21.310425,2.2766113,0,0.0,0.0,0.0,0.0
0.530731201,0.063713096,0.18158545,-0.98130906,-0.013018642,0.98337454,0.1811224,0.99788344,0.0012354414,0.06501783,0.19437149,0.19970044,-0.960385,-0.040475745,0.9798566,0.19555748,0.9800926,8.615013E-4,0.19853923,0.14050293,-0.0049438477,0.03755188,9.785843,0.0121154785,0.63760376,0.007461548,0.011703491,-0.008529663,-25.671387,21.310425,2.2766113,0,0.0,0.0,0.0,0.0
0.53527832,0.06313839,0.21979737,-0.9735002,-0.015505193,0.9755448,0.21925338,0.9978844,0.0012510023,0.06500233,0.19179484,0.19933878,-0.96097803,-0.03988477,0.9799303,0.19530977,0.98062426,8.6898013E-4,0.19589613,-0.11328125,0.057159424,-0.07720947,9.785843,0.012268066,0.6374512,-0.0053253174,0.0053253174,-0.0021362305,-27.642822,21.84906,3.1402588,0,0.0,0.0,0.0,0.0
0.539794922,0.06313026,0.21978748,-0.973503,-0.015470853,0.97554696,0.21924569,0.9978853,0.001219884,0.06498683,0.1892369,0.19974883,-0.9613999,-0.039455082,0.9798468,0.19581535,0.98113847,8.766206E-4,0.19330426,0.05432129,-0.0957489,-0.0052337646,9.785843,0.011962891,0.6372986,0.0053253174,0.0021362305,0.0053253174,-27.642822,21.84906,3.1402588,0,0.0,0.0,0.0,0.0
0.544342041,0.063173264,0.2198398,-0.97348833,-0.015484109,0.97553515,0.2192972,0.9978824,0.0012198804,0.06503176,0.18672897,0.20015043,-0.9618067,-0.039030947,0.97976476,0.19630988,0.9816358,8.834859E-4,0.19076252,0.19796753,0.01914978,-0.11581421,9.785843,0.011962891,0.6377411,0.010650635,0.018096924,0.0021209717,-27.642822,21.84906,3.1402588,0,0.0,0.0,0.0,0.0
0.548858643,0.06332899,0.21361078,-0.97486407,-0.01510934,0.9769181,0.21307932,0.9978783,0.0012354542,0.06509475,0.18427128,0.20054503,-0.96219844,-0.038613454,0.97968405,0.19679458,0.98211664,8.9021376E-4,0.18827137,-0.07002258,0.014205933,0.12779236,9.78569,0.0121154785,0.63835144,0.015975952,0.022354126,0.0,-26.567078,22.207642,3.1402588,0,0.0,0.0,0.0,0.0
0.553375244,0.06329611,0.2135729,-0.9748745,-0.015037573,0.9769265,0.2130461,0.99788153,0.0011747562,0.065047264,0.18186784,0.20080669,-0.96260107,-0.03817947,0.9796305,0.19714579,0.9825815,8.971186E-4,0.18582997,0.04473877,-0.1240387,-0.1159668,9.785843,0.011520386,0.6378937,-0.003189087,0.008529663,0.004257202,-26.567078,22.207642,3.1402588,0,0.0,0.0,0.0,0.0
0.557922363,0.06343337,0.21373095,-0.9748308,-0.015124463,0.9768917,0.21319863,0.99787146,0.001219886,0.065200105,0.17951097,0.20106235,-0.96299005,-0.037751205,0.979578,0.19748856,0.98303133,9.0267137E-4,0.18343534,-0.031723022,-0.019134521,0.05491638,9.78569,0.011962891,0.63938904,0.014907837,0.0063934326,0.0010681152,-26.567078,22.207642,3.1402588,0,0.0,0.0,0.0,0.0
0.562438965,0.06375773,0.19949082,-0.9778233,-0.014190545,0.979899,0.19898902,0.9978645,0.0011887582,0.06530701,0.17720313,0.20131606,-0.96336436,-0.037332162,0.9795259,0.19782642,0.98346597,9.0901565E-4,0.18109062,0.06404114,0.014663696,-0.022750854,9.78569,0.011657715,0.6404419,-0.012771606,0.030883789,-0.01171875,-25.491333,21.84906,2.7954102,0,0.0,0.0,0.0,0.0
0.566986084,0.06371137,0.19943847,-0.977837,-0.014193401,0.97990966,0.19893642,0.9978674,0.0012043214,0.06526209,0.17680727,0.20112464,-0.9634771,-0.036749788,0.97956556,0.19773915,0.98355913,4.4585744E-4,0.1805856,0.06404114,0.028884888,-0.09892273,9.78569,0.011810303,0.6399994,0.0010681152,0.027694702,0.007446289,-25.491333,21.84906,2.7954102,0,0.0,0.0,0.0,0.0
0.571502686,0.063727856,0.19945711,-0.9778322,-0.014182176,0.97990596,0.19895582,0.9978666,0.0011887606,0.06527603,0.17456444,0.2010909,-0.96389294,-0.036298446,0.9795725,0.19778824,0.9839764,4.610267E-4,0.1782978,0.08798218,-0.042770386,0.0493927,9.78569,0.011657715,0.6401367,-0.0063934326,-0.0021209717,0.0063934326,-25.491333,21.84906,2.7954102,0,0.0,0.0,0.0,0.0
0.576049805,0.06357061,0.21590622,-0.9743425,-0.015271726,0.9764133,0.21536869,0.9978604,0.0011887719,0.06536845,0.17236587,0.20105822,-0.9642953,-0.03585594,0.97957915,0.19783577,0.9843802,4.7558136E-4,0.17605516,0.097717285,-0.033203125,0.034118652,9.785538,0.011657715,0.641037,0.0021362305,0.010650635,0.0010681152,-25.671387,20.951843,2.9678345,0,0.0,0.0,0.0,0.0
0.580566406,0.06353378,0.21586278,-0.9743545,-0.0152304005,0.976423,0.21532793,0.9978635,0.0011592117,0.065323524,0.1702003,0.20135564,-0.9646179,-0.03547987,0.97951806,0.19820574,0.98477054,4.898452E-4,0.17385834,0.102508545,-0.056854248,-0.08514404,9.785538,0.011367798,0.6405945,-0.025558472,0.015975952,-0.0063934326,-25.671387,20.951843,2.9678345,0,0.0,0.0,0.0,0.0
0.585113526,0.0635031,0.21582662,-0.97436446,-0.015221128,0.9764309,0.21529232,0.9978655,0.001159196,0.065291524,0.16807672,0.20164624,-0.96492946,-0.035109002,0.9794583,0.1985669,0.9851485,5.0323247E-4,0.17170376,0.059265137,-0.028121948,-0.07048035,9.78569,0.011367798,0.6402893,0.0010681152,0.017028809,-0.0063934326,-25.671387,20.951843,2.9678345,0,0.0,0.0,0.0,0.0
0.589630127,0.06360141,0.20964387,-0.9757072,-0.014803823,0.9777773,0.20912367,0.9978656,0.0011436364,0.06529153,0.16599444,0.20193028,-0.9652306,-0.034743905,0.9793998,0.1989195,0.98551446,5.163517E-4,0.16959076,0.10714722,-0.04232788,-0.022598267,9.78569,0.01121521,0.6402893,-0.003189087,0.004272461,-0.0021362305,-26.208496,22.566223,3.1402588,0,0.0,0.0,0.0,0.0
0.594177246,0.0635614,0.2095991,-0.9757193,-0.0147763165,0.9777867,0.20908064,0.99786854,0.0011280801,0.0652466,0.16395767,0.20208466,-0.96554625,-0.03436375,0.9793679,0.19914222,0.9858687,5.288974E-4,0.16751927,0.10235596,-0.018234253,-0.08439636,9.78569,0.011062622,0.6398468,-0.004257202,0.014907837,-0.007461548,-26.208496,22.566223,3.1402588,0,0.0,0.0,0.0,0.0
0.598693848,0.063543305,0.20957887,-0.9757249,-0.014786941,0.97779125,0.20905972,0.9978696,0.0011436411,0.06523111,0.1619603,0.20223507,-0.96585184,-0.033989813,0.97933686,0.19935898,0.9862117,5.40881E-4,0.16548763,0.044891357,0.0390625,-0.022003174,9.78569,0.01121521,0.6396942,0.007461548,0.0032043457,0.004257202,-26.208496,22.566223,3.1402588,0,0.0,0.0,0.0,0.0
0.603240967,0.06284016,0.2548897,-0.9649261,-0.017760675,0.96696943,0.2542728,0.9978655,0.001159196,0.065291524,0.16000195,0.20238206,-0.9661475,-0.033622794,0.97930646,0.19957033,0.9865439,5.529362E-4,0.1634956,0.006591797,0.038909912,0.13542175,9.78569,0.011367798,0.6402893,0.019180298,0.010650635,-0.0063934326,-26.38855,21.669006,4.005432,0,0.0,0.0,0.0,0.0
0.607757568,0.06287078,0.2549249,-0.9649148,-0.017644353,0.96696025,0.25431564,0.9978657,0.0010362747,0.06529153,0.1580523,0.20343849,-0.9662465,-0.03341025,0.97908753,0.20067708,0.98686534,5.6506135E-4,0.16154397,0.0018005371,-0.046066284,-0.013015747,9.78569,0.0101623535,0.6402893,-0.003189087,-0.015975952,-0.014923096,-26.38855,21.669006,4.005432,0,0.0,0.0,0.0,0.0
0.61227417,0.06296523,0.2550335,-0.96488,-0.017708965,0.9669317,0.25442016,0.9978586,0.0010674031,0.065399446,0.15614218,0.20447429,-0.9663384,-0.033195537,0.97887176,0.20176253,0.9871766,5.7448563E-4,0.15963079,-0.0076293945,0.06375122,0.27323914,9.785538,0.010467529,0.64134216,-0.0010681152,0.0021362305,0.024475098,-26.38855,21.669006,4.005432,0,0.0,0.0,0.0,0.0
0.616821289,0.063551664,0.22144149,-0.97310066,-0.015539413,0.9751731,0.22089824,0.9978576,0.0010829619,0.06541494,0.15427212,0.20549135,-0.966423,-0.0329825,0.97865874,0.20282799,0.9874777,5.84344E-4,0.15775737,-0.026779175,0.058807373,0.04324341,9.785538,0.010620117,0.64149475,-0.003189087,-0.003189087,-0.0032043457,-26.029968,22.027588,3.312683,0,0.0,0.0,0.0,0.0
0.621337891,0.063551664,0.22144149,-0.97310066,-0.015539413,0.9751731,0.22089824,0.9978576,0.0010829619,0.06541494,0.15246241,0.20581092,-0.9666422,-0.032664776,0.9785916,0.20320308,0.9877693,5.9431634E-4,0.15592119,0.054626465,-0.013000488,-0.004638672,9.785538,0.010620117,0.64149475,0.004257202,-0.008514404,0.008514404,-26.029968,22.027588,3.312683,0,0.0,0.0,0.0,0.0
0.62588501,0.06357649,0.22146963,-0.9730926,-0.015562901,0.9751666,0.22092487,0.9978556,0.0010985195,0.06544437,0.15068862,0.20612407,-0.9668536,-0.03235216,0.9785257,0.20357022,0.9880518,6.040893E-4,0.15412124,0.073776245,0.049072266,0.10519409,9.785538,0.010772705,0.64178467,0.015975952,-0.004257202,0.0010681152,-26.029968,22.027588,3.312683,0,0.0,0.0,0.0,0.0
0.630401611,0.0632067,0.24086148,-0.9684991,-0.016829688,0.9705588,0.24027535,0.9978585,0.0011125265,0.065399446,0.14895053,0.20643151,-0.9670573,-0.032045115,0.97846085,0.20393002,0.9883253,6.139779E-4,0.15235738,-0.012420654,-0.0037384033,0.0098724365,9.785538,0.010910034,0.64134216,0.012786865,-0.0095825195,-0.009597778,-27.28424,22.566223,3.831482,0,0.0,0.0,0.0,0.0
0.634948731,0.06316943,0.24081863,-0.9685122,-0.016787078,0.97056943,0.24023525,0.99786156,0.0010829662,0.06535296,0.14645807,0.20524617,-0.9676901,-0.03178565,0.9787098,0.20277274,0.9887061,0.001060953,0.14986384,0.078567505,-0.07525635,-0.10458374,9.785538,0.010620117,0.6408844,0.029830933,-0.01171875,-0.0021362305,-27.28424,22.566223,3.831482,0,0.0,0.0,0.0,0.0
0.639465332,0.06320258,0.24085672,-0.96850055,-0.016781945,0.97055995,0.24027371,0.99785954,0.0010674042,0.06538395,0.14478922,0.20596047,-0.96778935,-0.031546902,0.97855973,0.20353286,0.9889595,0.0010613933,0.14818232,-0.012420654,-0.03678894,0.067489624,9.785538,0.010467529,0.6411896,0.004257202,-0.018096924,-0.008529663,-27.28424,22.566223,3.831482,0,0.0,0.0,0.0,0.0
0.644012451,0.063928,0.19276337,-0.9791606,-0.013612349,0.9812446,0.19228491,0.99786156,0.0010362866,0.06535296,0.14315431,0.20666113,-0.9678833,-0.031310413,0.97841203,0.20427826,0.989205,0.0010615136,0.14653455,0.054626465,-0.103530884,-0.07107544,9.785538,0.0101623535,0.6408844,0.0063934326,0.0053253174,0.003189087,-26.208496,21.131897,2.4490356,0,0.0,0.0,0.0,0.0
0.648529053,0.06397845,0.19282417,-0.9791453,-0.013596319,0.98123264,0.19234686,0.9978586,0.0010067199,0.065399446,0.14158218,0.20638359,-0.9681737,-0.03093608,0.9784706,0.20405455,0.989443,0.001061009,0.1449187,0.14559937,-0.07450867,0.13916016,9.785538,0.0098724365,0.64134216,0.014907837,-0.008514404,-0.008529663,-26.208496,21.131897,2.4490356,0,0.0,0.0,0.0,0.0
0.653076172,0.06395443,0.19279525,-0.9791526,-0.013557993,0.9812385,0.1923204,0.99786067,9.756023E-4,0.065368466,0.14004181,0.20611279,-0.9684554,-0.030569788,0.97852767,0.20383593,0.9896736,0.0010599232,0.14333561,0.13124084,-0.05026245,-0.09037781,9.785538,0.009567261,0.641037,0.0095825195,-0.004257202,-0.007461548,-26.208496,21.131897,2.4490356,0,0.0,0.0,0.0,0.0
0.657592774,0.06383344,0.20052879,-0.977606,-0.014043697,0.9796873,0.2000387,0.9978617,9.6004346E-4,0.06535298,0.13853136,0.20584682,-0.9687292,-0.030210786,0.9785837,0.20362058,0.9898972,0.0010582368,0.14178331,0.097717285,-0.050109863,-0.02796936,9.785538,0.009414673,0.6408844,-0.0010681152,-0.007446289,-0.0021362305,-25.671387,20.951843,2.62146,0,0.0,0.0,0.0,0.0
0.662139893,0.06385111,0.20054977,-0.97760046,-0.014034479,0.9796829,0.20006031,0.99786067,9.4603864E-4,0.065368466,0.1370457,0.20574051,-0.968963,-0.029880954,0.97860605,0.20356178,0.990114,0.0010562729,0.14026147,-0.074661255,-0.030822754,0.06764221,9.785538,0.009277344,0.641037,0.0,-0.004257202,-0.0032043457,-25.671387,20.951843,2.62146,0,0.0,0.0,0.0,0.0
0.666656494,0.06382582,0.20051977,-0.9776084,-0.014011415,0.9796892,0.20003179,0.99786264,9.304806E-4,0.06533904,0.13558969,0.20563675,-0.9691899,-0.029557802,0.97862786,0.2035041,0.9903241,0.0010540682,0.13877,-0.026779175,-0.059402466,-0.07572937,9.785538,0.009124756,0.6407471,0.017044067,-0.012771606,-0.007461548,-25.671387,20.951843,2.62146,0,0.0,0.0,0.0,0.0
0.671173096,0.06373577,0.20048538,-0.9776213,-0.013990641,0.9796963,0.19999878,0.9978687,9.3047175E-4,0.06524661,0.13416193,0.20553447,-0.96941024,-0.029240848,0.9786493,0.20344654,0.9905279,0.0010515965,0.13730748,0.11193848,-0.001953125,-0.23283386,9.78569,0.009124756,0.6398468,0.0010681152,-0.008514404,-0.0010681152,-25.849915,21.84906,2.7954102,0,0.0,0.0,0.0,0.0
0.675720215,0.06372389,0.20047177,-0.9776249,-0.013971439,0.9796991,0.19998641,0.99786973,9.1491296E-4,0.065231115,0.1327606,0.20543355,-0.9696244,-0.028929988,0.9786705,0.20338902,0.9907258,0.001049174,0.13587208,0.06404114,-0.05445862,-0.045944214,9.78569,0.008972168,0.6396942,0.0063934326,-0.0010528564,-0.0063934326,-25.849915,21.84906,2.7954102,0,0.0,0.0,0.0,0.0
0.680236817,0.0637852,0.20054194,-0.9776064,-0.013972903,0.97968465,0.20005658,0.9978658,8.993497E-4,0.06529154,0.1313867,0.20533438,-0.9698327,-0.028625151,0.97869134,0.203332,0.99091786,0.0010464888,0.13446474,0.049682617,-0.03993225,0.14500427,9.78569,0.00881958,0.6402893,0.003189087,0.0010681152,0.0021209717,-25.849915,21.84906,2.7954102,0,0.0,0.0,0.0,0.0
0.684783936,0.063744955,0.20049588,-0.9776185,-0.013945689,0.9796942,0.20001225,0.99786884,8.8379264E-4,0.06524661,0.13004118,0.20523858,-0.97003424,-0.028326765,0.9787114,0.20327704,0.9911039,0.001043546,0.13308653,0.10235596,-0.020629883,-0.08439636,9.78569,0.008666992,0.6398468,0.0021362305,-0.012771606,-0.0063934326,-25.849915,21.84906,2.7954102,0,0.0,0.0,0.0,0.0
0.689300537,0.063733086,0.2004823,-0.9776221,-0.013926488,0.97969687,0.19999988,0.99786973,8.6823374E-4,0.065231115,0.12872154,0.20514378,-0.9702303,-0.028033951,0.9787313,0.2032219,0.99128443,0.0010403509,0.13173479,0.10235596,-0.044418335,-0.050735474,9.78569,0.008514404,0.6396942,0.004257202,-0.01171875,-0.019180298,-25.849915,21.84906,2.7954102,0,0.0,0.0,0.0,0.0
0.693847656,0.063741885,0.20049237,-0.97761935,-0.013960672,0.9796948,0.20000777,0.99786884,8.9935237E-4,0.06524661,0.12742776,0.2050506,-0.9704207,-0.027746785,0.9787508,0.20316726,0.99145967,0.0010369085,0.13040951,0.08798218,0.07496643,0.044891357,9.78569,0.00881958,0.6398468,0.014907837,-0.017044067,-0.0053253174,-25.849915,21.84906,2.7954102,0,0.0,0.0,0.0,0.0
0.698059082,0.06356113,0.2120216,-0.97519577,-0.014692278,0.9772645,0.21151376,0.99786973,8.8379346E-4,0.065231115,0.12542589,0.20454247,-0.9707888,-0.027241632,0.97885716,0.20272285,0.9917289,0.0010191771,0.12834609,0.0688324,-0.049362183,-0.0028381348,9.78569,0.008666992,0.6396942,0.0063934326,-0.01171875,0.0010681152,-26.747131,21.669006,2.9678345,0,0.0,0.0,0.0,0.0
0.70223999,0.063514754,0.21196643,-0.9752109,-0.014694345,0.97727656,0.21145838,0.99787265,8.9935586E-4,0.06518619,0.12419075,0.20469218,-0.9709159,-0.027000822,0.9788258,0.20290607,0.9918909,0.0010164694,0.12708797,0.011367798,0.03666687,-0.11253357,9.78569,0.00881958,0.6392517,0.0010681152,-0.003189087,0.003189087,-26.747131,21.669006,2.9678345,0,0.0,0.0,0.0,0.0
0.706451416,0.063528135,0.21198234,-0.97520643,-0.014698333,0.97727305,0.21147408,0.9978718,8.9935504E-4,0.06520013,0.122979365,0.20483778,-0.9710394,-0.026764413,0.97879535,0.20308425,0.9920482,0.0010141273,0.125854,0.025741577,0.00793457,0.04055786,9.78569,0.00881958,0.63938904,0.0,-0.0053253174,-0.012786865,-26.747131,21.669006,2.9678345,0,0.0,0.0,0.0,0.0
0.710662842,0.06385866,0.18795687,-0.98009914,-0.013118399,0.98217684,0.1875006,0.99787265,8.837961E-4,0.06518619,0.12179238,0.2049808,-0.9711588,-0.026532445,0.9787654,0.2032589,0.99220085,0.0010118318,0.124644816,-0.026931763,-0.054153442,-0.05506897,9.78569,0.008666992,0.6392517,0.010650635,0.014907837,0.0021209717,-25.671387,20.593262,2.2766113,0,0.0,0.0,0.0,0.0
0.71484375,0.063875,0.1879767,-0.98009425,-0.013107058,0.9821731,0.18752119,0.9978718,8.6823554E-4,0.06520013,0.12064168,0.20464094,-0.9713741,-0.026245216,0.97883654,0.2029535,0.9923491,0.0010092711,0.12345933,0.07841492,-0.044418335,0.04534912,9.78569,0.008514404,0.63938904,0.0063934326,0.0063934326,-0.007461548,-25.671387,20.593262,2.2766113,0,0.0,0.0,0.0,0.0
0.719055176,0.06395671,0.18807587,-0.9800699,-0.013083553,0.982154,0.18762203,0.9978668,8.231081E-4,0.06527605,0.11951398,0.20430824,-0.9715835,-0.025964277,0.9789061,0.2026542,0.992493,0.0010064505,0.12229769,0.059265137,0.03262329,-0.09906006,9.78569,0.008071899,0.6401367,0.0063934326,0.008529663,0.004257202,-25.671387,20.593262,2.2766113,0,0.0,0.0,0.0,0.0
0.723266602,0.063671015,0.20355871,-0.9769903,-0.014061028,0.97906256,0.2030741,0.99787194,8.075525E-4,0.06520014,0.118410125,0.20398413,-0.9717868,-0.025689334,0.9789737,0.20236252,0.99263245,0.0010027837,0.12116061,0.0688324,-0.034240723,-0.18928528,9.78569,0.0079193115,0.63938904,-0.0053253174,0.026626587,0.01171875,-26.029968,22.38617,2.9678345,0,0.0,0.0,0.0,0.0
0.72744751,0.06385125,0.20376115,-0.9769363,-0.014096442,0.9790203,0.20327449,0.99785984,7.9199544E-4,0.06538397,0.11731851,0.20397562,-0.97192097,-0.025456993,0.9789755,0.20238328,0.99276805,9.98879E-4,0.12004455,0.040252686,-0.053253174,-0.13362122,9.785538,0.0077667236,0.6411896,0.0095825195,0.02130127,0.0021209717,-26.029968,22.38617,2.9678345,0,0.0,0.0,0.0,0.0
0.731658936,0.064013325,0.20394313,-0.9768876,-0.014142618,0.9789824,0.20345373,0.99784887,7.919979E-4,0.06555222,0.11625219,0.20397131,-0.97204995,-0.02523022,0.97897637,0.20240732,0.99289924,9.947413E-4,0.11895438,0.078704834,0.052078247,-0.106536865,9.7854,0.0077667236,0.6428375,-0.0010681152,0.05432129,-0.0010681152,-26.029968,22.38617,2.9678345,0,0.0,0.0,0.0,0.0
0.735870361,0.06477125,0.15571488,-0.98567617,-0.010964855,0.9878018,0.15533017,0.9978399,7.468675E-4,0.06568855,0.115210176,0.20397075,-0.97217417,-0.02500906,0.9789765,0.20243417,0.99302626,9.906865E-4,0.117889166,0.102645874,-0.02407837,-0.12225342,9.7854,0.0073242188,0.6441803,0.0053253174,0.047927856,0.003189087,-27.105713,21.310425,1.5853882,0,0.0,0.0,0.0,0.0
0.740081787,0.06496783,0.15596105,-0.9856244,-0.010996739,0.987763,0.15557462,0.9978268,7.313096E-4,0.06588788,0.114215985,0.20301007,-0.97249246,-0.024679983,0.97917616,0.20150672,0.99314934,9.858101E-4,0.11684786,-0.031280518,0.02394104,0.014663696,9.785248,0.007171631,0.6461334,0.0095825195,0.04473877,0.008514404,-27.105713,21.310425,1.5853882,0,0.0,0.0,0.0,0.0
0.744262695,0.065118596,0.15614986,-0.98558456,-0.011110342,0.9877331,0.1557562,0.9978157,8.075561E-4,0.066054665,0.113244936,0.20207328,-0.97280115,-0.02436045,0.97936994,0.20060194,0.99326843,9.8072E-4,0.11583128,0.07901001,0.104599,-0.14498901,9.785095,0.0079193115,0.6477661,0.0053253174,0.04260254,0.004257202,-27.105713,21.310425,1.5853882,0,0.0,0.0,0.0,0.0
0.748474121,0.06422938,0.22928135,-0.97123873,-0.015957488,0.97335994,0.2287268,0.9978076,8.075496E-4,0.066177055,0.11229558,0.20115879,-0.97310066,-0.024051694,0.97955817,0.19971812,0.9933837,9.772567E-4,0.11483826,0.05986023,-0.010299683,0.0118255615,9.785095,0.0079193115,0.64897156,0.004257202,0.051116943,-0.008529663,-28.54004,22.027588,3.312683,0,0.0,0.0,0.0,0.0
0.752685547,0.064462356,0.22957063,-0.971155,-0.016032634,0.9732918,0.22901155,0.9977914,8.0754905E-4,0.0664213,0.11229558,0.20115879,-0.97310066,-0.024051694,0.97955817,0.19971812,0.9933837,9.772567E-4,0.11483826,0.060012817,-0.010299683,0.009429932,9.784943,0.0079193115,0.6513672,0.004257202,0.051116943,-0.008529663,-28.54004,22.027588,3.312683,0,0.0,0.0,0.0,0.0
0.756866455,0.064585224,0.22972316,-0.9711108,-0.016042018,0.97325575,0.22916366,0.9977832,7.779913E-4,0.066543154,0.11039571,0.20228732,-0.9730841,-0.023787772,0.9793257,0.20088613,0.993603,9.705362E-4,0.11292532,0.1511383,-0.091415405,-0.09710693,9.78479,0.0076293945,0.6525574,0.012786865,0.05432129,-0.0010681152,-28.54004,22.027588,3.312683,0,0.0,0.0,0.0,0.0
0.761077881,0.06475266,0.22993101,-0.97105044,-0.01606427,0.9732067,0.22937037,0.99777204,7.468738E-4,0.06671139,0.11039571,0.20228732,-0.9730841,-0.023787772,0.9793257,0.20088613,0.993603,9.705362E-4,0.11292532,0.15127563,-0.09111023,-0.09875488,9.784653,0.0073242188,0.6542053,0.012786865,0.05432129,-0.0010681152,-28.54004,22.027588,3.312683,0,0.0,0.0,0.0,0.0
0.765289307,0.06555048,0.18395244,-0.9807469,-0.013057242,0.9829348,0.1834901,0.9977638,7.779871E-4,0.066833764,0.11153808,0.20368099,-0.972663,-0.024360677,0.9790366,0.20222217,0.99346155,0.0011392585,0.11416168,0.055511475,0.018692017,0.043685913,9.784653,0.0076293945,0.65541077,-0.004257202,0.04685974,-0.0032043457,-26.747131,21.669006,2.2766113,0,0.0,0.0,0.0,0.0
0.769500733,0.06555329,0.18395583,-0.9807462,-0.013042209,0.9829343,0.18349451,0.9977639,7.624274E-4,0.066833764,0.11062473,0.20328721,-0.97284967,-0.024116945,0.97911847,0.20185477,0.99356955,0.0011320331,0.11321738,0.084243774,-0.038589478,0.019744873,9.784653,0.0074768066,0.65541077,0.007461548,0.024490356,-0.004272461,-26.747131,21.669006,2.2766113,0,0.0,0.0,0.0,0.0
0.773681641,0.064400576,0.25639877,-0.9644233,-0.017886404,0.9665708,0.2557753,0.9977638,7.779871E-4,0.066833764,0.10972938,0.20290133,-0.97303164,-0.023878472,0.9791985,0.20149451,0.99367464,0.0011246409,0.11229182,0.026779175,0.018692017,-0.023345947,9.784653,0.0076293945,0.65541077,-0.010635376,0.011703491,0.0021209717,-26.208496,19.69757,3.4866333,0,0.0,0.0,0.0,0.0
0.777893067,0.06444301,0.2564522,-0.9644062,-0.017901478,0.96655643,0.2558278,0.9977607,7.7798474E-4,0.06687868,0.10881633,0.20397784,-0.97290903,-0.023807427,0.9789749,0.2025868,0.99377674,0.0011177078,0.11138465,-0.059417725,0.023483276,0.12464905,9.784653,0.0076293945,0.6558533,0.0095825195,0.015975952,0.007446289,-26.208496,19.69757,3.4866333,0,0.0,0.0,0.0,0.0
0.782104492,0.064472266,0.25648904,-0.96439445,-0.017911877,0.9665468,0.255864,0.9977587,7.779831E-4,0.06690966,0.10792263,0.20503366,-0.97278666,-0.023736173,0.9787543,0.2036581,0.9938759,0.0011109133,0.110496454,0.0028381348,-0.024383545,0.07646179,9.784653,0.0076293945,0.65615845,-0.012771606,0.019165039,-0.004272461,-26.208496,19.69757,3.4866333,0,0.0,0.0,0.0,0.0
0.786285401,0.06616767,0.14192893,-0.987663,-0.010271335,0.9898767,0.14155892,0.9977557,7.779929E-4,0.066955626,0.10704744,0.20606887,-0.9726646,-0.023664663,0.97853684,0.20470852,0.99397224,0.0011042547,0.10962642,-0.035324097,-0.0052490234,0.12390137,9.7845,0.0076293945,0.65660095,0.003189087,0.0,0.0021209717,-26.567078,22.207642,1.411438,0,0.0,0.0,0.0,0.0
0.790496826,0.06615252,0.14191103,-0.9876665,-0.01026794,0.989879,0.1415412,0.9977566,7.7799364E-4,0.06694013,0.10624579,0.20479375,-0.97302175,-0.023344487,0.9788045,0.20346184,0.9940658,0.0010977295,0.10877467,0.09396362,0.028274536,-0.029174805,9.7845,0.0076293945,0.65644836,0.0063934326,0.0053253174,0.0010681152,-26.567078,22.207642,1.411438,0,0.0,0.0,0.0,0.0
0.794708252,0.06610562,0.14185561,-0.98767763,-0.010271542,0.9898871,0.14148548,0.9977598,7.919877E-4,0.06689417,0.10545916,0.20354344,-0.9733696,-0.02303266,0.9790653,0.202239,0.99415684,0.0010913349,0.10793955,-0.001953125,0.023345947,-0.10055542,9.784653,0.0077667236,0.65600586,0.0021362305,0.0010681152,-0.0063934326,-26.567078,22.207642,1.411438,0,0.0,0.0,0.0,0.0
0.798919678,0.06512079,0.22202042,-0.97286505,-0.015654597,0.97504175,0.2214693,0.9977546,8.0755574E-4,0.066971116,0.10468674,0.20231672,-0.9737087,-0.022729026,0.9793195,0.20103885,0.99424547,0.0010853478,0.10712023,0.06523132,0.0471344,0.17163086,9.7845,0.0079193115,0.65675354,0.007461548,0.0021362305,0.0,-25.132751,21.131897,3.1402588,0,0.0,0.0,0.0,0.0
0.803100586,0.06507966,0.22197348,-0.97287834,-0.015626015,0.9750523,0.2214242,0.99775773,7.919984E-4,0.06692465,0.10389382,0.20271164,-0.97371143,-0.022603454,0.97923785,0.2014504,0.9943315,0.001079792,0.10631874,0.036514282,-0.029312134,-0.0769043,9.7845,0.0077667236,0.6562958,-0.0021362305,0.009597778,-0.008529663,-25.132751,21.131897,3.1402588,0,0.0,0.0,0.0,0.0
0.807312012,0.06509449,0.2219904,-0.9728735,-0.01563058,0.9750484,0.22144084,0.9977566,7.9199753E-4,0.06694013,0.10311605,0.20309767,-0.97371376,-0.02247918,0.97915787,0.20185268,0.9944153,0.0010740361,0.10553236,0.060455322,-0.019729614,0.028289795,9.7845,0.0077667236,0.65644836,0.003189087,0.0,0.004257202,-25.132751,21.131897,3.1402588,0,0.0,0.0,0.0,0.0
0.811523438,0.065234534,0.21446538,-0.9745506,-0.015102694,0.97673124,0.21393432,0.9977557,7.6243305E-4,0.066955626,0.10235403,0.20347628,-0.97371507,-0.022356855,0.97907925,0.20224716,0.99449676,0.0010683953,0.104761794,0.08917236,-0.07211304,0.061645508,9.7845,0.0074768066,0.65660095,0.020233154,0.0021362305,-0.004272461,-28.54004,20.593262,2.62146,0,0.0,0.0,0.0,0.0
0.815704346,0.06523128,0.21446101,-0.9745518,-0.015117566,0.9767322,0.21392895,0.9977557,7.779929E-4,0.066955626,0.10161119,0.20369633,-0.97374696,-0.022220219,0.9790336,0.20248353,0.99457604,0.0010622761,0.104006946,0.036514282,0.013916016,-0.019744873,9.7845,0.0076293945,0.65660095,0.0010681152,0.0053253174,-0.0053253174,-28.54004,20.593262,2.62146,0,0.0,0.0,0.0,0.0
0.819915772,0.065234534,0.21446538,-0.9745506,-0.015102694,0.97673124,0.21393432,0.9977557,7.6243305E-4,0.066955626,0.10088324,0.20391187,-0.9737775,-0.02208629,0.9789887,0.20271498,0.9946531,0.0010565904,0.10326721,0.1083374,-0.038589478,0.032928467,9.7845,0.0074768066,0.65660095,0.0021362305,-0.0095825195,0.0063934326,-28.54004,20.593262,2.62146,0,0.0,0.0,0.0,0.0
0.825958252,0.06544702,0.20130412,-0.9773399,-0.014226718,0.9795285,0.2008022,0.9977546,7.6243223E-4,0.066971116,0.100169815,0.20412317,-0.97380686,-0.021954404,0.97894466,0.2029418,0.99472815,0.0010507072,0.10254211,0.09875488,0.004486084,0.04234314,9.7845,0.0074768066,0.65675354,0.0138549805,0.0021362305,-0.0010681152,-26.747131,23.104858,2.9678345,0,0.0,0.0,0.0,0.0
0.832000733,0.06544394,0.20130067,-0.9773408,-0.014241694,0.97952914,0.20079774,0.9977546,7.7799207E-4,0.066971116,0.09947697,0.20406683,-0.97388965,-0.021798171,0.9789564,0.20290194,0.9948011,0.0010449417,0.101831906,0.08917236,0.037857056,0.004043579,9.7845,0.0076293945,0.65675354,0.0021362305,-0.012771606,-0.012786865,-26.747131,23.104858,2.9678345,0,0.0,0.0,0.0,0.0
0.838043213,0.06536394,0.20121112,-0.97736466,-0.01424912,0.9795477,0.2007076,0.9977598,8.0754736E-4,0.06689417,0.098459594,0.20377249,-0.97405463,-0.021217415,0.97901803,0.2026661,0.9949148,7.125003E-4,0.10071725,0.089019775,0.013626099,0.0622406,9.784653,0.0079193115,0.65600586,0.003189087,-0.0063934326,0.0053253174,-26.747131,23.104858,2.9678345,0,0.0,0.0,0.0,0.0
0.843994141,0.06561715,0.18537891,-0.9804739,-0.013182746,0.98266673,0.18491127,0.99775773,7.9198607E-4,0.0669236,0.09779901,0.20372127,-0.97413194,-0.021076556,0.9790287,0.20262933,0.994983,7.1440125E-4,0.10004178,0.079452515,-0.024520874,0.057174683,9.784653,0.0077667236,0.6562958,-0.015960693,-0.02130127,-0.007461548,-25.132751,21.84906,2.4490356,0,0.0,0.0,0.0,0.0
0.847961426,0.06546169,0.18520494,-0.9805172,-0.0131888,0.9826997,0.18473667,0.997768,8.386736E-4,0.0667718,0.09715898,0.20335512,-0.9742725,-0.02090704,0.9791048,0.2022788,0.9950493,7.1595295E-4,0.09938038,0.074661255,-0.0345459,-0.0035858154,9.784653,0.008224487,0.6548004,-0.004257202,-0.01171875,-0.0032043457,-25.132751,21.84906,2.4490356,0,0.0,0.0,0.0,0.0
0.851928711,0.06531663,0.1850426,-0.9805575,-0.01313447,0.98273015,0.1845777,0.9977781,8.2311063E-4,0.06661905,0.09652852,0.20299278,-0.9744107,-0.020741325,0.97918,0.20193161,0.9951141,7.184074E-4,0.09872914,0.045791626,-0.12059021,-0.059555054,9.78479,0.008071899,0.65330505,0.02130127,-0.03302002,-0.012786865,-25.132751,21.84906,2.4490356,0,0.0,0.0,0.0,0.0
0.855895996,0.064496204,0.23876402,-0.96893346,-0.016703773,0.97107726,0.23818041,0.9977781,8.2311063E-4,0.06661905,0.09590766,0.20263442,-0.9745465,-0.02057813,0.9792542,0.20158811,0.9951775,7.205014E-4,0.09808782,0.064941406,-0.0056915283,0.012268066,9.78479,0.008071899,0.65330505,0.0063934326,-0.027694702,-0.007461548,-25.849915,21.131897,3.4866333,0,0.0,0.0,0.0,0.0
0.859863281,0.06451516,0.2387861,-0.9689267,-0.016756356,0.9710718,0.23819904,0.99777603,8.682321E-4,0.06665004,0.09527656,0.20335992,-0.9744573,-0.020523407,0.9791038,0.20232292,0.99523926,7.225536E-4,0.09745928,-0.006881714,0.104003906,0.07901001,9.78479,0.008514404,0.6536102,0.008529663,-0.018096924,0.0021209717,-25.849915,21.131897,3.4866333,0,0.0,0.0,0.0,0.0
0.863830567,0.06451095,0.23878118,-0.96892816,-0.01670861,0.97107303,0.23819731,0.9977771,8.2310976E-4,0.06663455,0.09465867,0.20407124,-0.97436893,-0.020469943,0.9789558,0.20304328,0.99529934,7.2546717E-4,0.09684398,0.112838745,-0.08706665,-0.045333862,9.78479,0.008071899,0.65345764,-0.008514404,-0.017044067,-0.0032043457,-25.849915,21.131897,3.4866333,0,0.0,0.0,0.0,0.0
0.867797852,0.06511958,0.198631,-0.97790855,-0.0140816625,0.980074,0.19813314,0.9977781,8.6823385E-4,0.06661905,0.094052985,0.20476812,-0.9742813,-0.0204157,0.97881025,0.20374912,0.9953579,7.2742003E-4,0.09624051,0.064941406,0.104003906,-0.040390015,9.78479,0.008514404,0.65330505,-0.0010681152,-0.018096924,-0.0010681152,-27.822876,22.027588,2.62146,0,0.0,0.0,0.0,0.0
0.871765137,0.06506714,0.19856673,-0.97792506,-0.0140364915,0.98008686,0.19807176,0.9977821,8.3867373E-4,0.06655864,0.09347574,0.20464547,-0.9743627,-0.020285599,0.97883594,0.20363888,0.9954149,7.3023635E-4,0.09564876,-0.006881714,-0.07765198,-0.13557434,9.78479,0.008224487,0.65270996,0.0053253174,-0.020233154,-0.0010681152,-27.822876,22.027588,2.62146,0,0.0,0.0,0.0,0.0
0.875732422,0.06505526,0.19855219,-0.9779289,-0.0140172355,0.9800899,0.19805847,0.9977831,8.2311477E-4,0.06654315,0.09290898,0.20452397,-0.97444236,-0.020157298,0.97886133,0.20352952,0.9954706,7.324051E-4,0.09506765,0.19902039,-0.04397583,-0.020492554,9.78479,0.008071899,0.6525574,0.0021362305,0.0021362305,0.0053253174,-27.822876,22.027588,2.62146,0,0.0,0.0,0.0,0.0
0.879699707,0.06456997,0.22784989,-0.9715529,-0.015985081,0.9736959,0.22729006,0.99778515,8.5423613E-4,0.066513725,0.09235334,0.20440459,-0.9745202,-0.020031318,0.9788862,0.20342204,0.99552476,7.342193E-4,0.0944979,0.08888245,0.070617676,-0.06808472,9.78479,0.008377075,0.65226746,0.0010681152,-0.0053253174,-0.0010681152,-26.747131,20.23468,2.9678345,0,0.0,0.0,0.0,0.0
0.883666992,0.06459146,0.22787717,-0.9715451,-0.016022313,0.9736894,0.2273149,0.9977831,8.8379806E-4,0.06654315,0.091796085,0.20487471,-0.97447413,-0.019963525,0.9787879,0.20390107,0.99557763,7.3661964E-4,0.09393892,0.012268066,0.07032776,0.07527161,9.78479,0.008666992,0.6525574,0.004257202,0.0063934326,0.007446289,-26.747131,20.23468,2.9678345,0,0.0,0.0,0.0,0.0
0.887634277,0.06454515,0.22781841,-0.97156197,-0.016023304,0.97370315,0.227256,0.9977861,8.993606E-4,0.06649823,0.091250464,0.20533592,-0.97442824,-0.019897316,0.9786912,0.20437095,0.99562913,7.395632E-4,0.093391664,0.074523926,0.06539917,-0.12060547,9.78479,0.00881958,0.65211487,-0.0063934326,0.018096924,0.012771606,-26.747131,20.23468,2.9678345,0,0.0,0.0,0.0,0.0
0.891601563,0.06453384,0.22780405,-0.971566,-0.01600371,0.9737066,0.22724293,0.99778724,8.8380167E-4,0.06648274,0.09071481,0.20578668,-0.9743832,-0.019831922,0.97859657,0.20483018,0.9956794,7.4275915E-4,0.09285435,0.084106445,-0.058944702,-0.03427124,9.78479,0.008666992,0.6519623,0.008529663,0.009597778,-0.0063934326,-26.747131,20.23468,2.9678345,0,0.0,0.0,0.0,0.0
0.895568848,0.06461062,0.22790147,-0.97153825,-0.016076334,0.97368383,0.22733566,0.99778104,9.304756E-4,0.06657413,0.09018982,0.20622809,-0.9743386,-0.019766988,0.97850364,0.20527993,0.9957284,7.4558E-4,0.09232757,0.055374146,0.0076293945,0.04623413,9.78479,0.009124756,0.65286255,-0.003189087,0.015975952,-0.0063934326,-26.747131,20.23468,2.9678345,0,0.0,0.0,0.0,0.0
0.899536133,0.064727984,0.22805034,-0.97149545,-0.016176462,0.9736489,0.22747804,0.9977718,9.911635E-4,0.06671137,0.090774626,0.2056962,-0.97439677,-0.020581158,0.9786148,0.20466928,0.99565876,0.0014754372,0.093066856,0.031570435,0.045333862,0.054473877,9.784653,0.009719849,0.6542053,0.015975952,0.019165039,-0.009597778,-26.747131,20.23468,2.9678345,0,0.0,0.0,0.0,0.0
0.903869629,0.065505944,0.18801215,-0.9799799,-0.013514817,0.9821663,0.18752825,0.99776065,9.600331E-4,0.06687868,0.09025194,0.20614436,-0.9743506,-0.020504823,0.97852045,0.20512728,0.99570787,0.0014657517,0.09254033,0.17042542,-0.088409424,-0.047729492,9.784653,0.009414673,0.6558533,0.01171875,0.027694702,-0.008529663,-27.105713,21.310425,2.2766113,0,0.0,0.0,0.0,0.0
0.908203125,0.06562224,0.18815628,-0.9799444,-0.013562896,0.9821387,0.18766935,0.99775237,9.755999E-4,0.06700209,0.08975988,0.20578238,-0.9744725,-0.02035615,0.9785966,0.20477827,0.9957554,0.0014556374,0.092027664,-0.006591797,-0.011947632,-0.12554932,9.7845,0.009567261,0.6570587,0.015975952,0.04046631,-0.0021362305,-27.105713,21.310425,2.2766113,0,0.0,0.0,0.0,0.0
0.912567139,0.06579537,0.18837082,-0.97989154,-0.0136268055,0.98209745,0.18787992,0.9977401,9.91163E-4,0.06718436,0.08927982,0.2054305,-0.9745909,-0.02021187,0.9786706,0.2044389,0.99580145,0.0014460367,0.09152767,0.12763977,0.050125122,0.030685425,9.784348,0.009719849,0.658844,0.004257202,0.04046631,-0.004272461,-27.105713,21.310425,2.2766113,0,0.0,0.0,0.0,0.0
0.916900635,0.065073244,0.24676585,-0.96688783,-0.01763722,0.9690745,0.24613692,0.99772453,0.0010362866,0.067413084,0.08881267,0.20508991,-0.9747053,-0.020072248,0.97874206,0.20411035,0.9958461,0.0014369392,0.09104132,0.11820984,0.0640564,0.033218384,9.784195,0.0101623535,0.66108704,0.0063934326,0.04046631,-0.0010681152,-27.28424,22.207642,3.831482,0,0.0,0.0,0.0,0.0
0.921264649,0.06519273,0.2469051,-0.9668442,-0.01766323,0.9690391,0.24627462,0.99771637,0.0010222744,0.06753545,0.088335074,0.20592736,-0.9745721,-0.020043265,0.9785662,0.2049546,0.9958891,0.0014289262,0.09056918,0.09906006,-0.031570435,-0.10684204,9.784195,0.010025024,0.6622925,0.003189087,0.04899597,-0.004272461,-27.28424,22.207642,3.831482,0,0.0,0.0,0.0,0.0
0.925598145,0.065308414,0.24703996,-0.966802,-0.017764896,0.9690047,0.24640277,0.99770695,0.0010829639,0.0676728,0.087869614,0.20675072,-0.9744399,-0.02001458,0.9783926,0.20578459,0.9959309,0.0014207931,0.09010901,0.18061829,0.08753967,-0.084243774,9.784042,0.010620117,0.66363525,0.0095825195,0.039398193,0.0010681152,-27.28424,22.207642,3.831482,0,0.0,0.0,0.0,0.0
0.929962158,0.06572725,0.23168288,-0.9705684,-0.016842693,0.9727908,0.23107278,0.9976955,0.00115921,0.067841016,0.08741586,0.20756021,-0.97430855,-0.019987702,0.9782212,0.20660041,0.9959713,0.0014140366,0.089660704,0.013153076,0.09156799,0.072128296,9.783905,0.011367798,0.6652832,0.0021362305,0.038345337,-0.007461548,-27.464294,21.669006,3.312683,0,0.0,0.0,0.0,0.0
0.934326172,0.0658571,0.23184037,-0.9705219,-0.016884914,0.97275305,0.23122759,0.99768615,0.0011591992,0.06797731,0.08698057,0.20804396,-0.97424436,-0.019935315,0.9781184,0.20709142,0.9960105,0.0014089402,0.08922472,0.13287354,-0.08558655,-0.010620117,9.783905,0.011367798,0.666626,0.01171875,0.034072876,-0.009597778,-27.464294,21.669006,3.312683,0,0.0,0.0,0.0,0.0
0.938659668,0.06587992,0.23186803,-0.9705139,-0.016922653,0.9727466,0.23125271,0.99768406,0.0011887602,0.06800828,0.08655659,0.20852116,-0.9741801,-0.019884398,0.9780168,0.20757566,0.99604845,0.0014039454,0.08880012,0.084991455,0.072128296,0.060897827,9.783905,0.011657715,0.66693115,0.007461548,0.034072876,-0.007461548,-27.464294,21.669006,3.312683,0,0.0,0.0,0.0,0.0
0.943359375,0.066202745,0.21931468,-0.9734054,-0.016066922,0.9756534,0.21872842,0.9976768,0.0011592064,0.06811465,0.086141646,0.20898934,-0.97411656,-0.019834861,0.9779169,0.20805065,0.99608546,0.0013996416,0.08838465,0.20484924,-0.018539429,0.05986023,9.783752,0.011367798,0.66796875,-0.007461548,0.018096924,-0.009597778,-26.208496,21.84906,3.1402588,0,0.0,0.0,0.0,0.0
0.948059082,0.06623241,0.21934886,-0.97339576,-0.016076032,0.97564584,0.21876206,0.99767476,0.001159204,0.06814563,0.08574237,0.20919609,-0.9741074,-0.019763708,0.9778727,0.20826507,0.9961213,0.001394833,0.087979615,0.089920044,-0.018539429,0.09307861,9.783752,0.011367798,0.6682739,-0.017028809,0.020233154,0.0010681152,-26.208496,21.84906,3.1402588,0,0.0,0.0,0.0,0.0
0.952758789,0.066229075,0.21934502,-0.9733969,-0.016090916,0.97564673,0.2187572,0.99767476,0.0011747638,0.06814563,0.08535164,0.20939937,-0.974098,-0.019693986,0.9778292,0.20847583,0.9961562,0.0013901205,0.08758323,0.061203003,0.033966064,0.011672974,9.783752,0.011520386,0.6682739,-0.004257202,0.014907837,-0.0010681152,-26.208496,21.84906,3.1402588,0,0.0,0.0,0.0,0.0
0.957611084,0.06572536,0.2501809,-0.9659657,-0.018208276,0.96819836,0.24952024,0.99767154,0.0011887638,0.06819054,0.08496869,0.2095985,-0.97408867,-0.0196258,0.97778654,0.20868224,0.9961903,0.0013858133,0.087194785,0.089920044,0.043395996,0.12614441,9.783752,0.011657715,0.66871643,0.0021362305,0.017028809,0.004257202,-25.491333,21.490479,3.831482,0,0.0,0.0,0.0,0.0
0.962463379,0.06574711,0.2502053,-0.9659579,-0.01824774,0.96819204,0.249542,0.99766946,0.0012198807,0.06822152,0.08458183,0.21041395,-0.9739466,-0.019612959,0.97761136,0.20950243,0.9962235,0.0013818723,0.08681501,0.065979004,0.07661438,0.07795715,9.783752,0.011962891,0.6690216,0.022369385,0.0,-0.007461548,-25.491333,21.490479,3.831482,0,0.0,0.0,0.0,0.0
0.967315674,0.06574347,0.25020123,-0.96595925,-0.018200003,0.96819323,0.24954118,0.9976706,0.0011747589,0.068206035,0.083485834,0.21118635,-0.973874,-0.019947683,0.97744405,0.2102505,0.99630934,0.0018735902,0.085815415,0.1521759,-0.1240387,-0.012863159,9.783752,0.011520386,0.668869,0.0010681152,-0.0095825195,-0.007461548,-25.491333,21.490479,3.831482,0,0.0,0.0,0.0,0.0
0.972167969,0.06606263,0.23593974,-0.96951956,-0.017245714,0.971767,0.23531157,0.9976665,0.001174754,0.06826644,0.08312871,0.21197018,-0.97373414,-0.019926457,0.97727436,0.21103969,0.99633956,0.0018596136,0.085463375,0.08514404,0.0052337646,0.14933777,9.783752,0.011520386,0.6694641,-0.003189087,-0.0053253174,-0.0010681152,-26.92566,23.283386,3.831482,0,0.0,0.0,0.0,0.0
0.977020264,0.06606012,0.23593698,-0.96952033,-0.017196981,0.97176766,0.23531212,0.99766743,0.0011280761,0.0682525,0.082785904,0.21245086,-0.9736586,-0.019881036,0.97717,0.21152665,0.996369,0.0018459164,0.08511964,0.046829224,-0.10922241,-0.008529663,9.783752,0.011062622,0.6693268,0.0095825195,0.007461548,-0.0010681152,-26.92566,23.283386,3.831482,0,0.0,0.0,0.0,0.0
0.981872559,0.06603419,0.23590843,-0.96952915,-0.01717265,0.97177464,0.2352852,0.9976695,0.0011125188,0.06822152,0.08244998,0.21292184,-0.97358423,-0.019835236,0.97706753,0.21200384,0.9963978,0.0018315596,0.084782556,0.13781738,-0.042022705,-0.06568909,9.783752,0.010910034,0.6690216,-0.0021362305,-0.0021209717,-0.008529663,-26.92566,23.283386,3.831482,0,0.0,0.0,0.0,0.0
0.986724854,0.06590204,0.24469684,-0.96735746,-0.017729934,0.96959907,0.244056,0.99766856,0.0010673946,0.068237014,0.08212024,0.21338277,-0.97351116,-0.019789541,0.976967,0.2124709,0.9964259,0.0018171788,0.08445151,0.0947113,-0.14213562,0.034713745,9.783752,0.010467529,0.6691742,0.0095825195,-0.0063934326,0.0010681152,-27.28424,21.131897,3.4866333,0,0.0,0.0,0.0,0.0
0.991577149,0.06593367,0.24473566,-0.9673454,-0.017724719,0.96958923,0.24409524,0.9976666,0.0010518329,0.068266444,0.081794135,0.21401133,-0.97340065,-0.019758476,0.9768295,0.2131049,0.9964534,0.0018021832,0.08412747,0.037261963,-0.017486572,0.10145569,9.783752,0.010314941,0.6694641,-0.015960693,-0.008514404,0.0010681152,-27.28424,21.131897,3.4866333,0,0.0,0.0,0.0,0.0
0.996429443,0.06584848,0.244631,-0.9673777,-0.017695641,0.9696157,0.24399243,0.99767274,0.0010518393,0.06817662,0.08147519,0.214628,-0.97329164,-0.019727508,0.9766942,0.21372692,0.9964801,0.0017871761,0.08381043,0.09950256,-0.08453369,-0.0460968,9.783752,0.010314941,0.6685791,0.0010681152,-0.017044067,0.0010681152,-27.28424,21.131897,3.4866333,0,0.0,0.0,0.0,0.0
1.001251221,0.06544413,0.26510474,-0.9619961,-0.019081706,0.96421903,0.26441923,0.9976738,0.0010518405,0.06816113,0.08116095,0.21523015,-0.9731849,-0.019696204,0.9765618,0.21433435,0.9965064,0.0017724694,0.0834979,0.10429382,-0.11325073,0.035461426,9.783752,0.010314941,0.6684265,0.018112183,-0.018096924,-0.0063934326,-28.181458,20.23468,3.6590576,0,0.0,0.0,0.0,0.0
1.006103516,0.06546631,0.26513395,-0.9619866,-0.01905935,0.96421105,0.26444998,0.99767274,0.0010222758,0.06817662,0.08116095,0.21523015,-0.9731849,-0.019696204,0.9765618,0.21433435,0.9965064,0.0017724694,0.0834979,0.10429382,-0.112960815,0.035308838,9.783752,0.010025024,0.6685791,0.018112183,-0.018096924,-0.0063934326,-28.181458,20.23468,3.6590576,0,0.0,0.0,0.0,0.0
1.010955811,0.065441206,0.26510093,-0.9619974,-0.019033935,0.9642202,0.26441866,0.99767494,0.0010067183,0.06814565,0.08053511,0.21721804,-0.9727951,-0.019700868,0.9761216,0.21632981,0.99655706,0.0017427618,0.08289144,0.061203003,-0.012252808,-0.079315186,9.783752,0.0098724365,0.6682739,0.004257202,-0.015975952,-0.0021362305,-28.181458,20.23468,3.6590576,0,0.0,0.0,0.0,0.0
1.015777588,0.06636491,0.21127644,-0.9751708,-0.0153727485,0.97742593,0.21071884,0.997677,0.0010067204,0.06811467,0.08023118,0.21818125,-0.9726047,-0.019701753,0.9759068,0.21729676,0.99658155,0.0017280411,0.0825967,0.13302612,0.002090454,-0.05027771,9.783752,0.0098724365,0.66796875,0.0053253174,-0.003189087,-0.0021362305,-28.181458,20.951843,2.62146,0,0.0,0.0,0.0,0.0
1.019927979,0.06632189,0.21122047,-0.9751858,-0.015359467,0.9774379,0.21066368,0.99768,0.0010067234,0.06806975,0.079954535,0.21804324,-0.97265846,-0.019613286,0.9759376,0.2171661,0.9966055,0.0017136147,0.08230718,0.1234436,-0.031417847,-0.112075806,9.783752,0.0098724365,0.66752625,0.015975952,0.008529663,-0.004272461,-28.181458,20.951843,2.62146,0,0.0,0.0,0.0,0.0
1.024078369,0.0662546,0.2111329,-0.9752093,-0.015306926,0.97745687,0.21057954,0.9976853,9.7559363E-4,0.06799281,0.079682514,0.21790689,-0.9727113,-0.019526374,0.9759681,0.21703692,0.99662906,0.0016994769,0.08202252,0.070617676,-0.04547119,-0.17837524,9.783905,0.009567261,0.66677856,0.004257202,0.0053253174,-0.0021362305,-28.181458,20.951843,2.62146,0,0.0,0.0,0.0,0.0
1.02822876,0.06657114,0.19423412,-0.97869366,-0.01415783,0.98095465,0.19371982,0.9976812,9.6003E-4,0.06805321,0.07941458,0.2177715,-0.9727635,-0.019440187,0.97599834,0.21690862,0.99665207,0.0016849992,0.08174201,0.108932495,-0.064468384,0.14665222,9.783905,0.009414673,0.66737366,0.012786865,0.011703491,0.0021209717,-27.822876,22.744751,2.62146,0,0.0,0.0,0.0,0.0
1.032379151,0.066630416,0.19430457,-0.97867566,-0.01417456,0.98094076,0.19378923,0.997677,9.6004095E-4,0.06811467,0.07915997,0.21730193,-0.9728893,-0.01932845,0.97610307,0.21644706,0.99667454,0.0016704998,0.081468396,0.046829224,-0.0740509,-0.08378601,9.783752,0.009414673,0.66796875,0.014907837,0.007461548,-0.0053253174,-27.822876,22.744751,2.62146,0,0.0,0.0,0.0,0.0
1.036529541,0.06666296,0.19434322,-0.9786658,-0.0141694965,0.9809332,0.19382831,0.997675,9.4603514E-4,0.06814565,0.08030406,0.21633652,-0.97301066,-0.020031078,0.9763164,0.21541831,0.99656916,0.0021914886,0.08273563,0.09950256,-0.026031494,0.08828735,9.783752,0.009277344,0.6682739,0.008529663,0.023422241,-0.007461548,-27.822876,22.744751,2.62146,0,0.0,0.0,0.0,0.0
1.040679932,0.06586205,0.25045773,-0.9658846,-0.017981555,0.96812713,0.2498131,0.9976668,9.14908E-4,0.06826645,0.08003362,0.2158977,-0.9731304,-0.019907828,0.9764136,0.21498881,0.99659336,0.00216658,0.08244397,0.1234436,-0.04008484,0.04878235,9.783752,0.008972168,0.6694641,0.0,0.023422241,-0.004272461,-26.38855,22.38617,4.005432,0,0.0,0.0,0.0,0.0
1.044830322,0.065956615,0.25056317,-0.9658508,-0.018108318,0.9680997,0.24991,0.9976582,0.0010067171,0.068389855,0.07974811,0.21659172,-0.9729996,-0.01987901,0.97625995,0.21568815,0.99661684,0.0021415465,0.08216051,0.22415161,0.078704834,-0.029037476,9.7836,0.0098724365,0.67066956,0.008529663,0.025558472,0.003189087,-26.38855,22.38617,4.005432,0,0.0,0.0,0.0,0.0
1.048980713,0.06602133,0.2506353,-0.96582764,-0.018160794,0.968081,0.24997862,0.99765295,0.0010362752,0.06846574,0.079470396,0.21727386,-0.97287023,-0.019852888,0.9761084,0.21637534,0.9966395,0.00211885,0.08188523,-0.020050049,0.049682617,0.18569946,9.7836,0.0101623535,0.67141724,0.0,0.031951904,-0.014923096,-26.38855,22.38617,4.005432,0,0.0,0.0,0.0,0.0
1.053131104,0.066965304,0.201973,-0.97709906,-0.014865393,0.97939056,0.20142788,0.99764454,0.0010362826,0.068587594,0.07919962,0.21794373,-0.9727425,-0.01982794,0.97595906,0.21705003,0.99666154,0.0020971983,0.08161697,0.08065796,0.016159058,0.021697998,9.783447,0.0101623535,0.6726074,0.0,0.022354126,-0.0032043457,-28.001404,21.131897,2.4490356,0,0.0,0.0,0.0,0.0
1.057281494,0.06718193,0.20225166,-0.9770265,-0.014945892,0.97933304,0.20170142,0.9976288,0.0010518422,0.06881631,0.07895637,0.21762489,-0.9728337,-0.019724764,0.9760303,0.21673909,0.99668294,0.0020759802,0.08135641,0.047286987,0.006439209,0.110443115,9.783295,0.010314941,0.67485046,-0.0010681152,0.027694702,0.0010681152,-28.001404,21.131897,2.4490356,0,0.0,0.0,0.0,0.0
1.061431885,0.06715367,0.2022153,-0.97703606,-0.01493745,0.97934055,0.20166558,0.9976308,0.0010518443,0.06878688,0.07872229,0.21731795,-0.9729212,-0.019625563,0.9760987,0.21643971,0.9967034,0.0020554974,0.08110572,0.07601929,-0.017486572,-0.056869507,9.783295,0.010314941,0.67456055,0.003189087,0.04046631,-0.0053253174,-28.001404,21.131897,2.4490356,0,0.0,0.0,0.0,0.0
1.065582276,0.06715205,0.21046394,-0.97529256,-0.015562037,0.97760105,0.2098906,0.99762136,0.0010829538,0.06892316,0.07849225,0.2170164,-0.9730071,-0.0195283,0.97616583,0.21614556,0.9967234,0.0020354243,0.08085941,0.06643677,0.11148071,0.06150818,9.783295,0.010620117,0.6759033,-0.0021362305,0.017028809,-0.0010681152,-28.181458,22.744751,2.9678345,0,0.0,0.0,0.0,0.0
1.069732666,0.06715526,0.21046777,-0.9752915,-0.015547124,0.97760016,0.20989546,0.99762136,0.0010673942,0.06892316,0.07826607,0.21688546,-0.9730545,-0.019447526,0.976195,0.2160212,0.9967428,0.0020163748,0.080620825,0.11433411,-0.03678894,0.013626099,9.783295,0.010467529,0.6759033,0.01171875,0.025558472,0.003189087,-28.181458,22.744751,2.9678345,0,0.0,0.0,0.0,0.0
1.073883057,0.06714041,0.21045001,-0.9752964,-0.015542648,0.9776041,0.209878,0.9976225,0.0010673953,0.06890768,0.07804442,0.21675721,-0.9731009,-0.019368125,0.9762235,0.21589941,0.99676174,0.0019973952,0.08038699,0.056869507,-0.0032958984,-0.019744873,9.783295,0.010467529,0.67575073,-0.010635376,0.014907837,-0.0063934326,-28.181458,22.744751,2.9678345,0,0.0,0.0,0.0,0.0
1.078033447,0.06779966,0.17583875,-0.9820815,-0.013099182,0.9844186,0.17535287,0.99761295,9.75599E-4,0.06904658,0.07782682,0.21663114,-0.9731464,-0.019290252,0.97625154,0.21577965,0.9967802,0.001978795,0.08015742,0.013916016,-0.13645935,0.074661255,9.783142,0.009567261,0.67710876,-0.0021362305,0.013839722,0.0021209717,-26.208496,21.84906,2.1026611,0,0.0,0.0,0.0,0.0
1.082183838,0.0678405,0.17588665,-0.98207,-0.013125653,0.9844099,0.17539902,0.99760985,9.911556E-4,0.069091484,0.0776303,0.21581875,-0.9733426,-0.019158062,0.9764315,0.21497567,0.99679816,0.0019587313,0.07993534,0.052230835,0.0070343018,0.02154541,9.783142,0.009719849,0.67755127,0.02557373,0.025558472,0.008514404,-26.208496,21.84906,2.1026611,0,0.0,0.0,0.0,0.0
1.086334229,0.06791497,0.17597397,-0.9820492,-0.013145198,0.9843943,0.17548512,0.99760455,9.911644E-4,0.06916834,0.07743823,0.21502338,-0.9735339,-0.01902939,0.97660697,0.21418847,0.9968155,0.0019393798,0.07971848,0.10983276,0.016601563,0.22190857,9.783005,0.009719849,0.67829895,0.026626587,0.008529663,0.0,-26.208496,21.84906,2.1026611,0,0.0,0.0,0.0,0.0
1.090484619,0.0674972,0.20594224,-0.9762335,-0.015215478,0.97856367,0.2053818,0.9976035,9.911633E-4,0.06918382,0.077251375,0.21424553,-0.97372025,-0.018904086,0.976778,0.21341854,0.99683243,0.0019204156,0.07950755,-3.0517578E-4,-0.0025482178,0.025436401,9.783005,0.009719849,0.67845154,-0.0053253174,0.007461548,0.0,-27.105713,21.310425,2.62146,0,0.0,0.0,0.0,0.0
1.09463501,0.06752859,0.2059809,-0.9762232,-0.015209009,0.9785555,0.20542096,0.9976014,9.756013E-4,0.069213234,0.077056915,0.21407962,-0.9737721,-0.018828709,0.9768144,0.21325848,0.9968489,0.0019018304,0.07930115,-0.076919556,-0.05026245,0.082611084,9.783005,0.009567261,0.67874146,0.0138549805,-0.004257202,0.0053253174,-27.105713,21.310425,2.62146,0,0.0,0.0,0.0,0.0
1.098785401,0.0674886,0.20593166,-0.9762363,-0.015181181,0.9785658,0.20537357,0.99760455,9.6004456E-4,0.06916834,0.076866984,0.21391779,-0.9738227,-0.018754793,0.97684985,0.21310239,0.9968649,0.0018833058,0.079099484,0.052368164,-0.002243042,0.15966797,9.783005,0.009414673,0.67829895,0.007461548,-0.008514404,-0.0021362305,-27.105713,21.310425,2.62146,0,0.0,0.0,0.0,0.0
1.102935791,0.06751257,0.20596117,-0.9762284,-0.015142351,0.9785597,0.20540582,0.9976035,9.1491995E-4,0.06918382,0.0751264,0.21402554,-0.9739348,-0.018269932,0.9768265,0.2132517,0.99700665,0.0017728928,0.07729569,0.095458984,-0.11190796,0.03501892,9.783005,0.008972168,0.67845154,-0.004257202,-0.024490356,0.0010681152,-27.105713,21.310425,2.62146,0,0.0,0.0,0.0,0.0
1.107086182,0.06738078,0.20579886,-0.97627175,-0.0151029155,0.9785938,0.20524597,0.997613,9.149159E-4,0.06904659,0.0749747,0.2138644,-0.9739819,-0.018206177,0.9768618,0.21309529,0.99701923,0.0017557333,0.07713357,-0.014801025,-0.011352539,-0.049835205,9.783142,0.008972168,0.67710876,-0.0010681152,-0.02130127,-0.007461548,-27.105713,21.310425,2.62146,0,0.0,0.0,0.0,0.0
1.111236572,0.06720113,0.20557763,-0.9763308,-0.015065094,0.9786404,0.205027,0.9976257,9.304729E-4,0.06886277,0.07482337,0.21370324,-0.97402894,-0.018142905,0.9768971,0.21293879,0.99703175,0.0017389168,0.07697193,0.028137207,-0.016296387,-0.07197571,9.783295,0.009124756,0.6753082,0.003189087,-0.026626587,0.0,-27.105713,21.310425,2.62146,0,0.0,0.0,0.0,0.0
1.115386963,0.06690905,0.21526791,-0.9742601,-0.015729943,0.97655445,0.21469457,0.99763507,9.600455E-4,0.068726495,0.07467145,0.21354087,-0.9740762,-0.01808012,0.97693264,0.21278106,0.99704427,0.001722748,0.076809816,0.008987427,0.0073394775,0.049072266,9.783295,0.009414673,0.67396545,0.0021362305,-0.034088135,-0.0053253174,-27.28424,21.131897,2.7954102,0,0.0,0.0,0.0,0.0
1.119598389,0.066854954,0.21520053,-0.97427875,-0.015682956,0.9765694,0.21463032,0.9976394,9.3047123E-4,0.068663485,0.07451613,0.21357541,-0.97408056,-0.0180334,0.97692513,0.21281958,0.9970568,0.0017074939,0.07664817,0.03277588,0.031570435,0.15982056,9.783447,0.009124756,0.6733551,0.0053253174,-0.03514099,-0.008529663,-27.28424,21.131897,2.7954102,0,0.0,0.0,0.0,0.0
1.123931885,0.06664959,0.2149447,-0.9743493,-0.015697237,0.9766257,0.21437311,0.99765295,0.0010067117,0.06846574,0.0743629,0.2136079,-0.9740851,-0.017986665,0.97691804,0.21285602,0.997069,0.0016919535,0.07648854,0.14274597,0.08828735,0.032470703,9.7836,0.0098724365,0.67141724,-0.0010681152,-0.025558472,0.0095825195,-27.28424,21.131897,2.7954102,0,0.0,0.0,0.0,0.0
1.128295899,0.066917084,0.18580696,-0.980305,-0.013706209,0.9825857,0.18530364,0.9976644,0.001036287,0.068298474,0.07420856,0.21363463,-0.97409105,-0.01794109,0.9769122,0.21288657,0.99708134,0.0016782488,0.07632808,0.05177307,0.07362366,-0.028137207,9.7836,0.0101623535,0.6697693,0.018112183,-0.047927856,-0.009597778,-26.747131,23.46344,2.62146,0,0.0,0.0,0.0,0.0
1.13269043,0.066766344,0.1856398,-0.9803469,-0.013681714,0.98261744,0.18513794,0.99767494,0.0010518417,0.06814565,0.07406456,0.21307969,-0.9742235,-0.01785223,0.97703344,0.21233706,0.9970937,0.0016654095,0.0761675,0.08035278,0.09741211,-0.012268066,9.783752,0.010314941,0.6682739,-0.0021362305,-0.03514099,-0.0010681152,-26.747131,23.46344,2.62146,0,0.0,0.0,0.0,0.0
1.137084961,0.06668513,0.18554974,-0.9803695,-0.013614202,0.9826343,0.18505234,0.99768114,0.0010067088,0.06805321,0.073920354,0.21253245,-0.974354,-0.017764704,0.97715265,0.21179515,0.9971059,0.0016531383,0.07600704,0.0035858154,0.002090454,0.09397888,9.783905,0.0098724365,0.66737366,0.010650635,-0.030883789,0.0053253174,-26.747131,23.46344,2.62146,0,0.0,0.0,0.0,0.0
1.141815186,0.066728495,0.18260135,-0.98091996,-0.013398846,0.9831865,0.1821118,0.9976812,9.911492E-4,0.06805321,0.07377743,0.21199428,-0.974482,-0.017677698,0.97726953,0.21126232,0.997118,0.0016402097,0.075848,0.027526855,-0.04083252,-0.006576538,9.783905,0.009719849,0.66737366,-0.0021362305,-0.030883789,0.008514404,-25.671387,23.46344,2.62146,0,0.0,0.0,0.0,0.0
1.14654541,0.066690564,0.18256098,-0.98093015,-0.013357388,0.9831942,0.1820742,0.99768436,9.6003304E-4,0.0680083,0.07363843,0.21140818,-0.9746199,-0.017587874,0.9773965,0.2106816,0.9971299,0.0016272285,0.07569217,0.070617676,-0.06925964,-0.10191345,9.783905,0.009414673,0.66693115,0.0021362305,-0.020233154,-0.004272461,-25.671387,23.46344,2.62146,0,0.0,0.0,0.0,0.0
1.151275635,0.06666304,0.18253167,-0.98093736,-0.013336012,0.9831995,0.18204631,0.99768645,9.460313E-4,0.067977324,0.07350132,0.21083295,-0.97475475,-0.017499141,0.9775207,0.21011169,0.99714154,0.0016138845,0.07553847,0.070617676,-0.064331055,-0.07766724,9.783905,0.009277344,0.666626,0.003189087,-0.020233154,0.0010681152,-25.671387,23.46344,2.62146,0,0.0,0.0,0.0,0.0
1.156005859,0.066684894,0.17493665,-0.98231876,-0.012743913,0.98457915,0.17447408,0.99769264,8.837979E-4,0.06788595,0.073366396,0.21026859,-0.9748869,-0.017411908,0.97764236,0.20955254,0.99715304,0.0016005274,0.07538727,0.070617676,-0.044570923,-0.04324341,9.783905,0.008666992,0.6657257,0.018112183,-0.012771606,0.004257202,-27.28424,22.207642,2.1026611,0,0.0,0.0,0.0,0.0
1.160766602,0.06673504,0.17499691,-0.98230475,-0.01272708,0.9845687,0.17453559,0.9976896,8.542316E-4,0.06793242,0.07323534,0.20956446,-0.97504836,-0.017313696,0.9777935,0.20885405,0.99716437,0.0015861929,0.07523738,0.046676636,-0.053863525,0.11911011,9.783905,0.008377075,0.6661835,-0.026611328,-0.014907837,0.008514404,-27.28424,22.207642,2.1026611,0,0.0,0.0,0.0,0.0
1.165496826,0.066677645,0.17492794,-0.98232085,-0.012696288,0.9845808,0.17446859,0.9976938,8.386753E-4,0.06787046,0.07310769,0.2088755,-0.9752058,-0.01721732,0.9779409,0.20817064,0.9971754,0.0015715536,0.07509128,0.16160583,-0.058502197,-0.13885498,9.783905,0.008224487,0.6655731,0.007461548,-0.0021209717,0.0010681152,-27.28424,22.207642,2.1026611,0,0.0,0.0,0.0,0.0
1.170257568,0.06645366,0.1926114,-0.9790224,-0.013896689,0.9812747,0.19211124,0.99769264,8.386744E-4,0.06788595,0.07377146,0.20779908,-0.9753857,-0.017433994,0.97817004,0.20707366,0.99712276,0.001728741,0.075783804,0.027526855,0.0037384033,0.052520752,9.783905,0.008224487,0.6657257,0.0063934326,0.012771606,-0.0021362305,-26.208496,21.490479,2.4490356,0,0.0,0.0,0.0,0.0
1.175018311,0.06648061,0.19264334,-0.9790142,-0.01392005,0.98126847,0.19214167,0.9976906,8.5423246E-4,0.06791693,0.073626004,0.20749578,-0.97546124,-0.017360996,0.9782344,0.20677531,0.99713475,0.0017109397,0.07562583,0.008377075,0.051467896,0.052215576,9.783905,0.008377075,0.6660309,0.019180298,0.0063934326,-0.0010681152,-26.208496,21.490479,2.4490356,0,0.0,0.0,0.0,0.0
1.179748535,0.06637656,0.19252002,-0.97904557,-0.013890939,0.9812926,0.19202012,0.9976979,8.542267E-4,0.06780911,0.07348409,0.2071992,-0.975535,-0.01729006,0.97829735,0.20648348,0.9971465,0.0016938056,0.07547178,0.0034484863,0.008377075,-0.26275635,9.784042,0.008377075,0.664978,0.0063934326,-0.008514404,-0.015975952,-26.208496,21.490479,2.4490356,0,0.0,0.0,0.0,0.0
1.184509277,0.06638249,0.19004416,-0.9795288,-0.013717874,0.9817752,0.18955036,0.9977,8.5422845E-4,0.06777968,0.07334295,0.20690605,-0.9756078,-0.017219998,0.9783594,0.20619506,0.99715805,0.001677014,0.07531868,0.041748047,-0.015548706,-0.07572937,9.784042,0.008377075,0.6646881,0.0053253174,0.008529663,-0.007461548,-27.464294,23.104858,2.62146,0,0.0,0.0,0.0,0.0
1.18927002,0.06648255,0.19015978,-0.9794995,-0.013759617,0.9817527,0.18966329,0.99769264,8.6823804E-4,0.06788595,0.07320477,0.2065694,-0.9756896,-0.017147588,0.9784305,0.20586315,0.9971695,0.0016605583,0.07516795,0.15681458,0.017807007,-0.048034668,9.783905,0.008514404,0.6657257,-0.0053253174,0.015975952,0.014892578,-27.464294,23.104858,2.62146,0,0.0,0.0,0.0,0.0
1.194000244,0.06648255,0.19015978,-0.9794995,-0.013759617,0.9817527,0.18966329,0.99769264,8.6823804E-4,0.06788595,0.07307138,0.20624176,-0.97576886,-0.017077621,0.97849965,0.20554008,0.99718046,0.0016447119,0.075022444,0.022735596,0.008239746,0.03337097,9.783905,0.008514404,0.6657257,-0.007461548,0.028747559,-0.0032043457,-27.464294,23.104858,2.62146,0,0.0,0.0,0.0,0.0
1.198760986,0.06641525,0.1934218,-0.9788652,-0.014007977,0.9811154,0.19291599,0.9976938,8.993587E-4,0.06787046,0.07294058,0.20592067,-0.9758464,-0.01700913,0.9785673,0.20522346,0.99719125,0.0016291825,0.0748798,0.056259155,0.04623413,-0.0622406,9.783905,0.00881958,0.6655731,-0.007461548,0.020233154,0.003189087,-27.464294,20.951843,2.2766113,0,0.0,0.0,0.0,0.0
1.203521729,0.06643312,0.19344461,-0.97885936,-0.013997285,0.98111063,0.19293955,0.99769264,8.837979E-4,0.06788595,0.07281075,0.20567101,-0.97590876,-0.016947467,0.9786198,0.20497794,0.99720174,0.0016145861,0.07473965,0.16160583,-0.006286621,0.052520752,9.783905,0.008666992,0.6657257,0.008529663,0.011703491,-0.008529663,-27.464294,20.951843,2.2766113,0,0.0,0.0,0.0,0.0
1.208251953,0.06652428,0.19356096,-0.9788302,-0.014086757,0.98108774,0.19305001,0.9976854,9.4603025E-4,0.067992814,0.07268383,0.20542681,-0.97596973,-0.016886894,0.9786712,0.2047378,0.9972121,0.0015999703,0.07460259,0.1424408,0.017044067,0.022750854,9.783905,0.009277344,0.66677856,0.0063934326,0.018096924,-0.010650635,-27.464294,20.951843,2.2766113,0,0.0,0.0,0.0,0.0
1.213012695,0.06615079,0.21598989,-0.9741522,-0.01561429,0.97639513,0.21542688,0.9976874,9.6003595E-4,0.067961834,0.072561204,0.20518978,-0.9760287,-0.016829416,0.9787209,0.2045046,0.99722195,0.0015868915,0.07447039,0.017944336,0.045639038,-0.10623169,9.783905,0.009414673,0.6664734,0.0053253174,0.026626587,-0.01171875,-27.464294,20.23468,2.62146,0,0.0,0.0,0.0,0.0
1.217773438,0.066196896,0.21605031,-0.97413564,-0.01569239,0.97638166,0.21548209,0.99768317,0.0010222705,0.068023786,0.07243266,0.20540603,-0.97599274,-0.016806489,0.97867554,0.20472336,0.99723166,0.0015743544,0.07434023,0.037109375,-0.0124053955,-0.07333374,9.783905,0.010025024,0.66708374,0.014907837,0.007461548,-0.0032043457,-27.464294,20.23468,2.62146,0,0.0,0.0,0.0,0.0
1.222503662,0.06632822,0.21622244,-0.97408843,-0.015733754,0.9763435,0.21565166,0.9976738,0.0010222769,0.06816113,0.072307706,0.20561914,-0.97595716,-0.016785542,0.9786308,0.20493881,0.9972411,0.0015633128,0.07421398,0.14259338,0.025878906,0.054611206,9.783752,0.010025024,0.6684265,0.012786865,0.023422241,-0.0138549805,-27.464294,20.23468,2.62146,0,0.0,0.0,0.0,0.0
1.227264404,0.0663417,0.21782237,-0.97373116,-0.015943468,0.97598785,0.21724093,0.9976695,0.0011125188,0.06822152,0.07218785,0.20583147,-0.9759212,-0.016765773,0.9785862,0.20515338,0.99725014,0.0015524921,0.07409296,-0.020202637,0.09202576,0.010925293,9.783752,0.010910034,0.6690216,0.003189087,0.024490356,0.003189087,-28.001404,22.566223,3.1402588,0,0.0,0.0,0.0,0.0
1.231811524,0.06643505,0.21793385,-0.97369975,-0.016020017,0.9759629,0.21734734,0.9976621,0.0011592074,0.06832944,0.072070725,0.20607162,-0.97587925,-0.016750732,0.97853565,0.20539548,0.99725884,0.0015436927,0.07397562,0.09965515,0.029327393,-0.047592163,9.7836,0.011367798,0.67007446,0.0138549805,0.014907837,-0.014923096,-28.001404,22.566223,3.1402588,0,0.0,0.0,0.0,0.0
1.235961914,0.066456914,0.21795997,-0.9736925,-0.016056992,0.9759571,0.21737096,0.9976601,0.0011887687,0.06835887,0.07382396,0.20621304,-0.9757183,-0.017703861,0.9785049,0.20546249,0.9971141,0.0021059276,0.075887874,0.07571411,0.062561035,0.0574646,9.7836,0.011657715,0.6703644,0.0021362305,0.030883789,-0.008529663,-28.001404,22.566223,3.1402588,0,0.0,0.0,0.0,0.0
1.240112305,0.06565505,0.26226324,-0.96276027,-0.019072516,0.9649956,0.26157153,0.9976601,0.0011887687,0.06835887,0.073676236,0.20644826,-0.97567976,-0.017672667,0.9784553,0.20570105,0.99712557,0.0020875842,0.075737394,-0.10624695,3.0517578E-4,-0.009567261,9.7836,0.011657715,0.6703644,0.0063934326,0.013839722,0.0063934326,-27.822876,21.669006,4.005432,0,0.0,0.0,0.0,0.0
1.244262695,0.06571464,0.26233536,-0.9627365,-0.019142259,0.9649759,0.26163897,0.99765486,0.0012354415,0.068434745,0.0735153,0.20757183,-0.97545344,-0.017709136,0.9782176,0.20682538,0.99713683,0.002069608,0.07558988,-0.020050049,0.047729492,0.05192566,9.7836,0.0121154785,0.67111206,-0.0063934326,0.0032043457,0.0021209717,-27.822876,21.669006,4.005432,0,0.0,0.0,0.0,0.0
1.248413086,0.06571771,0.2623391,-0.96273535,-0.019190013,0.9649749,0.2616394,0.99765366,0.0012805632,0.06845023,0.07335891,0.20867416,-0.97523004,-0.017745888,0.9779831,0.20792836,0.99714774,0.0020529248,0.07544688,0.11402893,0.12869263,0.05656433,9.7836,0.012557983,0.67126465,0.026626587,0.013839722,-0.004272461,-27.822876,21.669006,4.005432,0,0.0,0.0,0.0,0.0
1.252563477,0.066713065,0.20754248,-0.97594845,-0.015444123,0.9782252,0.20697093,0.9976527,0.0012650023,0.068465725,0.073205695,0.20975423,-0.9750098,-0.017782517,0.97775203,0.209009,0.9971583,0.0020374774,0.075306974,0.08050537,-0.077041626,0.037261963,9.7836,0.0124053955,0.67141724,-0.003189087,0.0010681152,-0.0021362305,-26.567078,20.056152,2.4490356,0,0.0,0.0,0.0,0.0
1.256713867,0.06673392,0.20756926,-0.9759414,-0.015420307,0.97821957,0.20699936,0.99765164,0.0012354376,0.06848121,0.073205695,0.20975423,-0.9750098,-0.017782517,0.97775203,0.209009,0.9971583,0.0020374774,0.075306974,0.08050537,-0.07675171,0.037109375,9.7836,0.0121154785,0.6715698,-0.003189087,0.0010681152,-0.0021362305,-26.567078,20.056152,2.4490356,0,0.0,0.0,0.0,0.0
1.260864258,0.066689365,0.20751208,-0.9759565,-0.015406774,0.9782316,0.20694305,0.99765486,0.0012354415,0.068434745,0.07294971,0.2096677,-0.9750475,-0.01768846,0.9777706,0.20892987,0.99717873,0.0020057166,0.07503679,0.10444641,-0.01449585,-0.09172058,9.7836,0.0121154785,0.67111206,0.0010681152,0.004272461,0.012771606,-26.567078,20.056152,2.4490356,0,0.0,0.0,0.0,0.0
1.265014649,0.06643134,0.22111891,-0.9729816,-0.016294073,0.9752461,0.22052103,0.99765795,0.0012043259,0.06838984,0.07282469,0.2096246,-0.9750661,-0.017642582,0.9777799,0.20889033,0.9971887,0.001990311,0.07490484,-0.08230591,-0.057296753,-0.100860596,9.7836,0.011810303,0.67066956,0.012786865,0.0010681152,-0.0021362305,-27.464294,21.310425,2.9678345,0,0.0,0.0,0.0,0.0
1.269165039,0.0664643,0.22115979,-0.97297007,-0.016288564,0.97523683,0.22056235,0.99765587,0.0011887637,0.06842081,0.07269643,0.20985478,-0.97502625,-0.017617077,0.9777306,0.20912333,0.99719846,0.0019745913,0.07477455,0.16191101,-0.061935425,0.07121277,9.7836,0.011657715,0.67097473,0.0053253174,0.009597778,-0.008529663,-27.464294,21.310425,2.9678345,0,0.0,0.0,0.0,0.0
1.27331543,0.066544205,0.22125888,-0.97294205,-0.016283585,0.97521436,0.22066191,0.99765056,0.0011592121,0.06849776,0.0725714,0.21008116,-0.9749868,-0.017591905,0.977682,0.20935246,0.99720806,0.001958875,0.07464748,0.0758667,-0.061645508,0.21891785,9.783447,0.011367798,0.6717224,0.0,0.0021362305,-0.0010681152,-27.464294,21.310425,2.9678345,0,0.0,0.0,0.0,0.0
1.27746582,0.06695532,0.19320595,-0.97887105,-0.014347458,0.98115754,0.19267587,0.99765277,0.0011436369,0.068465725,0.07245043,0.21030499,-0.9749476,-0.01756707,0.9776339,0.20957902,0.9972173,0.0019428817,0.07452444,-0.08230591,-0.06149292,-0.11117554,9.7836,0.01121521,0.67141724,-0.013839722,-0.0021209717,-0.0010681152,-26.208496,21.490479,2.4490356,0,0.0,0.0,0.0,0.0
1.281616211,0.066912,0.19315463,-0.9788842,-0.01433529,0.9811678,0.19262534,0.9976559,0.0011436405,0.06842082,0.072341464,0.20996363,-0.97502923,-0.01750077,0.9777073,0.20924187,0.99722636,0.0019268969,0.07440331,0.10923767,7.4768066E-4,-0.10116577,9.7836,0.01121521,0.67097473,-0.003189087,0.0010681152,0.0010681152,-26.208496,21.490479,2.4490356,0,0.0,0.0,0.0,0.0
1.285766602,0.066867195,0.19310153,-0.97889775,-0.014322703,0.9811783,0.19257303,0.99765915,0.0011436441,0.06837436,0.072233684,0.20962803,-0.9751094,-0.017435584,0.9777793,0.20891042,0.9972353,0.0019112318,0.0742836,0.06613159,0.0103302,-0.09591675,9.7836,0.01121521,0.67051697,0.010650635,-0.0095825195,0.0010681152,-26.208496,21.490479,2.4490356,0,0.0,0.0,0.0,0.0
1.289916992,0.06681347,0.19776747,-0.97796935,-0.014643734,0.98024833,0.19722788,0.997658,0.0011436429,0.06838985,0.07212722,0.20929807,-0.9751882,-0.017371522,0.9778501,0.20858453,0.9972442,0.00189588,0.07416543,0.027832031,-0.013595581,0.038009644,9.7836,0.01121521,0.67066956,-0.015960693,0.0063934326,0.0,-28.001404,23.283386,2.7954102,0,0.0,0.0,0.0,0.0
1.294067383,0.06676402,0.19770978,-0.9779843,-0.014583739,0.9802599,0.19717424,0.9976622,0.0010985242,0.068329446,0.07202145,0.20906773,-0.9752455,-0.017315717,0.9778994,0.20835792,0.99725276,0.0018808352,0.07404988,0.06613159,-0.104141235,-0.1337738,9.7836,0.010772705,0.67007446,0.0010681152,0.0021362305,-0.009597778,-28.001404,23.283386,2.7954102,0,0.0,0.0,0.0,0.0
1.298217774,0.066692896,0.19762686,-0.97800595,-0.014547661,0.9802767,0.19709367,0.9976675,0.0010829532,0.0682525,0.07191687,0.20884085,-0.97530174,-0.017259879,0.9779479,0.20813474,0.9972613,0.001865189,0.07393552,-0.005844116,-0.03694153,-0.22401428,9.783752,0.010620117,0.6693268,0.003189087,0.010650635,0.0021209717,-28.001404,23.283386,2.7954102,0,0.0,0.0,0.0,0.0
1.302368164,0.06710001,0.17458722,-0.9823527,-0.013024775,0.984641,0.17410424,0.99766123,0.001112527,0.068343386,0.072744586,0.208194,-0.9753787,-0.018190848,0.97808397,0.20741475,0.9971847,0.002654665,0.07493754,0.04219055,0.082458496,-0.023788452,9.7836,0.010910034,0.6702118,0.007461548,0.017028809,-0.01171875,-25.132751,21.490479,2.1026611,0,0.0,0.0,0.0,0.0
1.306518555,0.067280695,0.17479372,-0.9823037,-0.013057209,0.9846044,0.1743088,0.9976486,0.0010985263,0.06852719,0.07263432,0.20752414,-0.97552955,-0.01808358,0.97822636,0.20675139,0.99719465,0.002623822,0.07480558,0.09501648,-0.051467896,0.08454895,9.783447,0.010772705,0.6720123,0.019180298,0.024490356,0.0021209717,-25.132751,21.490479,2.1026611,0,0.0,0.0,0.0,0.0
1.310668945,0.067452855,0.17499046,-0.9822568,-0.013131643,0.9845695,0.1745007,0.997636,0.0011280758,0.06870993,0.07252984,0.20687169,-0.9756759,-0.017979426,0.97836465,0.2061052,0.9972042,0.0025933164,0.07468007,0.03277588,0.06315613,0.015716553,9.783447,0.011062622,0.67381287,0.012786865,0.03514099,0.0,-25.132751,21.490479,2.1026611,0,0.0,0.0,0.0,0.0
1.314819336,0.06757371,0.1751286,-0.9822239,-0.013147163,0.98454505,0.17463796,0.9976277,0.0011125242,0.068831794,0.07243073,0.20623611,-0.9758178,-0.01787912,0.9784989,0.20547564,0.9972132,0.0025640116,0.07456071,0.023345947,-0.118637085,0.014526367,9.783295,0.010910034,0.67500305,0.007461548,0.04046631,-0.0010681152,-25.132751,21.490479,2.1026611,0,0.0,0.0,0.0,0.0
1.318969727,0.06775007,0.17533015,-0.9821758,-0.013115616,0.9845092,0.17484197,0.9976161,0.0010362854,0.06900012,0.07233596,0.20561591,-0.9759557,-0.01778136,0.97862947,0.20486128,0.99722177,0.0025349818,0.07444624,0.018707275,-0.055648804,0.10864258,9.783142,0.0101623535,0.676651,0.0053253174,0.027694702,-0.008529663,-25.132751,21.490479,2.1026611,0,0.0,0.0,0.0,0.0
1.323120117,0.06776508,0.17534728,-0.9821716,-0.0131195085,0.984506,0.17485887,0.9976151,0.0010362844,0.06901561,0.07224646,0.20501204,-0.97608936,-0.017685164,0.9787562,0.20426318,0.99723,0.0025050081,0.07433735,-0.033966064,0.006591797,0.05102539,9.783142,0.0101623535,0.6768036,-0.024490356,0.028747559,0.008514404,-25.132751,21.490479,2.1026611,0,0.0,0.0,0.0,0.0
1.327270508,0.06696758,0.22961766,-0.97097427,-0.01684692,0.9732804,0.22900109,0.99761295,0.0010222783,0.06904658,0.07215886,0.2044205,-0.9762199,-0.017591069,0.97888005,0.20367727,0.99723804,0.0024756335,0.07423084,-0.0052337646,-0.055511475,0.074661255,9.783142,0.010025024,0.67710876,0.0053253174,0.013839722,0.004257202,-26.92566,21.131897,3.1402588,0,0.0,0.0,0.0,0.0
1.331420899,0.06698086,0.22963388,-0.97096956,-0.016851233,0.97327656,0.22901703,0.99761194,0.0010222773,0.06906051,0.07205424,0.20492584,-0.9761217,-0.017578721,0.9787744,0.20418514,0.9972458,0.0024465667,0.07412718,0.028289795,-0.0028533936,0.045791626,9.783142,0.010025024,0.6772461,0.020233154,0.004272461,-0.012786865,-26.92566,21.131897,3.1402588,0,0.0,0.0,0.0,0.0
1.335601807,0.06700375,0.22966182,-0.9709614,-0.016888969,0.97326994,0.22904238,0.99760973,0.0010518386,0.06909148,0.07195203,0.20542134,-0.9760251,-0.017566606,0.97867066,0.20468314,0.99725336,0.002418081,0.0740259,0.018707275,0.06867981,0.07421875,9.783142,0.010314941,0.67755127,-0.0053253174,0.015975952,0.004257202,-26.92566,21.131897,3.1402588,0,0.0,0.0,0.0,0.0
1.340087891,0.06681618,0.24187924,-0.9680031,-0.017737467,0.97030574,0.2412303,0.9976076,0.0010518363,0.06912245,0.071852356,0.20590745,-0.97593004,-0.01755538,0.97856855,0.20517164,0.99726075,0.002390756,0.07392724,0.147995,0.02079773,0.083496094,9.783142,0.010314941,0.67785645,0.01171875,0.009597778,0.008514404,-27.28424,21.490479,3.4866333,0,0.0,0.0,0.0,0.0
1.344543457,0.06688546,0.24196301,-0.9679774,-0.017776893,0.97028494,0.24131148,0.99760234,0.0010674053,0.069199294,0.07175078,0.2066298,-0.9757848,-0.01756243,0.9784163,0.20589566,0.99726796,0.002363978,0.07383106,-0.019454956,-0.04637146,-0.080062866,9.783005,0.010467529,0.6786041,0.007461548,0.013839722,-0.012786865,-27.28424,21.490479,3.4866333,0,0.0,0.0,0.0,0.0
1.349029541,0.06697107,0.24206656,-0.96794564,-0.017868243,0.970259,0.24140881,0.9975949,0.0011280803,0.069304585,0.071652785,0.20733927,-0.97564155,-0.017569972,0.9782663,0.20660673,0.9972749,0.0023380464,0.073738456,0.018844604,-0.0038909912,0.16311646,9.783005,0.011062622,0.6796417,0.0138549805,0.025558472,-0.0063934326,-27.28424,21.490479,3.4866333,0,0.0,0.0,0.0,0.0
1.353485108,0.06699612,0.24090724,-0.9682331,-0.017773155,0.97054756,0.2402533,0.9975949,0.0011125206,0.069304585,0.07155852,0.20803656,-0.9755,-0.017579002,0.9781183,0.20730543,0.9972815,0.002313847,0.07364977,0.033218384,-0.032455444,-0.009277344,9.783005,0.010910034,0.6796417,0.017044067,0.011703491,-0.0138549805,-27.464294,20.951843,3.312683,0,0.0,0.0,0.0,0.0
1.358673096,0.06700715,0.24092099,-0.9682288,-0.017792897,0.970544,0.24026568,0.99759376,0.0011280791,0.06932007,0.07146665,0.20869641,-0.97536576,-0.017585719,0.9779778,0.20796677,0.9972879,0.0022898205,0.07356287,-0.096069336,0.039215088,0.033676147,9.783005,0.011062622,0.6797943,-0.009567261,0.0010681152,-0.009597778,-27.464294,20.951843,3.312683,0,0.0,0.0,0.0,0.0
1.363891602,0.06702878,0.24094805,-0.9682206,-0.017769873,0.9705374,0.24029443,0.99759287,0.0010985145,0.069335565,0.07137696,0.20934325,-0.9752337,-0.017592596,0.9778396,0.20861503,0.99729425,0.0022665858,0.07347811,-0.014663696,-0.099349976,0.0574646,9.783005,0.010772705,0.6799469,0.0053253174,-0.0010528564,-0.0063934326,-27.464294,20.951843,3.312683,0,0.0,0.0,0.0,0.0
1.36907959,0.06666446,0.26450077,-0.96207863,-0.0194831,0.96438485,0.2637848,0.99758524,0.0011592066,0.06944348,0.0712894,0.20997764,-0.9751037,-0.017598737,0.97770363,0.20925085,0.9973004,0.0022432245,0.073395245,0.05731201,0.08200073,0.061187744,9.782852,0.011367798,0.68099976,0.0021362305,0.009597778,0.0010681152,-26.747131,21.310425,4.005432,0,0.0,0.0,0.0,0.0
1.374267578,0.06666446,0.26450077,-0.96207863,-0.0194831,0.96438485,0.2637848,0.99758524,0.0011592066,0.06944348,0.07223832,0.2122755,-0.9745362,-0.01844015,0.9772061,0.2114902,0.9972169,0.0026928962,0.07450613,0.023788452,0.019744873,0.008529663,9.782852,0.011367798,0.68099976,-0.018096924,0.018096924,-0.008529663,-26.747131,21.310425,4.005432,0,0.0,0.0,0.0,0.0
1.379486084,0.06667758,0.26451626,-0.9620734,-0.019487858,0.96438056,0.26379997,0.9975843,0.0011592056,0.06945742,0.072126016,0.21332656,-0.974315,-0.018466372,0.97697735,0.21254246,0.99722457,0.0026622224,0.07440485,0.09082031,5.950928E-4,0.041900635,9.782852,0.011367798,0.6811371,0.01171875,0.0032043457,0.004257202,-26.747131,21.310425,4.005432,0,0.0,0.0,0.0,0.0
1.384674072,0.0688219,0.118900314,-0.9905182,-0.009451418,0.99290556,0.1185302,0.9975843,0.001204329,0.06945742,0.07201632,0.21435665,-0.97409695,-0.018491955,0.9767519,0.21357377,0.997232,0.0026321623,0.07430595,0.018997192,0.08634949,-0.010772705,9.782852,0.011810303,0.6811371,0.008529663,-0.0063934326,-0.007461548,-28.001404,22.207642,0.72021484,0,0.0,0.0,0.0,0.0
1.389862061,0.0688219,0.118900314,-0.9905182,-0.009451418,0.99290556,0.1185302,0.9975843,0.001204329,0.06945742,0.07196337,0.21246427,-0.9745154,-0.018304028,0.97716534,0.21169035,0.9972393,0.0026036056,0.074209064,0.018997192,0.024093628,0.0036010742,9.782852,0.011810303,0.6811371,0.0,0.0032043457,-0.007461548,-28.001404,22.207642,0.72021484,0,0.0,0.0,0.0,0.0
1.394775391,0.06883344,0.11891479,-0.99051565,-0.009485085,0.99290377,0.11854234,0.9975831,0.0012354471,0.069472894,0.07191101,0.21060896,-0.9749219,-0.01812012,0.97756696,0.20984381,0.9972464,0.0025756203,0.074114084,0.009429932,0.052520752,0.051330566,9.782852,0.0121154785,0.6812897,0.010650635,0.0010681152,0.004257202,-28.001404,22.207642,0.72021484,0,0.0,0.0,0.0,0.0
1.399108887,0.067865804,0.19640926,-0.97817063,-0.0149129545,0.9805212,0.19584657,0.997583,0.0012961301,0.06947289,0.07185936,0.20879032,-0.97531676,-0.017940821,0.9779571,0.2080337,0.9972534,0.0025488168,0.07402124,0.10040283,0.15727234,0.032180786,9.782852,0.012710571,0.6812897,0.015975952,-0.004257202,-0.0021362305,-27.822876,20.951843,2.2766113,0,0.0,0.0,0.0,0.0
1.403442383,0.0678256,0.19635731,-0.9781838,-0.014885331,0.98053163,0.19579647,0.9975862,0.0012805745,0.06942799,0.07178016,0.20854303,-0.9753755,-0.017879266,0.97800994,0.20779051,0.9972602,0.002523763,0.07393031,0.09561157,-0.043670654,-0.12060547,9.782852,0.012557983,0.68084717,-0.008514404,-0.0010528564,-0.0032043457,-27.822876,20.951843,2.2766113,0,0.0,0.0,0.0,0.0
1.407775879,0.067840494,0.19637656,-0.9781789,-0.0148897,0.98052776,0.19581544,0.99758506,0.0012805731,0.06944347,0.07170175,0.20829964,-0.9754333,-0.01781842,0.97806185,0.20755117,0.99726695,0.0024988994,0.07384031,0.004638672,0.018554688,0.018096924,9.782852,0.012557983,0.68099976,0.015975952,0.0,-0.0021362305,-27.822876,20.951843,2.2766113,0,0.0,0.0,0.0,0.0
1.412109375,0.06750444,0.21862058,-0.97347224,-0.01640264,0.9758091,0.21800797,0.9975841,0.0012510082,0.069457404,0.07162508,0.20806149,-0.97548974,-0.017758902,0.97811264,0.20731695,0.9972735,0.0024745327,0.07375234,0.12434387,-0.08648682,0.065841675,9.782852,0.012268066,0.6811371,0.0010681152,-0.010650635,0.0,-28.54004,22.027588,2.9678345,0,0.0,0.0,0.0,0.0
1.416442871,0.06749112,0.21860394,-0.9734768,-0.016398445,0.9758128,0.21799159,0.99758506,0.0012510094,0.06944347,0.07154237,0.2082729,-0.97545075,-0.017732652,0.9780677,0.2075311,0.99727994,0.0024500622,0.07366651,0.18180847,-0.0146484375,-0.039367676,9.782852,0.012268066,0.68099976,0.0095825195,-0.004257202,-0.010650635,-28.54004,22.027588,2.9678345,0,0.0,0.0,0.0,0.0
1.420776367,0.06746152,0.218567,-0.9734872,-0.016389126,0.9758211,0.21795526,0.99758726,0.0012510121,0.0694125,0.07146093,0.20847976,-0.9754125,-0.017706785,0.9780237,0.20774062,0.99728626,0.0024260813,0.073581986,0.10519409,-3.0517578E-4,-0.06300354,9.782852,0.012268066,0.6806946,-0.0053253174,-0.012771606,-0.0032043457,-28.54004,22.027588,2.9678345,0,0.0,0.0,0.0,0.0
1.425109863,0.067303814,0.22968796,-0.97093433,-0.01714987,0.97326344,0.22905013,0.99758506,0.0012354496,0.06944347,0.07138054,0.20868173,-0.9753752,-0.017681219,0.9779807,0.2079452,0.99729246,0.0024025799,0.07349854,0.06687927,-0.03366089,0.09950256,9.782852,0.0121154785,0.68099976,0.015975952,0.0063934326,-0.0032043457,-27.464294,20.593262,2.9678345,0,0.0,0.0,0.0,0.0
1.429443359,0.067346565,0.22974266,-0.9709185,-0.017163962,0.9732506,0.22910394,0.997582,0.0012354458,0.06948838,0.071298376,0.20910284,-0.975291,-0.017672222,0.9778908,0.2083683,0.9972985,0.0023792372,0.073417336,-0.0049438477,0.023788452,0.12779236,9.782852,0.0121154785,0.68144226,0.01171875,-0.007446289,0.012771606,-27.464294,20.593262,2.9678345,0,0.0,0.0,0.0,0.0
1.433776856,0.06740405,0.22981626,-0.97089714,-0.017182924,0.97323334,0.22917634,0.99757785,0.0012354406,0.06954877,0.07121883,0.20951658,-0.975208,-0.01766363,0.9778022,0.20878397,0.99730426,0.0023563616,0.073338754,0.15307617,-0.02407837,0.1798706,9.782852,0.0121154785,0.68203735,0.004257202,0.0021362305,-0.0010681152,-27.464294,20.593262,2.9678345,0,0.0,0.0,0.0,0.0
1.438110352,0.067858025,0.20195065,-0.9770421,-0.015218966,0.9793949,0.20137998,0.99757886,0.0012043224,0.06953328,0.071337804,0.21010806,-0.975072,-0.017411146,0.97767603,0.20939532,0.9973002,0.0020393203,0.07340348,0.023788452,-0.08602905,-0.06896973,9.782852,0.011810303,0.68188477,-0.003189087,0.0021362305,0.004257202,-26.029968,23.104858,2.9678345,0,0.0,0.0,0.0,0.0
1.442443848,0.067851864,0.20194395,-0.9770439,-0.015248906,0.9793963,0.20137118,0.99757886,0.0012354419,0.06953328,0.07126853,0.20994505,-0.97511226,-0.017366732,0.97771114,0.20923531,0.997306,0.0020226203,0.07332609,-0.052825928,0.09082031,-0.0019378662,9.782852,0.0121154785,0.68188477,0.017044067,0.008529663,0.0,-26.029968,23.104858,2.9678345,0,0.0,0.0,0.0,0.0
