Time,Rot1,Rot2,Rot3,Rot4,Rot5,Rot6,Rot7,Rot8,Rot9,FRot1,FRot2,FRot3,FRot4,FRot5,FRot6,FRot7,FRot8,FRot9,AccX,AccY,AccZ,GravX,GravY,GravZ,GyroX,GyroY,GyroZ,MagX,MagY,MagZ,Imid
0.0,0.0,0.0,0.0,0.0,0.0,0.0,0.0,0.0,0.0,0.0,0.0,0.0,0.0,0.0,0.0,0.0,0.0,0.0,0.18180847,0.035736084,0.08470154,9.648773,-0.033355713,1.751648,0.0,0.0,0.0,0.0,0.0,0.0,0,0.0,0.0,0.0,0.0
0.004394532,0.17592596,0.19254714,-0.96538883,-0.031111965,0.98128176,0.19004735,0.9839116,-0.0033991192,0.17862347,1.0,0.0,0.0,0.0,1.0,0.0,0.0,0.0,1.0,0.17559052,0.039066315,0.088263035,9.648766,-0.03333359,1.7516776,0.0,0.0,0.0,-27.28424,14.677429,-2.0446777,0,0.0,0.0,0.0,0.0
0.00881958,0.1759305,0.19255595,-0.96538633,-0.03111586,0.9812801,0.19005562,0.9839106,-0.003397753,0.17862862,0.9996054,0.0038751536,-0.027820073,-0.0038717624,0.9999925,1.7576451E-4,0.027820544,-6.798245E-5,0.9996129,0.17136002,0.035294916,0.090666056,9.648759,-0.0333202,1.7517288,0.007461548,0.0010528564,-0.0032043457,-27.28424,14.677429,-2.0446777,0,0.0,0.0,0.0,0.0
0.013214112,0.1759348,0.19256431,-0.9653838,-0.031119565,0.9812785,0.19006346,0.9839098,-0.0033964554,0.17863356,0.9984535,0.0076729273,-0.05506116,-0.007653876,0.99997056,5.568704E-4,0.055063814,-1.3457792E-4,0.9984828,0.17069244,0.033148702,0.08792102,9.648752,-0.03330748,1.7517774,0.003189087,-0.0021362305,-0.008529663,-27.28424,14.677429,-2.0446777,0,0.0,0.0,0.0,0.0
0.017639161,0.17616397,0.18534401,-0.96675426,-0.029828096,0.98266774,0.18295959,0.9839088,-0.0033944468,0.17863913,0.9965906,0.011394809,-0.08171496,-0.011340367,0.9999351,0.0011303469,0.081722535,-1.9981555E-4,0.9966551,0.16671467,0.034452997,0.08722067,9.648738,-0.033287767,1.7518312,-0.010635376,-0.01171875,-0.0053253174,-27.36496,14.6684265,-2.1743011,0,0.0,0.0,0.0,0.0
0.022033692,0.17616828,0.18535241,-0.9667519,-0.029833158,0.98266613,0.18296722,0.9839078,-0.0033917578,0.17864427,0.9940637,0.01489506,-0.10777561,-0.014779854,0.999889,0.0018677034,0.10779147,-2.6370824E-4,0.99417347,0.15981483,0.03353067,0.08176708,9.648732,-0.03326141,1.7518823,0.0010681152,-0.020248413,-0.008529663,-27.36496,14.6684265,-2.1743011,0,0.0,0.0,0.0,0.0
0.026458741,0.17616408,0.18534419,-0.9667543,-0.029836437,0.98266786,0.18295826,0.98390853,-0.0033861692,0.17864077,0.99091446,0.018325299,-0.13323902,-0.018118367,0.99983203,0.0027654686,0.13326731,-3.262693E-4,0.99108005,0.15061188,0.040285382,0.07355583,9.648742,-0.033206616,1.7518485,0.015975952,-0.014923096,0.0095825195,-27.36496,14.6684265,-2.1743011,0,0.0,0.0,0.0,0.0
0.030853272,0.17635924,0.17841999,-0.96802056,-0.028596343,0.98394865,0.17614594,0.98391044,-0.0033831177,0.17863059,0.9871844,0.021686558,-0.15810318,-0.021352379,0.99976474,0.0038122018,0.15814866,-3.874674E-4,0.98741525,0.15167809,0.036190577,0.07228744,9.648759,-0.033176687,1.7517483,-0.0053253174,-0.029830933,-0.0021362305,-27.441643,14.659874,-2.2974434,0,0.0,0.0,0.0,0.0
0.035278321,0.17634632,0.17839472,-0.96802753,-0.028591443,0.9839531,0.17612107,0.9839128,-0.0033809966,0.17861708,0.9829164,0.024839561,-0.18236844,-0.024341108,0.9996913,0.004971359,0.18243565,-4.4738044E-4,0.98321766,0.14597893,0.032308143,0.070880294,9.648783,-0.033155885,1.7516159,-0.004257202,-0.03303528,0.0053253174,-27.441643,14.659874,-2.2974434,0,0.0,0.0,0.0,0.0
0.039672852,0.1763275,0.17835787,-0.9680378,-0.028584018,0.9839599,0.1760849,0.9839164,-0.0033782024,0.17859736,0.9781459,0.027928757,-0.20603554,-0.027224708,0.99960977,0.006251941,0.20612974,-5.0605286E-4,0.97852457,0.14701462,0.03148543,0.06434417,9.64882,-0.033128493,1.7514229,-0.019165039,-0.021316528,-0.0032043457,-27.441643,14.659874,-2.2974434,0,0.0,0.0,0.0,0.0
0.044189454,0.17638452,0.17555034,-0.9685404,-0.02808157,0.9844647,0.17332263,0.98392075,-0.0033732923,0.17857407,0.9729089,0.030955158,-0.22910698,-0.03000176,0.9995206,0.007644198,0.22923376,-5.634959E-4,0.9733712,0.1439209,0.031400416,0.06344628,9.648863,-0.033080343,1.7511946,-0.011703491,-0.021316528,-0.0063934326,-27.460705,14.651749,-2.3453062,0,0.0,0.0,0.0,0.0
0.048736573,0.17636605,0.17551412,-0.9685504,-0.028076252,0.9844712,0.17328669,0.9839242,-0.0033686282,0.17855509,0.9672421,0.03386374,-0.25158697,-0.03261714,0.9994263,0.009124643,0.2517516,-6.1969185E-4,0.9677917,0.13979244,0.028446421,0.06950617,9.648896,-0.0330346,1.7510083,0.003189087,-0.024505615,-0.007461548,-27.460705,14.651749,-2.3453062,0,0.0,0.0,0.0,0.0
0.053253174,0.17634009,0.17546326,-0.9685643,-0.028065892,0.9844803,0.1732368,0.9839292,-0.0033649756,0.17852789,0.9611769,0.036713134,-0.27347985,-0.035126854,0.99932563,0.010696426,0.2736881,-6.746707E-4,0.9618182,0.1351366,0.026605243,0.06840968,9.648943,-0.032998774,1.7507412,-0.003189087,-0.020248413,-0.004272461,-27.460705,14.651749,-2.3453062,0,0.0,0.0,0.0,0.0
0.057769776,0.17636737,0.17317924,-0.9689703,-0.027658245,0.9848846,0.1709893,0.9839358,-0.0033569145,0.17849134,0.95381343,0.039494406,-0.29779214,-0.037416514,0.9992193,0.012677311,0.29806033,-9.49446E-4,0.9545465,0.12997341,0.02864107,0.06819129,9.649009,-0.032919727,1.750383,-0.003189087,-0.047943115,0.0010681152,-27.496742,14.626101,-2.390776,0,0.0,0.0,0.0,0.0
0.062286377,0.17632505,0.173096,-0.96899295,-0.02764389,0.9848993,0.17090714,0.9839437,-0.0033484788,0.17844746,0.9470011,0.04218322,-0.31844848,-0.039664876,0.9991094,0.014391551,0.31877196,-9.975955E-4,0.9478309,0.12864494,0.03296158,0.06400347,9.649087,-0.032837003,1.7499527,-0.0021362305,-0.054336548,-0.015975952,-27.496742,14.626101,-2.390776,0,0.0,0.0,0.0,0.0
0.066802979,0.17627436,0.17299625,-0.96901995,-0.027628414,0.98491687,0.17080839,0.9839533,-0.0033366545,0.17839518,0.9398844,0.04481627,-0.33853924,-0.0418101,0.9989947,0.016171107,0.33892363,-0.0010446132,0.94081336,0.12856483,0.032241233,0.06755149,9.649176,-0.03272103,1.7494392,-0.0010681152,-0.039413452,0.004257202,-27.496742,14.626101,-2.390776,0,0.0,0.0,0.0,0.0
0.072540284,0.17641416,0.16544701,-0.970312,-0.026277382,0.98621315,0.16338076,0.9839652,-0.0033254207,0.17832947,0.93249005,0.047394328,-0.3580727,-0.043853093,0.9988757,0.018008824,0.3585236,-0.001090454,0.93352,0.123259544,0.035536148,0.064792395,9.64929,-0.032610856,1.7487943,-0.0053253174,-0.05645752,-0.015975952,-27.49512,14.637593,-2.5030944,0,0.0,0.0,0.0,0.0
0.078277588,0.1763408,0.16530272,-0.97034985,-0.026251486,0.98623735,0.16323856,0.9839791,-0.0033124934,0.17825334,0.93249005,0.047394328,-0.3580727,-0.043853093,0.9988757,0.018008824,0.3585236,-0.001090454,0.93352,0.12312889,0.035409354,0.065540075,9.649421,-0.032484066,1.7480466,-0.0053253174,-0.05645752,-0.015975952,-27.49512,14.637593,-2.5030944,0,0.0,0.0,0.0,0.0
0.084014893,0.17625397,0.16513196,-0.9703947,-0.026217153,0.98626584,0.1630709,0.9839955,-0.0033009103,0.1781626,0.9169827,0.052087173,-0.39551193,-0.04736057,0.99864185,0.021712642,0.39610568,-0.0011784472,0.9182041,0.12515068,0.033593874,0.053441882,9.649583,-0.03237048,1.7471571,-0.003189087,-0.06817627,-0.0032043457,-27.49512,14.637593,-2.5030944,0,0.0,0.0,0.0,0.0
0.089752198,0.17631201,0.15886112,-0.9714304,-0.025091272,0.9872954,0.15690157,0.9840145,-0.0032892076,0.17805809,0.90891045,0.05435958,-0.41343302,-0.04897486,0.9985207,0.023620283,0.4141054,-0.0012208964,0.9102281,0.12105465,0.03305935,0.04643786,9.649767,-0.03225571,1.7461319,-0.0021362305,-0.06817627,0.0010681152,-27.529436,14.594724,-2.609797,0,0.0,0.0,0.0,0.0
0.095184327,0.17620705,0.15865365,-0.9714834,-0.025046822,0.9873287,0.15669839,0.98403436,-0.0032787884,0.17794807,0.90066093,0.056459375,-0.430839,-0.05038638,0.99840415,0.02550425,0.4315914,-0.0012622627,0.9020683,0.11570454,0.031361368,0.046114206,9.649964,-0.032153543,1.7450534,-0.004257202,-0.0745697,-0.0021362305,-27.529436,14.594724,-2.609797,0,0.0,0.0,0.0,0.0
0.098602295,0.1760981,0.1584383,-0.97153836,-0.024999816,0.9873634,0.15648764,0.98405504,-0.0032688917,0.17783372,0.8922485,0.058512732,-0.44773746,-0.05171223,0.99828583,0.027409513,0.44857377,-0.0013025933,0.8937448,0.1153965,0.026157131,0.03919959,9.6501665,-0.032056488,1.743932,-0.0010681152,-0.053268433,0.0010681152,-27.529436,14.594724,-2.609797,0,0.0,0.0,0.0,0.0
0.102020264,0.17600077,0.15783796,-0.9716537,-0.024884073,0.98745966,0.15589814,0.9840755,-0.0032594898,0.1777213,0.88369244,0.06052043,-0.46413898,-0.052954484,0.9981661,0.029331652,0.46506292,-0.0013419193,0.8852766,0.1033268,0.020540986,0.019393325,9.650366,-0.031964283,1.7428293,-0.007461548,-0.036224365,-0.007461548,-27.535105,14.598859,-2.6161022,0,0.0,0.0,0.0,0.0
0.105438233,0.17589703,0.157633,-0.97170573,-0.02483745,0.98749244,0.15569793,0.9840952,-0.0032521149,0.17761222,0.88369244,0.06052043,-0.46413898,-0.052954484,0.9981661,0.029331652,0.46506292,-0.0013419193,0.8852766,0.10313702,0.020468652,0.020463824,9.650556,-0.03189195,1.7417588,-0.007461548,-0.036224365,-0.007461548,-27.535105,14.598859,-2.6161022,0,0.0,0.0,0.0,0.0
0.108856202,0.17580225,0.15744567,-0.9717533,-0.02479358,0.9875223,0.15551513,0.9841132,-0.0032466624,0.17751226,0.86622065,0.06438322,-0.4954962,-0.055180654,0.9979242,0.033200976,0.49660528,-0.0014175632,0.8679753,0.105843544,0.020148652,0.010305166,9.650736,-0.03183849,1.7407793,0.0,0.0084991455,0.0021209717,-27.535105,14.598859,-2.6161022,0,0.0,0.0,0.0,0.0
0.11227417,0.17582843,0.15284336,-0.9724831,-0.023968207,0.9882451,0.1509871,0.98412895,-0.0032391488,0.17742495,0.8573387,0.066252746,-0.5104712,-0.05618049,0.9978018,0.03514675,0.5116777,-0.0014541453,0.8591763,0.101486206,0.02101805,0.006086588,9.650892,-0.031764816,1.7399235,0.007461548,0.034072876,0.010650635,-27.603281,14.575855,-2.6999118,0,0.0,0.0,0.0,0.0
0.115692139,0.175758,0.15270361,-0.9725177,-0.023943577,0.98826677,0.15084931,0.9841422,-0.0032274225,0.17735207,0.84838486,0.0679917,-0.52499545,-0.05703106,0.9976848,0.037047915,0.5262989,-0.0014898453,0.8502983,0.101439476,0.023714704,0.0019812584,9.651018,-0.03164981,1.7392081,-0.0010681152,0.04258728,-0.008529663,-27.603281,14.575855,-2.6999118,0,0.0,0.0,0.0,0.0
0.119537354,0.17570335,0.15259509,-0.97254467,-0.023926489,0.9882836,0.15074192,0.9841523,-0.0032162818,0.17729579,0.83936834,0.069692835,-0.5390767,-0.05781459,0.99756736,0.03894726,0.54047966,-0.0015245969,0.84135574,0.095191956,0.026276527,-0.0030037165,9.651116,-0.031540554,1.7386559,0.0063934326,0.053237915,-0.01171875,-27.603281,14.575855,-2.6999118,0,0.0,0.0,0.0,0.0
0.123596192,0.17561032,0.15485303,-0.97220445,-0.024332512,0.98793226,0.15296295,0.984159,-0.0032056987,0.17725909,0.8327823,0.071390696,-0.5489782,-0.05857334,0.9974467,0.040856954,0.5504933,-0.0018694627,0.83483756,0.09216118,0.025598228,0.0026311874,9.651178,-0.03143676,1.7382954,-0.004257202,0.06816101,0.0021209717,-27.623186,14.580934,-2.66715,0,0.0,0.0,0.0,0.0
0.127746582,0.17559014,0.15481295,-0.9722146,-0.024338119,0.98793876,0.15292116,0.9841625,-0.003189575,0.17724015,0.8236866,0.07306685,-0.562318,-0.0592734,0.99732524,0.042767104,0.56393886,-0.0018961873,0.82581437,0.089782715,0.032076646,0.0044748783,9.651215,-0.031278647,1.7381101,0.0234375,0.06921387,0.007446289,-27.623186,14.580934,-2.66715,0,0.0,0.0,0.0,0.0
0.132019043,0.17558609,0.1548049,-0.9722166,-0.024351278,0.9879401,0.15291059,0.9841629,-0.0031742577,0.17723821,0.8145632,0.074708484,-0.57524365,-0.05991336,0.9972035,0.044670362,0.5769723,-0.0019220551,0.81676143,0.090426445,0.032245122,0.008702874,9.651219,-0.031128442,1.7380912,-0.0053253174,0.07348633,-0.017044067,-27.623186,14.580934,-2.66715,0,0.0,0.0,0.0,0.0
0.136352539,0.17563608,0.15327272,-0.9724502,-0.024096172,0.9881788,0.15139972,0.9841602,-0.003158928,0.17725316,0.80542356,0.07631692,-0.58776575,-0.060495976,0.9970817,0.04656502,0.5896042,-0.0019470992,0.80768996,0.086278915,0.031680383,0.015906215,9.651195,-0.030978117,1.7382381,-0.017028809,0.064956665,0.0010681152,-27.642097,14.621616,-2.6879063,0,0.0,0.0,0.0,0.0
0.141876221,0.17566082,0.15332171,-0.9724381,-0.024119627,0.9881714,0.15144537,0.98415524,-0.003148177,0.17728104,0.79628,0.07786208,-0.5998964,-0.060998883,0.9969622,0.048430637,0.6018449,-0.001971336,0.79861057,0.08188343,0.030223772,0.022615194,9.651148,-0.030872691,1.7385118,0.010650635,0.064956665,-0.0021362305,-27.642097,14.621616,-2.6879063,0,0.0,0.0,0.0,0.0
0.147369385,0.17569175,0.15338299,-0.9724228,-0.024148768,0.9881619,0.15150249,0.98414904,-0.0031349289,0.1773159,0.7871406,0.07937714,-0.61164445,-0.061450724,0.9968427,0.050284367,0.61370474,-0.0019948727,0.78953314,0.08203125,0.029049039,0.023400187,9.65109,-0.030742783,1.7388543,0.01171875,0.0521698,0.01914978,-27.642097,14.621616,-2.6879063,0,0.0,0.0,0.0,0.0
0.152862549,0.17580076,0.1505533,-0.9728452,-0.02366595,0.98859686,0.14871433,0.9841412,-0.0031207888,0.17735907,0.7780145,0.080862954,-0.6230206,-0.061853796,0.9967232,0.052124813,0.625194,-0.002017674,0.78046674,0.081954956,0.03366348,0.025723696,9.651011,-0.030604113,1.7392772,0.0010681152,0.037261963,-0.012786865,-27.59735,14.561617,-2.7335646,0,0.0,0.0,0.0,0.0
0.158386231,0.17584604,0.15064326,-0.9728231,-0.02370327,0.9885833,0.14879918,0.9841323,-0.0031066553,0.17740917,0.76891387,0.082261816,-0.63403815,-0.062165145,0.9966087,0.053913467,0.636323,-0.0020397364,0.77142006,0.080459595,0.035167105,0.0314337,9.650923,-0.030465508,1.7397684,0.0,0.04046631,0.0010681152,-27.59735,14.561617,-2.7335646,0,0.0,0.0,0.0,0.0
0.163879395,0.17589065,0.1507319,-0.9728013,-0.023738088,0.98856986,0.14888313,0.98412347,-0.0030947055,0.17745826,0.7598431,0.08363435,-0.6447044,-0.062434133,0.99649435,0.055686012,0.6471016,-0.0020610748,0.76240104,0.08095455,0.02990686,0.03301215,9.650839,-0.03034833,1.7402502,-0.0053253174,0.031936646,0.0010681152,-27.59735,14.561617,-2.7335646,0,0.0,0.0,0.0,0.0
0.169067383,0.17597072,0.14929771,-0.9730079,-0.023502631,0.9887874,0.1474684,0.98411477,-0.0030818766,0.17750655,0.75080943,0.08498108,-0.65502936,-0.06266257,0.9963804,0.057441436,0.65753984,-0.0020817474,0.75341696,0.079517365,0.031598315,0.036411405,9.650751,-0.030222515,1.7407233,0.004257202,0.012756348,0.0010681152,-27.635557,14.531549,-2.7682426,0,0.0,0.0,0.0,0.0
0.17364502,0.17601676,0.14938949,-0.97298557,-0.0235422,0.9887737,0.14755468,0.98410565,-0.0030658762,0.17755768,0.7418215,0.08627181,-0.66502476,-0.06282945,0.9962694,0.059158288,0.66764754,-0.0021017496,0.7444745,0.07815933,0.03987176,0.050123453,9.6506605,-0.030065605,1.7412245,-0.009567261,0.015960693,-0.004272461,-27.635557,14.531549,-2.7682426,0,0.0,0.0,0.0,0.0
0.177886963,0.17606455,0.14948481,-0.97296226,-0.023583442,0.9887593,0.14764425,0.98409605,-0.00304912,0.17761083,0.73288363,0.08753843,-0.6746988,-0.06296047,0.99615884,0.060856022,0.67743444,-0.0021210322,0.73558,0.0790329,0.041969813,0.061189294,9.650566,-0.029901283,1.7417456,0.008529663,0.0084991455,-0.0063934326,-27.635557,14.531549,-2.7682426,0,0.0,0.0,0.0,0.0
0.182128907,0.17616048,0.14746158,-0.97325355,-0.02324319,0.989063,0.14564988,0.98408693,-0.0030362355,0.17766131,0.72400177,0.088781506,-0.6840609,-0.06305741,0.99604887,0.06253397,0.6869099,-0.0021395942,0.7267394,0.073275566,0.035322238,0.06905115,9.650476,-0.02977493,1.7422407,0.0021362305,-0.017044067,-0.008529663,-27.591135,14.52984,-2.7925653,0,0.0,0.0,0.0,0.0
0.18637085,0.17619687,0.14753404,-0.9732361,-0.023273977,0.9890524,0.14571808,0.9840798,-0.003023995,0.17770162,0.72400177,0.088781506,-0.6840609,-0.06305741,0.99604887,0.06253397,0.6869099,-0.0021395942,0.7267394,0.073345184,0.0352022,0.06865561,9.650407,-0.029654896,1.7426362,0.0021362305,-0.017044067,-0.008529663,-27.591135,14.52984,-2.7925653,0,0.0,0.0,0.0,0.0
0.190612793,0.17622767,0.14759544,-0.97322106,-0.023302095,0.98904306,0.14577548,0.9840735,-0.003011588,0.17773609,0.70462775,0.09189963,-0.7036008,-0.06326851,0.99576515,0.066699326,0.7067508,-0.0024824266,0.70745814,0.07132244,0.03755586,0.078189015,9.650349,-0.029533233,1.7429746,-0.011703491,-0.038360596,-0.0053253174,-27.591135,14.52984,-2.7925653,0,0.0,0.0,0.0,0.0
0.194854737,0.17642458,0.13990717,-0.97432053,-0.02194623,0.99016005,0.13820773,0.9840694,-0.0030005802,0.177759,0.6959616,0.093016975,-0.712029,-0.06322734,0.9956614,0.06826915,0.71529,-0.00249301,0.69882333,0.06914711,0.032378353,0.073216796,9.650308,-0.029425284,1.7431992,-0.009567261,-0.039413452,0.003189087,-27.522003,14.555149,-2.8934917,0,0.0,0.0,0.0,0.0
0.19909668,0.17643704,0.13993187,-0.97431463,-0.021964341,0.9901566,0.13822962,0.98406684,-0.0029886442,0.1777738,0.68738014,0.093957156,-0.72019476,-0.06305224,0.99557304,0.06970386,0.72355574,-0.0025031613,0.69026136,0.06658745,0.030318456,0.0822078,9.650284,-0.029308237,1.7433447,-0.012771606,-0.042617798,-0.0063934326,-27.522003,14.555149,-2.8934917,0,0.0,0.0,0.0,0.0
0.203338623,0.17643808,0.13993394,-0.97431415,-0.021975439,0.99015623,0.13822971,0.9840663,-0.0029780043,0.17777638,0.678877,0.094878964,-0.72809607,-0.0628566,0.9954856,0.071115255,0.73155653,-0.002512871,0.6817761,0.06533146,0.026692241,0.07721484,9.650283,-0.029203909,1.7433707,-0.004257202,-0.052200317,-0.008529663,-27.522003,14.555149,-2.8934917,0,0.0,0.0,0.0,0.0
0.207580567,0.17645818,0.13875408,-0.9744792,-0.021776646,0.99032235,0.13706666,0.9840672,-0.002965642,0.17777209,0.67045534,0.095782295,-0.7357413,-0.06264131,0.9953991,0.072502926,0.7393008,-0.0025221738,0.6733706,0.06389046,0.027773857,0.081157446,9.65029,-0.02908267,1.7433282,-0.0021362305,-0.052200317,-0.0032043457,-27.46533,14.480544,-2.9115522,0,0.0,0.0,0.0,0.0
0.21182251,0.17644489,0.13872764,-0.97448546,-0.021780882,0.9903262,0.13703898,0.9840695,-0.0029546754,0.1777596,0.6621195,0.096643746,-0.7431405,-0.062391788,0.9953158,0.07384907,0.74679655,-0.002531043,0.66504776,0.060112,0.027612735,0.07469022,9.650311,-0.028975125,1.7432055,-0.003189087,-0.043685913,-0.0053253174,-27.46533,14.480544,-2.9115522,0,0.0,0.0,0.0,0.0
0.216064454,0.17642227,0.13868263,-0.974496,-0.021778429,0.9903326,0.13699362,0.98407364,-0.0029457344,0.177737,0.65387046,0.097487375,-0.75029975,-0.062125307,0.99523354,0.07517103,0.7540516,-0.0025395157,0.6568103,0.06296444,0.025558421,0.068172574,9.650354,-0.028887453,1.7429844,0.003189087,-0.036224365,0.0063934326,-27.46533,14.480544,-2.9115522,0,0.0,0.0,0.0,0.0
0.220306397,0.1764717,0.13501675,-0.97500163,-0.02112973,0.9908389,0.13338548,0.9840789,-0.0029372398,0.1777079,0.64571065,0.09831316,-0.7572267,-0.061842706,0.9951523,0.076468594,0.76107377,-0.0025476401,0.64866036,0.06350422,0.023846388,0.062055588,9.65041,-0.028804163,1.7426996,-0.0021362305,-0.042617798,0.0021209717,-27.465279,14.499314,-2.9632707,0,0.0,0.0,0.0,0.0
0.22454834,0.17643468,0.1349432,-0.97501856,-0.02112161,0.990849,0.13331209,0.9840857,-0.0029269152,0.17767034,0.63764656,0.099048704,-0.7639348,-0.06149844,0.9950793,0.07768603,0.76787037,-0.002555432,0.6406002,0.06496143,0.024351608,0.054665804,9.650476,-0.028702913,1.7423315,0.0053253174,-0.028762817,0.0,-27.465279,14.499314,-2.9632707,0,0.0,0.0,0.0,0.0
0.228790284,0.1763936,0.13486157,-0.9750372,-0.02111251,0.99086004,0.13323064,0.9840932,-0.0029155514,0.17762865,0.62967515,0.09976802,-0.7704255,-0.061141897,0.9950074,0.078878984,0.7744487,-0.0025628617,0.6326315,0.05987358,0.026971612,0.051296234,9.650548,-0.028591467,1.7419223,-0.0010681152,-0.036224365,-0.009597778,-27.465279,14.499314,-2.9632707,0,0.0,0.0,0.0,0.0
0.233032227,0.17640638,0.1321037,-0.97541237,-0.02062699,0.9912315,0.1305157,0.98410124,-0.002903978,0.17758448,0.62179834,0.100471266,-0.7767061,-0.060773958,0.99493665,0.08004752,0.78081584,-0.0025699155,0.62475604,0.056708336,0.023946851,0.04981625,9.650623,-0.028477963,1.7414885,0.0063934326,-0.02557373,0.0010681152,-27.501087,14.481288,-3.0124032,0,0.0,0.0,0.0,0.0
0.23727417,0.17635857,0.13200842,-0.975434,-0.020618774,0.99124444,0.13042022,0.98411006,-0.00288847,0.1775363,0.61402065,0.10110502,-0.78278756,-0.060362354,0.9948724,0.081149556,0.7869784,-0.0025765968,0.61697507,0.055841446,0.026056089,0.044639826,9.65071,-0.028325884,1.741016,-0.0010681152,-0.02557373,-0.007461548,-27.501087,14.481288,-3.0124032,0,0.0,0.0,0.0,0.0
0.241516114,0.17631187,0.13191535,-0.97545505,-0.020609647,0.9912569,0.13032715,0.9841186,-0.002874438,0.17748907,0.60633975,0.10172415,-0.78867245,-0.059942503,0.99480927,0.08222755,0.79294324,-0.0025828343,0.60929006,0.05693245,0.023039723,0.039018035,9.650793,-0.028188277,1.7405528,0.0021362305,-0.021316528,-0.012786865,-27.501087,14.481288,-3.0124032,0,0.0,0.0,0.0,0.0
0.245758057,0.17632061,0.12928076,-0.9758061,-0.020148335,0.991604,0.12773311,0.9841266,-0.0028611077,0.17744498,0.5987571,0.10232899,-0.7943669,-0.05951522,0.9947472,0.08328184,0.7987164,-0.0025886663,0.6017021,0.054138184,0.021850355,0.040373683,9.650871,-0.028057551,1.7401203,-0.0010681152,-0.020248413,-0.0021362305,-27.535105,14.464163,-3.0590792,0,0.0,0.0,0.0,0.0
0.25,0.17627537,0.12919042,-0.97582626,-0.020139378,0.9916157,0.12764278,0.98413485,-0.002847743,0.17739923,0.59127635,0.102868825,-0.79988146,-0.05905091,0.99469155,0.08427167,0.80430424,-0.002594115,0.5942121,0.05147648,0.022867363,0.03930497,9.650953,-0.027926493,1.739672,-0.003189087,-0.022369385,0.004257202,-27.535105,14.464163,-3.0590792,0,0.0,0.0,0.0,0.0
0.254241944,0.17623296,0.1291057,-0.9758451,-0.020131927,0.9916268,0.1275579,0.9841426,-0.0028342684,0.17735648,0.58389515,0.10339603,-0.8052178,-0.058582023,0.99463683,0.085238725,0.80971265,-0.0025991872,0.5868208,0.048947334,0.023825893,0.039001346,9.6510315,-0.02779436,1.739253,-0.013839722,-0.021316528,-0.0032043457,-27.535105,14.464163,-3.0590792,0,0.0,0.0,0.0,0.0
0.258483887,0.1762213,0.12759134,-0.9760463,-0.019867036,0.99182284,0.12606677,0.9841501,-0.002824502,0.17731518,0.5761663,0.10364448,-0.81073433,-0.057993606,0.99461126,0.085936904,0.81527245,-0.0024965452,0.57907224,0.051812172,0.014471911,0.0360862,9.651106,-0.027698588,1.7388481,0.004257202,-0.008529663,0.0010681152,-27.567423,14.465823,-3.0861788,0,0.0,0.0,0.0,0.0
0.26272583,0.17617996,0.12750861,-0.9760647,-0.019854445,0.9918335,0.12598483,0.98415774,-0.0028167793,0.17727277,0.5689934,0.10412406,-0.8157234,-0.057505295,0.99456114,0.08684024,0.820329,-0.0025031043,0.5718864,0.053090096,0.009431604,0.03933251,9.651184,-0.027622864,1.7384329,-0.010635376,-0.01171875,-0.0053253174,-27.567423,14.465823,-3.0861788,0,0.0,0.0,0.0,0.0
0.266967774,0.17614149,0.1274317,-0.97608155,-0.019842904,0.99184334,0.12590866,0.9841649,-0.0028094444,0.17723338,0.5619213,0.10459237,-0.8205516,-0.057014782,0.99451196,0.08772215,0.82522345,-0.002509378,0.5648008,0.051916122,0.0075165424,0.04049325,9.651251,-0.027550925,1.738046,-0.011703491,-0.021316528,-0.0053253174,-27.567423,14.465823,-3.0861788,0,0.0,0.0,0.0,0.0
0.271209717,0.17620447,0.12228783,-0.976728,-0.01892793,0.99249065,0.12084669,0.98417157,-0.0028062882,0.17719597,0.5549502,0.105049744,-0.8252241,-0.056522634,0.9944638,0.08858312,0.8299611,-0.0025153793,0.55781555,0.060138702,-0.0026455093,0.040638447,9.651314,-0.027519966,1.7376785,-0.0053253174,-0.017044067,-0.004272461,-27.607126,14.440545,-3.1724246,0,0.0,0.0,0.0,0.0
0.275451661,0.17617168,0.12222205,-0.97674215,-0.018914245,0.99249876,0.12078221,0.9841777,-0.002804067,0.17716193,0.54808587,0.10539483,-0.82975525,-0.055973288,0.99442726,0.08933878,0.8345471,-0.0025211975,0.55093086,0.06005001,-0.003911702,0.043394804,9.651374,-0.027498184,1.7373447,0.003189087,-0.019180298,0.0,-27.607126,14.440545,-3.1724246,0,0.0,0.0,0.0,0.0
0.279693604,0.17613722,0.12215291,-0.97675705,-0.018896634,0.9925073,0.12071503,0.9841842,-0.0028049906,0.17712577,0.54132247,0.10573169,-0.8341408,-0.0554258,0.99439144,0.090075284,0.8389863,-0.0025268549,0.5441467,0.05564785,-0.0046064667,0.04269898,9.651439,-0.027507246,1.7369903,-0.0010681152,-0.020248413,-0.004272461,-27.607126,14.440545,-3.1724246,0,0.0,0.0,0.0,0.0
0.283935547,0.1760372,0.12556547,-0.9763423,-0.019497076,0.99208134,0.12407426,0.98419034,-0.0028058682,0.17709139,0.53465956,0.10606042,-0.8383856,-0.054880396,0.99435645,0.090793,0.8432836,-0.0025324177,0.53746283,0.053380966,-0.006223984,0.04107976,9.651501,-0.027515855,1.7366536,0.0010681152,-0.022369385,0.010650635,-27.590982,14.452389,-3.1160371,0,0.0,0.0,0.0,0.0
0.288177491,0.17600606,0.1255031,-0.97635585,-0.019481845,0.9920892,0.12401354,0.9841963,-0.0028059243,0.17705879,0.5280933,0.106450945,-0.84248775,-0.05437445,0.9943147,0.09155142,0.8474437,-0.0025378866,0.53087914,0.05697441,-0.0022621173,0.041457057,9.651559,-0.027516404,1.7363337,-0.008514404,-0.008529663,0.0,-27.590982,14.452389,-3.1160371,0,0.0,0.0,0.0,0.0
0.292419434,0.17597514,0.12544113,-0.9763694,-0.019465942,0.992097,0.12395335,0.9842021,-0.002806756,0.17702626,0.5216272,0.106832415,-0.84645844,-0.05386966,0.9942738,0.09229134,0.8514711,-0.0025432473,0.52439535,0.05368328,-0.004475979,0.035126925,9.651614,-0.027524555,1.7360146,-0.004257202,-0.008529663,-0.0032043457,-27.590982,14.452389,-3.1160371,0,0.0,0.0,0.0,0.0
0.296661377,0.17593853,0.12589863,-0.9763171,-0.019542793,0.9920391,0.12440429,0.98420715,-0.0028075445,0.17699833,0.515261,0.10720499,-0.85030186,-0.05336635,0.99423367,0.09301309,0.8553702,-0.0025485177,0.518011,0.055825233,-0.00490297,0.04153323,9.651667,-0.027532298,1.7357411,-0.008514404,-0.0053253174,0.0010681152,-27.593575,14.409853,-3.114349,0,0.0,0.0,0.0,0.0
0.300903321,0.17591703,0.1258554,-0.9763265,-0.019530764,0.9920446,0.124362476,0.9842113,-0.0028090721,0.17697561,0.50899357,0.10757925,-0.8540212,-0.05287015,0.9941932,0.093726,0.8591451,-0.0025536981,0.51172566,0.05379677,-0.006258471,0.049737215,9.65171,-0.027547283,1.7355187,-0.0053253174,-0.0032043457,0.0053253174,-27.593575,14.409853,-3.114349,0,0.0,0.0,0.0,0.0
0.305145264,0.17589799,0.12581713,-0.9763349,-0.01952156,0.99204946,0.124325186,0.98421484,-0.0028089683,0.17695566,0.502825,0.10794517,-0.8576216,-0.052376006,0.99415356,0.09442171,0.86279994,-0.0025588057,0.505539,0.05810356,-0.0030135736,0.05368483,9.651742,-0.02754626,1.7353227,-0.004257202,-0.0063934326,-0.0010681152,-27.593575,14.409853,-3.114349,0,0.0,0.0,0.0,0.0
0.309387207,0.17593102,0.123248674,-0.97665656,-0.019066388,0.9923719,0.12179732,0.9842179,-0.002806613,0.17693889,0.49675483,0.10830297,-0.86110693,-0.051884256,0.99411464,0.09510064,0.8663387,-0.002563809,0.49945045,0.05644703,0.0029201861,0.05597651,9.651773,-0.027523166,1.7351586,0.0,-0.007461548,0.020217896,-27.60504,14.3963,-3.1559277,0,0.0,0.0,0.0,0.0
0.313629151,0.17591535,0.123217165,-0.97666335,-0.019062534,0.99237573,0.12176594,0.9842207,-0.0028028188,0.17692295,0.4907849,0.10860213,-0.8644858,-0.051370163,0.994082,0.095719,0.8697651,-0.002568665,0.49345937,0.056310654,0.0075845085,0.05432284,9.651803,-0.027485965,1.7350026,-0.0053253174,-0.009597778,0.003189087,-27.60504,14.3963,-3.1559277,0,0.0,0.0,0.0,0.0
0.317871094,0.17590146,0.1231892,-0.9766694,-0.01905712,0.99237925,0.12173847,0.98422337,-0.002801471,0.1769086,0.48491168,0.10889467,-0.8677572,-0.050860174,0.9940499,0.09632193,0.87308294,-0.0025733479,0.48756483,0.05594158,0.0029404499,0.058251143,9.651831,-0.02747275,1.7348621,0.014907837,-0.0063934326,-0.0032043457,-27.60504,14.3963,-3.1559277,0,0.0,0.0,0.0,0.0
0.322113038,0.17592931,0.121132694,-0.9769215,-0.018691724,0.9926324,0.11971465,0.9842254,-0.0028009687,0.17689733,0.4791346,0.1091808,-0.8709246,-0.050354477,0.99401855,0.09690985,0.87629586,-0.0025779104,0.4817664,0.050570488,0.001169892,0.06028402,9.65185,-0.027467825,1.7347515,-0.024490356,-0.0063934326,-0.0010681152,-27.598001,14.311708,-3.1954274,0,0.0,0.0,0.0,0.0
0.326354981,0.17591621,0.12110614,-0.9769272,-0.018690374,0.9926356,0.11968786,0.9842277,-0.002795901,0.17688422,0.47360688,0.108883455,-0.87398,-0.050138496,0.9940526,0.09667264,0.8793081,-0.0019647875,0.47624943,0.052643776,0.0051877834,0.05002725,9.6518755,-0.027418133,1.7346234,0.01171875,0.003189087,-0.004272461,-27.598001,14.311708,-3.1954274,0,0.0,0.0,0.0,0.0
0.330596924,0.1759034,0.12108016,-0.9769327,-0.018685825,0.9926387,0.11966224,0.98423004,-0.0027941985,0.176871,0.46801835,0.10912807,-0.8769549,-0.049622152,0.9940257,0.0972137,0.88232446,-0.0019814095,0.47063744,0.058444023,-0.0017374083,0.047952414,9.6519,-0.027401444,1.7344942,-0.023422241,0.003189087,-0.017044067,-27.598001,14.311708,-3.1954274,0,0.0,0.0,0.0,0.0
0.334869385,0.17580602,0.12559493,-0.97638017,-0.019488484,0.9920777,0.12410507,0.9842319,-0.0027902485,0.17686087,0.4625232,0.10936729,-0.87983584,-0.049111176,0.9939994,0.09774091,0.885246,-0.0019976653,0.4651189,0.058933258,0.004349217,0.051944494,9.651916,-0.0273627,1.7343943,-0.004257202,-0.010665894,0.007446289,-27.600243,14.240349,-3.1378899,0,0.0,0.0,0.0,0.0
0.340545655,0.17579925,0.12558118,-0.9763831,-0.01948811,0.99207944,0.124091156,0.98423314,-0.0027872724,0.17685418,0.45711616,0.10969214,-0.8826168,-0.048647553,0.99396354,0.09833532,0.8880756,-0.002013517,0.45969307,0.057243347,0.0015209783,0.057382584,9.651931,-0.027333524,1.7343292,0.0010681152,-0.019180298,0.0063934326,-27.600243,14.240349,-3.1378899,0,0.0,0.0,0.0,0.0
0.346191407,0.17579308,0.12556858,-0.9763859,-0.019487092,0.9920811,0.12407853,0.9842343,-0.0027852252,0.17684795,0.45180088,0.11001021,-0.88530993,-0.04818783,0.9939284,0.0989156,0.8908164,-0.0020289922,0.45435885,0.054927826,-0.0011582207,0.055606008,9.6519375,-0.027313435,1.7342674,0.003189087,-0.019180298,-0.004272461,-27.600243,14.240349,-3.1378899,0,0.0,0.0,0.0,0.0
0.351867676,0.17579915,0.12506257,-0.9764498,-0.019398872,0.99214506,0.12358025,0.9842349,-0.0027832792,0.1768443,0.44657624,0.11032165,-0.8879182,-0.04773213,0.9938938,0.0994821,0.8934715,-0.0020441168,0.44911528,0.057995796,-3.518667E-4,0.059162736,9.651943,-0.02729435,1.7342315,0.007461548,-0.0010681152,0.004257202,-27.575516,14.217341,-3.1437304,0,0.0,0.0,0.0,0.0
0.357513428,0.17578886,0.12504163,-0.9764543,-0.019396415,0.99214774,0.12355939,0.98423684,-0.002780652,0.17683385,0.44144195,0.110616714,-0.89044535,-0.047276225,0.99386096,0.10002627,0.8960435,-0.0020589002,0.44396147,0.06472492,6.4610504E-4,0.056623578,9.651964,-0.027268592,1.7341294,0.004257202,-0.007461548,-0.0021362305,-27.575516,14.217341,-3.1437304,0,0.0,0.0,0.0,0.0
0.363067627,0.17578194,0.1250275,-0.97645736,-0.019397013,0.9921495,0.12354489,0.984238,-0.0027766004,0.17682707,0.43639627,0.11090545,-0.8928932,-0.046824727,0.9938288,0.10055727,0.8985354,-0.0020733352,0.4388963,0.06394291,0.0039722584,0.062561035,9.651977,-0.027228862,1.734063,-0.0021362305,-0.028762817,-0.0021362305,-27.575516,14.217341,-3.1437304,0,0.0,0.0,0.0,0.0
0.367614747,0.17573999,0.1267723,-0.9762398,-0.019708231,0.9919279,0.1252617,0.9842393,-0.0027735298,0.17681988,0.43143824,0.11118812,-0.89526427,-0.04637784,0.9937971,0.10107548,0.90094954,-0.0020874003,0.43391877,0.057694435,0.0021127276,0.05791402,9.651988,-0.027198749,1.7339923,0.0021362305,-0.012786865,0.004257202,-27.59681,14.204488,-3.123339,0,0.0,0.0,0.0,0.0
0.371887207,0.1757308,0.12675352,-0.9762439,-0.019708116,0.99193037,0.12524262,0.98424095,-0.0027690579,0.17681079,0.4265651,0.11150009,-0.89755774,-0.045950763,0.9937622,0.10161305,0.90328884,-0.0021011229,0.4290278,0.060376167,0.0067945365,0.050409436,9.651999,-0.027154882,1.7339023,-0.0021362305,-0.008529663,-0.0021362305,-27.59681,14.204488,-3.123339,0,0.0,0.0,0.0,0.0
0.376159668,0.17571907,0.12672955,-0.9762492,-0.01970721,0.9919335,0.12521839,0.9842431,-0.002764109,0.17679909,0.4217774,0.111805424,-0.8997796,-0.045527782,0.9937278,0.10213788,0.90555567,-0.0021144815,0.42422223,0.057649612,0.0071658716,0.03995824,9.652018,-0.027106343,1.7337871,0.004257202,-0.0053253174,-0.0053253174,-27.59681,14.204488,-3.123339,0,0.0,0.0,0.0,0.0
0.380432129,0.17578065,0.12301142,-0.9767136,-0.019053401,0.9924014,0.121558145,0.98424494,-0.0027578513,0.17678873,0.41707394,0.11210417,-0.90193236,-0.04510896,0.9936942,0.10265014,0.90775245,-0.002127474,0.41950086,0.058171272,0.010136282,0.03935945,9.652035,-0.02704497,1.7336853,-0.008514404,0.003189087,-0.010650635,-27.563251,14.192277,-3.1731656,0,0.0,0.0,0.0,0.0
0.38470459,0.17576516,0.12297987,-0.9767203,-0.019053949,0.9924053,0.12152594,0.9842477,-0.0027496505,0.17677355,0.41245705,0.11232246,-0.9040259,-0.044663712,0.9936695,0.10308281,0.9098815,-0.0021400815,0.41486272,0.0543499,0.012936046,0.039082885,9.652059,-0.026964542,1.7335359,0.0,-0.017044067,-0.014923096,-27.563251,14.192277,-3.1731656,0,0.0,0.0,0.0,0.0
0.388977051,0.17574835,0.122945614,-0.9767276,-0.019058762,0.99240965,0.12149024,0.98425066,-0.0027364905,0.17675757,0.40792206,0.11253574,-0.9060548,-0.044224083,0.9936453,0.103504375,0.91194504,-0.0021522727,0.41030663,0.05526066,0.015543181,0.04218626,9.652089,-0.026835492,1.7333795,-0.007461548,-0.02557373,-0.009597778,-27.563251,14.192277,-3.1731656,0,0.0,0.0,0.0,0.0
0.393249512,0.17580421,0.11890237,-0.97721803,-0.018352704,0.99290216,0.11750903,0.98425406,-0.0027239881,0.17673856,0.40237796,0.11367399,-0.90838885,-0.044861697,0.9935173,0.10445497,0.91437376,-0.0012785107,0.40486905,0.058512688,0.019696137,0.045171857,9.652125,-0.026712894,1.7331935,-0.007461548,-0.015991211,-0.018112183,-27.558304,14.207532,-3.2291222,0,0.0,0.0,0.0,0.0
0.397521973,0.1757785,0.11884996,-0.9772291,-0.018351214,0.99290866,0.11745598,0.9842587,-0.0027128905,0.17671297,0.39802665,0.1137786,-0.9102907,-0.044377137,0.9935053,0.1047757,0.9162999,-0.0013074203,0.40049073,0.05895996,0.019579556,0.046885848,9.652168,-0.026604056,1.7329421,-0.013839722,-0.02557373,0.003189087,-27.558304,14.207532,-3.2291222,0,0.0,0.0,0.0,0.0
0.401794434,0.17574821,0.118788354,-0.97724193,-0.018345525,0.9929158,0.117394306,0.98426414,-0.0027038245,0.17668244,0.39375317,0.11388005,-0.9121347,-0.043900024,0.9934936,0.10508681,0.9181673,-0.0013355297,0.39619058,0.059132576,0.016849631,0.049532056,9.652223,-0.026515156,1.7326429,-0.008514404,-0.040481567,0.003189087,-27.558304,14.207532,-3.2291222,0,0.0,0.0,0.0,0.0
0.406066895,0.17562965,0.1230476,-0.9767362,-0.019103922,0.9923971,0.121585414,0.98427093,-0.0026945123,0.17664506,0.3895563,0.113978244,-0.9139228,-0.043430176,0.9934823,0.10538842,0.9199781,-0.0013628956,0.39196736,0.057126045,0.01951591,0.044945836,9.652289,-0.026423834,1.7322763,-0.010635376,-0.036224365,0.003189087,-27.490812,14.213098,-3.1526575,0,0.0,0.0,0.0,0.0
0.410339356,0.17558534,0.122957624,-0.97675544,-0.019090354,0.99240834,0.12149631,0.98427916,-0.002686366,0.17659968,0.3854311,0.114159726,-0.9156475,-0.043001104,0.99346143,0.10576048,0.9217341,-0.0013895279,0.38781998,0.057837486,0.020139996,0.03829193,9.652369,-0.026343944,1.7318311,0.0010681152,-0.034088135,0.0010681152,-27.490812,14.213098,-3.1526575,0,0.0,0.0,0.0,0.0
0.414611817,0.17553885,0.12286318,-0.97677577,-0.019076005,0.9924201,0.12140279,0.9842877,-0.002677927,0.176552,0.38138032,0.11433577,-0.9173202,-0.04257758,0.99344116,0.10612173,0.9234371,-0.0014154647,0.383747,0.060661316,0.018811798,0.038479924,9.652451,-0.026261183,1.7313632,0.0021362305,-0.034088135,0.0053253174,-27.490812,14.213098,-3.1526575,0,0.0,0.0,0.0,0.0
0.418884278,0.17549352,0.12258562,-0.9768187,-0.019030124,0.9924543,0.12112889,0.9842966,-0.0026683544,0.17650212,0.37740254,0.11450641,-0.91894263,-0.04215957,0.9934215,0.106472366,0.9250891,-0.0014407139,0.37974733,0.058548927,0.015858576,0.04229486,9.652535,-0.026167301,1.7308736,0.0063934326,-0.024505615,-0.0021362305,-27.489487,14.191453,-3.1577597,0,0.0,0.0,0.0,0.0
0.423156739,0.17544775,0.12249254,-0.9768385,-0.019018333,0.9924658,0.121036306,0.984305,-0.0026577043,0.1764555,0.373497,0.114668064,-0.9205169,-0.041745733,0.9934028,0.10680921,0.9266916,-0.0014652666,0.37581983,0.059414864,0.019261815,0.04375601,9.6526165,-0.026062855,1.7304162,0.010650635,-0.031967163,-0.010650635,-27.489487,14.191453,-3.1577597,0,0.0,0.0,0.0,0.0
0.4274292,0.17539783,0.12239103,-0.97686017,-0.019002466,0.9924783,0.12093589,0.9843142,-0.0026491412,0.17640431,0.3696624,0.11482462,-0.922044,-0.04133754,0.99338466,0.10713599,0.92824614,-0.0014891153,0.3719635,0.058307648,0.01844063,0.038268447,9.652709,-0.02597889,1.7299145,-0.009567261,-0.020248413,-0.0032043457,-27.489487,14.191453,-3.1577597,0,0.0,0.0,0.0,0.0
0.431701661,0.17533864,0.12287561,-0.97681004,-0.019089196,0.99241847,0.12141251,0.9843231,-0.002641785,0.17635491,0.36589757,0.11497603,-0.92352563,-0.04093488,0.99336714,0.107452825,0.92975444,-0.0015123158,0.36817712,0.059259415,0.012753565,0.031835914,9.652797,-0.025906751,1.7294303,0.008529663,-0.02557373,0.010650635,-27.533087,14.215752,-3.1539855,0,0.0,0.0,0.0,0.0
0.435974122,0.17529237,0.12278155,-0.9768302,-0.01907277,0.9924302,0.12131976,0.98433167,-0.002635575,0.17630725,0.36589757,0.11497603,-0.92352563,-0.04093488,0.99336714,0.107452825,0.92975444,-0.0015123158,0.36817712,0.059176445,0.012692664,0.03230357,9.65288,-0.02584585,1.7289627,0.008529663,-0.02557373,0.010650635,-27.533087,14.215752,-3.1539855,0,0.0,0.0,0.0,0.0
0.440246582,0.17524989,0.12269513,-0.97684866,-0.019057874,0.9924409,0.121234514,0.9843395,-0.0026296747,0.17626345,0.35857093,0.11528528,-0.92635643,-0.040153794,0.9933312,0.108077705,0.9326385,-0.0015567968,0.36080885,0.055207253,0.012933886,0.034092665,9.652959,-0.025787994,1.7285336,0.0,-0.018112183,-0.0010681152,-27.533087,14.215752,-3.1539855,0,0.0,0.0,0.0,0.0
0.444519043,0.17520452,0.12298721,-0.9768201,-0.019110836,0.9924048,0.12152165,0.98434657,-0.0026232924,0.17622417,0.35500848,0.115433544,-0.927709,-0.039771687,0.9933139,0.108377144,0.93401664,-0.0015782543,0.35722587,0.051444054,0.014351707,0.037924767,9.653027,-0.025725402,1.7281481,0.0095825195,-0.004272461,-0.0063934326,-27.601362,14.229833,-3.1590211,0,0.0,0.0,0.0,0.0
0.448791504,0.1751687,0.12291434,-0.9768357,-0.0191009,0.9924139,0.12144929,0.9843531,-0.002615673,0.17618762,0.3515113,0.1155847,-0.929021,-0.039397657,0.9932964,0.108674765,0.9353543,-0.001599155,0.35370865,0.04882717,0.016401304,0.03820598,9.6530905,-0.02565068,1.7277895,0.0021362305,-0.009597778,-0.0021362305,-27.601362,14.229833,-3.1590211,0,0.0,0.0,0.0,0.0
0.453063965,0.17513241,0.1228404,-0.9768516,-0.019090341,0.99242306,0.12137597,0.9843598,-0.0026084334,0.17615047,0.3480787,0.115731366,-0.9302943,-0.039029032,0.9932792,0.10896377,0.9366525,-0.0016194853,0.35025623,0.046572685,0.015476717,0.031552672,9.653159,-0.025579695,1.7274259,0.004257202,-0.008529663,0.008514404,-27.601362,14.229833,-3.1590211,0,0.0,0.0,0.0,0.0
0.457336426,0.17509256,0.123123415,-0.976823,-0.019144293,0.99238795,0.12165374,0.9843659,-0.0026000792,0.17611687,0.3442367,0.11611726,-0.9316748,-0.03931556,0.99323505,0.10926331,0.93805933,-9.831267E-4,0.34647316,0.044678688,0.01984967,0.033117652,9.653216,-0.02549776,1.7270958,0.0,-0.0063934326,-0.010650635,-27.666225,14.24321,-3.163805,0,0.0,0.0,0.0,0.0
0.461608887,0.17506114,0.1230593,-0.97683674,-0.019136785,0.9923958,0.121589854,0.9843715,-0.0025921422,0.1760849,0.34093878,0.11625745,-0.9328692,-0.038946982,0.99321854,0.10954433,0.9392784,-0.0010154658,0.3431546,0.046949387,0.018498603,0.03364694,9.653271,-0.025419924,1.7267822,0.010650635,-0.017044067,0.0063934326,-27.666225,14.24321,-3.163805,0,0.0,0.0,0.0,0.0
0.465881348,0.17503263,0.12300118,-0.9768492,-0.0191311,0.9924032,0.121531755,0.9843768,-0.0025838236,0.17605607,0.33770224,0.11639356,-0.93402874,-0.038583968,0.9932026,0.109817274,0.9404619,-0.0010469992,0.33989766,0.044077873,0.01936124,0.035570264,9.653322,-0.02533835,1.7264996,-0.0021362305,-0.009597778,-0.007461548,-27.666225,14.24321,-3.163805,0,0.0,0.0,0.0,0.0
0.470153809,0.1750857,0.118853,-0.97735304,-0.018406598,0.99290854,0.11744725,0.98438114,-0.0025735875,0.17603174,0.33452612,0.11652577,-0.93515456,-0.03822654,0.99318707,0.11008246,0.9416109,-0.0010777358,0.3367014,0.046625137,0.02327065,0.041917086,9.653364,-0.025237966,1.7262608,-0.012771606,-0.018112183,0.0010681152,-27.682983,14.229062,-3.2288508,0,0.0,0.0,0.0,0.0
0.47442627,0.17506458,0.1188099,-0.9773621,-0.018406007,0.9929138,0.11740351,0.9843849,-0.0025638621,0.17601083,0.3314125,0.11657232,-0.93625665,-0.03784737,0.9931816,0.1102629,0.94272655,-0.0011076529,0.33356476,0.048326492,0.023392668,0.04672718,9.653404,-0.0251426,1.7260562,-0.0063934326,-0.0010681152,-0.0053253174,-27.682983,14.229062,-3.2288508,0,0.0,0.0,0.0,0.0
0.478698731,0.17504603,0.11877198,-0.9773701,-0.018406859,0.99291825,0.11736478,0.9843881,-0.002553924,0.1759926,0.32835725,0.11661708,-0.937327,-0.03747488,0.9931763,0.110437624,0.9438099,-0.0011367771,0.33048686,0.048994064,0.023263684,0.050563097,9.653434,-0.025045138,1.725877,-0.012771606,-0.008529663,-0.018112183,-27.682983,14.229062,-3.2288508,0,0.0,0.0,0.0,0.0
0.482971192,0.17503245,0.11863398,-0.9773892,-0.018389957,0.99293476,0.11722757,0.98439085,-0.002544482,0.17597747,0.3253595,0.11666019,-0.9383664,-0.037109032,0.9931712,0.11060686,0.944862,-0.00116512,0.32746685,0.046034813,0.022901587,0.053467035,9.653462,-0.02495255,1.725729,0.004257202,-0.004272461,-0.0032043457,-27.65412,14.18869,-3.2301433,0,0.0,0.0,0.0,0.0
0.487243653,0.17501429,0.1185968,-0.97739697,-0.018395357,0.99293923,0.11718879,0.984394,-0.0025301455,0.17596017,0.3224182,0.11669967,-0.93937624,-0.03674906,0.9931665,0.11076887,0.94588375,-0.0011927073,0.32450357,0.045140266,0.03184104,0.05769205,9.653489,-0.024811948,1.7255586,0.0053253174,-0.0138549805,0.0,-27.65412,14.18869,-3.2301433,0,0.0,0.0,0.0,0.0
0.491516114,0.17499752,0.11856258,-0.97740406,-0.018402291,0.9929434,0.11715275,0.98439693,-0.0025149696,0.17594449,0.31953233,0.116737634,-0.940357,-0.03639565,0.99316204,0.110925734,0.94687617,-0.0012194561,0.32159615,0.04428959,0.03481213,0.056910038,9.653515,-0.024663117,1.7254044,-0.0063934326,-0.02557373,-0.0053253174,-27.65412,14.18869,-3.2301433,0,0.0,0.0,0.0,0.0
0.495788575,0.17496076,0.1195231,-0.9772937,-0.018583588,0.9928283,0.11809604,0.9844,-0.002500551,0.17592718,0.31670102,0.11677414,-0.9413098,-0.036048736,0.9931577,0.11107763,0.94784015,-0.0012453663,0.31874365,0.048023224,0.033804707,0.04972565,9.653547,-0.024521727,1.725235,0.0021362305,0.0010528564,0.0053253174,-27.644629,14.186195,-3.2141287,0,0.0,0.0,0.0,0.0
0.500061036,0.17494303,0.11948678,-0.9773013,-0.018587,0.9928327,0.11805849,0.98440313,-0.00248841,0.17591006,0.31392264,0.11682913,-0.94223326,-0.035714522,0.9931512,0.111243576,0.9487766,-0.00127047,0.31594515,0.049175262,0.027595583,0.046258926,9.653578,-0.024402667,1.7250671,-0.018096924,-0.010665894,-0.0021362305,-27.644629,14.186195,-3.2141287,0,0.0,0.0,0.0,0.0
0.504333497,0.17492618,0.11945228,-0.9773086,-0.018590244,0.99283695,0.11802282,0.98440605,-0.0024768764,0.1758938,0.31119686,0.116882294,-0.9431305,-0.035386298,0.9931449,0.11140448,0.94968647,-0.0012948288,0.3131996,0.049552917,0.026485123,0.04320526,9.653606,-0.02428956,1.7249076,0.0021362305,-0.018112183,0.003189087,-27.644629,14.186195,-3.2141287,0,0.0,0.0,0.0,0.0
0.508605957,0.17497231,0.115903124,-0.9777275,-0.017975098,0.9932574,0.11452731,0.9844093,-0.0024643622,0.17587595,0.3085227,0.116933696,-0.9440022,-0.035063982,0.9931388,0.1115605,0.95057046,-0.0013184698,0.31050605,0.04822731,0.029484445,0.03529942,9.653642,-0.024166849,1.7247332,0.0053253174,-0.020248413,0.0095825195,-27.626608,14.210757,-3.2594159,0,0.0,0.0,0.0,0.0
0.512878418,0.17495571,0.115869224,-0.97773457,-0.017978117,0.9932615,0.11449229,0.9844122,-0.0024532534,0.17585988,0.30590189,0.1169131,-0.9448573,-0.034725875,0.99314123,0.11164491,0.95142955,-0.0013413876,0.30786368,0.046257973,0.025398681,0.03616059,9.653667,-0.024057902,1.7245752,-0.011703491,-0.008529663,0.0,-27.626608,14.210757,-3.2594159,0,0.0,0.0,0.0,0.0
0.517150879,0.17493916,0.11583546,-0.97774154,-0.01797985,0.99326545,0.11445763,0.98441505,-0.002443476,0.17584372,0.30333075,0.116892226,-0.9456884,-0.034394294,0.9931436,0.11172594,0.95226437,-0.0013636249,0.30527145,0.04629326,0.020806909,0.032677174,9.6537,-0.023962032,1.7244174,-0.007461548,-0.017044067,0.0010681152,-27.626608,14.210757,-3.2594159,0,0.0,0.0,0.0,0.0
0.52142334,0.17493837,0.11497926,-0.9778427,-0.017835604,0.9933649,0.1136136,0.9844178,-0.002434966,0.17582838,0.30080858,0.1168711,-0.94649637,-0.034069113,0.9931461,0.11180371,0.9530758,-0.001385222,0.30272856,0.044891357,0.01788897,0.031043291,9.65373,-0.023878586,1.7242676,0.007461548,-0.0063934326,-0.0053253174,-27.60949,14.216162,-3.2678013,0,0.0,0.0,0.0,0.0
0.525695801,0.17492492,0.11495186,-0.97784823,-0.017838713,0.993368,0.11358518,0.9844202,-0.0024253267,0.17581546,0.29783747,0.11718275,-0.947397,-0.03396863,0.9931096,0.11215804,0.95401204,-0.0012230865,0.29976577,0.043567657,0.022043655,0.034025192,9.653751,-0.023784053,1.7241405,-0.004257202,-0.007461548,-0.004272461,-27.60949,14.216162,-3.2678013,0,0.0,0.0,0.0,0.0
0.529968262,0.1749105,0.11492247,-0.9778544,-0.017841646,0.9933716,0.11355477,0.9844227,-0.0024153902,0.17580153,0.29542077,0.11713815,-0.9481588,-0.03364597,0.9931148,0.112208955,0.9547746,-0.0012471313,0.29732797,0.045414925,0.02167466,0.028732777,9.653779,-0.023686618,1.7240045,0.0010681152,-0.01171875,-0.0063934326,-27.60949,14.216162,-3.2678013,0,0.0,0.0,0.0,0.0
0.534240723,0.1749229,0.113512985,-0.9780168,-0.017602824,0.99353355,0.112165585,0.9844247,-0.002404473,0.17578992,0.29305023,0.11709384,-0.9488997,-0.033329703,0.99312,0.112257354,0.9555159,-0.0012704965,0.29493675,0.042388916,0.024660444,0.0327878,9.653798,-0.023579556,1.7238905,-0.0010681152,0.0,0.0053253174,-27.629086,14.203367,-3.293086,0,0.0,0.0,0.0,0.0
0.538787842,0.17491409,0.113495,-0.97802037,-0.017609656,0.9935356,0.11214607,0.98442614,-0.0023933246,0.175782,0.29072595,0.11702224,-0.94962317,-0.03301166,0.9931284,0.11227691,0.9562367,-0.0012931761,0.2925913,0.04454899,0.026292259,0.039483547,9.653809,-0.02347022,1.7238121,-0.008514404,-0.008529663,0.0,-27.629086,14.203367,-3.293086,0,0.0,0.0,0.0,0.0
0.543334961,0.17490344,0.1134732,-0.9780249,-0.017615817,0.9935383,0.11212281,0.98442805,-0.002381955,0.17577216,0.28844634,0.116951704,-0.9503268,-0.032700177,0.9931367,0.11229484,0.9569375,-0.001315179,0.29029098,0.047312737,0.026877364,0.032458663,9.653826,-0.02335872,1.7237154,-0.012771606,-0.015991211,0.008514404,-27.629086,14.203367,-3.293086,0,0.0,0.0,0.0,0.0
0.547912598,0.17489608,0.113289356,-0.9780475,-0.017593713,0.99355924,0.11193998,0.9844297,-0.0023703754,0.17576279,0.2862105,0.116882145,-0.9510111,-0.0323951,0.99314487,0.11231109,0.957619,-0.0013365146,0.2880349,0.043952942,0.026229296,0.03081286,9.653842,-0.023245165,1.7236235,-0.004257202,-0.021316528,-0.0010681152,-27.602917,14.200138,-3.2911668,0,0.0,0.0,0.0,0.0
0.552459717,0.17488645,0.11326968,-0.97805154,-0.017599234,0.99356157,0.111918986,0.9844313,-0.002360153,0.17575389,0.28401774,0.116810314,-0.9516771,-0.032095373,0.99315333,0.11232265,0.95828176,-0.0013571917,0.2858222,0.0419569,0.023945082,0.029728413,9.653858,-0.023144918,1.7235363,-0.003189087,-0.014923096,0.013824463,-27.602917,14.200138,-3.2911668,0,0.0,0.0,0.0,0.0
0.557037354,0.17487784,0.113252155,-0.978055,-0.017605525,0.9935635,0.11190003,0.9844327,-0.002349663,0.1757461,0.28186703,0.116739504,-0.95232505,-0.03180181,0.9931616,0.11233278,0.9589263,-0.0013772509,0.28365204,0.039582253,0.023443628,0.030367494,9.653873,-0.023042053,1.7234602,-0.0010681152,-0.012786865,0.0095825195,-27.602917,14.200138,-3.2911668,0,0.0,0.0,0.0,0.0
0.561584473,0.17488976,0.11229272,-0.9781635,-0.017442957,0.99367225,0.110954426,0.9844334,-0.0023427326,0.17574185,0.27975777,0.11666978,-0.95295525,-0.031514317,0.9931698,0.112341605,0.9595533,-0.0013966991,0.28152373,0.040447235,0.015096001,0.036210656,9.65388,-0.022974087,1.7234185,-0.012771606,-0.014923096,0.01171875,-27.640846,14.170216,-3.3152833,0,0.0,0.0,0.0,0.0
0.56616211,0.17488886,0.11229083,-0.9781639,-0.017449038,0.99367267,0.11095143,0.9844336,-0.0023361489,0.17574164,0.2776899,0.11658226,-0.9535706,-0.031227462,0.99318004,0.112331085,0.9601631,-0.0014156197,0.27943662,0.04007721,0.014587631,0.044597626,9.65388,-0.02290952,1.7234162,0.004257202,-0.01171875,-0.004272461,-27.640846,14.170216,-3.3152833,0,0.0,0.0,0.0,0.0
0.570709229,0.17488815,0.1122894,-0.9781642,-0.01745336,0.9936728,0.110949196,0.9844336,-0.0023314499,0.17574143,0.27566198,0.11649645,-0.9541694,-0.030946631,0.9931901,0.11232001,0.9607564,-0.0014340304,0.2773899,0.04116249,0.00933173,0.04442537,9.65388,-0.02286344,1.7234141,-0.007461548,-0.014923096,0.0053253174,-27.640846,14.170216,-3.3152833,0,0.0,0.0,0.0,0.0
0.575286866,0.17485715,0.11405185,-0.97796583,-0.017765772,0.9934721,0.11268376,0.9844336,-0.0023292422,0.17574193,0.2736734,0.11641233,-0.95475185,-0.030671692,0.9931999,0.11230844,0.9613335,-0.0014519788,0.27538294,0.04410839,0.004121186,0.044733167,9.65388,-0.022841789,1.723419,0.01171875,-0.0032043457,0.007446289,-27.632019,14.258289,-3.277693,0,0.0,0.0,0.0,0.0
0.579833985,0.17485714,0.1140518,-0.97796583,-0.01777007,0.9934721,0.11268292,0.9844334,-0.0023248882,0.17574237,0.27172223,0.11636513,-0.95531476,-0.030412106,0.9932054,0.11233035,0.9618951,-0.001469524,0.2734149,0.046907425,0.0094433855,0.04430759,9.65388,-0.022799095,1.7234236,0.004257202,-0.010665894,-0.004272461,-27.632019,14.258289,-3.277693,0,0.0,0.0,0.0,0.0
0.584411622,0.17485955,0.11405675,-0.9779648,-0.01777379,0.9934715,0.112687305,0.98443294,-0.002322309,0.1757452,0.26980904,0.11631886,-0.9558624,-0.030157832,0.9932108,0.1123512,0.96244144,-0.0014866313,0.27148518,0.04406643,0.004459955,0.04723215,9.6538725,-0.022773795,1.7234509,-0.0053253174,-0.012786865,0.010650635,-27.632019,14.258289,-3.277693,0,0.0,0.0,0.0,0.0
0.588958741,0.17481492,0.1165625,-0.9776773,-0.018217351,0.9931807,0.11515349,0.9844328,-0.0023198575,0.17574626,0.26793313,0.11627362,-0.95639545,-0.02990877,0.9932161,0.11237117,0.9629732,-0.001503345,0.2695931,0.038728714,0.004993031,0.040927768,9.6538725,-0.02274976,1.7234615,-0.0021362305,-0.01171875,0.0021209717,-27.695349,14.198527,-3.259301,0,0.0,0.0,0.0,0.0
0.593536377,0.17481726,0.1165673,-0.9776763,-0.018220097,0.9931801,0.11515789,0.98443234,-0.00231823,0.1757489,0.26506928,0.11624977,-0.95719606,-0.029699644,0.993219,0.112400204,0.9637719,-0.0013654623,0.26672444,0.044677734,0.0021539647,0.044739842,9.653865,-0.022733793,1.7234869,0.0010681152,-0.015991211,-0.0021362305,-27.695349,14.198527,-3.259301,0,0.0,0.0,0.0,0.0
0.598083497,0.17481874,0.1165703,-0.97767574,-0.018221568,0.9931798,0.115160674,0.98443204,-0.0023174605,0.17575054,0.26328412,0.116256125,-0.95768785,-0.029473225,0.9932183,0.11246658,0.964268,-0.0013845178,0.26492506,0.045054436,-2.9595755E-4,0.039988995,9.653865,-0.022726253,1.7235034,-0.0021362305,0.003189087,0.0,-27.695349,14.198527,-3.259301,0,0.0,0.0,0.0,0.0
0.602630616,0.1748472,0.115288906,-0.97782254,-0.017998798,0.9933293,0.11389879,0.984431,-0.0023152516,0.17575589,0.26153383,0.116262406,-0.95816654,-0.029251233,0.9932175,0.112531245,0.96475095,-0.0014031767,0.2631608,0.043265343,0.0031078197,0.04932463,9.653857,-0.022704596,1.7235563,-0.0063934326,-0.004272461,0.004257202,-27.79137,14.2134695,-3.293632,0,0.0,0.0,0.0,0.0
0.607208252,0.17484973,0.11529414,-0.97782147,-0.01800211,0.9933287,0.11390353,0.98443055,-0.002313154,0.17575881,0.25981846,0.11624294,-0.95863545,-0.029026888,0.9932198,0.11256946,0.96522117,-0.0014214182,0.261431,0.04731083,3.5614707E-4,0.054384828,9.653851,-0.02268402,1.7235845,-0.004257202,-0.0032043457,-0.0032043457,-27.79137,14.2134695,-3.293632,0,0.0,0.0,0.0,0.0
0.611755372,0.17485356,0.115301974,-0.9778199,-0.01800592,0.9933278,0.1139108,0.9844297,-0.0023111606,0.175763,0.25813672,0.11622397,-0.95909196,-0.028807072,0.993222,0.11260655,0.9656789,-0.0014392529,0.25973514,0.046606064,-3.422033E-4,0.056783438,9.653844,-0.022664474,1.7236258,0.0053253174,-0.0234375,-0.0053253174,-27.79137,14.2134695,-3.293632,0,0.0,0.0,0.0,0.0
0.616333008,0.17492883,0.11135658,-0.9782635,-0.017314669,0.9937777,0.11002644,0.98442876,-0.0023084884,0.1757685,0.25648797,0.11620553,-0.95953643,-0.028591711,0.9932241,0.11264263,0.9661245,-0.001456691,0.25807256,0.04761219,0.0016196407,0.057849765,9.653837,-0.022638276,1.7236803,-0.007461548,-0.017044067,0.007446289,-27.72123,14.173878,-3.3435652,0,0.0,0.0,0.0,0.0
0.620880127,0.1749309,0.111360826,-0.97826266,-0.01731671,0.99377733,0.110030405,0.9844284,-0.002307429,0.17577079,0.25487372,0.11610858,-0.9599782,-0.028360432,0.9932354,0.11260133,0.9665584,-0.0014737268,0.25644252,0.047132492,-0.002726173,0.048357844,9.6538315,-0.022627883,1.7237023,-0.009567261,-0.009597778,0.0053253174,-27.72123,14.173878,-3.3435652,0,0.0,0.0,0.0,0.0
0.625457764,0.17493232,0.11136374,-0.97826207,-0.01731684,0.9937769,0.11003333,0.9844281,-0.0023079787,0.17577219,0.25329113,0.11601365,-0.96040845,-0.028134046,0.9932465,0.11256049,0.9669809,-0.0014904009,0.25484446,0.048351288,-0.005402822,0.044375896,9.653826,-0.022633268,1.7237157,-0.008514404,-0.014923096,-0.0010681152,-27.72123,14.173878,-3.3435652,0,0.0,0.0,0.0,0.0
0.630004883,0.17497568,0.10850682,-0.97857535,-0.016815048,0.99409306,0.10722082,0.9844292,-0.002306245,0.17576668,0.25173947,0.11592068,-0.9608276,-0.027912393,0.99325734,0.1125201,0.96739244,-0.0015067525,0.2532777,0.047340393,-0.0031803176,0.037787676,9.653834,-0.02261626,1.7236612,-0.013839722,0.0084991455,-0.0032043457,-27.699379,14.163197,-3.3823805,0,0.0,0.0,0.0,0.0
0.63458252,0.17496975,0.10849464,-0.97857785,-0.016813861,0.9940944,0.10720863,0.9844302,-0.0023045975,0.17576066,0.25021964,0.11577246,-0.9612423,-0.02768101,0.9932746,0.112424836,0.96779335,-0.0015227423,0.2517415,0.05212593,-0.0034622792,0.036803126,9.653843,-0.022600101,1.7236018,0.0063934326,-0.02557373,-0.0053253174,-27.699379,14.163197,-3.3823805,0,0.0,0.0,0.0,0.0
0.639129639,0.17496714,0.10848929,-0.97857887,-0.01681194,0.9940949,0.10720354,0.98443073,-0.0023052876,0.17575787,0.2487294,0.11562695,-0.96164656,-0.02745457,0.9932915,0.1123308,0.9681839,-0.0015383795,0.2502353,0.050448418,-0.008257426,0.042063594,9.653851,-0.022606876,1.7235751,-0.0021362305,-0.021316528,-0.0010681152,-27.699379,14.163197,-3.3823805,0,0.0,0.0,0.0,0.0
0.643707276,0.17492545,0.11065988,-0.9783432,-0.017191285,0.99385566,0.10934073,0.9844316,-0.0023075002,0.17575306,0.2472683,0.11548426,-0.9620405,-0.02723296,0.9933081,0.11223811,0.96856433,-0.0015537177,0.24875858,0.054599762,-0.011839306,0.049955606,9.653858,-0.02262857,1.7235277,-0.011703491,-0.020248413,0.0,-27.678621,14.13512,-3.3500564,0,0.0,0.0,0.0,0.0
0.648254395,0.17492259,0.11065394,-0.97834444,-0.017188592,0.9938563,0.109335154,0.9844321,-0.0023088232,0.17574988,0.24583454,0.115387805,-0.9624194,-0.027026808,0.9933193,0.11218894,0.96893495,-0.0015687931,0.24731074,0.05591011,-0.0083077345,0.051932454,9.653866,-0.02264155,1.723497,0.0010681152,-0.024505615,0.0021209717,-27.678621,14.13512,-3.3500564,0,0.0,0.0,0.0,0.0
0.652832032,0.17491928,0.11064716,-0.97834575,-0.017184231,0.99385715,0.10932905,0.9844329,-0.0023116367,0.17574616,0.2444288,0.11529316,-0.9627887,-0.026824912,0.99333024,0.11214029,0.96929616,-0.0015835938,0.24589124,0.05547905,-0.012358595,0.048311234,9.6538725,-0.02266914,1.7234603,0.0010681152,-0.020248413,0.0021209717,-27.678621,14.13512,-3.3500564,0,0.0,0.0,0.0,0.0
0.657379151,0.17494637,0.10901562,-0.9785241,-0.016894335,0.9940373,0.107723445,0.98443294,-0.0023143098,0.17574494,0.24305056,0.11520027,-0.96314865,-0.026627153,0.993341,0.11209215,0.9696481,-0.0015981547,0.24449955,0.05723095,-0.010939579,0.052509665,9.6538725,-0.022695351,1.7234483,0.0053253174,-0.012786865,0.0053253174,-27.658901,14.126377,-3.3712285,0,0.0,0.0,0.0,0.0
0.66192627,0.17494546,0.10901376,-0.97852445,-0.016892161,0.9940375,0.10772195,0.9844332,-0.0023160714,0.17574382,0.24092206,0.11494101,-0.9637143,-0.026053341,0.9933706,0.111964926,0.97019476,-0.0018668451,0.24231948,0.059134483,-0.009121541,0.05051291,9.6538725,-0.022712622,1.7234368,0.0010681152,-0.012786865,0.004257202,-27.658901,14.126377,-3.3712285,0,0.0,0.0,0.0,0.0
0.666503907,0.17493905,0.10900057,-0.9785271,-0.016890535,0.994039,0.10770882,0.9844343,-0.002314632,0.17573729,0.23961337,0.11482249,-0.96405464,-0.025863575,0.99338424,0.11188745,0.97052383,-0.0018758297,0.24099787,0.05733776,-0.00838165,0.051062584,9.653887,-0.022698512,1.7233734,-0.0063934326,-0.01171875,-0.0063934326,-27.658901,14.126377,-3.3712285,0,0.0,0.0,0.0,0.0
0.671051026,0.17495565,0.107430026,-0.9786978,-0.016612114,0.9942099,0.10616312,0.9844361,-0.002315598,0.17572728,0.23833033,0.114706084,-0.9643864,-0.025677815,0.99339765,0.11181095,0.9708446,-0.0018846056,0.23970221,0.057538986,-0.00909248,0.055692434,9.653908,-0.022707995,1.7232758,0.0053253174,-0.028762817,-0.01171875,-27.640167,14.118072,-3.391342,0,0.0,0.0,0.0,0.0
0.675628663,0.17494465,0.10740743,-0.97870225,-0.016604453,0.9942124,0.106141515,0.98443824,-0.002318073,0.17571557,0.2370731,0.114560634,-0.9647136,-0.025488477,0.99341446,0.11170524,0.97115743,-0.0018932255,0.23843181,0.05365944,-0.01190705,0.059873343,9.653928,-0.022732263,1.7231609,-0.008514404,-0.028762817,0.004257202,-27.640167,14.118072,-3.391342,0,0.0,0.0,0.0,0.0
0.680175782,0.17492963,0.10737656,-0.9787083,-0.016596552,0.9942158,0.106111534,0.98444104,-0.002318868,0.17569986,0.23584029,0.114417635,-0.9650326,-0.025303053,0.9934309,0.11160092,0.97146237,-0.0019017224,0.23718616,0.05307865,-0.011962485,0.058383346,9.6539545,-0.022740059,1.7230067,-0.014892578,-0.021316528,-0.0010681152,-27.640167,14.118072,-3.391342,0,0.0,0.0,0.0,0.0
0.684753418,0.17494175,0.105716005,-0.9788869,-0.016300458,0.99439365,0.10447754,0.98444384,-0.0023211797,0.17568418,0.2346315,0.11427686,-0.96534395,-0.025121445,0.99344707,0.11149782,0.97175974,-0.0019100653,0.23596478,0.050984383,-0.011063531,0.062111497,9.65398,-0.022762723,1.7228526,0.008529663,-0.024505615,-0.0063934326,-27.68516,14.154965,-3.419071,0,0.0,0.0,0.0,0.0
0.689300538,0.17492205,0.105675586,-0.97889477,-0.016285999,0.99439794,0.10443901,0.98444754,-0.002326409,0.17566316,0.2346315,0.11427686,-0.96534395,-0.025121445,0.99344707,0.11149782,0.97175974,-0.0019100653,0.23596478,0.050946236,-0.011012245,0.06231737,9.654018,-0.02281401,1.7226467,0.008529663,-0.024505615,-0.0063934326,-27.68516,14.154965,-3.419071,0,0.0,0.0,0.0,0.0
0.693725586,0.17490116,0.105632715,-0.9789031,-0.016271235,0.99440247,0.10439805,0.98445153,-0.002331378,0.17564093,0.23228513,0.11393642,-0.96595144,-0.024753727,0.99348617,0.11123162,0.9723327,-0.0019265525,0.23359242,0.05000782,-0.011786098,0.06558359,9.654055,-0.02286273,1.7224282,-0.008514404,-0.02557373,0.013824463,-27.68516,14.154965,-3.419071,0,0.0,0.0,0.0,0.0
0.698120118,0.17480421,0.10984558,-0.97845674,-0.017003167,0.993946,0.10854681,0.9844564,-0.0023375757,0.17561366,0.23114608,0.113770425,-0.96624416,-0.024575545,0.9935052,0.11110128,0.9726086,-0.0019346491,0.2324408,0.052214622,-0.012506759,0.06036651,9.654104,-0.022923512,1.722161,0.017044067,-0.019180298,0.0010681152,-27.78169,14.136228,-3.3762913,0,0.0,0.0,0.0,0.0
0.702514649,0.17477368,0.10978261,-0.9784692,-0.016986532,0.9939529,0.10848572,0.9844621,-0.0023396518,0.17558163,0.23002684,0.11369194,-0.9665204,-0.024420569,0.9935141,0.11105525,0.9728778,-0.0019427076,0.23131134,0.05478096,-0.010833906,0.061695457,9.65416,-0.022943871,1.721847,-0.015960693,-0.022369385,0.0,-27.78169,14.136228,-3.3762913,0,0.0,0.0,0.0,0.0
0.70690918,0.17474405,0.10972143,-0.9784813,-0.01697042,0.99395955,0.10842638,0.98446757,-0.0023416241,0.17555054,0.22892903,0.11361378,-0.96679026,-0.024268424,0.99352306,0.11100873,0.97314054,-0.0019506463,0.23020351,0.053627968,-0.010681309,0.056739926,9.654212,-0.022963211,1.7215419,0.0010681152,-0.034088135,-0.015975952,-27.78169,14.136228,-3.3762913,0,0.0,0.0,0.0,0.0
0.711334229,0.17467177,0.111769244,-0.9782625,-0.01732588,0.9937315,0.11044303,0.9844743,-0.0023420202,0.17551333,0.22785221,0.11353595,-0.9670537,-0.024119055,0.99353194,0.11096179,0.97339696,-0.001958466,0.22911684,0.049405098,-0.0074395724,0.057374954,9.654276,-0.022967089,1.7211765,-0.0010681152,-0.018112183,-0.0021362305,-27.792675,14.163287,-3.3442717,0,0.0,0.0,0.0,0.0
0.71572876,0.17462932,0.111681774,-0.97828007,-0.017303705,0.9937413,0.11035803,0.98448217,-0.0023438742,0.17546883,0.22679502,0.113500625,-0.9673064,-0.023982074,0.993536,0.11095548,0.97364724,-0.001966137,0.228051,0.049689293,-0.007696256,0.057588458,9.654352,-0.022985268,1.7207401,-0.0021362305,-0.040481567,-0.004272461,-27.792675,14.163287,-3.3442717,0,0.0,0.0,0.0,0.0
0.720123291,0.17458226,0.11158486,-0.9782995,-0.017280132,0.9937521,0.11026367,0.98449093,-0.0023449347,0.17541969,0.22575775,0.11346425,-0.9675533,-0.023847325,0.9935401,0.11094745,0.97389156,-0.0019736914,0.2270052,0.047309875,-0.0060327556,0.05570388,9.65444,-0.022995673,1.7202584,0.004257202,-0.047943115,0.0063934326,-27.792675,14.163287,-3.3442717,0,0.0,0.0,0.0,0.0
0.724517823,0.17453456,0.11109045,-0.97836417,-0.017186737,0.9938075,0.10977798,0.98450106,-0.0023451648,0.17536306,0.22474019,0.11342666,-0.96779454,-0.023714758,0.9935444,0.11093756,0.9741301,-0.0019811161,0.22597924,0.045752525,-0.005895151,0.050180554,9.654538,-0.022997927,1.719703,-0.019165039,-0.031967163,-0.0032043457,-27.758327,14.197921,-3.339793,0,0.0,0.0,0.0,0.0
0.728942872,0.17447537,0.11096901,-0.9783886,-0.017160634,0.9938212,0.10965913,0.98451203,-0.002343049,0.17530163,0.22111608,0.11320282,-0.9686551,-0.023705555,0.99357074,0.110703304,0.9749593,-0.0015157714,0.222378,0.045454025,-0.006026875,0.051712155,9.654647,-0.02297718,1.7191006,0.004257202,-0.040481567,-0.0063934326,-27.758327,14.197921,-3.339793,0,0.0,0.0,0.0,0.0
0.733337403,0.17441331,0.11084164,-0.9784141,-0.01713384,0.9938354,0.10953437,0.9845235,-0.0023402616,0.17523724,0.22018816,0.113158144,-0.9688718,-0.02357325,0.9935758,0.110686116,0.9751725,-0.001532317,0.22144112,0.046360016,-0.0035267398,0.05322659,9.6547575,-0.022949843,1.7184689,-0.0021362305,-0.041549683,-0.012786865,-27.758327,14.197921,-3.339793,0,0.0,0.0,0.0,0.0
0.737731934,0.17433856,0.11110819,-0.9783971,-0.017174602,0.9938054,0.10979768,0.98453593,-0.002338392,0.1751669,0.21927734,0.11311182,-0.96908367,-0.023442982,0.99358106,0.11066665,0.97538084,-0.0015484759,0.22052148,0.046248436,-0.003298521,0.046614766,9.654878,-0.022931501,1.7177788,-0.0053253174,-0.03515625,0.0010681152,-27.734623,14.221896,-3.326917,0,0.0,0.0,0.0,0.0
0.742126465,0.17426987,0.11096757,-0.9784253,-0.017143719,0.99382126,0.10966018,0.9845487,-0.002336616,0.17509551,0.21838312,0.11307174,-0.96929026,-0.02331644,0.9935856,0.11065265,0.9755845,-0.0015642743,0.21961875,0.052599907,-0.006193746,0.052110314,9.654999,-0.022914076,1.7170781,-0.007461548,-0.034088135,0.0,-27.734623,14.221896,-3.326917,0,0.0,0.0,0.0,0.0
0.746551514,0.17420451,0.11083384,-0.9784522,-0.017115135,0.9938362,0.109529264,0.9845607,-0.0023341505,0.17502768,0.21750523,0.113029666,-0.9694925,-0.023191728,0.99359035,0.110636085,0.9757836,-0.0015797211,0.21873246,0.050732613,-0.0056002457,0.049430013,9.655114,-0.022889894,1.7164124,0.003189087,-0.03303528,-0.0063934326,-27.734623,14.221896,-3.326917,0,0.0,0.0,0.0,0.0
0.750946045,0.17415078,0.110272095,-0.97852516,-0.01701039,0.9938987,0.108977176,0.98457205,-0.0023333642,0.174964,0.21664335,0.11298575,-0.9696906,-0.02306886,0.99359536,0.11061713,0.97597826,-0.0015948097,0.21786228,0.048480034,-0.009330243,0.049988985,9.655224,-0.022882178,1.7157876,0.0021362305,-0.019180298,0.0021209717,-27.739035,14.163954,-3.3406248,0,0.0,0.0,0.0,0.0
0.755340577,0.17409334,0.11015405,-0.9785487,-0.016983831,0.9939118,0.108861856,0.98458266,-0.0023326168,0.17490424,0.21579757,0.11293148,-0.9698855,-0.022945939,0.99360144,0.1105875,0.9761685,-0.0016095808,0.2170081,0.04657936,-0.008804223,0.048836112,9.655328,-0.022874849,1.7152017,0.0,-0.022369385,-0.007461548,-27.739035,14.163954,-3.3406248,0,0.0,0.0,0.0,0.0
0.759735108,0.17403951,0.11004344,-0.9785707,-0.016958198,0.99392396,0.108753935,0.9845926,-0.0023326844,0.17484817,0.21496743,0.112875946,-0.97007626,-0.022824915,0.99360776,0.11055605,0.9763545,-0.0016240415,0.2161697,0.04142189,-0.009493923,0.04893112,9.655427,-0.022875516,1.7146521,-0.0021362305,-0.018112183,-0.009597778,-27.739035,14.163954,-3.3406248,0,0.0,0.0,0.0,0.0
0.764160157,0.17401989,0.10806475,-0.9787947,-0.016606648,0.9941411,0.10680659,0.9846021,-0.0023319707,0.17479491,0.21415274,0.11281931,-0.97026306,-0.022705784,0.99361414,0.11052298,0.9765363,-0.0016382143,0.21534684,0.03987503,-0.0072843023,0.046866655,9.65552,-0.02286852,1.7141299,-0.009567261,-0.009597778,-0.012786865,-27.734224,14.207557,-3.3622684,0,0.0,0.0,0.0,0.0
0.768554688,0.17397182,0.107966326,-0.9788141,-0.016585441,0.9941518,0.10671027,0.9846109,-0.0023305144,0.17474505,0.213354,0.112724245,-0.9704501,-0.0225805,0.9936249,0.11045183,0.976714,-0.0016520894,0.21453921,0.037446976,-0.005909955,0.045855284,9.65561,-0.022854244,1.7136415,0.007461548,0.004257202,-0.0063934326,-27.734224,14.207557,-3.3622684,0,0.0,0.0,0.0,0.0
0.772949219,0.17392541,0.107871294,-0.9788328,-0.016564958,0.9941621,0.10661727,0.9846195,-0.0023291314,0.17469695,0.21257009,0.112629116,-0.9706331,-0.022457346,0.9936357,0.11038007,0.97688776,-0.0016656577,0.21374658,0.035859108,-0.005323015,0.042268515,9.655695,-0.022840682,1.7131698,0.014907837,-0.007461548,0.0021209717,-27.734224,14.207557,-3.3622684,0,0.0,0.0,0.0,0.0
0.777374268,0.17388709,0.10751606,-0.9788787,-0.01650077,0.99420047,0.106267765,0.98462725,-0.0023263383,0.17465273,0.2118008,0.11253398,-0.9708123,-0.022336293,0.99364644,0.11030778,0.9770576,-0.0016789272,0.2129687,0.03291416,-0.0016678851,0.04291618,9.655775,-0.022813303,1.712737,0.0,0.003189087,0.004257202,-27.711725,14.177263,-3.3655112,0,0.0,0.0,0.0,0.0
0.781768799,0.17384662,0.10743309,-0.978895,-0.01648288,0.9942096,0.106186576,0.98463476,-0.0023251635,0.17461075,0.21104603,0.11243365,-0.9709883,-0.022216234,0.99365777,0.11022988,0.97722363,-0.0016918755,0.2122054,0.036341667,-0.005123766,0.042094827,9.655851,-0.022801789,1.7123258,0.003189087,-0.004272461,0.0,-27.711725,14.177263,-3.3655112,0,0.0,0.0,0.0,0.0
0.78616333,0.17380394,0.10734561,-0.9789122,-0.016461601,0.99421895,0.1061014,0.9846426,-0.0023263812,0.17456627,0.21030542,0.11233368,-0.97116053,-0.02209829,0.9936691,0.110151835,0.977386,-0.0017045413,0.21145639,0.03671646,-0.00503161,0.042796135,9.655931,-0.022813737,1.7118901,-0.007461548,-0.0032043457,0.0053253174,-27.711725,14.177263,-3.3655112,0,0.0,0.0,0.0,0.0
0.790557862,0.1737275,0.10901183,-0.9787416,-0.016746385,0.9940377,0.10774301,0.9846514,-0.0023275393,0.17451726,0.20957865,0.11223395,-0.97132915,-0.021982338,0.9936803,0.110073544,0.97754467,-0.001716978,0.21072134,0.040416718,-0.004226135,0.03945923,9.656015,-0.022825088,1.7114091,-0.020217896,-0.02557373,0.0063934326,-27.672422,14.166413,-3.3340306,0,0.0,0.0,0.0,0.0
0.794982911,0.17367561,0.10890548,-0.9787627,-0.016720036,0.99404943,0.10763955,0.98466104,-0.002329417,0.17446305,0.20705453,0.11333058,-0.9717431,-0.022021329,0.993556,0.11118233,0.9780815,-0.0016217304,0.20821595,0.03841114,-0.009917691,0.04378581,9.65611,-0.022843502,1.7108774,-0.017028809,-0.027709961,-0.0053253174,-27.672422,14.166413,-3.3340306,0,0.0,0.0,0.0,0.0
0.799377442,0.17361741,0.108786255,-0.9787863,-0.016691593,0.9940624,0.10752335,0.9846717,-0.0023304226,0.17440236,0.20638958,0.1132421,-0.97189486,-0.02191271,0.9935661,0.111113824,0.9782245,-0.0016358842,0.20754313,0.042236328,-0.007192498,0.043676257,9.656215,-0.022853365,1.7102823,0.0095825195,-0.043685913,-0.004272461,-27.672422,14.166413,-3.3340306,0,0.0,0.0,0.0,0.0
0.803771973,0.17355421,0.1086999,-0.9788071,-0.016667005,0.99407196,0.10743986,0.98468333,-0.0023328562,0.17433706,0.2057368,0.11315299,-0.9720436,-0.021805728,0.99357617,0.11104428,0.97836435,-0.001649775,0.20688257,0.041306496,-0.008419022,0.052506328,9.656329,-0.022877231,1.709642,-0.003189087,-0.045806885,-0.0021362305,-27.706877,14.174035,-3.3386853,0,0.0,0.0,0.0,0.0
0.808166504,0.17348123,0.10855028,-0.97883666,-0.016634863,0.9940883,0.10729341,0.9846967,-0.0023305784,0.17426136,0.20509571,0.113063954,-0.9721894,-0.021700436,0.9935863,0.110974394,0.9785013,-0.0016634365,0.20623383,0.03992176,-0.0019685589,0.055042982,9.65646,-0.02285489,1.7088996,-0.028747559,-0.051132202,0.0,-27.706877,14.174035,-3.3386853,0,0.0,0.0,0.0,0.0
0.812591553,0.17339644,0.10837648,-0.97887087,-0.016597083,0.99410725,0.10712339,0.9847123,-0.002328414,0.1741734,0.20446587,0.112973705,-0.97233266,-0.021596603,0.99359655,0.11090292,0.97863543,-0.0016767794,0.20559642,0.03977394,-3.9002672E-4,0.049230695,9.656613,-0.022833668,1.7080371,0.0053253174,-0.071380615,-0.01171875,-27.706877,14.174035,-3.3386853,0,0.0,0.0,0.0,0.0
0.816986084,0.17333138,0.10651876,-0.9790862,-0.016268568,0.9943079,0.1052947,0.9847292,-0.002322547,0.1740777,0.20384693,0.11288179,-0.9724732,-0.021494085,0.993607,0.11082941,0.9787668,-0.001689812,0.20497002,0.040337563,0.004663348,0.049574494,9.6567745,-0.022776121,1.707098,0.007461548,-0.0703125,0.003189087,-27.685745,14.163346,-3.360426,0,0.0,0.0,0.0,0.0
0.821380616,0.17322707,0.1063049,-0.9791281,-0.016226694,0.994331,0.10508467,0.98474824,-0.0023154945,0.17396997,0.20323904,0.112754576,-0.9726152,-0.021386007,0.9936214,0.110720955,0.9788956,-0.0017024669,0.20435403,0.040362358,0.0077741435,0.04216492,9.656959,-0.022706956,1.706041,0.0053253174,-0.05859375,-0.0063934326,-27.685745,14.163346,-3.360426,0,0.0,0.0,0.0,0.0
0.825775147,0.17311302,0.10607117,-0.97917354,-0.016181532,0.9943559,0.104855016,0.98476905,-0.0023072383,0.17385232,0.20264113,0.11262563,-0.9727549,-0.02127925,0.993636,0.11061043,0.97902185,-0.0017147275,0.2037481,0.045384407,0.006165495,0.038388133,9.657163,-0.02262599,1.7048873,-0.009567261,-0.069244385,-0.0021362305,-27.685745,14.163346,-3.360426,0,0.0,0.0,0.0,0.0
0.830200196,0.17291014,0.11064468,-0.97870314,-0.016974417,0.9938574,0.10935899,0.98479134,-0.0022963611,0.17372614,0.20205286,0.112494595,-0.97289246,-0.021173717,0.99365085,0.11049746,0.97914577,-0.0017265776,0.20315193,0.05156994,0.0074799927,0.02752018,9.657379,-0.022519318,1.7036494,0.0010681152,-0.06391907,-0.012786865,-27.638815,14.126261,-3.2860172,0,0.0,0.0,0.0,0.0
0.834594727,0.17278503,0.11038806,-0.97875416,-0.016926346,0.9938858,0.10910657,0.98481405,-0.00228525,0.17359707,0.20147172,0.1124576,-0.97301716,-0.021088894,0.993655,0.110476196,0.9792673,-0.0017379732,0.202565,0.052163124,0.006806922,0.022313595,9.657599,-0.022410352,1.7023833,0.015975952,-0.050079346,-0.007461548,-27.638815,14.126261,-3.2860172,0,0.0,0.0,0.0,0.0
0.838989258,0.17265873,0.11012897,-0.97880566,-0.016877998,0.9939147,0.1088517,0.9848371,-0.0022739163,0.17346682,0.20089972,0.112416215,-0.97314024,-0.021004695,0.9936596,0.11045029,0.9793866,-0.0017489188,0.20198722,0.051994324,0.005201623,0.016962886,9.6578245,-0.022299204,1.7011058,-0.008514404,-0.031967163,-0.0053253174,-27.638815,14.126261,-3.2860172,0,0.0,0.0,0.0,0.0
0.843414307,0.17250325,0.11172122,-0.97865254,-0.017153043,0.9937369,0.11041972,0.9848596,-0.0022608922,0.17333925,0.20033662,0.11237049,-0.9732616,-0.020921106,0.9936648,0.11041979,0.97950375,-0.0017594188,0.20141837,0.052783966,0.011075575,0.007608056,9.658046,-0.022171486,1.6998549,0.007461548,-0.029830933,-0.0063934326,-27.719734,14.180675,-3.2672088,0,0.0,0.0,0.0,0.0
0.847808838,0.17238249,0.11147375,-0.97870207,-0.017109815,0.99376476,0.110175766,0.98488146,-0.002246963,0.17321497,0.19978152,0.11235751,-0.97337717,-0.020845601,0.9936663,0.11042102,0.9796187,-0.0017694482,0.20085832,0.05687809,0.013768103,-5.31435E-4,9.658263,-0.022034897,1.6986367,-0.0021362305,-0.020248413,-0.01171875,-27.719734,14.180675,-3.2672088,0,0.0,0.0,0.0,0.0
0.85220337,0.17226405,0.111231044,-0.97875065,-0.017068516,0.99379206,0.10993631,0.98490286,-0.0022322536,0.17309318,0.19923499,0.11233984,-0.9734912,-0.020770602,0.9936682,0.11041733,0.9797316,-0.0017789984,0.20030685,0.053824425,0.016551072,-0.009184003,9.65847,-0.02189064,1.6974419,0.0095825195,-0.017044067,-0.0063934326,-27.719734,14.180675,-3.2672088,0,0.0,0.0,0.0,0.0
0.856597901,0.1720679,0.11577307,-0.9782583,-0.017854642,0.9932732,0.11440953,0.98492324,-0.0022197578,0.17297752,0.19869713,0.112317674,-0.9736037,-0.02069617,0.9936707,0.1104089,0.9798424,-0.0017880636,0.19976407,0.057866096,0.011548711,-0.008305907,9.658667,-0.021768091,1.696307,-0.007461548,-0.008529663,-0.01171875,-27.778679,14.268226,-3.197461,0,0.0,0.0,0.0,0.0
0.86102295,0.17195791,0.11554864,-0.9783042,-0.017811138,0.99329937,0.11418904,0.9849432,-0.0022109984,0.1728637,0.1978842,0.11137771,-0.97387725,-0.020680817,0.993777,0.10945137,0.98000723,-0.0015181225,0.19895616,0.060741425,0.0037141945,-0.017489076,9.65886,-0.021682188,1.6951905,0.015975952,-0.004272461,-0.0010681152,-27.778679,14.268226,-3.197461,0,0.0,0.0,0.0,0.0
0.865417481,0.17185329,0.11533525,-0.97834766,-0.01777059,0.9933241,0.113979265,0.9849622,-0.0022018994,0.17275563,0.19736676,0.11146114,-0.9739727,-0.020625759,0.99376756,0.10954685,0.9801127,-0.0015319801,0.19843566,0.061798096,0.004881939,-0.015679121,9.659043,-0.02159295,1.69413,0.003189087,0.0053253174,-0.004272461,-27.778679,14.268226,-3.197461,0,0.0,0.0,0.0,0.0
0.869812012,0.17172785,0.11654582,-0.97822624,-0.017976396,0.99318284,0.115171984,0.98498034,-0.0021932553,0.17265223,0.19685747,0.11153865,-0.9740669,-0.020570794,0.9937589,0.109636225,0.98021626,-0.0015453785,0.19792329,0.06304073,0.0047950074,-0.01586783,9.659218,-0.021508176,1.6931156,0.015975952,0.013824463,-0.0053253174,-27.798817,14.243825,-3.1830804,0,0.0,0.0,0.0,0.0
0.874206543,0.17163298,0.11635178,-0.97826606,-0.017938657,0.9932057,0.1149814,0.9849977,-0.0021858215,0.17255405,0.19635585,0.111638814,-0.9741567,-0.020521577,0.99374765,0.109747514,0.98031795,-0.001558336,0.19741917,0.060390472,0.0028050728,-0.013653159,9.659384,-0.021435268,1.692152,-0.0063934326,0.004257202,-0.004272461,-27.798817,14.243825,-3.1830804,0,0.0,0.0,0.0,0.0
0.878631592,0.1715477,0.11617735,-0.97830164,-0.01790668,0.99322605,0.11480971,0.98501307,-0.0021772026,0.172466,0.1958623,0.111733094,-0.9742452,-0.020472396,0.993737,0.10985278,0.98041767,-0.0015708855,0.19692305,0.05907631,0.0076017994,-1.0895729E-4,9.659534,-0.021350747,1.6912885,-0.003189087,0.0010528564,-0.008529663,-27.798817,14.243825,-3.1830804,0,0.0,0.0,0.0,0.0
0.883026123,0.17144337,0.1173607,-0.97817874,-0.018112374,0.99308693,0.11597486,0.98502743,-0.0021659802,0.17238386,0.19537689,0.111822,-0.97433245,-0.020423384,0.99372697,0.1099525,0.98051554,-0.0015830118,0.19643506,0.05687046,0.013565551,0.004363537,9.6596775,-0.021240698,1.6904833,0.003189087,0.012756348,-0.0032043457,-27.81795,14.220644,-3.1694188,0,0.0,0.0,0.0,0.0
0.887420655,0.1713714,0.11721315,-0.978209,-0.0180864,0.99310446,0.11582945,0.9850405,-0.0021575752,0.17230967,0.19489908,0.111932814,-0.9744154,-0.020379947,0.9937145,0.11007341,0.98061156,-0.0015946713,0.19595525,0.052866936,0.011592563,0.0025889874,9.659806,-0.021158276,1.6897559,-0.015960693,0.0053253174,-0.0021362305,-27.81795,14.220644,-3.1694188,0,0.0,0.0,0.0,0.0
0.891815186,0.17130409,0.11707521,-0.9782374,-0.018059248,0.9931208,0.11569401,0.9850527,-0.0021526245,0.17223993,0.19442932,0.11203845,-0.9744971,-0.020336684,0.99370253,0.11018898,0.9807056,-0.0016059295,0.1954834,0.055288315,0.014296627,0.0013746023,9.659928,-0.021109732,1.6890725,-0.025558472,0.02128601,0.0010681152,-27.81795,14.220644,-3.1694188,0,0.0,0.0,0.0,0.0
0.896240235,0.17128566,0.11419621,-0.9785809,-0.017558469,0.993456,0.112858735,0.985065,-0.0021486992,0.17216985,0.19396748,0.11213921,-0.9745776,-0.020293571,0.9936912,0.11029954,0.980798,-0.0016168634,0.19501948,0.057103157,0.01926722,2.5844574E-4,9.660051,-0.021071244,1.6883857,0.014907837,0.0053253174,0.02128601,-27.863056,14.225554,-3.2169416,0,0.0,0.0,0.0,0.0
0.900634766,0.17122293,0.11406749,-0.9786068,-0.017532483,0.9934706,0.11273244,0.98507625,-0.0021449707,0.17210484,0.1935147,0.11218035,-0.97466284,-0.020239934,0.99368656,0.11035137,0.98088855,-0.0016275002,0.19456348,0.053806305,0.018004788,0.0049290657,9.660161,-0.02103468,1.687748,-0.012771606,-0.0138549805,0.013824463,-27.863056,14.225554,-3.2169416,0,0.0,0.0,0.0,0.0
0.905029297,0.17116193,0.11394225,-0.97863203,-0.017506365,0.993485,0.11260974,0.98508734,-0.002142206,0.1720415,0.1930697,0.1122181,-0.9747467,-0.020186756,0.9936822,0.11039964,0.9809773,-0.0016378496,0.19411524,0.05306053,0.01537649,0.002198577,9.660273,-0.021007573,1.6871275,-0.004257202,-0.0032043457,0.0010681152,-27.863056,14.225554,-3.2169416,0,0.0,0.0,0.0,0.0
0.909454346,0.17105156,0.11666025,-0.978331,-0.017972201,0.9931695,0.115287386,0.9850981,-0.0021373238,0.17197984,0.19263224,0.112252586,-0.9748293,-0.020134017,0.99367833,0.11044447,0.9810644,-0.0016479368,0.19367458,0.05402851,0.020518156,-0.0030138493,9.660378,-0.020959696,1.6865227,-0.011703491,0.0,0.01171875,-27.82519,14.239145,-3.1670258,0,0.0,0.0,0.0,0.0
0.913848877,0.17099501,0.11654448,-0.97835475,-0.017949264,0.9931831,0.11517373,0.9851083,-0.0021333857,0.17192125,0.19220133,0.11234076,-0.97490424,-0.02009279,0.9936684,0.11054174,0.9811498,-0.0016577244,0.19324161,0.059018135,0.018466856,-6.4730644E-5,9.66048,-0.02092108,1.6859483,0.0010681152,0.0074310303,0.0053253174,-27.82519,14.239145,-3.1670258,0,0.0,0.0,0.0,0.0
0.918243409,0.17094319,0.1164384,-0.9783765,-0.01793063,0.99319565,0.11506919,0.9851177,-0.0021273876,0.17186785,0.19177786,0.11242486,-0.9749779,-0.0200518,0.99365884,0.11063478,0.9812335,-0.0016672376,0.19281608,0.059687614,0.023199184,0.0058261156,9.660576,-0.020862268,1.6854254,-0.0053253174,0.0010528564,0.018096924,-27.82519,14.239145,-3.1670258,0,0.0,0.0,0.0,0.0
0.92263794,0.17081462,0.120786466,-0.97787166,-0.018676516,0.9926762,0.119352706,0.98512614,-0.0021239466,0.17181945,0.19136186,0.11250514,-0.9750504,-0.020011153,0.9936497,0.11072385,0.9813155,-0.0016764406,0.19239801,0.059135437,0.019337656,0.026244879,9.660659,-0.020828525,1.6849508,0.01171875,-0.0032043457,0.010650635,-27.825073,14.234128,-3.102287,0,0.0,0.0,0.0,0.0
0.927062989,0.17076899,0.12069308,-0.97789115,-0.018656375,0.99268764,0.119261324,0.9851345,-0.002122234,0.17177197,0.18954049,0.11372291,-0.9752648,-0.019615097,0.99351025,0.11203832,0.981677,-0.0021058838,0.19054112,0.054060936,0.020233108,0.03392613,9.660738,-0.020811725,1.6844847,-0.017028809,-0.022369385,0.003189087,-27.825073,14.234128,-3.102287,0,0.0,0.0,0.0,0.0
0.93145752,0.17071909,0.120590866,-0.9779125,-0.018634092,0.99270004,0.119161345,0.98514354,-0.0021206066,0.17171995,0.1891655,0.11386237,-0.97532135,-0.019598564,0.9934943,0.112182766,0.98174965,-0.0021062107,0.1901664,0.052099228,0.016296342,0.03817773,9.660828,-0.020795766,1.6839747,-0.013839722,-0.024505615,0.007446289,-27.825073,14.234128,-3.102287,0,0.0,0.0,0.0,0.0
0.935852051,0.17072815,0.11700919,-0.9783459,-0.018014485,0.99312854,0.11563353,0.9851535,-0.0021175041,0.17166288,0.18879697,0.113997,-0.975377,-0.01958178,0.99347883,0.11232234,0.98182094,-0.0021064987,0.18979807,0.055989265,0.021295149,0.030717373,9.660928,-0.020765347,1.6834155,-0.003189087,-0.042617798,-0.008529663,-27.851894,14.274222,-3.1531663,0,0.0,0.0,0.0,0.0
0.940246582,0.17066818,0.11688663,-0.97837096,-0.01799347,0.993143,0.11551265,0.9851643,-0.0021100454,0.17160113,0.18879697,0.113997,-0.975377,-0.01958178,0.99347883,0.11232234,0.98182094,-0.0021064987,0.18979807,0.05588627,0.021222,0.031323433,9.661031,-0.020692198,1.6828095,-0.003189087,-0.042617798,-0.008529663,-27.851894,14.274222,-3.1531663,0,0.0,0.0,0.0,0.0
0.944671631,0.17060004,0.11674737,-0.9783995,-0.017969778,0.99315935,0.11537526,0.98517644,-0.002101403,0.17153096,0.18807995,0.11411145,-0.9755022,-0.019520998,0.9934657,0.11244907,0.98195976,-0.0021066389,0.18907857,0.056900978,0.021948466,0.02567172,9.661151,-0.020607447,1.6821215,-0.0010681152,-0.030899048,-0.010650635,-27.851894,14.274222,-3.1531663,0,0.0,0.0,0.0,0.0
0.949066163,0.17055501,0.11525969,-0.97858375,-0.017714795,0.9933331,0.11390944,0.98518884,-0.002092415,0.17145975,0.18773085,0.11416417,-0.9755632,-0.01949094,0.99345964,0.11250777,0.9820271,-0.002106534,0.1887282,0.059293747,0.024307158,0.027051449,9.661272,-0.020519305,1.6814231,0.0138549805,-0.04475403,-0.0032043457,-27.886301,14.3033085,-3.1755617,0,0.0,0.0,0.0,0.0
0.953460694,0.17047995,0.11510649,-0.9786149,-0.017686374,0.99335104,0.11375872,0.98520243,-0.0020854326,0.17138225,0.18738778,0.114186086,-0.97562665,-0.019455839,0.99345714,0.11253607,0.98209333,-0.0021062517,0.18838331,0.05604458,0.026801974,0.029177904,9.661403,-0.020450829,1.6806626,-0.008514404,-0.0234375,0.0010681152,-27.886301,14.3033085,-3.1755617,0,0.0,0.0,0.0,0.0
0.957855225,0.17040403,0.11495145,-0.9786464,-0.017652655,0.993369,0.11360704,0.98521614,-0.0020833898,0.17130326,0.18705007,0.11420449,-0.9756893,-0.019420803,0.99345505,0.112560794,0.9821584,-0.0021058351,0.18804377,0.05079651,0.021556389,0.025025845,9.661534,-0.020430788,1.6798875,-0.012771606,-0.04901123,0.008514404,-27.886301,14.3033085,-3.1755617,0,0.0,0.0,0.0,0.0
0.962280274,0.17033209,0.114263915,-0.97873944,-0.017529247,0.99344826,0.11293046,0.98523074,-0.0020791152,0.17121905,0.18671764,0.11421942,-0.9757513,-0.019385736,0.9934533,0.11258198,0.9822224,-0.0021053862,0.1877095,0.052259445,0.02445043,0.02931118,9.6616745,-0.020388862,1.6790612,-0.009567261,-0.021316528,0.01171875,-27.847271,14.277154,-3.1795185,0,0.0,0.0,0.0,0.0
0.966674805,0.17025052,0.11409736,-0.978773,-0.017494982,0.9934674,0.11276718,0.98524547,-0.0020750542,0.17113446,0.18639034,0.114220314,-0.9758137,-0.019348662,0.9934532,0.11258925,0.98228526,-0.002104861,0.1873801,0.05747223,0.02432654,0.03534305,9.661816,-0.020349033,1.6782311,0.01171875,-0.050079346,-0.0021362305,-27.847271,14.277154,-3.1795185,0,0.0,0.0,0.0,0.0
0.971069336,0.17016731,0.113927454,-0.9788072,-0.017458236,0.99348694,0.112600945,0.98526055,-0.002072752,0.17104799,0.186068,0.11421786,-0.9758755,-0.019311592,0.9934535,0.112593114,0.9823471,-0.002104265,0.18705562,0.058579445,0.023267379,0.031077266,9.661963,-0.020326454,1.6773831,-0.012771606,-0.031967163,-0.0010681152,-27.847271,14.277154,-3.1795185,0,0.0,0.0,0.0,0.0
0.975494385,0.17003883,0.116202064,-0.9785622,-0.017835123,0.9932235,0.114843965,0.985276,-0.0020751555,0.17095903,0.18575042,0.11421205,-0.97593665,-0.019274479,0.99345416,0.11259357,0.9824079,-0.0021036346,0.18673591,0.059862137,0.015123878,0.022542596,9.662112,-0.020350019,1.6765102,-0.003189087,-0.022369385,0.007446289,-27.854977,14.171664,-3.1573374,0,0.0,0.0,0.0,0.0
0.979888916,0.16995719,0.116034,-0.97859627,-0.017794939,0.9932431,0.11468017,0.98529077,-0.0020766594,0.17087363,0.18543662,0.11425185,-0.97599167,-0.019246357,0.99344957,0.11263874,0.9824678,-0.002103065,0.18642087,0.05987549,0.015280923,0.02138567,9.662261,-0.020364774,1.6756734,-0.013839722,-0.020248413,0.0053253174,-27.854977,14.171664,-3.1573374,0,0.0,0.0,0.0,0.0
0.984283448,0.16987981,0.1158747,-0.97862864,-0.017755404,0.99326164,0.11452517,0.9853048,-0.002079566,0.17079248,0.18512742,0.1142875,-0.9760462,-0.01921792,0.99344546,0.11267975,0.9825266,-0.0021025368,0.18611038,0.06060791,0.0116138905,0.02028668,9.662402,-0.020393288,1.6748784,0.0,-0.009597778,0.014892578,-27.854977,14.171664,-3.1573374,0,0.0,0.0,0.0,0.0
0.988677979,0.16983292,0.11405023,-0.97885096,-0.017431509,0.9934727,0.11272947,0.98531866,-0.0020823288,0.17071247,0.18482286,0.11431925,-0.9761002,-0.019189186,0.9934418,0.11271684,0.98258454,-0.0021020772,0.18580446,0.06058407,0.010763878,0.012568474,9.662537,-0.020420376,1.6740934,0.008529663,-0.010665894,0.0095825195,-27.85337,14.187949,-3.1795242,0,0.0,0.0,0.0,0.0
0.993103028,0.16975792,0.113896094,-0.9788819,-0.017394312,0.99349034,0.11257931,0.9853322,-0.0020842522,0.17063403,0.1845235,0.11431387,-0.9761575,-0.019154,0.9934425,0.11271735,0.98264146,-0.0021016824,0.18550305,0.05720234,0.011146553,0.005259156,9.662672,-0.020439245,1.6733247,0.007461548,-0.007461548,0.015960693,-27.85337,14.187949,-3.1795242,0,0.0,0.0,0.0,0.0
0.997497559,0.16968526,0.11374667,-0.97891194,-0.017359093,0.9935076,0.112433605,0.9853454,-0.0020853023,0.17055812,0.18515247,0.114971615,-0.97596115,-0.019508358,0.99336684,0.11332109,0.98251617,-0.0019422802,0.18616724,0.060933113,0.01341668,0.0023999214,9.662801,-0.02044954,1.6725801,-0.009567261,0.014892578,-0.004272461,-27.85337,14.187949,-3.1795242,0,0.0,0.0,0.0,0.0
1.00189209,0.16963655,0.11229584,-0.9790879,-0.017101167,0.9936726,0.111005686,0.9853583,-0.002087077,0.17048359,0.18484369,0.114947125,-0.9760226,-0.019465063,0.9933697,0.113303736,0.9825752,-0.0019451405,0.18585557,0.063272476,0.01151141,-0.0038846731,9.6629305,-0.02046695,1.6718498,0.0138549805,0.018081665,0.004257202,-27.842842,14.230352,-3.191904,0,0.0,0.0,0.0,0.0
1.006286622,0.16957647,0.11217275,-0.9791124,-0.017068427,0.99368656,0.110886306,0.98536927,-0.0020917973,0.17042047,0.1845401,0.11489411,-0.9760862,-0.01941704,0.99337584,0.113258235,0.9826332,-0.0019479792,0.18554856,0.059286118,0.0116468975,0.0073081255,9.663038,-0.020513242,1.6712308,0.0053253174,0.02128601,-0.0032043457,-27.842842,14.230352,-3.191904,0,0.0,0.0,0.0,0.0
1.01071167,0.1695241,0.112065524,-0.9791337,-0.01703654,0.99369866,0.11078288,0.9853788,-0.002099316,0.17036508,0.18424125,0.114839695,-0.9761491,-0.019369304,0.9933821,0.11321127,0.9826902,-0.0019508556,0.18524632,0.05790043,0.009889627,0.006643653,9.663133,-0.020586977,1.6706878,0.003189087,0.017028809,0.018096924,-27.842842,14.230352,-3.191904,0,0.0,0.0,0.0,0.0
1.015106202,0.16950877,0.11010964,-0.97935826,-0.016691167,0.9939172,0.10885758,0.9853873,-0.0021056815,0.17031553,0.18394744,0.114784226,-0.976211,-0.019321894,0.99338853,0.11316315,0.9827462,-0.001953825,0.18494911,0.05491638,0.0108454935,0.01508069,9.663215,-0.020649394,1.6702017,0.007461548,0.022354126,0.01171875,-27.823914,14.261633,-3.2123625,0,0.0,0.0,0.0,0.0
1.019500733,0.16946775,0.1100259,-0.97937477,-0.016666949,0.9939265,0.10877669,0.98539484,-0.0021109506,0.17027228,0.18365936,0.11469076,-0.9762763,-0.019268006,0.9933993,0.113077596,0.98280114,-0.0019568622,0.18465693,0.05352497,0.011985501,0.024733901,9.663286,-0.020701062,1.6697772,-0.004257202,0.009567261,0.003189087,-27.823914,14.261633,-3.2123625,0,0.0,0.0,0.0,0.0
1.023895264,0.1694281,0.10994496,-0.9793907,-0.016642867,0.99393535,0.10869862,0.98540205,-0.002116733,0.1702304,0.18337601,0.11459749,-0.9763404,-0.019214714,0.99341005,0.11299213,0.9828551,-0.001959944,0.18436953,0.052913666,0.0111619225,0.020743728,9.663361,-0.020757776,1.6693671,0.015975952,0.0053253174,-0.010650635,-27.823914,14.261633,-3.2123625,0,0.0,0.0,0.0,0.0
1.028320313,0.16939813,0.10949525,-0.97944623,-0.016557386,0.993985,0.108256936,0.9854086,-0.0021214492,0.17019215,0.18309766,0.11450448,-0.9764036,-0.019162046,0.9934208,0.11290679,0.982908,-0.0019630797,0.18408716,0.052819252,0.011568947,0.02603662,9.6634245,-0.020804025,1.668992,-0.0053253174,-0.004272461,-0.004272461,-27.832788,14.228636,-3.2231007,0,0.0,0.0,0.0,0.0
1.032714844,0.16935953,0.10941625,-0.97946185,-0.016532758,0.99399376,0.108180925,0.98541564,-0.002128264,0.17015125,0.18282431,0.11440433,-0.97646654,-0.019108647,0.99343234,0.11281434,0.9829599,-0.001966247,0.18380968,0.05296135,0.009105276,0.024645448,9.663492,-0.02087085,1.6685907,-0.008514404,-0.018112183,0.003189087,-27.832788,14.228636,-3.2231007,0,0.0,0.0,0.0,0.0
1.037109375,0.1693176,0.10933044,-0.97947866,-0.016508479,0.9940032,0.10809793,0.9854232,-0.0021331818,0.17010711,0.1825556,0.114304595,-0.9765285,-0.01905585,0.9934438,0.112722196,0.9830108,-0.0019694874,0.18353689,0.05021572,0.0077070203,0.026248217,9.663565,-0.020919073,1.6681575,-0.008514404,-0.022369385,0.0053253174,-27.832788,14.228636,-3.2231007,0,0.0,0.0,0.0,0.0
1.041534424,0.1692921,0.10776157,-0.9796568,-0.016232494,0.99417436,0.1065534,0.9854322,-0.0021363746,0.17005514,0.18229139,0.114205144,-0.97658944,-0.019003645,0.9934552,0.112630226,0.9830609,-0.0019727612,0.18326864,0.051894188,0.0054066908,0.020207167,9.663656,-0.02095039,1.6676483,-0.019165039,-0.027709961,-0.01171875,-27.859224,14.215218,-3.2506206,0,0.0,0.0,0.0,0.0
1.045928955,0.16923653,0.10764754,-0.97967905,-0.01620691,0.9941869,0.10644197,0.9854422,-0.0021362957,0.16999735,0.18203191,0.114076324,-0.976653,-0.018946594,0.99347,0.11250928,0.9831101,-0.0019760332,0.1830046,0.055150032,0.009894046,0.02508521,9.663757,-0.020949623,1.6670822,0.020233154,-0.038360596,-0.008529663,-27.859224,14.215218,-3.2506206,0,0.0,0.0,0.0,0.0
1.050323487,0.16917375,0.10751878,-0.979704,-0.016175712,0.9942007,0.10631654,0.9854535,-0.002138555,0.16993183,0.18177658,0.113947794,-0.9767155,-0.018890211,0.99348474,0.112388514,0.9831584,-0.0019792384,0.18274477,0.057988167,0.0069976104,0.021683931,9.663869,-0.020971783,1.6664399,-0.015960693,-0.046875,-0.008529663,-27.859224,14.215218,-3.2506206,0,0.0,0.0,0.0,0.0
1.054718018,0.16916251,0.10389942,-0.9800964,-0.015555817,0.9945856,0.10275051,0.98546547,-0.0021353345,0.16986284,0.18152508,0.11381927,-0.97677726,-0.018834354,0.99349946,0.11226765,0.983206,-0.0019824246,0.1824888,0.057326317,0.0077837473,0.024265647,9.663982,-0.020940192,1.6657625,-0.014892578,-0.041549683,0.0010681152,-27.830475,14.238328,-3.294083,0,0.0,0.0,0.0,0.0
1.059143067,0.16909172,0.10375467,-0.980124,-0.0155258095,0.9946007,0.10260863,0.98547804,-0.0021330526,0.16978961,0.1812786,0.113621,-0.9768461,-0.018766388,0.99352217,0.11207808,0.98325276,-0.0019854829,0.18223657,0.053329468,0.014284667,0.02056837,9.664104,-0.02091781,1.6650442,0.010650635,-0.03729248,-0.019180298,-27.830475,14.238328,-3.294083,0,0.0,0.0,0.0,0.0
1.063537598,0.16901495,0.103597775,-0.98015374,-0.0154922325,0.9946169,0.10245503,0.9854917,-0.002131663,0.16971011,0.17908466,0.11353343,-0.9772609,-0.017560292,0.99352986,0.11220552,0.9836769,-0.0029333006,0.17991963,0.051433563,0.013764983,0.02170217,9.664235,-0.020904178,1.6642642,-0.004257202,-0.031967163,0.013824463,-27.830475,14.238328,-3.294083,0,0.0,0.0,0.0,0.0
1.067932129,0.16893953,0.10318001,-0.9802109,-0.015412555,0.9946605,0.102044664,0.98550594,-0.0021318204,0.16962771,0.17888378,0.11333483,-0.97732073,-0.017516943,0.99355257,0.11201093,0.9837143,-0.0029172676,0.17971572,0.05009651,0.011609602,0.023565054,9.664375,-0.020905722,1.6634561,0.0021362305,-0.047943115,0.003189087,-27.883883,14.215422,-3.3094327,0,0.0,0.0,0.0,0.0
1.072326661,0.1688553,0.10300723,-0.9802435,-0.01537326,0.99467826,0.10187591,0.98552096,-0.002132748,0.16954026,0.17868532,0.11313184,-0.9773805,-0.01747284,0.9935757,0.11181205,0.98375106,-0.0029015588,0.17951414,0.0545578,0.009809181,0.013213992,9.664522,-0.020914817,1.6625984,-0.004257202,-0.036224365,0.0021209717,-27.883883,14.215422,-3.3094327,0,0.0,0.0,0.0,0.0
1.076751709,0.16876954,0.102831274,-0.98027676,-0.015332566,0.99469644,0.101704165,0.9855362,-0.0021344076,0.16945113,0.17848921,0.11292947,-0.97743976,-0.017428866,0.99359876,0.11161375,0.9837875,-0.0028861826,0.1793149,0.05304241,0.014570033,0.014214039,9.66467,-0.020931087,1.6617241,-0.0053253174,-0.0234375,0.0010681152,-27.883883,14.215422,-3.3094327,0,0.0,0.0,0.0,0.0
1.081146241,0.16870312,0.10095809,-0.9804829,-0.015005748,0.99488837,0.099859476,0.98555267,-0.002133727,0.16935574,0.1782952,0.11272763,-0.9774985,-0.017384978,0.99362177,0.111416,0.9838235,-0.0028711471,0.17911777,0.05110073,0.018352792,0.009043932,9.664833,-0.02092442,1.6607889,-0.0053253174,-0.031967163,0.010650635,-27.844975,14.247448,-3.3240147,0,0.0,0.0,0.0,0.0
1.085540772,0.16860814,0.100764,-0.98051924,-0.014964297,0.9949081,0.09966946,0.9855696,-0.002132304,0.1692575,0.1781039,0.1124924,-0.9775604,-0.017335143,0.99364847,0.11118539,0.983859,-0.0028563987,0.17892273,0.047094345,0.018108828,0.0020526648,9.664995,-0.020910455,1.6598248,0.008529663,-0.039413452,-0.0032043457,-27.844975,14.247448,-3.3240147,0,0.0,0.0,0.0,0.0
1.089935303,0.1685163,0.10057627,-0.98055434,-0.0149257565,0.99492717,0.09948538,0.98558587,-0.0021293948,0.1691626,0.17791443,0.11225797,-0.9776219,-0.017285498,0.993675,0.11095558,0.9838941,-0.0028419169,0.17872955,0.04399872,0.020255145,-0.0014618635,9.665157,-0.02088193,1.6588947,0.0021362305,-0.026641846,-0.0010681152,-27.844975,14.247448,-3.3240147,0,0.0,0.0,0.0,0.0
1.094360352,0.16845123,0.098802835,-0.98074573,-0.01461824,0.9951048,0.0977386,0.9856016,-0.0021274097,0.16907094,0.17772694,0.112024486,-0.97768277,-0.01723611,0.9937014,0.11072668,0.98392886,-0.0028276665,0.17853838,0.043211937,0.018711383,-0.0052645206,9.665311,-0.020862462,1.6579957,0.0,-0.012786865,0.01171875,-27.808012,14.277873,-3.3378675,0,0.0,0.0,0.0,0.0
1.098754883,0.16836515,0.09862766,-0.9807781,-0.014585411,0.995122,0.09756629,0.98561674,-0.0021217118,0.16898242,0.17754197,0.111760244,-0.9777466,-0.017181301,0.9937312,0.110467516,0.98396325,-0.0028136612,0.1783492,0.044859886,0.026065148,-0.007904291,9.665457,-0.02080658,1.6571271,0.0063934326,0.0053253174,0.017028809,-27.808012,14.277873,-3.3378675,0,0.0,0.0,0.0,0.0
1.103149414,0.16828032,0.09845496,-0.9808099,-0.014552879,0.9951391,0.09739646,0.9856317,-0.0021162983,0.16889516,0.17735907,0.111497775,-0.97780985,-0.017126983,0.9937607,0.110210076,0.98399717,-0.0027998223,0.1781621,0.04019165,0.02539055,-0.016127944,9.665604,-0.020753494,1.6562715,-0.0063934326,0.0074310303,0.0,-27.808012,14.277873,-3.3378675,0,0.0,0.0,0.0,0.0
1.107574463,0.16819118,0.09914579,-0.98075575,-0.014665352,0.99507076,0.09807793,0.98564535,-0.0021127122,0.16881612,0.177178,0.1112371,-0.9778723,-0.017073132,0.99379,0.10995437,0.9840307,-0.002786152,0.17797689,0.03911686,0.022131277,-0.021104574,9.665735,-0.020718321,1.655496,-0.007461548,0.02128601,0.0063934326,-27.862541,14.288848,-3.333709,0,0.0,0.0,0.0,0.0
1.111968995,0.16812506,0.09901104,-0.9807807,-0.014637688,0.99508417,0.09794581,0.98565704,-0.0021107825,0.16874787,0.17699869,0.110995434,-0.9779322,-0.0170228,0.99381703,0.109717354,0.98406386,-0.0027726833,0.17779377,0.0359478,0.02048608,-0.024703264,9.665853,-0.020699404,1.6548271,-0.0063934326,0.029800415,0.0010681152,-27.862541,14.288848,-3.333709,0,0.0,0.0,0.0,0.0
1.116363526,0.1680736,0.09890612,-0.9808001,-0.014614174,0.99509454,0.09784327,0.98566616,-0.002111284,0.16869453,0.17682171,0.1107559,-0.9779914,-0.016972976,0.9938438,0.10948242,0.9840965,-0.0027594452,0.17761302,0.03774929,0.020143079,-0.022009373,9.665941,-0.02070432,1.6543039,-0.012771606,0.039398193,0.0053253174,-27.862541,14.288848,-3.333709,0,0.0,0.0,0.0,0.0
1.120758057,0.16803864,0.09863223,-0.98083365,-0.014562106,0.9951217,0.09757422,0.9856729,-0.002113238,0.16865522,0.17664723,0.11051905,-0.9780497,-0.016923731,0.9938702,0.10925013,0.9841287,-0.002746482,0.17743482,0.035645485,0.018155549,-0.023632526,9.66601,-0.020723486,1.653919,-0.0063934326,0.048980713,0.008514404,-27.905418,14.344135,-3.3383796,0,0.0,0.0,0.0,0.0
1.125183106,0.16801402,0.098582126,-0.98084295,-0.01454774,0.99512666,0.09752578,0.98567724,-0.0021166503,0.16862936,0.17647545,0.11028146,-0.9781076,-0.016874447,0.9938966,0.109017104,0.98416036,-0.002733817,0.1772593,0.033668518,0.021070097,-0.026004791,9.666054,-0.020756952,1.6536655,0.007461548,0.059631348,0.004257202,-27.905418,14.344135,-3.3383796,0,0.0,0.0,0.0,0.0
1.129577637,0.1680039,0.09856153,-0.9808467,-0.0145392455,0.99512863,0.09750632,0.9856791,-0.0021206704,0.1686185,0.18003653,0.11029656,-0.9774566,-0.016326683,0.9938919,0.10914393,0.98352444,-0.0036912698,0.18073763,0.036362648,0.019777792,-0.022167802,9.666072,-0.020796375,1.653559,-0.0063934326,0.05644226,0.013824463,-27.905418,14.344135,-3.3383796,0,0.0,0.0,0.0,0.0
1.133972168,0.16798478,0.10013374,-0.9806908,-0.014798302,0.99497175,0.09905706,0.9856785,-0.0021275233,0.16862193,0.17979632,0.11006201,-0.97752726,-0.016288089,0.993918,0.10891161,0.983569,-0.003659858,0.18049552,0.038704872,0.019537346,-0.017221093,9.666067,-0.020863581,1.6535928,0.014907837,0.060699463,0.004257202,-27.91922,14.351797,-3.3169532,0,0.0,0.0,0.0,0.0
1.1383667,0.16800553,0.1001759,-0.9806829,-0.01480113,0.99496746,0.099099405,0.9856749,-0.0021340335,0.16864276,0.17956041,0.10986355,-0.977593,-0.016255915,0.9939401,0.10871484,0.98361266,-0.0036292113,0.18025823,0.039043427,0.019069359,-0.0031176805,9.666034,-0.020927427,1.6537974,0.0,0.058563232,0.013824463,-27.91922,14.351797,-3.3169532,0,0.0,0.0,0.0,0.0
1.142791748,0.16803558,0.10023698,-0.98067147,-0.014807674,0.99496114,0.09916031,0.9856696,-0.0021409958,0.16867316,0.17932972,0.10966989,-0.9776571,-0.016224563,0.9939616,0.108522825,0.9836552,-0.003599308,0.18002619,0.041056633,0.018153276,-0.0022735596,9.665986,-0.020995712,1.6540962,0.004257202,0.059631348,0.0021209717,-27.91922,14.351797,-3.3169532,0,0.0,0.0,0.0,0.0
1.14718628,0.16805021,0.1019698,-0.98049027,-0.015099501,0.9947852,0.100868486,0.9856628,-0.0021460548,0.16871355,0.17910422,0.10948132,-0.97771955,-0.01619408,0.99398243,0.10833585,0.9836968,-0.0035701415,0.17979941,0.038202286,0.01726774,0.002007246,9.665919,-0.021045323,1.6544924,0.0021362305,0.046844482,0.003189087,-27.923328,14.403936,-3.2879004,0,0.0,0.0,0.0,0.0
1.151580811,0.16809943,0.10206954,-0.98047143,-0.015117586,0.9947749,0.10096669,0.9856541,-0.0021500832,0.16876416,0.17888343,0.10933115,-0.97777677,-0.016170507,0.9939991,0.108186685,0.9837374,-0.00354166,0.17957792,0.044133186,0.01953088,0.0045176744,9.6658325,-0.021084825,1.6549884,0.0053253174,0.047912598,-0.0063934326,-27.923328,14.403936,-3.2879004,0,0.0,0.0,0.0,0.0
1.155975342,0.16816239,0.10219709,-0.9804475,-0.015142807,0.99476194,0.10109192,0.985643,-0.0021531326,0.16882908,0.17866799,0.109185964,-0.9778324,-0.016147856,0.9940151,0.10804244,0.9837769,-0.0035138286,0.17936179,0.047163963,0.022152357,0.011765599,9.66572,-0.02111472,1.6556244,0.0,0.05430603,0.0,-27.923328,14.403936,-3.2879004,0,0.0,0.0,0.0,0.0
1.160400391,0.16817129,0.10649279,-0.97998863,-0.015874987,0.9943112,0.10532495,0.98563,-0.0021553286,0.16890518,0.1784582,0.10904624,-0.9778863,-0.016126275,0.9940306,0.107903585,0.9838154,-0.003486615,0.17915142,0.048150063,0.022480592,0.012284398,9.665591,-0.021136254,1.6563705,-0.011703491,0.06602478,0.0021209717,-27.927233,14.417611,-3.2257392,0,0.0,0.0,0.0,0.0
1.164794922,0.1682544,0.10666102,-0.9799561,-0.015909912,0.9942931,0.105489835,0.9856152,-0.002158115,0.16899116,0.17825264,0.108995184,-0.9779295,-0.016120698,0.9940363,0.10785195,0.98385274,-0.003459989,0.17894666,0.04719448,0.023996333,0.01000917,9.665446,-0.02116358,1.6572137,0.018112183,0.06602478,0.0,-27.927233,14.417611,-3.2257392,0,0.0,0.0,0.0,0.0
1.169189454,0.16834527,0.10684504,-0.9799203,-0.015947003,0.9942732,0.105670385,0.98559904,-0.0021623184,0.16908509,0.17805289,0.10894851,-0.9779711,-0.016115995,0.9940415,0.107804656,0.983889,-0.0034339519,0.17874776,0.04918194,0.018749122,0.0031793118,9.665286,-0.021204796,1.6581345,0.0063934326,0.064956665,0.008514404,-27.927233,14.417611,-3.2257392,0,0.0,0.0,0.0,0.0
1.173614502,0.16840944,0.10924061,-0.97964525,-0.01636457,0.994013,0.10802955,0.9855813,-0.002161721,0.16918883,0.17785893,0.10890643,-0.9780111,-0.016112188,0.9940462,0.1077619,0.98392415,-0.0034085193,0.17855473,0.05037403,0.022576986,0.0037306547,9.665112,-0.021198938,1.6591518,-0.017028809,0.06816101,-0.004272461,-27.868227,14.331954,-3.192626,0,0.0,0.0,0.0,0.0
1.178009034,0.1685173,0.10945995,-0.9796022,-0.016414614,0.99398893,0.10824376,0.985562,-0.0021611534,0.16930106,0.17767008,0.10891311,-0.97804457,-0.016117267,0.99404556,0.1077671,0.9839581,-0.0033835832,0.17836754,0.054162025,0.021904374,0.008429885,9.664924,-0.021193372,1.6602526,0.01171875,0.06921387,-0.010650635,-27.868227,14.331954,-3.192626,0,0.0,0.0,0.0,0.0
1.182403565,0.16863643,0.10970217,-0.9795546,-0.016465299,0.99396217,0.108481094,0.9855408,-0.0021652046,0.1694245,0.17748716,0.10892404,-0.97807664,-0.016123284,0.9940444,0.107776485,0.983991,-0.0033591348,0.17818631,0.054917336,0.016522199,0.023982167,9.664716,-0.0212331,1.661463,0.004257202,0.05644226,0.0010681152,-27.868227,14.331954,-3.192626,0,0.0,0.0,0.0,0.0
1.186798096,0.1688015,0.1075949,-0.97975993,-0.016118914,0.99419254,0.10640275,0.9855183,-0.0021682752,0.16955547,0.17731026,0.10893961,-0.978107,-0.016130233,0.9940428,0.10779043,0.9840228,-0.0033352561,0.17801121,0.0534935,0.017089404,0.036260962,9.6644945,-0.021263212,1.6627474,0.0010681152,0.047912598,0.012771606,-27.856956,14.367157,-3.2216697,0,0.0,0.0,0.0,0.0
1.191223145,0.16893099,0.1078575,-0.97970873,-0.016175946,0.9941641,0.106659696,0.98549515,-0.002170414,0.16968982,0.17731026,0.10893961,-0.978107,-0.016130233,0.9940428,0.10779043,0.9840228,-0.0033352561,0.17801121,0.053718567,0.017110381,0.034943223,9.664269,-0.02128419,1.6640651,0.0010681152,0.047912598,0.012771606,-27.856956,14.367157,-3.2216697,0,0.0,0.0,0.0,0.0
1.195617676,0.16905786,0.10811474,-0.9796584,-0.0162304,0.994136,0.10691163,0.98547244,-0.002174002,0.16982125,0.1793217,0.10894057,-0.97774,-0.016249482,0.99404234,0.107776746,0.9836563,-0.00343894,0.1800236,0.053343773,0.011967907,0.043872714,9.664048,-0.021319376,1.6653543,-0.0010681152,0.036193848,0.0021209717,-27.856956,14.367157,-3.2216697,0,0.0,0.0,0.0,0.0
1.200012207,0.16912572,0.111975946,-0.97921294,-0.016897827,0.9937085,0.11071503,0.98544955,-0.0021781889,0.16995381,0.17911656,0.10892405,-0.9777795,-0.0162489,0.99404424,0.107759334,0.98369366,-0.0034136414,0.17981969,0.05420208,0.01403217,0.043661833,9.663822,-0.021360433,1.6666539,0.015975952,0.013824463,0.008514404,-27.89111,14.391597,-3.1715176,0,0.0,0.0,0.0,0.0
1.204406739,0.16925158,0.112231106,-0.97916186,-0.016951296,0.9936797,0.11096504,0.98542714,-0.0021829447,0.17008433,0.17891698,0.108985096,-0.9778092,-0.016262453,0.9940376,0.107818216,0.9837298,-0.0033889322,0.17962258,0.055264473,0.011931331,0.03982532,9.6636,-0.021407066,1.6679335,-0.003189087,0.031936646,0.0053253174,-27.89111,14.391597,-3.1715176,0,0.0,0.0,0.0,0.0
1.208831788,0.16937326,0.112477794,-0.9791126,-0.017003903,0.99365187,0.11120658,0.9854053,-0.0021866849,0.1702106,0.1787238,0.10905003,-0.9778373,-0.016276814,0.9940306,0.107880935,0.98376465,-0.0033648126,0.1794319,0.05436325,0.01351906,0.04310131,9.663383,-0.021443738,1.6691712,-0.018096924,0.027679443,-0.0032043457,-27.89111,14.391597,-3.1715176,0,0.0,0.0,0.0,0.0
1.213226319,0.16953301,0.110232875,-0.97934014,-0.016632052,0.9939032,0.10899291,0.9853841,-0.0021894595,0.17033283,0.17853701,0.109118596,-0.9778639,-0.016291967,0.99402314,0.10794723,0.9837983,-0.0033412501,0.17924768,0.051353455,0.01478021,0.04738772,9.663176,-0.021470947,1.67037,0.0010681152,0.02128601,-0.0021362305,-27.905626,14.396886,-3.2102377,0,0.0,0.0,0.0,0.0
1.21762085,0.1696433,0.11045649,-0.9792959,-0.016681839,0.99387854,0.1092115,0.9853643,-0.0021905398,0.17044744,0.17835711,0.10914089,-0.9778942,-0.016298946,0.9940208,0.10796799,0.9838308,-0.0033182146,0.17906955,0.05543804,0.017878024,0.043095708,9.662979,-0.021481538,1.6714935,0.004257202,-0.0053253174,-0.0010681152,-27.905626,14.396886,-3.2102377,0,0.0,0.0,0.0,0.0
1.222015381,0.16974935,0.110671565,-0.9792533,-0.016731253,0.99385464,0.10942147,0.98534524,-0.0021900875,0.17055784,0.17818299,0.1091672,-0.977923,-0.01630681,0.99401796,0.107992716,0.9838622,-0.003295661,0.17889726,0.05452919,0.020806449,0.044270277,9.662792,-0.021477101,1.6725762,0.008529663,0.003189087,0.010650635,-27.905626,14.396886,-3.2102377,0,0.0,0.0,0.0,0.0
1.22644043,0.1698431,0.11120492,-0.9791767,-0.01683354,0.99379516,0.109945275,0.9853273,-0.002190436,0.1706612,0.17801449,0.10919729,-0.9779503,-0.016315531,0.99401474,0.10802114,0.98389256,-0.0032735497,0.17873062,0.05534172,0.016414532,0.03869748,9.662615,-0.021480516,1.6735895,0.0,-0.010665894,0.014892578,-27.982208,14.375054,-3.221082,0,0.0,0.0,0.0,0.0
1.230834961,0.16994248,0.1114074,-0.97913635,-0.016880155,0.99377245,0.11014293,0.9853094,-0.0021899887,0.17076471,0.17785108,0.10923745,-0.9779756,-0.016326182,0.9940104,0.10805948,0.98392195,-0.0032518874,0.17856923,0.060191154,0.020852748,0.0388577,9.662439,-0.021476131,1.6746047,-0.003189087,0.0053253174,0.008514404,-27.982208,14.375054,-3.221082,0,0.0,0.0,0.0,0.0
1.235229493,0.17003697,0.11159991,-0.979098,-0.01692374,0.9937508,0.11033097,0.9852923,-0.0021903417,0.17086305,0.17769302,0.10928085,-0.97799945,-0.016337577,0.9940057,0.108100995,0.9839503,-0.0032306497,0.17841324,0.060487747,0.018373493,0.037094116,9.662272,-0.021479594,1.675569,-0.0063934326,0.024475098,0.004257202,-27.982208,14.375054,-3.221082,0,0.0,0.0,0.0,0.0
1.239654541,0.17014548,0.11091707,-0.97915673,-0.01681519,0.9938272,0.10965698,0.98527545,-0.0021929336,0.17096029,0.17754008,0.109327234,-0.978022,-0.01634964,0.9940007,0.10814544,0.98397774,-0.0032098435,0.17826243,0.057186127,0.022983078,0.03346634,9.6621065,-0.02150501,1.6765226,0.0095825195,0.0074310303,-0.0021362305,-27.965239,14.372244,-3.231384,0,0.0,0.0,0.0,0.0
1.244049073,0.17023242,0.11109418,-0.9791215,-0.016850924,0.9938074,0.10983074,0.98525983,-0.0021976512,0.1710503,0.17739221,0.10935903,-0.97804534,-0.016359154,0.9939973,0.108175546,0.98400426,-0.0031895055,0.17811638,0.055718422,0.01661084,0.027409196,9.661956,-0.02155128,1.6774056,-0.020217896,0.020217896,0.015960693,-27.965239,14.372244,-3.231384,0,0.0,0.0,0.0,0.0
1.248443604,0.17031509,0.11126258,-0.97908795,-0.016884165,0.9937885,0.10999608,0.9852449,-0.002202911,0.17113578,0.17724912,0.10939372,-0.9780674,-0.016369216,0.99399346,0.108208515,0.9840299,-0.0031696684,0.17797516,0.052409172,0.0139172,0.024766922,9.661813,-0.021602865,1.6782445,-0.007461548,0.009567261,0.003189087,-27.965239,14.372244,-3.231384,0,0.0,0.0,0.0,0.0
1.252838135,0.1703776,0.11245113,-0.97894144,-0.017093077,0.99365485,0.111166336,0.98523057,-0.002207131,0.17121863,0.17711048,0.109431095,-0.97808826,-0.016379748,0.99398935,0.108244136,0.9840547,-0.0031503334,0.1778384,0.052145004,0.014941005,0.028945446,9.66167,-0.021644242,1.6790566,0.003189087,0.006378174,0.0053253174,-27.97605,14.396429,-3.2153072,0,0.0,0.0,0.0,0.0
1.257263184,0.17045733,0.11261335,-0.97890884,-0.017125536,0.9936364,0.11132554,0.98521626,-0.0022119181,0.17130119,0.17697592,0.109491505,-0.97810596,-0.016394397,0.9939828,0.108302444,0.98407865,-0.0031314692,0.17770608,0.05022621,0.010654679,0.037187576,9.661526,-0.02169118,1.6798656,0.0,0.022354126,0.0063934326,-27.97605,14.396429,-3.2153072,0,0.0,0.0,0.0,0.0
1.261657715,0.17053169,0.11276465,-0.97887856,-0.017154202,0.9936193,0.1114743,0.98520285,-0.0022180206,0.17137796,0.17684558,0.10955395,-0.9781225,-0.016409397,0.99397594,0.10836277,0.98410183,-0.0031130782,0.17757797,0.04671955,0.010189084,0.041440845,9.661397,-0.021751031,1.6806189,-0.0063934326,-0.0021362305,-0.0053253174,-27.97605,14.396429,-3.2153072,0,0.0,0.0,0.0,0.0
1.266052247,0.17057991,0.11415839,-0.9787085,-0.01739601,0.99346,0.11284707,0.9851902,-0.0022238183,0.17145021,0.1756307,0.11104381,-0.9781733,-0.016232327,0.99380964,0.10990435,0.9843223,-0.0034245502,0.17634599,0.052248,0.009268405,0.045488358,9.661274,-0.021807889,1.6813276,-0.022354126,-0.017044067,0.0010681152,-27.986319,14.383547,-3.2000344,0,0.0,0.0,0.0,0.0
1.270446778,0.17063744,0.11427564,-0.9786847,-0.017418334,0.9934465,0.112962335,0.9851799,-0.0022285485,0.1715097,0.1755298,0.11110612,-0.9781844,-0.016255893,0.9938027,0.10996308,0.98433995,-0.0034005358,0.17624813,0.052217484,0.0057524648,0.043438196,9.661173,-0.021854274,1.6819109,-0.02128601,-0.012786865,-0.0063934326,-27.986319,14.383547,-3.2000344,0,0.0,0.0,0.0,0.0
1.274871827,0.17068335,0.11436918,-0.9786659,-0.017435433,0.99343574,0.11305441,0.9851716,-0.0022330421,0.17155702,0.1754321,0.111169524,-0.9781947,-0.016279437,0.99379575,0.11002294,0.98435694,-0.003377096,0.17615344,0.053370476,0.0048064254,0.04565084,9.661091,-0.02189834,1.682375,-0.0010681152,-0.039413452,-0.009597778,-27.986319,14.383547,-3.2000344,0,0.0,0.0,0.0,0.0
1.279266358,0.17067175,0.11700849,-0.9783559,-0.017889615,0.99312836,0.115654446,0.9851655,-0.0022365337,0.17159216,0.17533723,0.111233525,-0.9782044,-0.01630284,0.99378866,0.11008345,0.98437345,-0.003354215,0.17606159,0.056365967,0.007250889,0.055032015,9.661028,-0.021932574,1.682719,0.003189087,-0.051132202,0.0010681152,-28.014004,14.371309,-3.1682065,0,0.0,0.0,0.0,0.0
1.283660889,0.17069145,0.11704869,-0.97834766,-0.017897116,0.9931237,0.115693994,0.985162,-0.0022383726,0.17161253,0.17524405,0.11134906,-0.978208,-0.016335085,0.9937758,0.110194735,0.9843895,-0.0033318617,0.1759722,0.056316376,0.0064473664,0.052101135,9.660992,-0.0219506,1.6829183,0.0,-0.06285095,0.0,-28.014004,14.371309,-3.1682065,0,0.0,0.0,0.0,0.0
1.28805542,0.1706961,0.11705827,-0.9783456,-0.017898377,0.9931225,0.11570351,0.9851612,-0.00223934,0.17161731,0.17515312,0.11146309,-0.9782113,-0.016366815,0.9937631,0.110304594,0.9844051,-0.003309992,0.17588499,0.05839348,0.0016061086,0.055204272,9.660987,-0.021960096,1.6829659,-0.017028809,-0.057525635,-0.010650635,-28.014004,14.371309,-3.1682065,0,0.0,0.0,0.0,0.0
1.292480469,0.17075063,0.11336244,-0.97877127,-0.017264778,0.9935512,0.11206236,0.98516303,-0.0022364475,0.17160666,0.17506415,0.11157502,-0.9782145,-0.01639792,0.9937506,0.11041244,0.9844204,-0.0032885792,0.1757997,0.05699253,0.002476424,0.05662644,9.661005,-0.021931732,1.6828614,-0.003189087,-0.07563782,-0.015975952,-28.004448,14.341754,-3.224411,0,0.0,0.0,0.0,0.0
1.296875,0.17072734,0.113314845,-0.97878087,-0.017257337,0.9935566,0.112015285,0.98516715,-0.002232922,0.1715828,0.17497787,0.11161078,-0.9782258,-0.01641539,0.99374664,0.11044536,0.98443544,-0.0032675364,0.1757158,0.052527428,-7.7468716E-4,0.05811262,9.661044,-0.021897156,1.6826272,-0.0053253174,-0.07777405,-0.014923096,-28.004448,14.341754,-3.224411,0,0.0,0.0,0.0,0.0
1.301269532,0.17068821,0.113234766,-0.978797,-0.0172445,0.99356586,0.11193614,0.9851742,-0.0022273168,0.17154263,0.17489284,0.11164486,-0.97823715,-0.016432347,0.99374294,0.110476665,0.98445034,-0.0032468443,0.17563309,0.05663395,-0.0012516975,0.057780504,9.661112,-0.021842185,1.682233,0.0021362305,-0.071380615,-0.010650635,-28.004448,14.341754,-3.224411,0,0.0,0.0,0.0,0.0
1.30569458,0.17069636,0.10961945,-0.979207,-0.016626567,0.99397117,0.1083739,0.9851834,-0.0022181785,0.17148985,0.17480889,0.11167665,-0.9782486,-0.01644872,0.9937394,0.11050577,0.984465,-0.003226454,0.17555141,0.054041862,0.0032847635,0.061198592,9.661205,-0.021752577,1.6817158,-0.019165039,-0.08203125,-0.014923096,-27.995369,14.313677,-3.2778053,0,0.0,0.0,0.0,0.0
1.310089112,0.17063029,0.10948411,-0.97923374,-0.01661193,0.9939861,0.1082389,0.98519504,-0.0022018729,0.17142285,0.17472665,0.1116355,-0.97826785,-0.016452096,0.9937441,0.11046308,0.9844795,-0.0032062884,0.17547022,0.05538082,0.0039292425,0.06006217,9.661324,-0.021592684,1.6810597,-0.0053253174,-0.07563782,-0.01171875,-27.995369,14.313677,-3.2778053,0,0.0,0.0,0.0,0.0
1.314483643,0.1705537,0.109327294,-0.97926444,-0.01659093,0.9940034,0.10808322,0.98520875,-0.002187083,0.1713448,0.1746447,0.11159248,-0.97828746,-0.0164551,0.99374896,0.11041858,0.98449403,-0.0031862003,0.17538925,0.05710888,0.0035901126,0.05912435,9.661459,-0.021447651,1.6802945,0.010650635,-0.08203125,-0.030899048,-27.995369,14.313677,-3.2778053,0,0.0,0.0,0.0,0.0
1.318878174,0.17044349,0.110412635,-0.9791619,-0.016782293,0.9938835,0.10915137,0.98522455,-0.0021715558,0.17125393,0.1745629,0.11154718,-0.97830725,-0.016457623,0.99375415,0.11037185,0.98450845,-0.0031662178,0.17530839,0.057050705,0.0063654725,0.053130984,9.661611,-0.021295374,1.6794027,0.0063934326,-0.06712341,0.0010681152,-27.915028,14.340791,-3.2420888,0,0.0,0.0,0.0,0.0
1.323303223,0.17034489,0.11021176,-0.97920173,-0.016751893,0.9939057,0.10895252,0.985242,-0.0021560255,0.17115302,0.1744805,0.111524485,-0.9783244,-0.01646401,0.9937567,0.11034739,0.98452294,-0.0031463248,0.17522731,0.06223297,0.00516448,0.043748498,9.661784,-0.021143083,1.6784136,0.004257202,-0.0703125,0.0,-27.915028,14.340791,-3.2420888,0,0.0,0.0,0.0,0.0
1.327697754,0.17023851,0.10999501,-0.97924453,-0.016719468,0.99392974,0.10873792,0.985261,-0.0021389383,0.17104422,0.17439784,0.11149824,-0.9783423,-0.01646965,0.99375975,0.11031946,0.98453754,-0.0031265188,0.17514588,0.0558815,0.010224708,0.038074493,9.661971,-0.020975517,1.6773466,-0.011703491,-0.054336548,-0.0063934326,-27.915028,14.340791,-3.2420888,0,0.0,0.0,0.0,0.0
1.332092286,0.17017043,0.10727964,-0.9795576,-0.016254371,0.9942266,0.10606243,0.9852806,-0.0021265952,0.17093173,0.1708704,0.11066938,-0.9790585,-0.016229173,0.9938532,0.10950933,0.9851598,-0.0028225933,0.17161618,0.05007267,0.0028607529,0.03014052,9.662164,-0.020854477,1.6762437,0.012786865,-0.053268433,-0.0021362305,-27.95528,14.339693,-3.285978,0,0.0,0.0,0.0,0.0
1.336486817,0.17005835,0.107050985,-0.97960204,-0.016213652,0.9942512,0.105837174,0.9853006,-0.002115569,0.17081644,0.17085645,0.11060161,-0.97906864,-0.016229635,0.99386084,0.10944041,0.98516226,-0.0028086733,0.17160256,0.045256615,0.003293734,0.019572854,9.662362,-0.020746354,1.6751134,-0.017028809,-0.03303528,0.004257202,-27.95528,14.339693,-3.285978,0,0.0,0.0,0.0,0.0
1.340911866,0.16995037,0.10683065,-0.97964483,-0.01617501,0.9942749,0.105620004,0.98531985,-0.0021043946,0.1707054,0.17084044,0.110530615,-0.9790794,-0.016229255,0.9938687,0.10936836,0.985165,-0.0027948113,0.17158683,0.044273376,0.0046549253,0.016492367,9.662551,-0.02063677,1.6740245,-0.007461548,-0.024505615,0.0,-27.95528,14.339693,-3.285978,0,0.0,0.0,0.0,0.0
1.345306397,0.16987087,0.10513973,-0.9798416,-0.015885178,0.99445534,0.10395388,0.98533833,-0.0020937794,0.17059916,0.17082265,0.110456645,-0.97909087,-0.016228106,0.993877,0.10929342,0.98516816,-0.002781003,0.17156921,0.037114143,0.00475177,0.012136936,9.66273,-0.020532668,1.6729823,-0.003189087,-0.007461548,-0.007461548,-28.002447,14.311719,-3.3189752,0,0.0,0.0,0.0,0.0
1.349700928,0.16977483,0.104943074,-0.9798794,-0.015851077,0.99447626,0.10376,0.9853555,-0.0020836936,0.17050049,0.17080365,0.11035035,-0.9791062,-0.016221145,0.9938889,0.10918667,0.98517156,-0.0027672586,0.17154986,0.033904076,0.0048437715,0.018031955,9.662901,-0.020433769,1.6720152,0.0138549805,-0.0021362305,0.0063934326,-28.002447,14.311719,-3.3189752,0,0.0,0.0,0.0,0.0
1.354095459,0.16969025,0.104769886,-0.9799125,-0.015821768,0.9944944,0.10358911,0.98537046,-0.0020741129,0.17041364,0.17078303,0.110242225,-0.979122,-0.016213622,0.9939009,0.109078184,0.98517525,-0.0027535872,0.17152883,0.034938812,0.008761129,0.020931363,9.663048,-0.020339815,1.6711636,-0.0010681152,0.015960693,0.007446289,-28.002447,14.311719,-3.3189752,0,0.0,0.0,0.0,0.0
1.358520508,0.16958486,0.10646409,-0.9797481,-0.016109237,0.9943143,0.10525858,0.98538387,-0.0020672674,0.17033574,0.17076115,0.110132806,-0.9791381,-0.01620566,0.99391305,0.10896844,0.9851792,-0.0027399978,0.17150652,0.0344944,0.008674787,0.014063597,9.663179,-0.020272683,1.6703995,-0.0021362305,0.025543213,0.0095825195,-28.047255,14.321002,-3.298519,0,0.0,0.0,0.0,0.0
1.362915039,0.16951887,0.106328815,-0.97977424,-0.016084522,0.99432886,0.10512542,0.9853956,-0.0020615414,0.17026775,0.17073767,0.110059455,-0.9791505,-0.016203646,0.9939213,0.10889426,0.9851833,-0.0027265432,0.17148316,0.032642365,0.005966725,0.0081985,9.663297,-0.020216538,1.6697332,-0.018096924,0.03086853,0.0053253174,-28.047255,14.321002,-3.298519,0,0.0,0.0,0.0,0.0
1.367309571,0.16946253,0.10621333,-0.9797964,-0.016060209,0.9943412,0.10501231,0.9854058,-0.002059915,0.1702094,0.17071328,0.10998485,-0.97916305,-0.016201168,0.9939295,0.108818896,0.98518753,-0.0027132435,0.17145884,0.02970028,0.0031918865,6.504059E-4,9.663394,-0.020200582,1.6691605,0.008529663,0.037261963,0.0021209717,-28.047255,14.321002,-3.298519,0,0.0,0.0,0.0,0.0
1.371704102,0.1694423,0.10477999,-0.97995424,-0.015812127,0.9944932,0.10360049,0.9854132,-0.0020591465,0.17016605,0.17068835,0.10990944,-0.97917587,-0.016198263,0.9939379,0.10874278,0.98519194,-0.0027001768,0.17143397,0.02883625,-0.0023098104,0.008443236,9.663471,-0.020193055,1.6687362,-0.003189087,0.041519165,0.0095825195,-28.080896,14.338823,-3.3222678,0,0.0,0.0,0.0,0.0
1.376129151,0.16941749,0.104729116,-0.97996396,-0.015800009,0.99449855,0.1035509,0.98541766,-0.0020598955,0.17014019,0.1706634,0.10980687,-0.9791917,-0.016190406,0.99394923,0.10863997,0.98519635,-0.0026873562,0.1714086,0.03019905,-0.0072823614,0.023358464,9.663515,-0.020200402,1.6684827,0.003189087,0.041519165,-0.0063934326,-28.080896,14.338823,-3.3222678,0,0.0,0.0,0.0,0.0
1.380523682,0.16940516,0.10470383,-0.9799689,-0.015792107,0.9945013,0.103526585,0.9854199,-0.002062164,0.17012714,0.1706385,0.10970535,-0.97920746,-0.016182467,0.99396056,0.10853823,0.9852008,-0.002674807,0.17138325,0.03247547,-0.005287843,0.028318524,9.663533,-0.020222638,1.6683539,0.008529663,0.04472351,0.0,-28.080896,14.338823,-3.3222678,0,0.0,0.0,0.0,0.0
1.384918213,0.16947106,0.10062632,-0.9803845,-0.015091907,0.994922,0.09950963,0.9854195,-0.0020681308,0.17012915,0.17061383,0.10960535,-0.97922295,-0.01617453,0.99397165,0.10843803,0.98520523,-0.0026625542,0.17135812,0.030112267,-0.009340161,0.042944312,9.6635275,-0.020281147,1.6683735,-0.011703491,0.04472351,0.008514404,-28.094927,14.391612,-3.3793905,0,0.0,0.0,0.0,0.0
1.389343262,0.16948195,0.10064854,-0.9803804,-0.0150874425,0.9949199,0.09953297,0.9854178,-0.0020776114,0.17013949,0.17059106,0.10942584,-0.979247,-0.016152665,0.9939914,0.108259566,0.9852095,-0.0026506658,0.17133358,0.03386593,-0.01099794,0.052446485,9.663508,-0.020374116,1.6684744,-0.0063934326,0.036193848,0.0053253174,-28.094927,14.391612,-3.3793905,0,0.0,0.0,0.0,0.0
1.393737793,0.16949442,0.10067396,-0.98037565,-0.015084927,0.99491733,0.09955924,0.9854157,-0.0020858392,0.17015158,0.17056899,0.10925038,-0.9792704,-0.016131159,0.99401075,0.10808514,0.9852137,-0.0026392045,0.17130974,0.03384018,-0.009467667,0.05570495,9.66349,-0.020454805,1.6685933,-0.023422241,0.02128601,0.010650635,-28.094927,14.391612,-3.3793905,0,0.0,0.0,0.0,0.0
1.398132325,0.16950731,0.10102462,-0.98033726,-0.015139553,0.99488163,0.09990569,0.9854126,-0.0020928783,0.1701692,0.17082958,0.108351156,-0.97932494,-0.016705355,0.9941108,0.10707303,0.985159,-0.0019312692,0.17163357,0.03646469,-0.0056281947,0.07023311,9.663458,-0.020523831,1.6687658,0.012786865,0.0053253174,-0.008529663,-28.144114,14.405903,-3.381777,0,0.0,0.0,0.0,0.0
1.402526856,0.1695197,0.101049945,-0.98033255,-0.015138544,0.99487907,0.09993159,0.9854105,-0.002099566,0.17018136,0.17080331,0.108204685,-0.9793457,-0.016673846,0.9941268,0.10692979,0.98516405,-0.0019345015,0.17160434,0.041345596,-0.0029389486,0.070432425,9.663434,-0.020589406,1.6688846,-0.0053253174,-0.018112183,-0.008529663,-28.144114,14.405903,-3.381777,0,0.0,0.0,0.0,0.0
1.406951905,0.16952851,0.10106792,-0.9803292,-0.015136241,0.9948773,0.09995026,0.985409,-0.0021059185,0.17018984,0.17077781,0.10806164,-0.97936594,-0.016642956,0.99414235,0.10678992,0.985169,-0.0019378028,0.17157592,0.039988518,-0.0054111704,0.07544041,9.66342,-0.020651702,1.6689677,-0.004257202,-0.0234375,0.004257202,-28.144114,14.405903,-3.381777,0,0.0,0.0,0.0,0.0
1.411346436,0.16953427,0.10051337,-0.98038524,-0.0150339585,0.99493337,0.09940515,0.98540956,-0.0021135088,0.17018643,0.17075296,0.1079218,-0.9793857,-0.016612642,0.99415743,0.1066532,0.98517376,-0.0019411651,0.17154819,0.043227196,-0.0075049605,0.07312703,9.663427,-0.020726142,1.6689346,-0.0010681152,-0.028762817,-0.007461548,-28.110123,14.320831,-3.392742,0,0.0,0.0,0.0,0.0
1.415740967,0.1695239,0.10049209,-0.9803891,-0.015019873,0.9949355,0.09938596,0.9854116,-0.0021229757,0.17017473,0.17072882,0.10777369,-0.9794062,-0.016580893,0.9941735,0.10650834,0.9851785,-0.0019446118,0.17152105,0.041978836,-0.009471936,0.07005429,9.66345,-0.020818986,1.6688206,0.0,-0.054336548,0.003189087,-28.110123,14.320831,-3.392742,0,0.0,0.0,0.0,0.0
1.420135498,0.16950297,0.1004491,-0.9803972,-0.015002917,0.99493986,0.099345215,0.9854154,-0.0021304917,0.17015229,0.17070489,0.107628115,-0.97942644,-0.016549496,0.9941893,0.10636598,0.9851832,-0.001948179,0.17149416,0.04891777,-0.010158008,0.06485319,9.663487,-0.02089269,1.6686003,0.004257202,-0.03729248,0.007446289,-28.110123,14.320831,-3.392742,0,0.0,0.0,0.0,0.0
1.424560547,0.16942611,0.10344397,-0.9800991,-0.015500611,0.994633,0.102298416,0.985421,-0.0021398873,0.17012022,0.17068103,0.10748459,-0.97944623,-0.016518394,0.9942048,0.106225654,0.9851878,-0.0019518252,0.17146738,0.050458908,-0.013421316,0.061692238,9.663546,-0.020984836,1.6682864,0.003189087,-0.047943115,-0.008529663,-28.11369,14.2938,-3.3512785,0,0.0,0.0,0.0,0.0
