Time,Rot1,Rot2,Rot3,Rot4,Rot5,Rot6,Rot7,Rot8,Rot9,FRot1,FRot2,FRot3,FRot4,FRot5,FRot6,FRot7,FRot8,FRot9,AccX,AccY,AccZ,GravX,GravY,GravZ,GyroX,GyroY,GyroZ,MagX,MagY,MagZ,Imid
0.0,0.0,0.0,0.0,0.0,0.0,0.0,0.0,0.0,0.0,0.0,0.0,0.0,0.0,0.0,0.0,0.0,0.0,0.0,0.047424316,-0.014816284,-0.1912384,8.988281,-0.047424316,3.921402,0.0,0.0,0.0,0.0,0.0,0.0,0,0.0,0.0,0.0,0.0
0.004425049,0.0,0.0,0.0,0.0,0.0,0.0,0.0,0.0,0.0,1.0,0.0,0.0,0.0,1.0,0.0,0.0,0.0,1.0,0.1771698,0.013473511,0.008834839,8.9878235,-0.04698181,3.9224396,0.0,0.0,0.0,0.0,0.0,0.0,0,0.0,0.0,0.0,0.0
0.00881958,0.40006655,-0.007590137,-0.9164546,0.0073847123,0.9999598,-0.005058031,0.9164563,-0.004744205,0.40010658,1.0,0.0,0.0,0.0,1.0,0.0,0.0,0.0,1.0,0.034118652,-0.039657593,0.036361694,8.987228,-0.046524048,3.923645,0.018112183,0.034072876,-0.0021362305,-22.085571,22.027588,-9.823608,0,0.0,0.0,0.0,0.0
0.013244629,0.40021864,-0.007408757,-0.91638976,0.007257317,0.9999617,-0.0049148956,0.916391,-0.0046834983,0.40025705,0.9997313,-1.5180578E-4,-0.02318108,1.5396452E-4,1.0,9.1339854E-5,0.023181066,-9.4884366E-5,0.9997313,0.116119385,-0.016311646,0.054016113,8.986633,-0.045928955,3.9251404,0.0138549805,0.027679443,-0.01171875,-22.085571,22.027588,-9.823608,0,0.0,0.0,0.0,0.0
0.01763916,0.40018675,-0.007446767,-0.91640335,0.007315135,0.999961,-0.0049312967,0.91640437,-0.0047301743,0.40022567,0.9989467,-2.9694766E-4,-0.04588328,3.0519933E-4,0.99999994,1.7283537E-4,0.045883227,-1.866569E-4,0.9989468,0.029785156,-0.1164093,-0.06060791,8.986771,-0.04638672,3.9248352,0.0063934326,0.038330078,-0.012786865,-22.085571,22.027588,-9.823608,0,0.0,0.0,0.0,0.0
0.022064209,0.40034464,0.0141635565,-0.91625524,-0.0013643918,0.99988866,0.014860217,0.9163636,-0.004699077,0.40031937,0.99767774,-4.3994692E-4,-0.06810925,4.5782747E-4,0.9999998,2.4691861E-4,0.06810913,-2.775275E-4,0.9976778,0.07331848,0.012573242,-0.008834839,8.986328,-0.046081543,3.9257355,-0.007446289,0.0095825195,-0.012786865,-22.444153,21.310425,-9.477234,0,0.0,0.0,0.0,0.0
0.02645874,0.40034422,0.014163049,-0.91625535,-0.0013927021,0.99988884,0.014847296,0.91636384,-0.0046679587,0.40031946,0.9959548,-1.4786459E-4,-0.089855865,1.8014997E-4,0.99999994,3.511919E-4,0.089855805,-3.6595875E-4,0.99595475,0.12120056,0.07928467,0.05342102,8.986328,-0.045776367,3.9257355,-0.0063934326,0.026611328,-0.008529663,-22.444153,21.310425,-9.477234,0,0.0,0.0,0.0,0.0
0.030883789,0.4003569,0.014178917,-0.9162496,-0.0014263806,0.99988866,0.014849968,0.9163582,-0.0046383664,0.40033254,0.9938063,1.3836593E-4,-0.11112607,-8.728005E-5,0.9999999,4.6457548E-4,0.11112612,-4.5199896E-4,0.9938062,0.11642456,0.09814453,0.09635925,8.986328,-0.04548645,3.925888,0.0032043457,0.0095825195,0.0021209717,-22.444153,21.310425,-9.477234,0,0.0,0.0,0.0,0.0
0.03527832,0.40025926,-0.007870903,-0.9163681,0.0073869135,0.9999583,-0.0053623584,0.9163721,-0.0046227984,0.40030074,0.9912601,4.191892E-4,-0.13192132,-3.4485172E-4,0.9999998,5.863445E-4,0.13192154,-5.357266E-4,0.99126005,0.08274841,0.10757446,0.34088135,8.986481,-0.045333862,3.925583,-0.011703491,0.0021362305,0.0021209717,-22.085571,20.593262,-9.823608,0,0.0,0.0,0.0,0.0
0.039703369,0.4000935,-0.008082288,-0.91643876,0.007568975,0.99995625,-0.0055144294,0.91644305,-0.0047302134,0.40013716,0.98834264,2.5338418E-4,-0.15224546,-1.5642363E-4,0.99999976,6.488468E-4,0.1522456,-6.174682E-4,0.9883425,0.12045288,0.04638672,0.33773804,8.987076,-0.04638672,3.923935,-0.0053253174,-0.030899048,0.0053253174,-22.085571,20.593262,-9.823608,0,0.0,0.0,0.0,0.0
0.0440979,0.39976445,-0.008501858,-0.9165785,0.007817421,0.99995226,-0.0058656465,0.91658455,-0.004820403,0.39981183,0.9850787,8.666737E-5,-0.17210446,3.5051366E-5,0.99999976,7.041985E-4,0.17210448,-6.9972343E-4,0.98507845,0.04234314,0.05683899,0.2786255,8.988571,-0.04727173,3.9207916,-0.020217896,-0.06285095,0.020217896,-22.085571,20.593262,-9.823608,0,0.0,0.0,0.0,0.0
0.048522949,0.39945993,0.011528982,-0.9166782,-1.0211626E-4,0.99992144,0.012531426,0.9167506,-0.004912195,0.39942974,0.98020875,-4.13003E-4,-0.1979663,0.0010640036,0.9999944,0.0031820815,0.19796388,-0.0033297408,0.9802037,0.16520691,-0.0715332,0.41644287,8.990219,-0.048171997,3.9170532,-0.037261963,-0.10014343,0.011703491,-21.188354,21.84906,-8.958435,0,0.0,0.0,0.0,0.0
0.05291748,0.3988536,0.010829271,-0.91695064,3.2513542E-4,0.99992853,0.011950674,0.91701454,-0.0050647026,0.3988216,0.97622496,-1.7415688E-4,-0.21675989,8.986299E-4,0.99999434,0.003243723,0.2167581,-0.00336139,0.97621953,0.10998535,-0.036514282,0.0058288574,8.992767,-0.04966736,3.9110718,-0.026611328,-0.12251282,0.0053253174,-21.188354,21.84906,-8.958435,0,0.0,0.0,0.0,0.0
0.05847168,0.39822778,0.01010741,-0.9172309,6.9070095E-4,0.99993575,0.011318652,0.91728634,-0.0051409337,0.39819518,0.97196805,4.591724E-5,-0.23511298,7.5368606E-4,0.9999942,0.0033110708,0.23511177,-0.0033954564,0.9719624,-0.055511475,0.03126526,-0.18914795,8.995453,-0.05041504,3.9049377,-0.03086853,-0.1448822,0.01914978,-21.188354,21.84906,-8.958435,0,0.0,0.0,0.0,0.0
0.064056397,0.39761966,0.009406458,-0.91750216,0.001046906,0.99994224,0.010705354,0.9175498,-0.005217197,0.3975868,0.97196805,4.591724E-5,-0.23511298,7.5368606E-4,0.9999942,0.0033110708,0.23511177,-0.0033954564,0.9719624,-0.058059692,0.03201294,-0.1831665,8.998001,-0.05116272,3.8989563,-0.03086853,-0.1448822,0.01914978,-21.188354,21.84906,-8.958435,0,0.0,0.0,0.0,0.0
0.069610596,0.39662725,-0.036078908,-0.9172705,0.019097975,0.9993354,-0.031048803,0.91778105,-0.0052032075,0.39705265,0.9627107,4.1660253E-4,-0.27053285,5.370339E-4,0.9999939,0.0034509974,0.27053264,-0.0034675973,0.96270454,-0.021987915,0.03666687,-0.3072052,9.000244,-0.05102539,3.8937073,-0.014892578,-0.13635254,0.014892578,-22.444153,20.593262,-10.514832,0,0.0,0.0,0.0,0.0
0.075164795,0.39620358,-0.036623105,-0.917432,0.019312587,0.9993155,-0.03155146,0.9179596,-0.0052171824,0.39663967,0.9577506,-3.13469E-4,-0.28759977,0.0013074868,0.9999938,0.0032641862,0.287597,-0.0035023096,0.9577451,0.09591675,-0.082901,-0.26486206,9.002045,-0.05116272,3.889679,-0.0010681152,-0.10865784,-0.0010681152,-22.444153,20.593262,-10.514832,0,0.0,0.0,0.0,0.0
0.080535889,0.39601752,-0.03686194,-0.91750276,0.01937385,0.99930686,-0.03178629,0.9180385,-0.005187634,0.39645723,0.9577506,-3.13469E-4,-0.28759977,0.0013074868,0.9999938,0.0032641862,0.287597,-0.0035023096,0.9577451,0.09516907,-0.08319092,-0.26306152,9.002792,-0.050872803,3.8878784,-0.0010681152,-0.10865784,-0.0010681152,-22.444153,20.593262,-10.514832,0,0.0,0.0,0.0,0.0
0.085571289,0.3958812,-0.04304684,-0.9172923,0.021725802,0.9990603,-0.037507728,0.91804475,-0.005080306,0.39644435,0.9472548,-0.0017611274,-0.32047662,0.0028120284,0.9999921,0.0028164114,0.3204691,-0.0035690486,0.9472523,0.15740967,-0.041152954,-0.31558228,9.002792,-0.049819946,3.8877258,-0.009567261,-0.022369385,-0.021316528,-22.085571,20.951843,-10.514832,0,0.0,0.0,0.0,0.0
0.089202881,0.39601055,-0.04288627,-0.9172439,0.021541461,0.9990677,-0.037411682,0.91799325,-0.0049433527,0.3965652,0.9417553,-0.0025871103,-0.33628878,0.0036468208,0.99999017,0.0025196448,0.33627898,-0.003599274,0.9417555,0.10998535,0.029327393,-0.28326416,9.002335,-0.048477173,3.8889313,0.02130127,0.030883789,-0.021316528,-22.085571,20.951843,-10.514832,0,0.0,0.0,0.0,0.0
0.092834473,0.39692652,0.016230147,-0.9177068,-0.0020451467,0.9998567,0.016798448,0.9178481,-0.0047909054,0.39690292,0.9361101,-0.0033933565,-0.35169065,0.0044518523,0.99998766,0.0022011092,0.35167885,-0.0036261554,0.9361137,0.044448853,0.09007263,-0.05192566,9.000839,-0.04698181,3.892212,0.02557373,0.057510376,-0.021316528,-21.546936,20.414734,-8.958435,0,0.0,0.0,0.0,0.0
0.096466064,0.3974066,0.01683272,-0.9174882,-0.0024191807,0.9998475,0.017295867,0.91763943,-0.004653922,0.3973867,0.9361101,-0.0033933565,-0.35169065,0.0044518523,0.99998766,0.0022011092,0.35167885,-0.0036261554,0.9361137,0.04638672,0.08872986,-0.05671692,8.998901,-0.045639038,3.8970032,0.02557373,0.057510376,-0.021316528,-21.546936,20.414734,-8.958435,0,0.0,0.0,0.0,0.0
0.100097656,0.3978914,0.017441623,-0.9172667,-0.0028248522,0.9998378,0.017786331,0.9174282,-0.0044858856,0.39787614,0.9244624,-0.0025923734,-0.38126448,0.0037945947,0.9999899,0.0024015158,0.3812544,-0.0036668552,0.9244629,0.12509155,0.05834961,0.0438385,8.996811,-0.04399109,3.9017944,0.020248413,0.12461853,-0.018112183,-21.546936,20.414734,-8.958435,0,0.0,0.0,0.0,0.0
0.103729248,0.39753646,-0.055740688,-0.9158918,0.02627173,0.9984355,-0.049361188,0.9172102,-0.0044391905,0.39837885,0.9184795,-0.0021916756,-0.39546245,0.0034695887,0.9999908,0.002516271,0.3954533,-0.0036832357,0.91847867,0.1798706,0.153656,0.019744873,8.994705,-0.043533325,3.9067383,0.022369385,0.1224823,-0.026641846,-22.085571,20.951843,-10.861206,0,0.0,0.0,0.0,0.0
0.10736084,0.39793476,-0.05524661,-0.9157487,0.026025573,0.99846333,-0.048927434,0.9170446,-0.0043629594,0.3987611,0.9184795,-0.0021916756,-0.39546245,0.0034695887,0.9999908,0.002516271,0.3954533,-0.0036832357,0.91847867,0.18151855,0.15290833,0.01600647,8.993057,-0.042785645,3.9104767,0.022369385,0.1224823,-0.026641846,-22.085571,20.951843,-10.861206,0,0.0,0.0,0.0,0.0
0.110992432,0.39833048,-0.054755572,-0.9156062,0.025823,0.9984904,-0.048478074,0.9168784,-0.004333405,0.39914313,0.90625346,-0.0042937575,-0.42271295,0.0054596,0.9999839,0.0015473695,0.42269954,-0.0037101526,0.90626234,0.039505005,0.10473633,0.3187256,8.991409,-0.042495728,3.914215,0.02130127,0.102249146,0.0053253174,-22.085571,20.951843,-10.861206,0,0.0,0.0,0.0,0.0
0.114624023,0.3994529,0.0068706796,-0.9167281,0.0012838047,0.9999668,0.008053938,0.9167528,-0.0043940675,0.39943072,0.90197694,-0.005641125,-0.43174726,0.0065964,0.999978,7.152327E-4,0.43173376,-0.003493101,0.90199435,0.03112793,-0.009567261,0.2919464,8.990219,-0.04309082,3.9170532,0.0053253174,0.06816101,0.003189087,-22.085571,19.517517,-9.477234,0,0.0,0.0,0.0,0.0
0.118560791,0.39960906,0.0070812823,-0.91665834,0.0011840449,0.99996537,0.008241012,0.91668487,-0.0043785474,0.39958683,0.8957261,-0.005390891,-0.4445736,0.006389799,0.9999793,7.484262E-4,0.44456038,-0.0035111206,0.89574206,0.17552185,0.14826965,0.26171875,8.989471,-0.042938232,3.9185486,-0.025543213,0.051116943,0.004257202,-22.085571,19.517517,-9.477234,0,0.0,0.0,0.0,0.0
0.123931885,0.39965397,0.007141826,-0.9166383,0.0011451638,0.9999651,0.008290343,0.9166654,-0.0043629687,0.39963177,0.88942486,-0.0051414487,-0.45705256,0.0061857025,0.99998057,7.884626E-4,0.45703965,-0.0035284692,0.88943934,0.1230011,0.033218384,0.19902039,8.989319,-0.042785645,3.9190063,0.0,0.024490356,0.010650635,-22.085571,19.517517,-9.477234,0,0.0,0.0,0.0,0.0
0.129272461,0.3995512,-0.0090444805,-0.91666627,0.0076135527,0.9999496,-0.0065476615,0.91667926,-0.004362961,0.3995999,0.88308126,-0.004895784,-0.46919447,0.005986809,0.99998176,8.336508E-4,0.46918184,-0.003545159,0.8830945,0.03666687,0.023635864,-0.0688324,8.989471,-0.042785645,3.9187012,-0.0053253174,-0.01171875,0.014892578,-24.057007,20.414734,-10.687256,0,0.0,0.0,0.0,0.0
0.134643555,0.39950678,-0.0091067245,-0.91668504,0.007680914,0.99994886,-0.006586429,0.9166981,-0.004409656,0.39955622,0.87670153,-0.004978759,-0.48100898,0.0060780756,0.9999813,7.276207E-4,0.48099634,-0.0035615151,0.87671536,-0.035324097,-0.023788452,-0.025299072,8.989624,-0.04324341,3.9182587,0.0032043457,-0.01171875,0.0,-24.057007,20.414734,-10.687256,0,0.0,0.0,0.0,0.0
0.139984131,0.39938447,-0.00927787,-0.91673666,0.007873965,0.9999467,-0.006689638,0.9167497,-0.004546615,0.39943615,0.8702955,-0.0050613205,-0.49250388,0.0061673317,0.9999808,6.216774E-4,0.4924913,-0.0035784778,0.87031007,0.09831238,0.054153442,-0.048034668,8.990067,-0.04458618,3.9170532,-0.01914978,-0.01171875,0.0021209717,-24.057007,20.414734,-10.687256,0,0.0,0.0,0.0,0.0
0.145355225,0.39916503,-0.028915135,-0.9164231,0.015743814,0.9995713,-0.024681132,0.9167438,-0.0045761494,0.39944914,0.8638701,-0.0051456527,-0.5036884,0.006257444,0.9999803,5.163257E-4,0.5036758,-0.0035978407,0.8638852,0.12225342,-0.07962036,0.076309204,8.990067,-0.0448761,3.9172058,-0.027679443,-0.019180298,0.024475098,-21.009827,21.310425,-9.823608,0,0.0,0.0,0.0,0.0
0.150543213,0.3991326,-0.028953044,-0.91643596,0.015758088,0.99957025,-0.02471644,0.91675776,-0.0045761415,0.3994173,0.8574313,-0.005621117,-0.51456785,0.006681226,0.99997765,2.093031E-4,0.5145551,-0.0036174066,0.8574497,0.05986023,-0.022155762,-0.03829956,8.990219,-0.0448761,3.9169006,0.012786865,-0.0138549805,-0.004272461,-21.009827,21.310425,-9.823608,0,0.0,0.0,0.0,0.0
0.155059814,0.39917836,-0.028899528,-0.9164178,0.01573791,0.9995719,-0.024666615,0.9167383,-0.0045761215,0.39946225,0.85098773,-0.00608783,-0.52515024,0.0070905527,0.99997485,-1.0226201E-4,0.52513766,-0.0036365816,0.85100955,0.0025482178,-0.0077819824,0.109680176,8.990067,-0.0448761,3.9173584,0.014923096,-0.01171875,0.0021209717,-21.009827,21.310425,-9.823608,0,0.0,0.0,0.0,0.0
0.159362793,0.3994741,0.013528819,-0.91664463,-0.0011665835,0.9998978,0.014249161,0.91674376,-0.0046228287,0.3994491,0.84454674,-0.006544136,-0.53544194,0.007484233,0.9999719,-4.1679153E-4,0.5354296,-0.0036553724,0.84457195,0.04084778,-0.10310364,-0.0050811768,8.990067,-0.045333862,3.9172058,0.004257202,-0.010650635,0.0021209717,-22.444153,20.593262,-9.477234,0,0.0,0.0,0.0,0.0
0.163665772,0.3994745,0.013529318,-0.91664445,-0.0011382583,0.9998976,0.0142620485,0.9167436,-0.004653947,0.39944902,0.8381197,-0.0061426745,-0.54545164,0.0071528177,0.99997437,-2.7059997E-4,0.54543936,-0.0036747213,0.8381422,0.0791626,-0.08842468,0.023635864,8.990067,-0.045639038,3.9172058,0.0032043457,-0.0032043457,-0.0010681152,-22.444153,20.593262,-9.477234,0,0.0,0.0,0.0,0.0
0.16796875,0.3993501,0.013367702,-0.9167011,-0.0011003348,0.99990004,0.014101595,0.9167979,-0.004622795,0.39932486,0.83170617,-0.0057492317,-0.55518633,0.006832814,0.9999767,-1.19247474E-4,0.5551741,-0.003694306,0.831726,0.14082336,-0.045639038,0.03919983,8.990662,-0.045333862,3.9160156,-0.007446289,-0.015975952,-0.0010681152,-22.444153,20.593262,-9.477234,0,0.0,0.0,0.0,0.0
0.172271729,0.3992567,0.015949655,-0.9167004,-0.0021727202,0.9998623,0.01645029,0.9168366,-0.0045761545,0.3992364,0.82530934,-0.0053668893,-0.5646553,0.006525933,0.99997866,3.3893622E-5,0.56464314,-0.0037128755,0.8253268,0.05432129,0.0448761,0.006576538,8.990967,-0.0448761,3.9151154,0.009597778,-0.026626587,-0.007461548,-21.009827,20.951843,-8.786011,0,0.0,0.0,0.0,0.0
0.176574707,0.39911667,0.015782448,-0.9167643,-0.0022147521,0.99986565,0.016248867,0.91689754,-0.0044547883,0.399098,0.8189351,-0.004940549,-0.5738649,0.00618666,0.9999808,2.1959539E-4,0.57385284,-0.0037301413,0.81894994,0.044143677,-0.004196167,0.08934021,8.991562,-0.043685913,3.9137573,0.0063934326,-0.022369385,-0.005340576,-21.009827,20.951843,-8.786011,0,0.0,0.0,0.0,0.0
0.180877686,0.3989493,0.01558258,-0.9168406,-0.0021320437,0.9998687,0.016065996,0.91697055,-0.004454773,0.3989301,0.8125866,-0.0045260796,-0.58282286,0.005860347,0.9999827,4.0499098E-4,0.58281094,-0.003744634,0.8125991,-0.014053345,-0.056869507,-0.03352356,8.99231,-0.043685913,3.9121246,0.022369385,-0.038345337,-0.020248413,-21.009827,20.951843,-8.786011,0,0.0,0.0,0.0,0.0
0.185180664,0.39879447,-9.300883E-5,-0.9170403,0.0041080206,0.9999901,0.0016850383,0.9170311,-0.004439205,0.3987909,0.8049013,-0.0027962923,-0.5934021,0.004579305,0.9999884,0.0014992012,0.593391,-0.0039240783,0.80490476,0.081100464,-0.057022095,0.11148071,8.99292,-0.043533325,3.9107666,-0.013824463,-0.03515625,-0.014923096,-22.981262,21.131897,-9.996033,0,0.0,0.0,0.0,0.0
0.189483643,0.398706,-2.0743404E-4,-0.9170788,0.0040981937,0.99999046,0.0015555285,0.9170697,-0.0043785647,0.398703,0.7986227,-0.0027422265,-0.60182583,0.0045578256,0.9999885,0.0014917735,0.6018148,-0.003934381,0.798626,-0.053268433,0.023788452,0.0357666,8.99321,-0.042938232,3.9098663,0.0010681152,-0.040481567,-0.008529663,-22.981262,21.131897,-9.996033,0,0.0,0.0,0.0,0.0
0.193786621,0.39853716,-4.2566517E-4,-0.9171521,0.0041711675,0.9999904,0.0013484177,0.9171427,-0.004362989,0.3985351,0.7923829,-0.0026915309,-0.6100181,0.0045381943,0.9999886,0.0014827226,0.61000717,-0.003943265,0.7923861,-0.015701294,-0.014663696,-0.034423828,8.9939575,-0.042785645,3.9082336,0.009597778,-0.024505615,-0.008529663,-22.981262,21.131897,-9.996033,0,0.0,0.0,0.0,0.0
0.1980896,0.39842406,-5.7187607E-4,-0.9172012,0.0042295363,0.9999904,0.0012137778,0.91719157,-0.0043629333,0.39842263,0.78618413,-0.0026462136,-0.6179867,0.004522492,0.9999887,0.0014714358,0.6179758,-0.0039516594,0.7861872,-0.035461426,-0.024246216,0.009719849,8.994553,-0.042785645,3.9071808,0.0021362305,-0.039413452,-0.0032043457,-22.981262,21.131897,-9.996033,0,0.0,0.0,0.0,0.0
0.202392578,0.39830288,-7.2851166E-4,-0.9172536,0.0043477686,0.99998987,0.0010937265,0.9172436,-0.0044236416,0.39830205,0.7800301,-0.0026047267,-0.62573665,0.004509618,0.99998873,0.0014589843,0.6257258,-0.003959885,0.780033,0.0023956299,-0.009277344,0.010925293,8.99501,-0.043380737,3.9059753,0.007461548,-0.029830933,-0.0010681152,-22.981262,21.131897,-9.996033,0,0.0,0.0,0.0,0.0
0.206695557,0.39818355,-8.8272546E-4,-0.9173054,0.004493555,0.9999894,9.882681E-4,0.9172947,-0.0045154737,0.39818326,0.7739232,-0.0025672026,-0.6332742,0.004500392,0.99998885,0.0014461095,0.6332634,-0.00396916,0.77392614,0.035461426,-0.089782715,-0.08843994,8.995453,-0.044281006,3.9047852,-0.013824463,-0.027694702,0.008514404,-22.981262,21.131897,-9.996033,0,0.0,0.0,0.0,0.0
0.210998535,0.39808273,0.032210365,-0.9167838,-0.00867063,0.99947083,0.031350564,0.9173085,-0.004531025,0.39815137,0.76786625,-0.002533513,-0.6406052,0.00449507,0.99998885,0.0014332191,0.6405945,-0.0039800857,0.76786906,0.06404114,-0.032180786,-0.054611206,8.995605,-0.044433594,3.90448,-0.010635376,-0.020248413,0.008514404,-21.546936,21.131897,-8.613586,0,0.0,0.0,0.0,0.0
0.215301514,0.39805254,0.03217371,-0.9167983,-0.008654999,0.99947214,0.03131723,0.91732186,-0.0045310142,0.39812085,0.7618653,-0.0018385245,-0.6477329,0.0039858776,0.99999034,0.001849829,0.6477232,-0.0039911047,0.76186526,0.03994751,-0.022598267,-0.07826233,8.995758,-0.044433594,3.90419,0.004257202,-0.0063934326,-0.005340576,-21.546936,21.131897,-8.613586,0,0.0,0.0,0.0,0.0
0.219604492,0.39802143,0.032136004,-0.91681314,-0.0086246375,0.9994732,0.03128913,0.91733557,-0.0045465645,0.39808893,0.75591946,-0.0011581689,-0.6546637,0.0034953798,0.99999136,0.0022669148,0.65465534,-0.004001903,0.75591695,0.035003662,-0.008071899,-0.08753967,8.995911,-0.04458618,3.903885,0.02130127,-0.0021362305,0.0010528564,-21.546936,21.131897,-8.613586,0,0.0,0.0,0.0,0.0
0.223907471,0.39805663,0.022324946,-0.9170892,-0.004731313,0.99974054,0.022283353,0.9173486,-0.0045310003,0.39805895,0.75003046,-4.9217424E-4,-0.66140306,0.0030232188,0.99999183,0.0026841972,0.6613963,-0.004012796,0.75002587,0.11148071,0.010925293,-0.039367676,8.996048,-0.044433594,3.903595,-0.004257202,0.008514404,-0.008529663,-22.62268,21.131897,-9.30481,0,0.0,0.0,0.0,0.0
0.228210449,0.39805663,0.022324946,-0.9170892,-0.004731313,0.99974054,0.022283353,0.9173486,-0.0045310003,0.39805895,0.7441998,-3.579422E-5,-0.66795707,0.002713936,0.9999919,0.0029701262,0.6679515,-0.00402316,0.7441939,0.049240112,0.006134033,0.027679443,8.996048,-0.044433594,3.903595,0.004257202,0.01171875,0.008514404,-22.62268,21.131897,-9.30481,0,0.0,0.0,0.0,0.0
0.232513428,0.3980734,0.022346335,-0.9170813,-0.004740211,0.99973994,0.022302898,0.9173413,-0.0045310333,0.39807588,0.73843,4.1145817E-4,-0.67432994,0.002415956,0.99999183,0.003255779,0.67432576,-0.0040333164,0.738423,0.09246826,0.0013427734,0.065841675,8.995911,-0.044433594,3.9037323,0.007461548,0.0095825195,-0.008529663,-22.62268,21.131897,-9.30481,0,0.0,0.0,0.0,0.0
0.236816406,0.39798456,-0.012052471,-0.9173129,0.008912548,0.99991727,-0.00927101,0.9173488,-0.004485878,0.39805904,0.7327228,8.501934E-4,-0.68052673,0.0021286043,0.9999915,0.0035411734,0.68052393,-0.0040432704,0.7327148,0.020507813,0.11581421,-0.053726196,8.996048,-0.04399109,3.903595,0.008529663,0.020217896,-0.0063934326,-22.802734,20.951843,-10.168457,0,0.0,0.0,0.0,0.0
0.241119385,0.39801502,-0.012013107,-0.91730016,0.008882915,0.99991775,-0.009240798,0.91733587,-0.004470323,0.39808908,0.7270775,5.92134E-4,-0.6865552,0.0023514829,0.9999916,0.0033527375,0.6865514,-0.0040521226,0.72707,0.05895996,0.05819702,0.1614685,8.995911,-0.0438385,3.903885,-0.004257202,0.020217896,-0.004272461,-22.802734,20.951843,-10.168457,0,0.0,0.0,0.0,0.0
0.245422363,0.39798492,-0.012052023,-0.9173128,0.0088838255,0.9999175,-0.009282985,0.91734904,-0.0044547594,0.39805913,0.7214973,3.4002325E-4,-0.6924171,0.0025662265,0.9999917,0.0031650662,0.69241244,-0.0040604863,0.72149044,0.13064575,0.034118652,-0.058517456,8.996048,-0.043685913,3.903595,-0.004257202,0.008514404,0.004257202,-22.802734,20.951843,-10.168457,0,0.0,0.0,0.0,0.0
0.249725342,0.3977582,-0.02734816,-0.91708255,0.014941815,0.9996161,-0.023328796,0.91736853,-0.004423659,0.39801416,0.71612847,-0.0010927451,-0.69796765,0.0034663314,0.999992,0.0019909262,0.6979599,-0.0038451462,0.7161265,0.096969604,0.06732178,-0.12030029,8.996201,-0.043380737,3.9031372,0.014923096,0.003189087,0.010650635,-22.802734,20.951843,-10.514832,0,0.0,0.0,0.0,0.0
0.25402832,0.39774486,-0.027365334,-0.91708785,0.014948342,0.9996157,-0.023344755,0.9173743,-0.004423687,0.3980011,0.7106762,-0.0016179219,-0.7035174,0.003863086,0.99999124,0.0016026548,0.7035086,-0.0038567164,0.71067625,0.073028564,-0.0140686035,0.023498535,8.996201,-0.043380737,3.9029846,0.009597778,-0.014907837,-0.0063934326,-22.802734,20.951843,-10.514832,0,0.0,0.0,0.0,0.0
0.258331299,0.39780366,-0.027289638,-0.9170646,0.014933923,0.9996178,-0.023268197,0.9173491,-0.0044392,0.39805916,0.705291,-0.0021329382,-0.70891476,0.0042464687,0.9999902,0.0012160536,0.7089052,-0.003868056,0.7052931,0.034866333,-0.013916016,0.17611694,8.996048,-0.043533325,3.903595,-0.0053253174,-0.0032043457,-0.009597778,-22.802734,20.951843,-10.514832,0,0.0,0.0,0.0,0.0
0.262634277,0.39805946,-0.006326792,-0.9173378,0.006563758,0.9999703,-0.0040484956,0.91733617,-0.0044096415,0.39808917,0.69997436,-0.0026361395,-0.7141631,0.004615823,0.99998903,8.329287E-4,0.71415305,-0.0038794787,0.6999789,0.07331848,0.07196045,0.13752747,8.995911,-0.04324341,3.903885,-0.0021209717,-0.0021362305,-0.0010681152,-21.905518,21.131897,-9.651184,0,0.0,0.0,0.0,0.0
0.266937256,0.39804608,-0.00634325,-0.9173435,0.006597396,0.99996996,-0.004051909,0.91734165,-0.004439232,0.398076,0.69472855,-0.0027099533,-0.7192669,0.0046807025,0.99998873,7.5339864E-4,0.7192568,-0.003890082,0.69473344,0.039794922,-0.080963135,-0.034713745,8.995911,-0.043533325,3.9037323,-0.004257202,-0.0032043457,-0.0010681152,-21.905518,21.131897,-9.651184,0,0.0,0.0,0.0,0.0
0.271240234,0.39807257,-0.006310648,-0.91733223,0.0065702097,0.9999702,-0.004028028,0.9173303,-0.0044236174,0.39810222,0.6895513,-0.0027826203,-0.7242315,0.004744048,0.9999885,6.747516E-4,0.7242212,-0.003901065,0.6895566,-0.0320282,0.014663696,0.07032776,8.995911,-0.043380737,3.9040375,-0.0021209717,-0.0021362305,-0.0021362305,-21.905518,21.131897,-9.651184,0,0.0,0.0,0.0,0.0
0.275543213,0.39811236,-0.0077151214,-0.9173043,0.007129634,0.9999604,-0.0053160344,0.9173089,-0.004423664,0.39815155,0.6844436,-0.0028531817,-0.7290602,0.004804589,0.9999883,5.971005E-4,0.72905,-0.003911516,0.6844493,0.040100098,0.0098724365,0.1512909,8.995605,-0.043380737,3.90448,0.009597778,-0.0032043457,0.003189087,-22.62268,21.131897,-9.996033,0,0.0,0.0,0.0,0.0
0.279846191,0.39810058,-0.007729956,-0.91730917,0.0071083754,0.9999605,-0.0053414945,0.91731423,-0.0043941257,0.39813986,0.6794059,-0.0029504218,-0.73375666,0.004882169,0.99998796,4.9960497E-4,0.73374635,-0.003921759,0.6794121,0.09277344,0.06703186,0.026931763,8.995605,-0.04309082,3.9043427,-0.012771606,0.0063934326,-0.007461548,-22.62268,21.131897,-9.996033,0,0.0,0.0,0.0,0.0
0.28414917,0.3980817,-0.0077540567,-0.9173172,0.0071178284,0.99996024,-0.005363763,0.91732234,-0.0043940903,0.39812106,0.67443746,-0.0030460136,-0.7383256,0.004956877,0.9999876,4.0243426E-4,0.7383153,-0.003931206,0.6744442,0.10699463,0.014373779,-0.016021729,8.995758,-0.04309082,3.90419,0.014923096,-0.0010681152,-0.012786865,-22.62268,21.131897,-9.996033,0,0.0,0.0,0.0,0.0
0.288452148,0.3978218,-0.028148338,-0.9170308,0.015235058,0.99959415,-0.024073428,0.9173362,-0.0043940824,0.3980892,0.66953826,-0.0031401757,-0.74277085,0.0050293524,0.9999873,3.058929E-4,0.7427605,-0.003940464,0.6695456,0.2026062,0.0047912598,0.013015747,8.995911,-0.04309082,3.903885,-0.010635376,0.007461548,0.003189087,-21.546936,21.131897,-9.996033,0,0.0,0.0,0.0,0.0
0.292755127,0.39785832,-0.028104309,-0.9170163,0.015078548,0.99959606,-0.02409317,0.917323,-0.004241607,0.39812136,0.66470605,-0.0036404107,-0.7470961,0.005370523,0.9999856,-9.441818E-5,0.7470857,-0.0039495365,0.664716,0.20755005,0.05116272,0.14678955,8.995758,-0.04159546,3.90419,-0.009567261,0.02128601,-0.005340576,-21.546936,21.131897,-9.996033,0,0.0,0.0,0.0,0.0
0.297058105,0.39784577,-0.028119422,-0.9170213,0.015055707,0.9995957,-0.024119621,0.9173288,-0.004210514,0.3981083,0.65994364,-0.004129759,-0.7513038,0.0056971507,0.99998367,-4.9233437E-4,0.75129354,-0.003955378,0.6599564,0.10699463,0.08917236,0.027236938,8.995758,-0.041290283,3.9040375,0.022369385,0.0021362305,-0.022384644,-21.546936,21.131897,-9.996033,0,0.0,0.0,0.0,0.0
0.301361084,0.39796612,-0.021290248,-0.917153,0.012310908,0.9997646,-0.017866062,0.91731757,-0.004180899,0.39813456,0.6552503,-0.004609621,-0.75539786,0.0060122665,0.9999815,-8.8694575E-4,0.7553879,-0.003960481,0.6552659,-0.02708435,0.050567627,0.07002258,8.995758,-0.041000366,3.9043427,-0.0063934326,0.01171875,-0.0032043457,-21.188354,19.69757,-9.651184,0,0.0,0.0,0.0,0.0
0.305664063,0.39798358,-0.021267982,-0.917146,0.01231526,0.99976504,-0.017839814,0.9173099,-0.0041949386,0.39815196,0.6506273,-0.0049432614,-0.7593811,0.006227171,0.9999799,-0.0011741077,0.7593717,-0.0039648893,0.650645,0.044891357,-0.030685425,0.08425903,8.995605,-0.041137695,3.90448,-0.011703491,0.01171875,0.0,-21.188354,19.69757,-9.651184,0,0.0,0.0,0.0,0.0
0.309967041,0.3980785,-0.021147093,-0.9171076,0.012283236,0.9997675,-0.01772146,0.9172691,-0.0042105187,0.39824566,0.64607346,-0.0052697835,-0.763257,0.0064345133,0.99997824,-0.0014575694,0.7632481,-0.0039694905,0.64609337,0.05970764,-0.006591797,0.0067443848,8.995163,-0.041290283,3.9053802,0.017044067,0.0010681152,-0.0032043457,-21.188354,19.69757,-9.651184,0,0.0,0.0,0.0,0.0
0.31427002,0.39802578,0.04833363,-0.9161,-0.0154212685,0.99882245,0.045997877,0.9172446,-0.0041809143,0.39830247,0.6415899,-0.0055873566,-0.7670275,0.00663332,0.9999765,-0.0017357315,0.7670192,-0.003974311,0.6416119,0.07421875,0.026641846,-0.036956787,8.99501,-0.041000366,3.9059753,-0.0063934326,0.024490356,-0.0010681152,-23.519897,20.593262,-9.132385,0,0.0,0.0,0.0,0.0
0.318572998,0.3980297,0.04833899,-0.9160981,-0.015340731,0.99882185,0.04603871,0.91724426,-0.0042711594,0.39830232,0.63820714,-0.0056553506,-0.76984394,0.006213839,0.9999783,-0.0021946146,0.7698396,-0.003383068,0.6382284,0.07901001,-0.087387085,-0.16145325,8.99501,-0.041885376,3.9059753,0.019180298,0.020217896,0.004257202,-23.519897,20.593262,-9.132385,0,0.0,0.0,0.0,0.0
0.322875977,0.39798903,0.04828339,-0.91611874,-0.015273608,0.99882436,0.046007026,0.917263,-0.0043178536,0.39825857,0.63385314,-0.004575098,-0.7734398,0.005530346,0.9999837,-0.0013829079,0.7734336,-0.0034008299,0.6338682,0.002243042,-0.09651184,-0.1370697,8.995163,-0.04234314,3.9055328,-0.020217896,0.015960693,0.0053253174,-23.519897,20.593262,-9.132385,0,0.0,0.0,0.0,0.0
0.327178955,0.3983861,0.0136096375,-0.9171168,-0.001504451,0.9998982,0.014184562,0.91721654,-0.004271175,0.398366,0.6295652,-0.003517558,-0.7769397,0.0048710546,0.99998796,-5.803141E-4,0.7769324,-0.0034191704,0.6295747,0.08888245,0.09454346,-0.018417358,8.994705,-0.041885376,3.9065857,0.0032043457,0.014892578,0.0021209717,-21.72699,20.593262,-9.132385,0,0.0,0.0,0.0,0.0
0.331481934,0.39841703,0.013648419,-0.91710293,-0.001491827,0.9998977,0.014232485,0.9172032,-0.0043023047,0.39839655,0.62534225,-0.003175007,-0.7803441,0.004666918,0.99998903,-3.2876665E-4,0.7803367,-0.0034362106,0.62535024,-0.040252686,-0.07751465,0.086639404,8.994553,-0.04219055,3.9068756,-0.028747559,0.031936646,-0.012786865,-21.72699,20.593262,-9.132385,0,0.0,0.0,0.0,0.0
0.335784912,0.39843008,0.013664843,-0.9170969,-0.0014985991,0.99989736,0.014247516,0.91719747,-0.004302278,0.39840963,0.62118644,-0.0028385308,-0.78365767,0.0044696624,0.99999,-7.912726E-5,0.7836501,-0.0034535325,0.62119293,0.031585693,0.023040771,0.091278076,8.994553,-0.04219055,3.9070282,0.010650635,0.014892578,0.0010528564,-21.72699,20.593262,-9.132385,0,0.0,0.0,0.0,0.0
0.340087891,0.39822087,-0.021722175,-0.91703236,0.012585124,0.9997548,-0.018216576,0.9172032,-0.004286745,0.39839655,0.61709684,-0.0025084554,-0.7868832,0.004278857,0.9999908,1.6779709E-4,0.7868756,-0.0034705075,0.61710197,0.13214111,0.046813965,-0.009124756,8.994553,-0.042037964,3.9068756,0.0010681152,-0.0010681152,-0.0010681152,-21.905518,20.414734,-9.996033,0,0.0,0.0,0.0,0.0
0.344390869,0.3981713,-0.0217851,-0.9170523,0.012582054,0.99975365,-0.018286765,0.9172248,-0.0042571374,0.39834732,0.6130695,-0.0028927634,-0.79002374,0.004528165,0.99998975,-1.476591E-4,0.790016,-0.0034868321,0.61307627,0.03605652,0.07046509,-0.13317871,8.994858,-0.041748047,3.906433,0.015975952,0.01171875,-0.007461548,-21.905518,20.414734,-9.996033,0,0.0,0.0,0.0,0.0
0.348693848,0.39815798,-0.021801999,-0.9170577,0.012588546,0.99975324,-0.018302435,0.9172305,-0.0042571635,0.3983342,0.6091062,-0.0032706435,-0.79308194,0.0047697593,0.9999885,-4.6062842E-4,0.7930743,-0.003502238,0.60911477,0.12225342,-0.020492554,0.024993896,8.994858,-0.041748047,3.9062805,0.010650635,0.013839722,0.004257202,-21.905518,20.414734,-9.996033,0,0.0,0.0,0.0,0.0
0.352996826,0.39807406,-0.027881915,-0.9169295,0.015009839,0.9996022,-0.023879476,0.9172305,-0.0042571635,0.3983342,0.605207,-0.0036413036,-0.79605985,0.0050037913,0.9999872,-7.699516E-4,0.7960524,-0.0035173367,0.60521746,0.08872986,0.06568909,0.024993896,8.994858,-0.041748047,3.9062805,-0.0021209717,0.010650635,-0.0021362305,-22.802734,20.23468,-10.514832,0,0.0,0.0,0.0,0.0
0.357299805,0.39807487,-0.027880833,-0.9169291,0.014980875,0.9996024,-0.023890873,0.91723067,-0.0042260448,0.3983343,0.605207,-0.0036413036,-0.79605985,0.0050037913,0.9999872,-7.699516E-4,0.7960524,-0.0035173367,0.60521746,0.08872986,0.06538391,0.024993896,8.994858,-0.04144287,3.9062805,-0.0021209717,0.010650635,-0.0021362305,-22.802734,20.23468,-10.514832,0,0.0,0.0,0.0,0.0
0.361602783,0.39810783,-0.02783703,-0.91691625,0.014949999,0.9996036,-0.023856362,0.9172168,-0.0042104926,0.39836612,0.5975981,-0.0046013254,-0.8017826,0.005592456,0.99998313,-0.0015705088,0.80177635,-0.0035454014,0.5976137,-0.030822754,0.017349243,0.0725708,8.994705,-0.041290283,3.9065857,-0.007446289,0.0053253174,-0.004272461,-22.802734,20.23468,-10.514832,0,0.0,0.0,0.0,0.0
0.365905762,0.3942869,-0.13297212,-0.90931636,0.056796018,0.99111086,-0.12030597,0.91723067,-0.004210485,0.3983343,0.5938882,-0.005066106,-0.8045317,0.005871883,0.99998087,-0.001962343,0.8045262,-0.0035587032,0.5939066,0.10310364,0.031723022,-0.037261963,8.994858,-0.041290283,3.9062805,-0.004257202,0.0021362305,-0.0021362305,-20.829773,20.773315,-12.069702,0,0.0,0.0,0.0,0.0
0.37020874,0.3942869,-0.13297212,-0.90931636,0.056796018,0.99111086,-0.12030597,0.91723067,-0.004210485,0.3983343,0.59022516,-0.007632077,-0.8072025,0.007388031,0.9999645,-0.00405252,0.80720484,-0.0035717387,0.5902606,0.045639038,-0.011367798,0.005844116,8.994858,-0.041290283,3.9062805,-0.010635376,0.014892578,0.0,-20.829773,20.773315,-12.069702,0,0.0,0.0,0.0,0.0
0.374511719,0.3942869,-0.13297212,-0.90931636,0.056796018,0.99111086,-0.12030597,0.91723067,-0.004210485,0.3983343,0.58662003,-0.01014668,-0.8097987,0.008855548,0.99994206,-0.006114175,0.8098139,-0.003584514,0.58667594,0.06958008,-0.0018005371,0.020202637,8.994858,-0.041290283,3.9062805,0.0053253174,0.010650635,-0.009597778,-20.829773,20.773315,-12.069702,0,0.0,0.0,0.0,0.0
0.378814697,0.3982041,-0.019179989,-0.9170964,0.011474584,0.9998074,-0.015927516,0.9172251,-0.004180896,0.39834744,0.5830723,-0.012610929,-0.8123224,0.010276036,0.999914,-0.008147224,0.8123552,-0.0035970334,0.5831517,-0.016601563,0.06971741,0.03919983,8.994858,-0.041000366,3.906433,0.0010681152,0.007461548,-0.01171875,-22.444153,20.23468,-10.168457,0,0.0,0.0,0.0,0.0
0.383117676,0.39815763,-0.01924104,-0.9171152,0.011539514,0.9998059,-0.01596611,0.91724443,-0.0042260364,0.39830238,0.5796068,-0.012742318,-0.8147966,0.010326929,0.9999123,-0.0082912,0.81483084,-0.0036087106,0.5796876,0.13647461,-0.12135315,-0.08963013,8.99501,-0.04144287,3.9059753,0.0,0.008514404,-0.010665894,-22.444153,20.23468,-10.168457,0,0.0,0.0,0.0,0.0
0.387420654,0.39815843,-0.019239977,-0.91711485,0.011497709,0.99980617,-0.0159831,0.9172446,-0.0041809143,0.39830247,0.5759745,-0.013166588,-0.81736153,0.010091488,0.9999086,-0.00899595,0.8174053,-0.0030669563,0.57605475,0.08380127,0.12239075,0.049240112,8.99501,-0.041000366,3.9059753,0.008529663,-0.004257202,-0.004272461,-22.444153,20.23468,-10.168457,0,0.0,0.0,0.0,0.0
0.393554688,0.39832425,0.008892948,-0.9172015,2.9265787E-4,0.9999517,0.009822368,0.9172446,-0.0041809143,0.39830247,0.57262975,-0.013288061,-0.8197064,0.010142488,0.99990696,-0.009123918,0.8197513,-0.0030892354,0.5727112,0.10295105,0.064941406,0.044448853,8.99501,-0.041000366,3.9059753,0.0021362305,-0.017044067,0.011703491,-21.905518,21.490479,-9.30481,0,0.0,0.0,0.0,0.0
0.399688721,0.398324,0.00889264,-0.91720164,2.6423787E-4,0.9999518,0.009809689,0.9172447,-0.0041497946,0.3983025,0.57262975,-0.013288061,-0.8197064,0.010142488,0.99990696,-0.009123918,0.8197513,-0.0030892354,0.5727112,0.10295105,0.06463623,0.044448853,8.99501,-0.04069519,3.9059753,0.0021362305,-0.017044067,0.011703491,-21.905518,21.490479,-9.30481,0,0.0,0.0,0.0,0.0
0.405853272,0.39828038,0.0088397255,-0.9172211,2.8579473E-4,0.9999523,0.009761147,0.9172637,-0.0041498104,0.39825886,0.5661233,-0.012409756,-0.82422715,0.009607203,0.9999181,-0.008456258,0.8242646,-0.0031312334,0.5661962,0.1889801,0.03112793,-0.08439636,8.995163,-0.04069519,3.9055328,0.01171875,0.0021362305,0.007446289,-21.905518,21.490479,-9.30481,0,0.0,0.0,0.0,0.0
0.410705566,0.39828038,0.0088397255,-0.9172211,2.8579473E-4,0.9999523,0.009761147,0.9172637,-0.0041498104,0.39825886,0.5629536,-0.011984788,-0.8264016,0.009352196,0.9999232,-0.008130448,0.82643557,-0.0031516051,0.56302243,0.13632202,-0.02154541,0.0975647,8.995163,-0.04069519,3.9055328,-0.0084991455,0.0,-0.0021362305,-21.905518,21.490479,-9.30481,0,0.0,0.0,0.0,0.0
0.41519165,0.3982623,0.008817819,-0.9172292,3.089595E-4,0.9999524,0.009747232,0.9172715,-0.004165342,0.39824063,0.559839,-0.011568317,-0.82852066,0.009104858,0.99992806,-0.007809376,0.82855135,-0.0031715692,0.5599041,0.045196533,-0.026184082,-0.060302734,8.9953,-0.04084778,3.9053802,-0.004257202,-0.0063934326,-0.007461548,-21.905518,21.490479,-9.30481,0,0.0,0.0,0.0,0.0
0.419525147,0.39826217,0.008817666,-0.91722924,2.947487E-4,0.9999525,0.0097408965,0.91727155,-0.0041497825,0.39824066,0.5567786,-0.011160613,-0.83058596,0.008865445,0.99993265,-0.007493229,0.8306136,-0.0031914448,0.55684006,0.10745239,0.03591919,0.049835205,8.9953,-0.04069519,3.9053802,0.004257202,0.02128601,-0.01171875,-21.905518,21.490479,-9.30481,0,0.0,0.0,0.0,0.0
0.423858643,0.3977187,-0.042985957,-0.9164999,0.020893782,0.9990673,-0.037791617,0.9172696,-0.004118717,0.39824587,0.5537719,-0.0107610645,-0.8325989,0.0086329505,0.999937,-0.0071819695,0.83262366,-0.0032106114,0.5538299,0.026184082,0.059539795,0.040252686,8.995163,-0.040390015,3.9053802,0.012786865,-0.007461548,-0.014923096,-22.802734,20.593262,-10.861206,0,0.0,0.0,0.0,0.0
0.428192139,0.3977012,-0.04300876,-0.9165064,0.020874988,0.9990663,-0.037824716,0.91727746,-0.004089126,0.39822766,0.5508093,-0.011405784,-0.8345531,0.008977721,0.9999298,-0.007740632,0.8345828,-0.0032287736,0.55087304,0.035614014,0.08319092,-0.036209106,8.9953,-0.040100098,3.9052277,-0.003189087,0.0010681152,-0.012786865,-22.802734,20.593262,-10.861206,0,0.0,0.0,0.0,0.0
0.432525635,0.3976833,-0.043032162,-0.9165131,0.020883553,0.9990654,-0.0378466,0.91728514,-0.0040890905,0.39821023,0.5478987,-0.012038061,-0.836458,0.0093116015,0.9999223,-0.008291284,0.83649284,-0.0032459807,0.5479682,0.059417725,0.016159058,-0.045639038,8.995453,-0.040100098,3.9050903,0.0138549805,-0.010650635,-0.01171875,-22.802734,20.593262,-10.861206,0,0.0,0.0,0.0,0.0
0.436859131,0.39761627,-0.047624204,-0.916315,0.022655778,0.99885714,-0.042083208,0.91727203,-0.004026863,0.39824086,0.54503936,-0.012658157,-0.8383149,0.009635438,0.9999146,-0.008833652,0.83835506,-0.0032628428,0.54511476,0.08828735,0.1639862,0.13124084,8.9953,-0.039489746,3.9053802,0.0010681152,0.003189087,0.0053253174,-21.009827,20.23468,-10.168457,0,0.0,0.0,0.0,0.0
0.441192627,0.39760283,-0.047640666,-0.91632,0.022661755,0.9988564,-0.04209862,0.91727775,-0.004026888,0.39822778,0.54223055,-0.013357773,-0.84012353,0.00999812,0.9999054,-0.009445306,0.84017026,-0.0032781232,0.5423128,0.15533447,-0.0036010742,0.045196533,8.9953,-0.039489746,3.9052277,0.010650635,-0.0053253174,-0.012786865,-21.009827,20.23468,-10.168457,0,0.0,0.0,0.0,0.0
0.445526123,0.3975393,-0.04771845,-0.9163435,0.022676997,0.9988527,-0.042177092,0.9173048,-0.0040128664,0.39816535,0.53947157,-0.01404372,-0.8418867,0.010349857,0.99989593,-0.01004744,0.84194016,-0.0032930984,0.5395608,0.08320618,0.005844116,-0.16011047,8.995605,-0.039352417,3.9046326,0.0063934326,0.004257202,-0.008529663,-21.009827,20.23468,-10.168457,0,0.0,0.0,0.0,0.0
0.449859619,0.3981547,0.008835443,-0.91727567,1.3465271E-4,0.999953,0.0096902605,0.9173182,-0.0039817374,0.39813486,0.53676075,-0.0147175,-0.8436061,0.0106914155,0.9998862,-0.010641333,0.84366673,-0.0033074939,0.536857,0.08305359,0.08692932,-0.08320618,8.995758,-0.03904724,3.9043427,0.0032043457,0.0021362305,-0.0032043457,-21.905518,21.131897,-9.30481,0,0.0,0.0,0.0,0.0
0.454193115,0.39814138,0.008818992,-0.9172816,1.1281879E-4,0.99995327,0.009662788,0.91732407,-0.003950643,0.3981218,0.5342904,-0.013720236,-0.84518963,0.010210621,0.9999001,-0.0097770095,0.84523934,-0.0034061493,0.5343771,0.08305359,0.06745911,0.012710571,8.995758,-0.038742065,3.90419,-0.007446289,0.003189087,-0.0032043457,-21.905518,21.131897,-9.30481,0,0.0,0.0,0.0,0.0
0.458526611,0.3980964,0.008763528,-0.9173017,1.3538916E-4,0.99995375,0.009611909,0.9173435,-0.0039506597,0.39807683,0.531684,-0.013269481,-0.8468389,0.009949941,0.9999061,-0.009420931,0.84688437,-0.003417039,0.53176606,0.12599182,-0.004348755,-0.077804565,8.995911,-0.038742065,3.9037323,-0.012771606,0.007461548,-0.0032043457,-21.905518,21.131897,-9.30481,0,0.0,0.0,0.0,0.0
0.462860107,0.39812204,0.007143287,-0.91730464,8.0869533E-4,0.99996656,0.008137981,0.9173321,-0.00398173,0.398103,0.5291238,-0.012828847,-0.8484476,0.00969728,0.9999118,-0.009071455,0.8484892,-0.0034277115,0.52920157,0.0541687,-0.06628418,0.11820984,8.995911,-0.03904724,3.9040375,0.0021362305,-0.0053253174,-0.019180298,-22.62268,21.490479,-9.651184,0,0.0,0.0,0.0,0.0
0.467193604,0.39818406,0.0072208703,-0.91727716,7.073295E-4,0.9999664,0.0081788525,0.9173053,-0.0039055059,0.39816555,0.5266101,-0.012429428,-0.85001606,0.00946941,0.99991685,-0.008754785,0.8500542,-0.0034387922,0.52668405,-0.017349243,0.0047912598,-0.059555054,8.995605,-0.03829956,3.9046326,0.0010681152,0.018096924,-0.0010681152,-22.62268,21.490479,-9.651184,0,0.0,0.0,0.0,0.0
0.4715271,0.39819697,0.0072370386,-0.91727144,6.722077E-4,0.9999663,0.008181293,0.9172997,-0.0038743624,0.39817867,0.5241434,-0.012036444,-0.851545,0.009245902,0.9999216,-0.00844268,0.85157984,-0.0034481266,0.5242136,-0.017349243,0.081085205,0.04084778,8.995605,-0.037994385,3.9047852,-0.004257202,0.018096924,-0.020248413,-22.62268,21.490479,-9.651184,0,0.0,0.0,0.0,0.0
0.475860596,0.39800116,-0.019793551,-0.91717136,0.011448456,0.99979645,-0.0166087,0.9173134,-0.0038899146,0.39814675,0.52172196,-0.0116509935,-0.85303605,0.009028004,0.99992615,-0.008135677,0.8530679,-0.0034566512,0.5217886,0.02558899,-0.014511108,-0.083343506,8.995758,-0.038146973,3.90448,-0.0010681152,0.0095825195,-0.005340576,-22.444153,19.876099,-10.168457,0,0.0,0.0,0.0,0.0
0.480194092,0.39801964,-0.019768847,-0.9171639,0.011467533,0.999797,-0.016573405,0.91730523,-0.0039210655,0.39816552,0.5193392,-0.011813855,-0.8544865,0.009097269,0.9999242,-0.008295498,0.8545198,-0.0034653167,0.51940733,0.040100098,-0.08604431,0.079315186,8.995605,-0.03845215,3.9046326,0.015975952,-0.007461548,0.008514404,-22.444153,19.876099,-10.168457,0,0.0,0.0,0.0,0.0
0.484527588,0.39798915,-0.019809542,-0.9171761,0.01145463,0.99979615,-0.01662351,0.91731864,-0.0038899367,0.398135,0.51700056,-0.011972965,-0.8559013,0.009164632,0.9999223,-0.008451808,0.85593605,-0.0034744318,0.5170701,0.10220337,0.07165527,-0.040115356,8.995758,-0.038146973,3.9043427,0.0053253174,0.012786865,-0.0010681152,-22.444153,19.876099,-10.168457,0,0.0,0.0,0.0,0.0
0.488861084,0.3970548,-0.06384274,-0.9155717,0.028949626,0.99795234,-0.057032596,0.91733813,-0.0038603898,0.39809006,0.5147044,-0.012129705,-0.8572819,0.009229765,0.99992037,-0.008606433,0.85731804,-0.003482742,0.51477534,0.05895996,0.057006836,-0.10189819,8.995911,-0.037857056,3.903885,-0.003189087,0.010650635,0.007446289,-21.188354,21.490479,-10.687256,0,0.0,0.0,0.0,0.0
0.49319458,0.39703515,-0.06386557,-0.91557866,0.028970376,0.997951,-0.05704857,0.91734606,-0.0038743678,0.39807186,0.5124413,-0.0131647475,-0.8586213,0.009744064,0.99990726,-0.009515563,0.85866696,-0.0034902948,0.51252204,0.17373657,-0.009887695,-0.0059814453,8.996048,-0.037994385,3.9037323,0.007461548,0.01171875,-0.0032043457,-21.188354,21.490479,-10.687256,0,0.0,0.0,0.0,0.0
0.497528076,0.39705572,-0.06384165,-0.91557133,0.028934946,0.9979526,-0.05703778,0.9173383,-0.0038448307,0.39809012,0.51021916,-0.014179532,-0.8599275,0.010243963,0.9998933,-0.010409428,0.8599833,-0.003497976,0.51031,-0.008087158,0.04248047,0.07048035,8.995911,-0.037704468,3.903885,0.0010681152,0.0,0.004257202,-21.188354,21.490479,-10.687256,0,0.0,0.0,0.0,0.0
0.501861572,0.39748856,-0.04838755,-0.9163304,0.022773031,0.99882126,-0.04286499,0.9173245,-0.003829278,0.39812198,0.50803816,-0.015173528,-0.8612009,0.0107287,0.99987876,-0.011287841,0.86126775,-0.0035049133,0.5081393,-0.0031433105,0.07106018,0.08932495,8.995758,-0.03755188,3.90419,0.0032043457,0.008514404,0.0010528564,-22.444153,21.310425,-10.861206,0,0.0,0.0,0.0,0.0
0.506195068,0.3974858,-0.04839099,-0.91633147,0.022830004,0.9988208,-0.04284402,0.9173242,-0.0038899602,0.39812186,0.50590116,-0.015838096,-0.862446,0.01104262,0.99986845,-0.011884264,0.86252075,-0.0035114007,0.5060095,0.04473877,-0.1581726,0.012710571,8.995758,-0.038146973,3.90419,-0.007446289,0.007461548,0.0,-22.444153,21.310425,-10.861206,0,0.0,0.0,0.0,0.0
0.510528564,0.3975035,-0.04836908,-0.916325,0.022737758,0.9988224,-0.042860106,0.917319,-0.0037981356,0.39813516,0.5038037,-0.016489433,-0.8636608,0.01134854,0.99985784,-0.012469772,0.8637436,-0.003518972,0.5039192,0.09741211,0.022888184,0.20410156,8.995758,-0.037246704,3.9043427,0.010650635,0.0021362305,-0.005340576,-22.444153,21.310425,-10.861206,0,0.0,0.0,0.0,0.0
0.514862061,0.39713767,0.08022557,-0.9142459,-0.028425507,0.99676937,0.07511935,0.91731876,-0.003844814,0.39813507,0.5017455,-0.017127298,-0.8648457,0.011643844,0.9998471,-0.0130456025,0.86493695,-0.0035245554,0.50186825,0.10220337,0.056854248,0.031723022,8.995758,-0.037704468,3.9043427,0.022369385,-0.008529663,-0.009597778,-23.519897,20.23468,-8.441162,0,0.0,0.0,0.0,0.0
0.519195557,0.3971343,0.08022096,-0.9142477,-0.028466348,0.9967699,0.07509658,0.917319,-0.0037981356,0.39813516,0.49993405,-0.013432292,-0.8659592,0.010791642,0.9998987,-0.009279677,0.8659962,-0.004705896,0.5000284,0.15487671,0.099487305,0.050872803,8.995758,-0.037246704,3.9043427,-0.031936646,0.003189087,0.0021209717,-23.519897,20.23468,-8.441162,0,0.0,0.0,0.0,0.0
0.523529053,0.3970902,0.08015944,-0.91427225,-0.028450947,0.9967748,0.07503598,0.91733843,-0.0037841478,0.39809018,0.49797532,-0.01155765,-0.8671142,0.009821095,0.9999222,-0.00768767,0.8671356,-0.004687741,0.49805012,0.087677,0.051467896,-0.11148071,8.995911,-0.037109375,3.903885,-0.003189087,-0.0032043457,-0.01171875,-23.519897,20.23468,-8.441162,0,0.0,0.0,0.0,0.0
0.527862549,0.39762825,-0.036526088,-0.91681933,0.017937433,0.9993258,-0.032033607,0.9173712,-0.0037079176,0.39801532,0.49605042,-0.0097216945,-0.8682392,0.0088774,0.9999418,-0.0061244536,0.8682483,-0.0046696695,0.49610788,0.19752502,0.060302734,0.032928467,8.996201,-0.036361694,3.9031372,0.0010681152,0.003189087,0.0010528564,-21.905518,21.131897,-10.342407,0,0.0,0.0,0.0,0.0
0.532196045,0.39762986,-0.03652413,-0.9168187,0.017893858,0.999326,-0.03205037,0.9173714,-0.0036612388,0.3980154,0.49413857,-0.010257913,-0.8693226,0.009112196,0.9999366,-0.006619607,0.8693354,-0.0046504345,0.49420074,-0.008377075,0.12687683,-0.034118652,8.996201,-0.03590393,3.9031372,0.026641846,-0.010650635,-0.0021362305,-21.905518,21.131897,-10.342407,0,0.0,0.0,0.0,0.0
0.536529541,0.39761016,-0.036548324,-0.9168263,0.017917067,0.9993251,-0.032066762,0.91737944,-0.0036767686,0.3979966,0.4922627,-0.010783365,-0.87037987,0.009339394,0.99993116,-0.007106307,0.87039655,-0.0046306504,0.49232948,0.13990784,-0.030975342,0.009140015,8.996353,-0.03605652,3.9029846,-0.011703491,0.0053253174,-0.005340576,-21.905518,21.131897,-10.342407,0,0.0,0.0,0.0,0.0
0.540863037,0.3971976,-0.05752403,-0.91592854,0.026250722,0.9983373,-0.051315863,0.9173575,-0.0036612456,0.39804727,0.4904215,-0.011298789,-0.87141216,0.009560557,0.99992555,-0.0075845215,0.87143296,-0.004611573,0.49049303,0.07797241,0.0071868896,0.20979309,8.996048,-0.03590393,3.9034424,-0.0021209717,-0.0010681152,-0.0032043457,-21.368408,19.876099,-10.514832,0,0.0,0.0,0.0,0.0
0.545196533,0.3972233,-0.057491586,-0.9159194,0.026239166,0.99833924,-0.0512854,0.9173467,-0.0036612025,0.39807215,0.48861182,-0.0122238565,-0.8724156,0.00998033,0.9999147,-0.00842065,0.8724442,-0.0045925663,0.48869216,-0.046524048,-0.0071868896,0.056274414,8.996048,-0.03590393,3.9037323,-0.004257202,0.0063934326,-0.0010681152,-21.368408,19.876099,-10.514832,0,0.0,0.0,0.0,0.0
0.549530029,0.39722162,-0.057493728,-0.91592,0.026268521,0.998339,-0.05127501,0.91734666,-0.0036923217,0.39807212,0.48683643,-0.013129764,-0.8733945,0.0103880735,0.9999034,-0.009241188,0.8734314,-0.0045739394,0.48692578,0.006149292,-0.045181274,-0.0059814453,8.996048,-0.036209106,3.9037323,0.0063934326,-0.0010681152,-0.017044067,-21.368408,19.876099,-10.514832,0,0.0,0.0,0.0,0.0
0.553863525,0.3976015,0.05798265,-0.91572434,-0.019700129,0.9983107,0.054658264,0.91734666,-0.0036923217,0.39807212,0.4850942,-0.014017585,-0.8743496,0.010785034,0.9998914,-0.010046674,0.87439543,-0.0045563066,0.48519266,0.010925293,-0.026031494,-0.0011901855,8.996048,-0.036209106,3.9037323,-0.0010681152,-0.0138549805,0.0010528564,-22.444153,20.593262,-8.441162,0,0.0,0.0,0.0,0.0
0.558197022,0.39759085,0.057968773,-0.9157299,-0.019679632,0.99831164,0.054651983,0.9173518,-0.003707902,0.39806032,0.4834092,-0.012577054,-0.8753041,0.01005394,0.9999106,-0.00881495,0.87533677,-0.0045390273,0.48349243,0.08753967,-0.045028687,-0.0010528564,8.996048,-0.036361694,3.903595,0.012786865,-0.017044067,0.0053253174,-22.444153,20.593262,-8.441162,0,0.0,0.0,0.0,0.0
0.562530518,0.39754072,0.057903506,-0.91575575,-0.019763514,0.9983158,0.054544218,0.9173717,-0.0035849966,0.39801553,0.48175484,-0.011165586,-0.8762348,0.009342538,0.9999274,-0.007605224,0.87625617,-0.0045224046,0.4818242,0.087387085,0.03993225,0.09516907,8.996201,-0.03515625,3.9031372,0.0021362305,-0.0032043457,-0.008529663,-22.444153,20.593262,-8.441162,0,0.0,0.0,0.0,0.0
0.566864014,0.3975033,-0.040120643,-0.9167232,0.019252567,0.9991883,-0.03538158,0.9173987,-0.0035849805,0.39795306,0.4801301,-0.009783635,-0.8771427,0.008648323,0.999942,-0.0064194193,0.87715465,-0.0045036566,0.48018688,0.05836487,0.01121521,-0.13407898,8.996506,-0.03515625,3.902542,0.0138549805,-0.014907837,-0.021316528,-22.62268,20.056152,-10.687256,0,0.0,0.0,0.0,0.0
0.57119751,0.3975167,-0.040102825,-0.9167181,0.019245965,0.9991891,-0.035364974,0.9173931,-0.0035849586,0.39796618,0.4785174,-0.010390554,-0.87801653,0.008910857,0.9999359,-0.006976961,0.87803286,-0.0044852835,0.47857934,0.06793213,0.006439209,0.06687927,8.996506,-0.03515625,3.9026947,-0.015960693,0.0021362305,-0.0021362305,-22.62268,20.056152,-10.687256,0,0.0,0.0,0.0,0.0
0.575531006,0.39740944,-0.040245272,-0.9167584,0.019242875,0.99918365,-0.035522025,0.91743964,-0.003524281,0.39785942,0.4769356,-0.010984975,-0.87886965,0.009166016,0.9999297,-0.0075239856,0.87889045,-0.004467277,0.47700274,0.091430664,0.024993896,-0.06613159,8.996948,-0.034561157,3.9016418,0.0063934326,0.0063934326,0.0,-22.62268,20.056152,-10.687256,0,0.0,0.0,0.0,0.0
0.579864502,0.39741626,-0.03917151,-0.9168019,0.018829593,0.9992262,-0.034530915,0.91744524,-0.0035398626,0.3978463,0.47538173,-0.011570354,-0.8797036,0.0094144605,0.99992317,-0.008064083,0.8797293,-0.0044484166,0.47545412,0.067489624,-0.027526855,-0.046829224,8.996948,-0.034713745,3.9014893,0.019180298,-0.015975952,-0.0021362305,-22.085571,22.027588,-10.514832,0,0.0,0.0,0.0,0.0
0.584197998,0.39739597,-0.039195545,-0.9168098,0.018865524,0.9992252,-0.034541618,0.9174533,-0.0035693971,0.3978275,0.4738573,-0.012122531,-0.88051814,0.0096462015,0.9999167,-0.008575176,0.8805488,-0.004430246,0.4739348,0.06254578,-0.08470154,-0.017944336,8.997101,-0.035003662,3.9013367,-0.009567261,-0.010650635,-0.0010681152,-22.085571,22.027588,-10.514832,0,0.0,0.0,0.0,0.0
0.588531494,0.39741516,-0.0391728,-0.9168024,0.01885721,0.9992261,-0.03452035,0.9174452,-0.003569426,0.39784628,0.47181404,-0.012859238,-0.8816043,0.009234361,0.9999109,-0.009642865,0.88164973,-0.0035914136,0.47189072,0.062698364,-0.0032958984,0.082458496,8.996948,-0.035003662,3.9014893,0.008529663,-0.0095825195,-0.009597778,-22.085571,22.027588,-10.514832,0,0.0,0.0,0.0,0.0
0.59286499,0.39779848,-0.006829162,-0.91744745,0.005977288,0.9999703,-0.004851726,0.9174533,-0.0035538373,0.3978275,0.47035795,-0.013385656,-0.8823742,0.009465724,0.999904,-0.010122795,0.882425,-0.003590974,0.47043946,0.08648682,0.049209595,-0.017944336,8.997101,-0.034851074,3.9013367,-0.0021209717,-0.0053253174,-0.0032043457,-23.878479,21.669006,-10.514832,0,0.0,0.0,0.0,0.0
0.597198486,0.3978174,-0.006804447,-0.9174394,0.005967581,0.9999706,-0.004828918,0.91744524,-0.0035538664,0.3978463,0.4689354,-0.013254531,-0.88313293,0.009387233,0.9999057,-0.010022584,0.8831826,-0.0035902313,0.46901563,0.033966064,-0.013031006,0.09681702,8.996948,-0.034851074,3.9014893,-0.017028809,-0.0063934326,-0.0010681152,-23.878479,21.669006,-10.514832,0,0.0,0.0,0.0,0.0
0.601531982,0.39779866,-0.0068289177,-0.91744727,0.0059500677,0.9999704,-0.004863262,0.9174534,-0.0035242743,0.39782757,0.4675406,-0.013125533,-0.88387424,0.009310424,0.99990743,-0.009923717,0.88392264,-0.003589504,0.46761948,-0.0140686035,0.07765198,-0.084991455,8.997101,-0.034561157,3.9013367,0.007461548,-0.007461548,0.003189087,-23.878479,21.669006,-10.514832,0,0.0,0.0,0.0,0.0
0.605865479,0.3977769,0.0012138711,-0.91748136,0.0027777697,0.99999297,0.0025273485,0.91747797,-0.0035538727,0.39777076,0.46617207,-0.012999605,-0.88459855,0.009235179,0.99990904,-0.009827328,0.8846458,-0.0035881994,0.46624973,-0.03337097,0.034851074,-0.08918762,8.997253,-0.034851074,3.9007416,-0.004257202,-0.02130127,-0.0010681152,-23.519897,21.669006,-10.168457,0,0.0,0.0,0.0,0.0
0.610198975,0.39775813,0.0011895405,-0.9174896,0.0027746244,0.9999931,0.0024993871,0.91748613,-0.0035398402,0.39775202,0.46617207,-0.012999605,-0.88459855,0.009235179,0.99990904,-0.009827328,0.8846458,-0.0035881994,0.46624973,-0.03352356,0.034713745,-0.089035034,8.997406,-0.034713745,3.900589,-0.004257202,-0.02130127,-0.0010681152,-23.519897,21.669006,-10.168457,0,0.0,0.0,0.0,0.0
0.614532471,0.39772743,0.0011500476,-0.9175029,0.0028318067,0.99999285,0.0024810021,0.9174992,-0.0035849535,0.39772135,0.46351358,-0.012437748,-0.88600254,0.008943423,0.9999162,-0.009358109,0.8860447,-0.0035862844,0.46358597,0.15786743,-0.12284851,-0.016906738,8.997559,-0.03515625,3.900299,0.0032043457,-0.007461548,0.004257202,-23.519897,21.669006,-10.168457,0,0.0,0.0,0.0,0.0
0.618865967,0.3977463,0.0011743229,-0.91749465,0.0028221272,0.9999929,0.0025033446,0.91749114,-0.0035849828,0.39774016,0.46222186,-0.012166007,-0.88668084,0.008804111,0.99991953,-0.009130202,0.8867206,-0.0035862578,0.46229178,0.0622406,-0.0031433105,0.073913574,8.997406,-0.03515625,3.9004517,0.010650635,-0.010650635,0.0,-23.519897,21.669006,-10.168457,0,0.0,0.0,0.0,0.0
0.623199463,0.39777696,0.0012139159,-0.9174813,0.002806303,0.99999285,0.0025397683,0.9174779,-0.0035849921,0.39777073,0.4609553,-0.011899214,-0.8873436,0.00866803,0.99992275,-0.008906044,0.887381,-0.0035862322,0.46102282,0.10549927,-0.00793457,0.16938782,8.997253,-0.03515625,3.9007416,-0.015960693,0.008514404,-0.007461548,-23.519897,21.669006,-10.168457,0,0.0,0.0,0.0,0.0
0.627532959,0.39775816,0.0011896262,-0.9174895,0.0028302656,0.99999285,0.0025236025,0.91748595,-0.0036005224,0.39775193,0.45971376,-0.011636965,-0.8879909,0.008534951,0.99992585,-0.008685299,0.8880261,-0.0035862075,0.45977902,0.07182312,-0.0029907227,-0.041137695,8.997406,-0.035308838,3.900589,0.017044067,-0.007461548,0.0095825195,-23.519897,21.669006,-10.168457,0,0.0,0.0,0.0,0.0
0.631866455,0.39772847,-0.010633143,-0.9174415,0.0075600888,0.9999368,-0.008311819,0.917472,-0.0036300924,0.39778376,0.45849586,-0.011380444,-0.8886237,0.008405647,0.99992883,-0.008468917,0.8886568,-0.003586494,0.45855886,0.09112549,-0.108047485,0.15966797,8.997253,-0.035598755,3.9008942,-0.012771606,-0.0063934326,0.0053253174,-23.339844,19.33899,-10.342407,0,0.0,0.0,0.0,0.0
0.636199951,0.39769623,-0.0106791975,-0.91745496,0.0075781113,0.9999364,-0.008354342,0.9174859,-0.0036300858,0.3977519,0.45729983,-0.0113654975,-0.8892399,0.008388184,0.99992895,-0.008466529,0.889273,-0.0035873658,0.4573627,0.08618164,0.002090454,-0.055511475,8.997406,-0.035598755,3.900589,-0.0010681152,0.0095825195,-0.018112183,-23.339844,19.33899,-10.342407,0,0.0,0.0,0.0,0.0
0.640533447,0.39774716,-0.010606427,-0.9174338,0.007578209,0.9999371,-0.008274764,0.9174638,-0.0036612411,0.39780247,0.45612654,-0.011351773,-0.88984257,0.008371507,0.99992913,-0.008464983,0.8898756,-0.00358822,0.45618922,0.06254578,-0.06465149,0.1403656,8.997101,-0.03590393,3.9010468,0.0032043457,-0.015975952,0.0021209717,-23.339844,19.33899,-10.342407,0,0.0,0.0,0.0,0.0
0.644866943,0.3972343,-0.044342313,-0.9166453,0.0209656,0.9990098,-0.039241076,0.9174777,-0.003630115,0.39777067,0.4549768,-0.011336866,-0.89043117,0.008355083,0.9999293,-0.00846185,0.8904641,-0.0035896807,0.45503935,0.10549927,0.064315796,-0.036514282,8.997253,-0.035598755,3.9007416,0.004257202,0.01171875,0.004257202,-21.546936,20.773315,-10.342407,0,0.0,0.0,0.0,0.0
0.649200439,0.39724833,-0.044325158,-0.91664004,0.02094648,0.99901056,-0.039230607,0.91747206,-0.0036160888,0.3977838,0.453843,-0.011997215,-0.8910009,0.008644799,0.9999216,-0.009060477,0.8910397,-0.0035904893,0.45391113,-0.03337097,0.045028687,0.03994751,8.997253,-0.035461426,3.9008942,-0.0063934326,-0.0010681152,0.004257202,-21.546936,20.773315,-10.342407,0,0.0,0.0,0.0,0.0
0.653533936,0.39720356,-0.04437992,-0.91665685,0.020966396,0.9990081,-0.039281845,0.9174909,-0.0036161018,0.39774007,0.4523563,-0.0119581325,-0.89175713,0.008923911,0.9999207,-0.008881787,0.89179265,-0.003940228,0.45242718,0.15322876,-0.0076293945,-0.093673706,8.997406,-0.035461426,3.9004517,-0.011703491,-0.0063934326,0.0,-21.546936,20.773315,-10.342407,0,0.0,0.0,0.0,0.0
0.658294678,0.39772356,0.010519924,-0.917445,-8.8056736E-4,0.99993825,0.0110841,0.9175049,-0.003600536,0.3977083,0.45127237,-0.012606803,-0.8922973,0.009200138,0.9999128,-0.009474351,0.8923389,-0.0039337454,0.451349,0.12913513,0.04966736,0.08380127,8.997559,-0.035308838,3.9001465,0.010650635,-0.0053253174,0.0021209717,-22.444153,22.027588,-9.477234,0,0.0,0.0,0.0,0.0
0.66305542,0.39773646,0.010535594,-0.91743916,-9.012541E-4,0.99993795,0.011092266,0.9174992,-0.0035849535,0.39772135,0.45127237,-0.012606803,-0.8922973,0.009200138,0.9999128,-0.009474351,0.8923389,-0.0039337454,0.451349,0.12913513,0.04951477,0.08364868,8.997559,-0.03515625,3.900299,0.010650635,-0.0053253174,0.0021209717,-22.444153,22.027588,-9.477234,0,0.0,0.0,0.0,0.0
0.66784668,0.39771017,0.010503707,-0.91745096,-9.024893E-4,0.9999384,0.011056866,0.9175106,-0.0035694386,0.3976952,0.449186,-0.011690412,-0.89336175,0.008753885,0.999924,-0.008683382,0.89339536,-0.003919933,0.44925418,0.13392639,0.006286621,-0.0357666,8.997559,-0.035003662,3.899994,-0.0063934326,-0.0063934326,0.0095825195,-22.444153,22.027588,-9.477234,0,0.0,0.0,0.0,0.0
0.672607422,0.3966741,-0.06287546,-0.91580373,0.02828653,0.9980149,-0.05626764,0.91752356,-0.0035849942,0.39766517,0.44817248,-0.01124655,-0.8938764,0.008538786,0.99992913,-0.008299697,0.89390635,-0.0039129234,0.44823673,0.09068298,-0.02708435,-0.059417725,8.997696,-0.03515625,3.899704,0.010650635,-0.0095825195,0.0095825195,-20.471191,21.490479,-10.342407,0,0.0,0.0,0.0,0.0
0.677398682,0.39661998,-0.062936224,-0.9158229,0.028336043,0.99801105,-0.056312643,0.9175455,-0.0036160778,0.3976145,0.44716525,-0.012279879,-0.8943671,0.00898576,0.999917,-0.00923641,0.89440626,-0.003906365,0.4472385,0.08081055,-0.060302734,-0.10205078,8.998001,-0.035461426,3.8992462,-0.010635376,-0.0095825195,-0.0021362305,-20.471191,21.490479,-10.342407,0,0.0,0.0,0.0,0.0
0.682159424,0.39659396,-0.06296546,-0.9158322,0.0282617,0.9980095,-0.05637682,0.91755897,-0.0035242673,0.39758405,0.44617614,-0.013293747,-0.8948464,0.00942285,0.999904,-0.010156179,0.8948955,-0.0039005592,0.4462586,0.0471344,0.034561157,-0.087402344,8.998154,-0.034561157,3.8989563,0.0032043457,-0.018112183,-0.005340576,-20.471191,21.490479,-10.342407,0,0.0,0.0,0.0,0.0
0.686950684,0.39746284,-0.015504539,-0.91748726,0.009368911,0.99987376,-0.0128380945,0.91757053,-0.003493192,0.3975579,0.4452054,-0.014287911,-0.89531446,0.009847857,0.9998903,-0.011059829,0.8953743,-0.0038930334,0.4452973,0.18598938,0.06297302,-0.010482788,8.998154,-0.03425598,3.8986511,0.026641846,0.0010681152,-0.008529663,-22.2641,20.773315,-9.996033,0,0.0,0.0,0.0,0.0
0.691711426,0.39744407,-0.015528412,-0.91749495,0.009363836,0.99987334,-0.012866385,0.91757864,-0.003477604,0.39753914,0.44426218,-0.014312244,-0.89578253,0.009839852,0.99989,-0.011095545,0.89584273,-0.0038850363,0.44435412,0.09486389,0.014953613,-0.015106201,8.998306,-0.034103394,3.8984985,0.0053253174,-0.0053253174,0.0,-22.2641,20.773315,-9.996033,0,0.0,0.0,0.0,0.0
0.696502686,0.3974759,-0.015487998,-0.91748184,0.0093767755,0.99987394,-0.012816606,0.9175648,-0.00350873,0.39757103,0.44333702,-0.014336567,-0.8962404,0.009831874,0.99988973,-0.011131113,0.8963011,-0.0038768875,0.44342908,0.03276062,-0.04220581,0.13781738,8.998154,-0.03440857,3.8988037,0.007461548,-0.0095825195,-0.008529663,-22.2641,20.773315,-9.996033,0,0.0,0.0,0.0,0.0
0.701263428,0.39747813,-0.013789146,-0.91750807,0.008701291,0.99989873,-0.01125786,0.91757035,-0.0035087513,0.39755785,0.44243044,-0.014359595,-0.89668787,0.0098242005,0.9998894,-0.011164958,0.89674896,-0.0038695245,0.44252256,-0.04385376,-0.03262329,-0.07751465,8.998154,-0.03440857,3.8986511,-0.011703491,-0.0063934326,0.0053253174,-23.519897,21.669006,-10.514832,0,0.0,0.0,0.0,0.0
0.706054688,0.3974912,-0.013772376,-0.91750264,0.008709041,0.999899,-0.011236172,0.9175647,-0.0035242892,0.39757097,0.44154176,-0.014348187,-0.897126,0.009801619,0.9998896,-0.011167638,0.8971872,-0.003862309,0.44163364,-0.01512146,-0.042053223,0.046829224,8.998154,-0.034561157,3.8988037,-0.0021209717,0.0095825195,-0.007461548,-23.519897,21.669006,-10.514832,0,0.0,0.0,0.0,0.0
0.710540772,0.39749134,-0.013772119,-0.9175025,0.008694664,0.9998991,-0.011242121,0.9175648,-0.00350873,0.39757103,0.44067052,-0.014336669,-0.8975544,0.0097796265,0.9998898,-0.011169792,0.8976156,-0.0038555486,0.44076216,0.1381073,0.06312561,0.046829224,8.998154,-0.03440857,3.8988037,-0.0084991455,-0.0010681152,-0.0021362305,-23.519897,21.669006,-10.514832,0,0.0,0.0,0.0,0.0
0.714996338,0.39760348,-1.5288495E-4,-0.9175573,0.0032659788,0.9999938,0.0012486202,0.91755146,-0.0034931786,0.39760154,0.4398164,-0.014325378,-0.8979735,0.009757797,0.99988997,-0.011172004,0.89803475,-0.003848612,0.4399078,0.004196167,0.010314941,0.108795166,8.998001,-0.03425598,3.8990936,0.017044067,0.003189087,-0.0138549805,-22.2641,21.131897,-9.651184,0,0.0,0.0,0.0,0.0
0.719360352,0.39759162,-1.6770864E-4,-0.9175624,0.0032719069,0.99999386,0.0012349843,0.91755664,-0.0034931984,0.39758977,0.43886077,-0.013509899,-0.8984535,0.009264249,0.99990183,-0.010510124,0.8985073,-0.0037110162,0.43894285,0.10475159,0.015106201,-0.0012054443,8.998001,-0.03425598,3.8989563,-0.0063934326,-0.0021362305,-0.005340576,-22.2641,21.131897,-9.651184,0,0.0,0.0,0.0,0.0
0.723693848,0.39757285,-1.9129398E-4,-0.91757065,0.0032955608,0.99999404,0.0012194512,0.9175648,-0.00350873,0.39757103,0.43804494,-0.013243073,-0.89885557,0.009133866,0.99990547,-0.010280602,0.8989067,-0.0037066601,0.43812448,0.08065796,-0.05177307,0.0037384033,8.998154,-0.03440857,3.8988037,0.0032043457,-0.018112183,0.004257202,-22.2641,21.131897,-9.651184,0,0.0,0.0,0.0,0.0
0.728027344,0.39738056,-0.021486323,-0.91740227,0.0117605645,0.99976295,-0.018321091,0.9175786,-0.003508723,0.3975391,0.4372446,-0.012982051,-0.8992489,0.009006984,0.99990886,-0.01005574,0.89929754,-0.0037027015,0.4373217,0.08050537,0.020050049,-0.07736206,8.998306,-0.03440857,3.8984985,0.01171875,-0.0053253174,0.008514404,-23.161316,20.593262,-10.514832,0,0.0,0.0,0.0,0.0
0.73236084,0.39736608,-0.021505632,-0.91740817,0.011823667,0.9997624,-0.018314855,0.917584,-0.0035694272,0.3975259,0.43645546,-0.013152147,-0.8996297,0.00906893,0.99990666,-0.010218354,0.89968014,-0.0036988219,0.43653402,0.18583679,-0.17088318,0.037719727,8.998306,-0.035003662,3.898346,-0.009567261,0.007461548,-0.007461548,-23.161316,20.593262,-10.514832,0,0.0,0.0,0.0,0.0
0.736694336,0.39736637,-0.021505216,-0.91740805,0.011809228,0.9997625,-0.018320657,0.91758406,-0.0035538678,0.39752594,0.43568146,-0.013319227,-0.9000024,0.009130625,0.99990445,-0.010377651,0.9000546,-0.003696234,0.43576145,0.04219055,0.034851074,0.0137786865,8.998306,-0.034851074,3.898346,0.0063934326,0.0,0.0021209717,-23.161316,20.593262,-10.514832,0,0.0,0.0,0.0,0.0
0.741027832,0.3974695,-0.012504455,-0.91753024,0.008246046,0.99991554,-0.0100550875,0.91757834,-0.0035694053,0.39753902,0.43492258,-0.013482958,-0.9003669,0.009190544,0.9999023,-0.010534,0.90042096,-0.0036933867,0.43500403,0.027832031,-0.0320282,0.08544922,8.998306,-0.035003662,3.8984985,0.0021362305,0.003189087,-0.017044067,-22.802734,21.310425,-10.168457,0,0.0,0.0,0.0,0.0
0.745361328,0.3975017,-0.012463538,-0.91751677,0.008230136,0.99991596,-0.010017253,0.9175646,-0.0035694123,0.3975709,0.43418065,-0.013463388,-0.9007252,0.009171128,0.99990255,-0.010525018,0.9007791,-0.003690907,0.43426183,0.02798462,0.0014953613,0.0899353,8.998154,-0.035003662,3.8988037,0.007461548,0.004257202,-0.0021362305,-22.802734,21.310425,-10.168457,0,0.0,0.0,0.0,0.0
0.749694824,0.39753225,-0.012424844,-0.9175041,0.0082436465,0.9999163,-0.0099691,0.9175512,-0.0036005403,0.39760143,0.43345383,-0.013443392,-0.90107554,0.0091517735,0.99990284,-0.01051545,0.9011293,-0.0036884772,0.4335347,0.032913208,-0.07002258,0.089645386,8.998001,-0.035308838,3.8990936,-0.0063934326,0.004257202,0.0053253174,-22.802734,21.310425,-10.168457,0,0.0,0.0,0.0,0.0
0.75402832,0.39684185,-0.052968018,-0.91635746,0.0243294,0.99858993,-0.047185082,0.9175646,-0.0035694123,0.3975709,0.4327418,-0.013423021,-0.9014179,0.0091330595,0.9999031,-0.010505076,0.9014716,-0.0036867184,0.43282247,0.06149292,0.07330322,-0.048934937,8.998154,-0.035003662,3.8988037,0.0032043457,0.0010681152,0.004257202,-21.905518,20.773315,-10.687256,0,0.0,0.0,0.0,0.0
0.758361816,0.39684263,-0.05296705,-0.91635716,0.024314757,0.99859,-0.047190372,0.91756463,-0.0035538527,0.39757094,0.43203565,-0.014214331,-0.9017445,0.009464711,0.9998922,-0.011226801,0.90180683,-0.0036843724,0.4321236,0.02319336,0.025283813,0.008529663,8.998154,-0.034851074,3.8988037,-0.0010681152,-0.0053253174,-0.0138549805,-21.905518,20.773315,-10.687256,0,0.0,0.0,0.0,0.0
0.762695313,0.3968568,-0.052949447,-0.91635203,0.024295583,0.99859095,-0.04717944,0.91755897,-0.0035398272,0.39758405,0.43134314,-0.014989788,-0.90206337,0.009788354,0.99988085,-0.011934707,0.90213484,-0.003681762,0.4314385,0.104599,0.039489746,0.084991455,8.998154,-0.034713745,3.8989563,0.008529663,-0.0063934326,0.0021209717,-21.905518,20.773315,-10.687256,0,0.0,0.0,0.0,0.0
0.767028809,0.39699927,-0.04462987,-0.9167332,0.021014309,0.9989972,-0.039534353,0.91757834,-0.0035694053,0.39753902,0.43066427,-0.015749374,-0.9023748,0.01010408,0.99986917,-0.01262873,0.9024556,-0.0036789232,0.4307671,0.06613159,0.08288574,-7.4768066E-4,8.998306,-0.035003662,3.8984985,0.020248413,-0.0021362305,0.0010528564,-21.546936,20.773315,-10.342407,0,0.0,0.0,0.0,0.0
0.771392822,0.39703196,-0.04458991,-0.916721,0.020999806,0.99899906,-0.03949695,0.9175646,-0.0035694123,0.3975709,0.42999947,-0.016327193,-0.9026815,0.010341376,0.99986,-0.013158706,0.90277,-0.0036767328,0.43010807,-0.03427124,0.030227661,0.065979004,8.998154,-0.035003662,3.8988037,-0.027679443,-0.0063934326,0.004257202,-21.546936,20.773315,-10.342407,0,0.0,0.0,0.0,0.0
0.775726318,0.39698705,-0.044644784,-0.91673774,0.020992586,0.9989966,-0.03956006,0.91758406,-0.0035398637,0.39752594,0.4293481,-0.01689265,-0.90298104,0.010572842,0.9998506,-0.013677688,0.9030772,-0.0036745865,0.42946255,0.10922241,0.044281006,-0.08679199,8.998306,-0.034713745,3.898346,0.015975952,-0.008529663,-0.007461548,-21.546936,20.773315,-10.342407,0,0.0,0.0,0.0,0.0
0.780059814,0.39725995,0.04873454,-0.9164112,-0.016118646,0.9988055,0.04612889,0.91756463,-0.0035538527,0.39757094,0.42870864,-0.01744789,-0.9032743,0.0107988855,0.99984103,-0.014187872,0.90337825,-0.0036718922,0.4288289,0.06628418,-0.013031006,0.18569946,8.998154,-0.034851074,3.8988037,0.0138549805,-0.0063934326,0.0010528564,-24.057007,21.131897,-9.30481,0,0.0,0.0,0.0,0.0
0.784393311,0.39724782,0.048718046,-0.9164173,-0.016097147,0.99880624,0.046120178,0.91757023,-0.0035694344,0.3975578,0.42810225,-0.016124027,-0.90358645,0.010220184,0.99986327,-0.012999904,0.9036725,-0.0036695313,0.4282085,0.06149292,-0.04638672,-0.04878235,8.998154,-0.035003662,3.8986511,0.0010681152,-0.02130127,-0.007461548,-24.057007,21.131897,-9.30481,0,0.0,0.0,0.0,0.0
0.788726807,0.3971683,0.0486098,-0.91645753,-0.016064346,0.9988115,0.046016075,0.91760516,-0.003553835,0.39747715,0.42725477,-0.014101325,-0.9040213,0.009582119,0.99989283,-0.01106811,0.90408045,-0.003933537,0.4273441,0.094573975,-0.008239746,0.047729492,8.998596,-0.034851074,3.8979034,-0.011703491,-0.004257202,-0.0010681152,-24.057007,21.131897,-9.30481,0,0.0,0.0,0.0,0.0
0.793060303,0.3973153,0.03862279,-0.91686904,-0.012079179,0.99924743,0.036858566,0.9176026,-0.0035694453,0.39748278,0.42667362,-0.012846827,-0.90431434,0.009032684,0.99990976,-0.009943067,0.90436053,-0.003925943,0.4267512,0.051635742,0.10682678,0.052520752,8.998444,-0.035003662,3.8979034,0.019180298,-0.019180298,0.003189087,-22.62268,20.056152,-8.958435,0,0.0,0.0,0.0,0.0
0.797393799,0.39729735,0.03859864,-0.9168778,-0.012054587,0.99924845,0.036842834,0.9176108,-0.0035849763,0.39746404,0.42610162,-0.011817316,-0.9045981,0.008581137,0.99992245,-0.009020541,0.9046346,-0.003918813,0.42617002,0.056274414,-0.01272583,-0.0574646,8.998596,-0.03515625,3.8977509,-0.025543213,0.0021362305,0.004257202,-22.62268,20.056152,-8.958435,0,0.0,0.0,0.0,0.0
0.801727295,0.39717457,0.038433306,-0.916938,-0.01199817,0.9992549,0.03668656,0.9176647,-0.0035693902,0.39733973,0.42554015,-0.010808866,-0.904875,0.008140248,0.99993396,-0.008116203,0.90490294,-0.003912137,0.42560002,0.14186096,0.015853882,-0.31962585,8.999191,-0.035003662,3.8965607,0.015975952,0.003189087,-0.0010681152,-22.62268,20.056152,-8.958435,0,0.0,0.0,0.0,0.0
0.806060791,0.39668426,-0.048764728,-0.91665894,0.022632577,0.998804,-0.043340456,0.91767603,-0.0035538746,0.3973135,0.42498666,-0.009823882,-0.9051463,0.0077103805,0.9999441,-0.007232558,0.90516675,-0.0039052817,0.42503867,0.0460968,0.039627075,-0.04638672,8.999191,-0.034851074,3.8962555,0.012786865,0.0063934326,0.0021209717,-21.009827,20.23468,-10.168457,0,0.0,0.0,0.0,0.0
0.810394287,0.39668354,-0.048765603,-0.9166591,0.022647183,0.99880373,-0.043335084,0.9176759,-0.0035694337,0.39731345,0.42442977,-0.010603041,-0.9053987,0.008030336,0.9999362,-0.007945726,0.90542525,-0.0038982537,0.42448786,0.1370697,-0.04638672,0.06375122,8.999191,-0.035003662,3.8962555,-0.0063934326,0.010650635,0.011703491,-21.009827,20.23468,-10.168457,0,0.0,0.0,0.0,0.0
0.814727783,0.39666358,-0.048790094,-0.9166665,0.022670262,0.9988026,-0.043351866,0.9176841,-0.003584965,0.3972947,0.42388368,-0.011366628,-0.9056453,0.008343337,0.9999278,-0.008644888,0.9056782,-0.0038916771,0.4239479,0.012420654,-0.04623413,-0.06059265,8.999344,-0.03515625,3.896103,0.0138549805,0.0021362305,0.004257202,-21.009827,20.23468,-10.168457,0,0.0,0.0,0.0,0.0
0.819091797,0.39715222,-0.02268571,-0.9174723,0.012302747,0.99973613,-0.01939422,0.9176702,-0.0035849714,0.39732656,0.42334777,-0.012115427,-0.90588623,0.008649753,0.99991906,-0.009330744,0.9059259,-0.003885543,0.42341825,0.012573242,-0.09411621,-0.1375122,8.999191,-0.03515625,3.896408,0.0010681152,0.0063934326,-0.004272461,-21.905518,20.773315,-9.996033,0,0.0,0.0,0.0,0.0
0.823425293,0.39720175,-0.022623952,-0.9174524,0.012279272,0.9997376,-0.019336881,0.91764915,-0.0035850047,0.39737538,0.42282757,-0.01232685,-0.9061263,0.008728368,0.9999165,-0.009529825,0.90616816,-0.0038795315,0.42289984,0.012863159,-0.06060791,-0.09007263,8.998901,-0.03515625,3.8968506,0.017044067,0.02128601,-0.0021362305,-21.905518,20.773315,-9.996033,0,0.0,0.0,0.0,0.0
0.827758789,0.39732444,-0.0224708,-0.91740304,0.012206651,0.99974114,-0.01920092,0.917597,-0.0035694235,0.3974959,0.4223186,-0.012532808,-0.90636075,0.008804682,0.99991393,-0.009723885,0.9064047,-0.003873641,0.42239264,0.042053223,-0.041610718,0.028427124,8.998444,-0.035003662,3.898056,0.014923096,0.02128601,-0.0021362305,-21.905518,20.773315,-9.996033,0,0.0,0.0,0.0,0.0
0.832092285,0.39729178,-0.0225116,-0.9174162,0.012236467,0.99974024,-0.019232607,0.9176108,-0.0035849763,0.39746404,0.42182198,-0.012731584,-0.90658927,0.00887771,0.9999115,-0.009911481,0.9066352,-0.0038675566,0.4218977,0.0036010742,-0.03666687,-0.10055542,8.998596,-0.03515625,3.8977509,0.0053253174,0.029815674,-0.004272461,-21.905518,20.773315,-9.996033,0,0.0,0.0,0.0,0.0
0.836425781,0.3973235,-0.02247202,-0.91740346,0.01224996,0.99974096,-0.019183492,0.9175969,-0.0036161023,0.39749584,0.42133456,-0.012927198,-0.90681314,0.008949701,0.999909,-0.010096018,0.9068611,-0.0038619048,0.42141193,-0.053710938,-0.055511475,0.076309204,8.998444,-0.035461426,3.898056,0.007461548,0.020217896,0.0,-21.905518,20.773315,-9.996033,0,0.0,0.0,0.0,0.0
0.840759277,0.39747575,-0.02228199,-0.9173421,0.012204657,0.99974513,-0.018995373,0.91753155,-0.0036456476,0.39764634,0.42085743,-0.013118108,-0.9070319,0.0090203015,0.9999065,-0.010275957,0.90708196,-0.0038569886,0.42093644,0.104904175,-0.050430298,0.10354614,8.9978485,-0.035751343,3.8995514,-0.0021209717,0.01171875,-0.005340576,-21.905518,20.773315,-9.996033,0,0.0,0.0,0.0,0.0
0.845092773,0.39742637,-0.02835507,-0.9171959,0.014564282,0.9995915,-0.024591537,0.9175185,-0.0035849742,0.39767697,0.4203927,-0.013301399,-0.90724486,0.009088281,0.9999041,-0.010448643,0.9072968,-0.0038527618,0.42047325,0.1289978,-0.04623413,-0.054763794,8.997696,-0.03515625,3.8998413,-0.009567261,0.034072876,-0.0010681152,-23.519897,21.669006,-10.861206,0,0.0,0.0,0.0,0.0
0.84942627,0.39741516,-0.028369436,-0.91720027,0.014541154,0.9995912,-0.024617266,0.9175237,-0.003553875,0.39766523,0.41993666,-0.013602512,-0.9074515,0.009204661,0.9999001,-0.010728705,0.9075067,-0.003847406,0.42001992,0.1289978,0.068359375,-0.001953125,8.997696,-0.034851074,3.899704,0.0138549805,0.018096924,-0.0138549805,-23.519897,21.669006,-10.861206,0,0.0,0.0,0.0,0.0
0.853759766,0.39741516,-0.028369436,-0.91720027,0.014541154,0.9995912,-0.024617266,0.9175237,-0.003553875,0.39766523,0.42006332,-0.0132679595,-0.9073978,0.0091845635,0.99990404,-0.010368758,0.9074483,-0.0039785183,0.42014486,-0.043395996,-0.0034484863,-0.045043945,8.997696,-0.034851074,3.899704,-0.009567261,0.0095825195,-0.0021362305,-23.519897,21.669006,-10.861206,0,0.0,0.0,0.0,0.0
0.858093262,0.39762318,-0.0058460766,-0.9175301,0.0055725845,0.99997663,-0.003956438,0.9175319,-0.0035398426,0.3976465,0.41961348,-0.013570029,-0.9076014,0.009298511,0.99990004,-0.0106510315,0.90765524,-0.0039700256,0.41969773,-0.077056885,0.015563965,-0.016159058,8.9978485,-0.034713745,3.8995514,-0.0010681152,0.010650635,-0.005340576,-23.161316,20.593262,-10.168457,0,0.0,0.0,0.0,0.0
0.862426758,0.39762318,-0.0058460766,-0.9175301,0.0055725845,0.99997663,-0.003956438,0.9175319,-0.0035398426,0.3976465,0.41961348,-0.013570029,-0.9076014,0.009298511,0.99990004,-0.0106510315,0.90765524,-0.0039700256,0.41969773,-0.077056885,0.015563965,-0.016159058,8.9978485,-0.034713745,3.8995514,-0.0010681152,0.010650635,-0.005340576,-23.161316,20.593262,-10.168457,0,0.0,0.0,0.0,0.0
0.866790772,0.3975775,-0.005907024,-0.9175495,0.005652315,0.99997604,-0.0039885035,0.9175512,-0.0036005403,0.39760143,0.41874784,-0.013264175,-0.90800565,0.009144759,0.9999042,-0.010389313,0.9080565,-0.0039529903,0.41882902,0.11431885,-0.165802,-0.068374634,8.998001,-0.035308838,3.8990936,-0.0053253174,0.017028809,0.011703491,-23.161316,20.593262,-10.168457,0,0.0,0.0,0.0,0.0
0.871124268,0.39749372,-0.02465301,-0.91727376,0.013177012,0.99968934,-0.021157883,0.9175102,-0.0036768,0.39769503,0.41832688,-0.013117038,-0.9082018,0.009071967,0.9999062,-0.010262873,0.9082512,-0.003945941,0.4184066,0.15307617,-0.16983032,0.13183594,8.997559,-0.03605652,3.899994,-0.0084991455,0.008514404,0.008514404,-22.62268,20.056152,-10.342407,0,0.0,0.0,0.0,0.0
0.875457764,0.39753842,-0.024593432,-0.9172559,0.013195731,0.99969053,-0.02108464,0.9174906,-0.0037219073,0.39773995,0.4179126,-0.013347779,-0.90838915,0.009158857,0.99990314,-0.010478862,0.90844107,-0.0039405585,0.41799438,0.13407898,-0.15023804,0.22235107,8.997406,-0.036499023,3.9004517,0.020248413,0.015960693,0.0095825195,-22.62268,20.056152,-10.342407,0,0.0,0.0,0.0,0.0
0.87979126,0.39761457,-0.024491897,-0.91722554,0.01318562,0.99969286,-0.020978026,0.91745776,-0.00375302,0.39781544,0.41750753,-0.013572712,-0.9085721,0.009244155,0.99990016,-0.0106891375,0.90862644,-0.0039361855,0.41759127,0.052978516,-0.08769226,0.25512695,8.997101,-0.0368042,3.9011993,0.0,0.012786865,-0.004272461,-22.62268,20.056152,-10.342407,0,0.0,0.0,0.0,0.0
0.884124756,0.39756492,0.03879182,-0.91675365,-0.011959393,0.99924004,0.037095793,0.917496,-0.0037841687,0.3977267,0.41711187,-0.013791115,-0.90875053,0.009327303,0.9998971,-0.010893164,0.9088073,-0.003932522,0.41719764,0.10534668,-0.063446045,0.10758972,8.997406,-0.037109375,3.900299,-0.004257202,-0.004257202,-0.007461548,-22.444153,22.38617,-8.786011,0,0.0,0.0,0.0,0.0
0.888458252,0.39751607,0.038733546,-0.9167774,-0.011921377,0.9992423,0.037048537,0.9175177,-0.0037981402,0.39767665,0.41673395,-0.012739348,-0.90893924,0.0088816155,0.9999111,-0.009942299,0.9089851,-0.003929555,0.41681007,0.14814758,-0.048934937,0.256485,8.997696,-0.037246704,3.8998413,-0.017028809,-0.02557373,-0.008529663,-22.444153,22.38617,-8.786011,0,0.0,0.0,0.0,0.0
0.892791748,0.3975486,0.03877232,-0.9167616,-0.011895273,0.99924064,0.03710226,0.917504,-0.0038448207,0.39770788,0.416362,-0.011709768,-0.9091235,0.008446351,0.99992377,-0.0090110265,0.9091597,-0.0039269268,0.41642916,0.028579712,-0.09156799,0.06463623,8.997559,-0.037704468,3.9001465,0.018112183,-0.02557373,0.008514404,-22.444153,22.38617,-8.786011,0,0.0,0.0,0.0,0.0
0.897125244,0.39752337,-0.0013546977,-0.917591,0.0039965515,0.9999918,2.550548E-4,0.9175832,-0.0037685903,0.39752558,0.41599768,-0.010699992,-0.9093027,0.008021073,0.9999351,-0.008096917,0.9093303,-0.003925285,0.4160565,0.11880493,0.10877991,-0.08200073,8.998306,-0.036956787,3.898346,-0.0053253174,-0.019180298,-0.007461548,-21.009827,20.593262,-9.132385,0,0.0,0.0,0.0,0.0
0.90145874,0.39739844,-0.0015060479,-0.91764486,0.0040709856,0.99999166,1.21798716E-4,0.91763717,-0.0037841222,0.39740127,0.41563022,-0.010513091,-0.90947294,0.007937251,0.99993706,-0.007931482,0.90949905,-0.003922151,0.4156875,0.017654419,-0.049072266,-0.052078247,8.998901,-0.037109375,3.8971558,-0.0021209717,-0.031951904,-0.009597778,-21.009827,20.593262,-9.132385,0,0.0,0.0,0.0,0.0
0.905792236,0.39730987,-0.0016133685,-0.9176831,0.0041407994,0.9999914,3.468059E-5,0.91767514,-0.0038137203,0.39731312,0.41526744,-0.010332957,-0.90964067,0.007856755,0.9999389,-0.007771939,0.90966547,-0.0039193905,0.41532326,0.041305542,-0.029632568,0.12120056,8.999191,-0.037399292,3.8962555,0.0010681152,-0.02557373,0.0010528564,-21.009827,20.593262,-9.132385,0,0.0,0.0,0.0,0.0
0.910125732,0.39651275,-0.05369654,-0.9164575,0.024800027,0.99855006,-0.047776528,0.91769415,-0.003784171,0.3972695,0.41491017,-0.0101585705,-0.90980566,0.0077794082,0.9999407,-0.0076172454,0.90982914,-0.003917277,0.41496462,0.026794434,0.075408936,-0.13691711,8.999344,-0.037109375,3.895813,0.0021362305,-0.027694702,0.004257202,-21.368408,21.669006,-10.514832,0,0.0,0.0,0.0,0.0
0.914489746,0.39635056,-0.05388509,-0.9165166,0.024893802,0.9985399,-0.04794211,0.9177617,-0.0038136987,0.39711323,0.41455087,-0.011029794,-0.90995926,0.0081352275,0.99993145,-0.008414193,0.9099898,-0.003914615,0.4146122,0.1984253,-0.024841309,0.017807007,9.000092,-0.037399292,3.8943176,-0.0063934326,-0.019180298,-0.0010681152,-21.368408,21.669006,-10.514832,0,0.0,0.0,0.0,0.0
0.918823242,0.3963812,-0.053849462,-0.91650534,0.024895526,0.9985417,-0.04790241,0.91774845,-0.0038292683,0.3971438,0.41419533,-0.011887362,-0.91011035,0.008485398,0.99992174,-0.009198684,0.9101485,-0.003912597,0.41426376,0.0118255615,-0.0055389404,0.09890747,8.999939,-0.03755188,3.8946075,-0.0021209717,-0.029830933,0.0053253174,-21.368408,21.669006,-10.514832,0,0.0,0.0,0.0,0.0
0.923156738,0.39716086,0.0062544555,-0.9177277,0.0010160275,0.9999732,0.0072546722,0.91774845,-0.0038137084,0.3971438,0.41289404,-0.012802649,-0.91068906,0.008536344,0.99991167,-0.010186696,0.91073906,-0.00356793,0.41296688,0.08364868,0.018249512,0.00793457,8.999939,-0.037399292,3.8946075,0.0032043457,-0.015975952,-0.004272461,-22.62268,20.414734,-9.651184,0,0.0,0.0,0.0,0.0
0.927490234,0.39705402,0.006113846,-0.9177749,9.88442E-4,0.9999744,0.0070890523,0.9177947,-0.0037219038,0.3970378,0.41258195,-0.01242153,-0.9108358,0.00838004,0.9999165,-0.009840456,0.910882,-0.0035728458,0.41265157,0.15023804,0.017349243,-0.0054016113,9.000397,-0.036499023,3.89357,0.008529663,-0.018112183,-0.0021362305,-22.62268,20.414734,-9.651184,0,0.0,0.0,0.0,0.0
0.93182373,0.3970352,0.0060890676,-0.91778314,9.983971E-4,0.9999745,0.007066278,0.9178028,-0.0037218735,0.39701903,0.4122739,-0.012050843,-0.9109802,0.008226558,0.999921,-0.009504372,0.91102284,-0.0035758272,0.41234046,0.16444397,0.022140503,0.004333496,9.000549,-0.036499023,3.8934174,0.012786865,-0.018112183,-0.014923096,-22.62268,20.414734,-9.651184,0,0.0,0.0,0.0,0.0
0.936157227,0.39599556,-0.062190797,-0.9161441,0.028112214,0.99805737,-0.055600066,0.917822,-0.0037374545,0.39697462,0.4119715,-0.011688064,-0.9111218,0.008076568,0.9999253,-0.009175365,0.911161,-0.003578748,0.41203514,0.03501892,-0.04953003,-0.0909729,9.000687,-0.03665161,3.8929596,-0.0053253174,0.0,-0.004272461,-22.2641,20.773315,-11.03363,0,0.0,0.0,0.0,0.0
0.940490723,0.3960289,-0.062148944,-0.91613245,0.028083252,0.9980601,-0.055566855,0.9178086,-0.0037218968,0.39700598,0.41166297,-0.01269884,-0.9112477,0.008492576,0.9999129,-0.010097866,0.9112966,-0.0035819223,0.41173497,-0.0031433105,0.026931763,0.071517944,9.000549,-0.036499023,3.8932648,-0.009567261,-0.015975952,-0.004272461,-22.2641,20.773315,-11.03363,0,0.0,0.0,0.0,0.0
0.944824219,0.3960415,-0.06213303,-0.91612804,0.02809196,0.9980608,-0.055545688,0.91780275,-0.0037374329,0.397019,0.41136077,-0.01368855,-0.9113698,0.008899044,0.99989986,-0.01100153,0.91142917,-0.0035847218,0.41144142,0.08303833,-0.01600647,0.061798096,9.000549,-0.03665161,3.8934174,0.0063934326,-0.0010681152,0.0021209717,-22.2641,20.773315,-11.03363,0,0.0,0.0,0.0,0.0
0.949157715,0.39699188,0.009134904,-0.9177767,-2.2330903E-4,0.9999515,0.009856219,0.9178221,-0.003707891,0.39697465,0.4110645,-0.014658135,-0.91148835,0.009296967,0.9998861,-0.011886945,0.91155887,-0.0035877759,0.411154,0.07333374,0.079452515,-0.07182312,9.000687,-0.036361694,3.8929596,0.010650635,-0.015975952,-0.008529663,-21.188354,20.773315,-8.958435,0,0.0,0.0,0.0,0.0
0.953491211,0.3970046,0.009150314,-0.91777104,-2.7242908E-4,0.99995136,0.009851819,0.9178165,-0.0036611897,0.3969878,0.41078627,-0.0141823115,-0.9116214,0.009099988,0.999893,-0.011455023,0.9116863,-0.0035901782,0.41087136,0.030227661,0.08378601,0.023788452,9.000687,-0.03590393,3.8931122,0.01171875,-0.0095825195,0.0,-21.188354,20.773315,-8.958435,0,0.0,0.0,0.0,0.0
0.957824707,0.3969915,0.009134429,-0.9177768,-2.6596105E-4,0.9999516,0.009837253,0.9178223,-0.0036612127,0.3969747,0.41051376,-0.013715692,-0.9117512,0.008906234,0.9998995,-0.011031716,0.91181093,-0.0035915985,0.41059464,0.03501892,0.03590393,-0.009567261,9.000687,-0.03590393,3.8929596,0.0032043457,0.003189087,0.011703491,-21.188354,20.773315,-8.958435,0,0.0,0.0,0.0,0.0
0.962188721,0.39700896,0.016704775,-0.91766274,-0.003300694,0.9998539,0.01677297,0.91780883,-0.0036300954,0.39700606,0.41024622,-0.01325872,-0.9118784,0.00871673,0.99990565,-0.010617055,0.9119332,-0.0035929908,0.41032308,-0.02229309,0.059539795,0.076309204,9.000549,-0.035598755,3.8932648,0.015975952,0.0010681152,-0.0032043457,-22.802734,21.310425,-9.477234,0,0.0,0.0,0.0,0.0
0.966522217,0.396965,0.016648771,-0.91768277,-0.0032633499,0.9998548,0.016727915,0.917828,-0.0036456755,0.39696163,0.40998593,-0.012659477,-0.912004,0.008468614,0.99991345,-0.010072728,0.9120525,-0.0035937328,0.4100576,0.26965332,-0.026489258,0.0049438477,9.000687,-0.035751343,3.892807,0.004257202,0.0095825195,0.0,-22.802734,21.310425,-9.477234,0,0.0,0.0,0.0,0.0
0.970855713,0.39694852,0.01662784,-0.9176902,-0.0031976358,0.99985486,0.016733458,0.9178353,-0.0037078818,0.39694408,0.40972975,-0.012073335,-0.912127,0.008226499,0.99992067,-0.0095400475,0.9121699,-0.0035947717,0.40979654,0.31259155,-0.15516663,0.06254578,9.000839,-0.036361694,3.8926697,-0.0053253174,0.007461548,-0.005340576,-22.802734,21.310425,-9.477234,0,0.0,0.0,0.0,0.0
0.975189209,0.39670157,-0.02526313,-0.9175999,0.013456715,0.99967384,-0.021705093,0.917849,-0.0037374375,0.39691213,0.4094782,-0.01149933,-0.9122474,0.007990824,0.9999274,-0.009017758,0.9122849,-0.003597034,0.40954033,-0.065841675,-0.11178589,-0.12869263,9.000992,-0.03665161,3.8923645,0.0021362305,0.0,-0.008529663,-22.62268,20.414734,-10.342407,0,0.0,0.0,0.0,0.0
0.979522705,0.3967394,-0.025213571,-0.9175849,0.013452267,0.9996749,-0.021652853,0.9178327,-0.003753058,0.39694965,0.40922412,-0.011774637,-0.9123579,0.008103568,0.9999242,-0.009270011,0.9123979,-0.003599842,0.40928853,-0.21876526,-0.006286621,0.029022217,9.000687,-0.0368042,3.8926697,-0.012771606,0.014892578,0.004257202,-22.62268,20.414734,-10.342407,0,0.0,0.0,0.0,0.0
0.983856201,0.39675283,-0.025195993,-0.91757953,0.013389869,0.99967563,-0.021660632,0.9178278,-0.0036923543,0.39696154,0.40897587,-0.0120434435,-0.9124657,0.008213809,0.99992096,-0.009516239,0.91250825,-0.0036029066,0.4090425,0.0015106201,0.1559143,0.048034668,9.000687,-0.036209106,3.892807,0.014923096,-0.018112183,0.0021209717,-22.62268,20.414734,-10.342407,0,0.0,0.0,0.0,0.0
0.988189697,0.39694443,-0.011336013,-0.9177726,0.00791632,0.9999289,-0.008926904,0.9178086,-0.0037218968,0.39700598,0.408533,-0.011478146,-0.9126714,0.008949009,0.9999232,-0.008569678,0.9126997,-0.0046665077,0.40860432,0.3511963,0.098739624,0.018859863,9.000549,-0.036499023,3.8932648,-0.018096924,-0.0032043457,0.0095825195,-23.339844,20.056152,-10.342407,0,0.0,0.0,0.0,0.0
0.992523193,0.3968817,-0.0114224795,-0.9177987,0.007964307,0.9999278,-0.009000631,0.91783524,-0.003737445,0.39694405,0.40830174,-0.011475304,-0.9127748,0.008928429,0.99992335,-0.0085770665,0.91280335,-0.004647615,0.40837294,0.35569763,-0.02079773,-0.018859863,9.000839,-0.03665161,3.8926697,-0.009567261,0.020217896,0.014892578,-23.339844,20.056152,-10.342407,0,0.0,0.0,0.0,0.0
0.996856689,0.39686766,-0.011441864,-0.9178045,0.008041868,0.9999272,-0.00898827,0.9178406,-0.0038137098,0.39693078,0.40807402,-0.011474249,-0.9128768,0.008909239,0.99992347,-0.008585761,0.9129054,-0.0046294113,0.40814498,-0.16145325,-0.010482788,0.18240356,9.000839,-0.037399292,3.892517,0.019180298,-0.0021362305,0.007446289,-23.339844,20.056152,-10.342407,0,0.0,0.0,0.0,0.0
1.001190186,0.39526567,-0.08153108,-0.9149414,0.035832178,0.99666363,-0.07333347,0.9178677,-0.0037981335,0.39686838,0.4078504,-0.011473602,-0.9129767,0.008891977,0.9999235,-0.008594007,0.9130055,-0.0046130978,0.40792125,-0.34851074,0.046813965,0.0010375977,9.001144,-0.037246704,3.891922,-0.0010681152,-0.02130127,0.018081665,-21.905518,21.490479,-11.378479,0,0.0,0.0,0.0,0.0
1.005523682,0.3952484,-0.08155169,-0.914947,0.035882033,0.99666166,-0.07333445,0.9178732,-0.0038448356,0.39685518,0.4076172,-0.012876448,-0.9130621,0.0094469,0.99990654,-0.009883802,0.913104,-0.004596798,0.40770078,0.5421295,-0.10115051,0.1592102,9.001144,-0.037704468,3.8917694,0.0032043457,-0.02557373,0.003189087,-21.905518,21.490479,-11.378479,0,0.0,0.0,0.0,0.0
1.009887695,0.39526084,-0.081536874,-0.9149429,0.035891417,0.9966628,-0.07331418,0.9178674,-0.0038603712,0.39686826,0.40738776,-0.014251627,-0.91314405,0.009991124,0.99988794,-0.011148042,0.9132006,-0.0045817597,0.40748453,0.22610474,-0.033966064,0.13990784,9.001144,-0.037857056,3.891922,0.015975952,-0.014907837,-0.004272461,-21.905518,21.490479,-11.378479,0,0.0,0.0,0.0,0.0
1.014221191,0.39689797,0.003196452,-0.9178572,0.0022746744,0.9999875,0.004466082,0.9178599,-0.003860405,0.39688572,0.4071623,-0.01559898,-0.9132227,0.010524029,0.9998679,-0.012386829,0.9132952,-0.0045673316,0.40727267,-0.2956848,-0.014801025,-0.07571411,9.000992,-0.037857056,3.8920593,0.0063934326,-0.0095825195,0.0053253174,-22.085571,20.951843,-9.477234,0,0.0,0.0,0.0,0.0
1.018554688,0.39684853,0.0031345554,-0.9178788,0.0023122942,0.9999876,0.0044146865,0.9178812,-0.0038743673,0.39683634,0.40695915,-0.0152231045,-0.91331947,0.010355319,0.99987376,-0.012051633,0.91338766,-0.0045531928,0.4070654,-0.12838745,-0.024246216,-0.20933533,9.001297,-0.037994385,3.8916168,-0.011703491,-0.014907837,-0.004272461,-22.085571,20.951843,-9.477234,0,0.0,0.0,0.0,0.0
1.022888184,0.3968222,0.00310166,-0.91789025,0.0023255176,0.99998766,0.0043844446,0.9178925,-0.003874415,0.39681014,0.40675893,-0.014855983,-0.91341466,0.010190876,0.9998793,-0.011724094,0.9134787,-0.0045396164,0.40686125,0.21636963,-0.014663696,0.03517151,9.001297,-0.037994385,3.8913116,0.0,-0.004257202,-0.009597778,-22.085571,20.951843,-9.477234,0,0.0,0.0,0.0,0.0
1.02722168,0.39677557,0.004104171,-0.91790646,0.0019279415,0.9999841,0.0053045335,0.9179136,-0.0038743794,0.39676136,0.40656218,-0.014496859,-0.9135081,0.010030126,0.99988467,-0.011403642,0.9135681,-0.004526312,0.40666068,0.24960327,-3.0517578E-4,-0.055358887,9.001587,-0.037994385,3.8908691,-0.012771606,-0.01171875,-0.0063934326,-23.339844,20.773315,-9.996033,0,0.0,0.0,0.0,0.0
1.031555176,0.396794,0.0041287025,-0.9178984,0.0019466903,0.9999838,0.0053394474,0.91790557,-0.0039055245,0.3967795,0.4063685,-0.014124868,-0.91360015,0.009864565,0.99989,-0.011071219,0.91365606,-0.0045132735,0.40646315,-0.12854004,-0.06703186,0.021102905,9.00145,-0.03829956,3.8910217,0.0053253174,0.015960693,-0.01171875,-23.339844,20.773315,-9.996033,0,0.0,0.0,0.0,0.0
1.035888672,0.39682466,0.004169697,-0.917885,0.001944536,0.99998367,0.00538332,0.9178924,-0.0039210944,0.39681008,0.406179,-0.013759824,-0.91369,0.00970283,0.9998952,-0.01074467,0.91374207,-0.0045011183,0.40626994,-0.04220581,-0.03337097,0.04953003,9.001297,-0.03845215,3.8913116,-0.007446289,0.0010681152,-0.0021362305,-23.339844,20.773315,-9.996033,0,0.0,0.0,0.0,0.0
1.040222168,0.39685652,0.00421218,-0.91787094,0.0018989317,0.99998355,0.005410035,0.9178787,-0.0038899824,0.396842,0.4059937,-0.01340126,-0.9137776,0.009544419,0.9999001,-0.010423703,0.91382605,-0.0044895182,0.40608108,0.17822266,0.07644653,0.19288635,9.001144,-0.038146973,3.8916168,0.007461548,0.008514404,-0.0010681152,-23.339844,20.773315,-9.996033,0,0.0,0.0,0.0,0.0
1.044555664,0.39680707,0.0041461335,-0.91789275,0.0019253932,0.99998397,0.0053492924,0.9179001,-0.0038899411,0.39679268,0.40581277,-0.013049015,-0.9138631,0.009388398,0.9999049,-0.010108561,0.913908,-0.0044775275,0.40589666,0.19706726,-0.028884888,-0.07962036,9.00145,-0.038146973,3.8911743,0.0032043457,0.008514404,-0.007461548,-23.339844,20.773315,-9.996033,0,0.0,0.0,0.0,0.0
1.04888916,0.39677566,0.0041042496,-0.91790646,0.0019421927,0.999984,0.0053107794,0.91791356,-0.003889939,0.39676133,0.40563437,-0.012705134,-0.9139471,0.009236146,0.99990934,-0.009800878,0.91398877,-0.0044657756,0.40571493,-0.10952759,-0.0049438477,-0.122406006,9.001587,-0.038146973,3.8908691,0.0138549805,0.012786865,0.011703491,-23.339844,20.773315,-9.996033,0,0.0,0.0,0.0,0.0
1.053222656,0.39633077,-0.035468627,-0.9174225,0.017653592,0.99936324,-0.031010121,0.9179381,-0.003905537,0.39670452,0.40545878,-0.012368968,-0.91402966,0.0090873875,0.99991363,-0.009500061,0.91406816,-0.004454259,0.40553614,-0.037857056,-0.03831482,-0.1984253,9.0017395,-0.03829956,3.890274,0.01171875,0.01171875,0.007446289,-21.72699,20.23468,-10.168457,0,0.0,0.0,0.0,0.0
1.058502197,0.3963431,-0.03545294,-0.9174176,0.01767634,0.9993635,-0.030983143,0.9179323,-0.0039366316,0.39671758,0.4050124,-0.013078829,-0.91421765,0.0100296885,0.99990106,-0.009861314,0.91425616,-0.0051753637,0.40510353,0.062698364,-0.081100464,0.04084778,9.0017395,-0.038604736,3.8904266,-0.0010681152,-0.004257202,0.011703491,-21.72699,20.23468,-10.168457,0,0.0,0.0,0.0,0.0
1.063751221,0.39626437,-0.035552688,-0.91744787,0.017754745,0.99935985,-0.031058284,0.91796476,-0.003981761,0.3966419,0.4048408,-0.013526411,-0.9142871,0.010186451,0.9998952,-0.010282441,0.9143304,-0.005150589,0.40493613,0.22999573,-0.104599,-0.10206604,9.002045,-0.03904724,3.889679,0.009597778,0.0095825195,-0.0021362305,-21.72699,20.23468,-10.168457,0,0.0,0.0,0.0,0.0
1.069030762,0.39586952,-0.054444317,-0.9166914,0.025245568,0.99850893,-0.04840144,0.9179597,-0.0039817393,0.39665374,0.404671,-0.0139670335,-0.91435564,0.010341542,0.99988925,-0.010696676,0.91440386,-0.005127213,0.40477064,0.05760193,0.015106201,0.05102539,9.002045,-0.03904724,3.8898163,0.010650635,0.01171875,-0.010665894,-21.368408,21.669006,-10.514832,0,0.0,0.0,0.0,0.0
1.074279785,0.3958574,-0.054458406,-0.91669583,0.02525055,0.9985081,-0.048414685,0.91796476,-0.003981761,0.3966419,0.40450072,-0.014777021,-0.9144183,0.010646379,0.99987775,-0.011448531,0.9144757,-0.0051043034,0.4046086,0.11985779,-0.004043579,0.022445679,9.002045,-0.03904724,3.889679,-0.0021209717,0.017028809,-0.004272461,-21.368408,21.669006,-10.514832,0,0.0,0.0,0.0,0.0
1.079559326,0.39587113,-0.05444245,-0.9166908,0.0252163,0.99850905,-0.04841204,0.91795975,-0.00395062,0.39665377,0.4043334,-0.015571081,-0.91447914,0.010944966,0.99986583,-0.01218571,0.9145462,-0.005081853,0.40444955,0.10548401,0.053100586,0.07975769,9.002045,-0.038742065,3.8898163,0.01171875,0.003189087,0.0053253174,-21.368408,21.669006,-10.514832,0,0.0,0.0,0.0,0.0
1.08480835,0.39586872,-0.054539785,-0.91668606,0.025254888,0.99850374,-0.048501402,0.91795975,-0.00395062,0.39665377,0.40416944,-0.016348932,-0.914538,0.01123663,0.99985355,-0.012908194,0.9146151,-0.0050592283,0.40429392,-0.04295349,0.024383545,0.00793457,9.002045,-0.038742065,3.8898163,0.0021362305,0.012786865,0.004257202,-23.161316,20.23468,-11.206055,0,0.0,0.0,0.0,0.0
1.089691162,0.3958881,-0.05451376,-0.9166792,0.025245596,0.99850523,-0.048476983,0.9179517,-0.003950652,0.39667258,0.40400854,-0.017113162,-0.9145951,0.011523005,0.99984086,-0.013618099,0.9146826,-0.005037056,0.40414146,-0.038009644,-0.013916016,-0.0018005371,9.001892,-0.038742065,3.8899689,0.0032043457,0.0053253174,0.003189087,-23.161316,20.23468,-11.206055,0,0.0,0.0,0.0,0.0
1.094177246,0.3958896,-0.05451171,-0.9166787,0.02521768,0.9985055,-0.048486806,0.9179518,-0.0039210888,0.3966726,0.40385097,-0.017861579,-0.9146503,0.011803212,0.99982786,-0.014313411,0.9147486,-0.005015328,0.40399233,0.057754517,0.08154297,0.026931763,9.001892,-0.03845215,3.8899689,-0.0053253174,0.017028809,-0.008529663,-23.161316,20.23468,-11.206055,0,0.0,0.0,0.0,0.0
1.098632813,0.39662305,-0.009606088,-0.91793126,0.0073811966,0.99994624,-0.0072750747,0.9179519,-0.0038899693,0.39667264,0.4036964,-0.018594978,-0.914704,0.012077033,0.9998146,-0.014995098,0.91481334,-0.0049934434,0.4038461,-0.047592163,0.07165527,-0.011367798,9.001892,-0.038146973,3.8899689,0.0138549805,0.01171875,-0.005340576,-22.62268,21.131897,-9.996033,0,0.0,0.0,0.0,0.0
1.102935791,0.3966233,-0.009605753,-0.91793114,0.007353927,0.99994636,-0.0072864937,0.917952,-0.003860406,0.3966727,0.40355566,-0.018415214,-0.91476977,0.011981938,0.9998181,-0.014841424,0.9148767,-0.0049713743,0.40370288,-0.076309204,0.0953064,-0.035308838,9.001892,-0.037857056,3.8899689,-0.017028809,-0.0010681152,0.007446289,-22.62268,21.131897,-9.996033,0,0.0,0.0,0.0,0.0
1.10723877,0.39662358,-0.009605402,-0.917931,0.0073252227,0.9999465,-0.007298514,0.9179521,-0.003829287,0.39667276,0.40341765,-0.018239038,-0.91483414,0.011888247,0.9998214,-0.014691027,0.91493875,-0.004949155,0.40356246,-0.11941528,0.0806427,-0.049682617,9.001892,-0.03755188,3.8899689,-0.0053253174,-0.0021362305,0.003189087,-22.62268,21.131897,-9.996033,0,0.0,0.0,0.0,0.0
1.111541748,0.3965312,-0.016687037,-0.91786957,0.010133559,0.9998534,-0.013799693,0.9179653,-0.003829277,0.39664215,0.40328243,-0.018066376,-0.9148972,0.011795901,0.99982464,-0.014543852,0.9149995,-0.0049267574,0.4034248,0.35928345,0.06149292,0.0655365,9.002045,-0.03755188,3.889679,-0.010635376,-0.0053253174,0.011703491,-22.2641,20.773315,-9.996033,0,0.0,0.0,0.0,0.0
1.115844727,0.39649937,-0.01672738,-0.91788256,0.010120507,0.9998528,-0.013849422,0.9179792,-0.0037981502,0.3966103,0.40328243,-0.018066376,-0.9148972,0.011795901,0.99982464,-0.014543852,0.9149995,-0.0049267574,0.4034248,0.35913086,0.061187744,0.065841675,9.002197,-0.037246704,3.8893738,-0.010635376,-0.0053253174,0.011703491,-22.2641,20.773315,-9.996033,0,0.0,0.0,0.0,0.0
1.120147705,0.3964991,-0.016727688,-0.9178827,0.010134911,0.9998528,-0.013843536,0.9179792,-0.00381371,0.3966103,0.4030143,-0.018013354,-0.9150164,0.01172935,0.99982584,-0.014516812,0.9151185,-0.004882065,0.4031554,0.13406372,-0.04399109,0.046691895,9.002197,-0.037399292,3.8893738,-0.0053253174,-0.0053253174,0.010650635,-22.2641,20.773315,-9.996033,0,0.0,0.0,0.0,0.0
1.124450684,0.3966051,0.022544613,-0.91771245,-0.0054132943,0.99973845,0.022220224,0.9179734,-0.0038448055,0.39662334,0.40216866,-0.018533632,-0.91537803,0.012245864,0.9998145,-0.014863032,0.91548365,-0.0052321493,0.40232104,0.10055542,-0.08679199,0.11836243,9.002197,-0.037704468,3.8895264,0.0053253174,-0.01171875,0.008514404,-23.161316,21.669006,-9.477234,0,0.0,0.0,0.0,0.0
1.128753662,0.39648643,0.022393866,-0.91776735,-0.005323446,0.99974155,0.022094276,0.9180251,-0.0038743967,0.39650327,0.40206522,-0.01771215,-0.91543967,0.011888272,0.9998296,-0.014123565,0.91553384,-0.0052044024,0.40220726,-0.019607544,-0.067337036,0.019012451,9.00264,-0.037994385,3.888321,-0.0010681152,-0.014907837,0.0053253174,-23.161316,21.669006,-9.477234,0,0.0,0.0,0.0,0.0
1.133056641,0.39645615,0.022355251,-0.9177815,-0.005307406,0.9997427,0.022059003,0.91803837,-0.0038743871,0.39647272,0.401961,-0.016910098,-0.91550064,0.011539718,0.9998436,-0.0134013435,0.9155841,-0.005177802,0.40209326,0.08558655,0.004486084,0.22999573,9.002792,-0.037994385,3.888031,0.018112183,-0.031951904,0.006378174,-23.161316,21.669006,-9.477234,0,0.0,0.0,0.0,0.0
1.137359619,0.39583266,-0.042398103,-0.9173434,0.020288011,0.99909353,-0.037422206,0.9180985,-0.0037981418,0.39633402,0.40185806,-0.016124852,-0.91556,0.011198606,0.9998567,-0.012694189,0.9156335,-0.0051517338,0.40198103,0.1376648,-0.0010528564,-0.017654419,9.003387,-0.037246704,3.886673,-0.009567261,-0.0234375,-0.004272461,-22.085571,21.310425,-10.514832,0,0.0,0.0,0.0,0.0
1.141662598,0.39576802,-0.04247704,-0.91736764,0.020330993,0.9990902,-0.037489917,0.91812545,-0.0038136845,0.39627153,0.4017396,-0.016650485,-0.9156025,0.011383453,0.99984825,-0.013187788,0.9156832,-0.005124662,0.4018682,-0.04460144,-0.05357361,0.18405151,9.003693,-0.037399292,3.886078,0.0021362305,-0.02557373,-0.018112183,-22.085571,21.310425,-10.514832,0,0.0,0.0,0.0,0.0
1.145965576,0.395661,-0.042607732,-0.91740775,0.020351317,0.9990847,-0.037623957,0.9181711,-0.0037841233,0.39616597,0.40162238,-0.017167177,-0.91564447,0.011565386,0.99983966,-0.013672891,0.9157323,-0.005098443,0.4017565,-0.011520386,0.104141235,0.11326599,9.004135,-0.037109375,3.8850403,-0.0021209717,-0.029830933,-0.0010681152,-22.085571,21.310425,-10.514832,0,0.0,0.0,0.0,0.0
1.150268555,0.39528474,-0.05318282,-0.9170178,0.024531946,0.9985777,-0.04733831,0.918231,-0.0037841199,0.39602712,0.40150517,-0.017676149,-0.9156862,0.011744037,0.9998309,-0.014150993,0.91578144,-0.0050721564,0.40164483,0.09802246,-0.025131226,-0.029022217,9.00473,-0.037109375,3.8836823,0.0032043457,-0.03515625,0.003189087,-23.698425,20.056152,-11.378479,0,0.0,0.0,0.0,0.0
1.154571533,0.39516294,-0.053350903,-0.9170605,0.02456379,0.9985687,-0.047508147,0.9182825,-0.0037530202,0.39590785,0.40138483,-0.018386645,-0.915725,0.012003948,0.9998182,-0.014813512,0.91583085,-0.005046396,0.40153256,0.016159058,0.05116272,-0.023040771,9.005188,-0.0368042,3.882492,0.009597778,-0.027694702,0.0010528564,-23.698425,20.056152,-11.378479,0,0.0,0.0,0.0,0.0
1.158874512,0.3950088,-0.053563733,-0.91711456,0.02461166,0.9985575,-0.047719933,0.91834754,-0.0037219184,0.39575723,0.40126443,-0.01908629,-0.9157634,0.012259239,0.9998053,-0.015466196,0.91588026,-0.0050205286,0.4014203,0.029922485,-0.040115356,-0.14605713,9.005783,-0.036499023,3.8809967,-0.0010681152,-0.027694702,-0.005340576,-23.698425,20.056152,-11.378479,0,0.0,0.0,0.0,0.0
1.16317749,0.3953503,0.045577716,-0.9173989,-0.014573311,0.9989537,0.04334915,0.91841483,-0.003768561,0.3956009,0.40114328,-0.019776195,-0.9158018,0.012510354,0.999792,-0.016110074,0.9159299,-0.004994556,0.40130723,0.081848145,-0.068374634,-0.23553467,9.006531,-0.036956787,3.8795013,0.009597778,-0.02130127,-0.0063934326,-22.085571,21.669006,-8.441162,0,0.0,0.0,0.0,0.0
1.167480469,0.39533928,0.045564394,-0.9174043,-0.014526,0.998954,0.04335497,0.91842026,-0.0038137068,0.39558765,0.40104562,-0.01846902,-0.91587186,0.011961561,0.9998171,-0.014924041,0.91598,-0.0049700364,0.40119317,0.19198608,-0.09666443,0.0471344,9.006531,-0.037399292,3.8793488,-0.017028809,-0.017044067,-0.0021362305,-22.085571,21.669006,-8.441162,0,0.0,0.0,0.0,0.0
1.171783447,0.39536995,0.04560152,-0.9173893,-0.014556469,0.99895257,0.043382417,0.91840667,-0.003798155,0.39561963,0.40094888,-0.017188227,-0.9159391,0.011424942,0.99984,-0.013761459,0.91602916,-0.0049469103,0.40108117,0.16819763,0.042022705,0.1809082,9.006378,-0.037246704,3.879654,-0.0010681152,-0.0032043457,-0.007461548,-22.085571,21.669006,-8.441162,0,0.0,0.0,0.0,0.0
1.176086426,0.39539874,-0.02807521,-0.9180804,0.014609268,0.9995986,-0.024276147,0.91839343,-0.0038137245,0.3956502,0.40085423,-0.015932279,-0.9160033,0.010898739,0.99986094,-0.012621413,0.916077,-0.004923935,0.40097213,0.11567688,-0.05836487,0.11357117,9.006226,-0.037399292,3.8799438,0.010650635,0.008514404,0.0010528564,-23.339844,20.773315,-10.687256,0,0.0,0.0,0.0,0.0
1.180389404,0.39536756,-0.028116519,-0.9180925,0.014624788,0.9995973,-0.024314577,0.91840655,-0.0038137145,0.3956196,0.40074554,-0.016175164,-0.91604656,0.010974284,0.9998571,-0.012854104,0.9161236,-0.004901731,0.4008658,0.0053863525,0.0038909912,-0.07287598,9.006378,-0.037399292,3.879654,0.004257202,0.014892578,-0.005340576,-23.339844,20.773315,-10.687256,0,0.0,0.0,0.0,0.0
1.184692383,0.3952887,-0.028220896,-0.91812336,0.01467832,0.99959433,-0.024405517,0.91843957,-0.0038292822,0.3955426,0.40063843,-0.016414018,-0.91608924,0.011048587,0.9998534,-0.0130829215,0.91616964,-0.0048799706,0.400761,0.33547974,-0.0390625,-0.06254578,9.006683,-0.03755188,3.878891,0.0,-0.0063934326,-0.004272461,-23.339844,20.773315,-10.687256,0,0.0,0.0,0.0,0.0
1.188995361,0.39496952,-0.04570495,-0.9175566,0.02163324,0.9989475,-0.04044696,0.9184395,-0.0038744055,0.39554256,0.40021437,-0.016630145,-0.9162706,0.010907061,0.999851,-0.013383057,0.9163566,-0.0046377284,0.40033615,0.11042786,-0.13917542,0.028442383,9.006683,-0.037994385,3.878891,0.0010681152,-0.0053253174,-0.0032043457,-22.085571,20.23468,-10.514832,0,0.0,0.0,0.0,0.0
1.19329834,0.39496684,-0.045708396,-0.9175576,0.02169171,0.998947,-0.04042554,0.9184392,-0.0039366437,0.39554247,0.40011245,-0.017211856,-0.91630447,0.011124463,0.9998412,-0.013923416,0.9163986,-0.0046224627,0.40024036,-0.14814758,-0.15292358,-0.07211304,9.006683,-0.038604736,3.878891,0.012786865,0.004257202,0.008514404,-22.085571,20.23468,-10.514832,0,0.0,0.0,0.0,0.0
1.197601318,0.3949514,-0.045728203,-0.91756326,0.021768996,0.99894583,-0.040413894,0.91844404,-0.0040129083,0.39553052,0.4000124,-0.017782,-0.9163372,0.011338571,0.99983126,-0.014452573,0.9164396,-0.004608746,0.40014654,0.29238892,-0.2096405,0.10998535,9.006683,-0.039352417,3.8787537,0.012786865,0.01171875,-0.0010681152,-22.085571,20.23468,-10.514832,0,0.0,0.0,0.0,0.0
1.201904297,0.39551538,0.018456321,-0.918274,-0.0036290614,0.9998218,0.018532248,0.9184522,-0.0039973157,0.39551178,0.399914,-0.018341133,-0.9163692,0.011549842,0.99982125,-0.014970943,0.91647995,-0.004596829,0.40005434,0.15336609,0.04876709,-0.01914978,9.006836,-0.03919983,3.878601,0.0063934326,0.0095825195,0.008514404,-22.62268,21.84906,-9.30481,0,0.0,0.0,0.0,0.0
1.206207275,0.3955578,0.01850854,-0.9182545,-0.0037063381,0.9998209,0.018556025,0.9184336,-0.0039366195,0.3955556,0.39983183,-0.017605266,-0.91641945,0.011243101,0.99983454,-0.014302405,0.9165196,-0.004584839,0.3999636,-0.061950684,0.17266846,0.12884521,9.006683,-0.038604736,3.8790436,-0.004257202,0.019165039,0.008514404,-22.62268,21.84906,-9.30481,0,0.0,0.0,0.0,0.0
1.210510254,0.39557114,0.01852488,-0.91824853,-0.0037002307,0.9998206,0.018576508,0.9184279,-0.003950599,0.3955687,0.399752,-0.016883057,-0.91646785,0.0109410975,0.99984705,-0.0136466855,0.9165581,-0.0045718746,0.39987555,-0.32052612,-0.033081055,-0.10594177,9.006683,-0.038742065,3.8791962,-0.0021209717,-0.012786865,0.0021209717,-22.62268,21.84906,-9.30481,0,0.0,0.0,0.0,0.0
1.214813232,0.39528948,-0.02795616,-0.91813105,0.014685059,0.99960124,-0.024114382,0.9184391,-0.003950647,0.3955424,0.39967382,-0.016174959,-0.9165147,0.010645381,0.9998588,-0.013003604,0.91659564,-0.004559449,0.39978957,0.34506226,-0.004348755,0.09547424,9.006683,-0.038742065,3.878891,0.010650635,0.0,-0.0032043457,-22.085571,21.669006,-10.168457,0,0.0,0.0,0.0,0.0
1.219116211,0.39531618,-0.027924005,-0.9181205,0.014672988,0.99960214,-0.024084449,0.9184279,-0.003950599,0.3955687,0.39958662,-0.016410608,-0.91654855,0.010727193,0.99985504,-0.013225471,0.9166327,-0.004547273,0.39970472,0.072128296,-0.018707275,0.08558655,9.006683,-0.038742065,3.8791962,0.014923096,-0.0095825195,0.006378174,-22.085571,21.669006,-10.168457,0,0.0,0.0,0.0,0.0
1.223419189,0.39525753,-0.027994636,-0.91814363,0.014728034,0.9996001,-0.024137918,0.91845226,-0.0039817565,0.3955118,0.3995017,-0.016640902,-0.91658145,0.01080708,0.9998512,-0.013442319,0.9166687,-0.00453534,0.3996221,0.18688965,-0.08065796,-0.09576416,9.006836,-0.03904724,3.878601,0.012786865,-0.0063934326,-0.0032043457,-22.085571,21.669006,-10.168457,0,0.0,0.0,0.0,0.0
1.227722168,0.39520472,-0.03225712,-0.91802657,0.016399547,0.9994718,-0.028058996,0.91844666,-0.0039661727,0.39552495,0.39941725,-0.016868,-0.9166141,0.0108864475,0.9998475,-0.013655905,0.9167046,-0.0045242677,0.39953995,-0.06689453,0.029327393,0.009414673,9.006836,-0.038894653,3.8787537,0.0063934326,-0.0063934326,0.0010528564,-22.802734,19.876099,-10.514832,0,0.0,0.0,0.0,0.0
1.232025147,0.3951727,-0.032300383,-0.91803885,0.016415695,0.9994704,-0.028099293,0.9184602,-0.0039661704,0.39549363,0.39933383,-0.017175835,-0.9166447,0.01099797,0.9998423,-0.0139435325,0.9167396,-0.004513106,0.39945975,0.0574646,-0.004196167,-0.06210327,9.006973,-0.038894653,3.8784485,-0.004257202,0.0,0.0,-22.802734,19.876099,-10.514832,0,0.0,0.0,0.0,0.0
1.236328125,0.39511457,-0.03237882,-0.918061,0.016444996,0.9994678,-0.02817234,0.9184846,-0.0039662085,0.39543676,0.39925143,-0.017478373,-0.9166748,0.011107545,0.9998371,-0.014226224,0.91677415,-0.004502167,0.39938053,0.22969055,-0.004196167,-0.06150818,9.007126,-0.038894653,3.8778534,0.008529663,-0.0138549805,0.003189087,-22.802734,19.876099,-10.514832,0,0.0,0.0,0.0,0.0
1.240631104,0.39516783,-0.02680486,-0.9182177,0.014254895,0.99963266,-0.023046754,0.9184983,-0.0039817602,0.39540485,0.3991695,-0.01777643,-0.91670483,0.011215492,0.9998319,-0.014504733,0.91680855,-0.0044914484,0.39930177,0.009277344,-0.02798462,-0.118652344,9.007278,-0.03904724,3.8775482,0.0010681152,-0.010650635,0.0021209717,-22.62268,20.773315,-10.342407,0,0.0,0.0,0.0,0.0
1.244934082,0.39516747,-0.026805364,-0.9182179,0.014269382,0.9996327,-0.02304107,0.9184983,-0.0039973203,0.39540485,0.3990898,-0.017957015,-0.916736,0.011276998,0.99982876,-0.014675332,0.9168425,-0.0044812546,0.39922398,-0.0050811768,-0.05177307,0.0010528564,9.007278,-0.03919983,3.8775482,0.0138549805,0.0095825195,-0.0010681152,-22.62268,20.773315,-10.342407,0,0.0,0.0,0.0,0.0
1.249237061,0.39530715,-0.026625877,-0.91816306,0.0142161455,0.9996375,-0.022867922,0.918439,-0.004012886,0.39554235,0.39901167,-0.018133998,-0.91676646,0.011337534,0.99982554,-0.014842411,0.9168757,-0.004471576,0.3991477,0.067337036,0.07765198,0.061950684,9.006683,-0.039352417,3.878891,0.0010681152,0.008514404,0.008514404,-22.62268,20.773315,-10.342407,0,0.0,0.0,0.0,0.0
1.253540039,0.39538476,-0.026526164,-0.9181324,0.014205757,0.9996399,-0.022763463,0.9184058,-0.0040424406,0.39561924,0.39893788,-0.018303849,-0.91679525,0.01139573,0.9998225,-0.015002708,0.91690713,-0.004462402,0.3990757,0.11552429,0.030075073,0.051620483,9.006378,-0.039642334,3.879654,-0.007446289,0.031936646,0.0053253174,-22.62268,20.773315,-10.342407,0,0.0,0.0,0.0,0.0
1.257843018,0.39546,-0.026429443,-0.9181028,0.014212197,0.99964225,-0.022655014,0.91837317,-0.0040891063,0.3956942,0.4002056,-0.018215185,-0.9162443,0.011964096,0.99982107,-0.014650926,0.91634727,-0.005098652,0.40035194,0.13017273,0.0018005371,-0.011383057,9.006088,-0.040100098,3.8804016,-0.007446289,0.022354126,0.007446289,-22.62268,20.773315,-10.342407,0,0.0,0.0,0.0,0.0
1.262145996,0.395414,-0.026488584,-0.9181209,0.014261658,0.99964064,-0.022698322,0.9183923,-0.004118693,0.3956497,0.40011093,-0.018379483,-0.9162824,0.012009857,0.9998182,-0.014810789,0.91638803,-0.005078461,0.40025893,0.0390625,-0.074523926,-0.11148071,9.006226,-0.040390015,3.8799438,-0.009567261,0.024490356,0.006378174,-22.62268,20.773315,-10.342407,0,0.0,0.0,0.0,0.0
1.266448975,0.39464858,-0.06333513,-0.91664666,0.028864417,0.9979836,-0.056527905,0.9183786,-0.004149814,0.39568096,0.4000171,-0.018541677,-0.91632015,0.012055671,0.9998153,-0.014968328,0.9164284,-0.005059266,0.40016675,0.07272339,-0.10774231,0.09411621,9.006088,-0.04069519,3.880249,0.0010681152,0.01171875,0.0,-21.546936,20.414734,-10.687256,0,0.0,0.0,0.0,0.0
1.270751953,0.39459676,-0.0633993,-0.91666466,0.028886676,0.9979797,-0.05658845,0.9184003,-0.0041497783,0.39563087,0.39991677,-0.019438209,-0.91634536,0.012396149,0.99979836,-0.015798477,0.91646767,-0.005041077,0.4000771,0.10594177,0.0071868896,-0.073013306,9.006378,-0.04069519,3.8797913,0.0032043457,0.023422241,-0.0021362305,-21.546936,20.414734,-10.687256,0,0.0,0.0,0.0,0.0
1.275054932,0.39464858,-0.06333513,-0.91664666,0.028864417,0.9979836,-0.056527905,0.9183786,-0.004149814,0.39568096,0.39981726,-0.020318078,-0.9163697,0.01273015,0.99978095,-0.016613267,0.91650647,-0.0050232513,0.3999883,0.020050049,0.02154541,0.13720703,9.006088,-0.04069519,3.880249,-0.011703491,0.007461548,-0.0032043457,-21.546936,20.414734,-10.687256,0,0.0,0.0,0.0,0.0
1.27935791,0.39567107,0.01070469,-0.91832995,-4.3869927E-4,0.9999343,0.011466908,0.9183923,-0.0041342527,0.3956497,0.39972037,-0.021179052,-0.9163924,0.013056811,0.9997632,-0.017410621,0.91654414,-0.0050057825,0.39990225,-0.0758667,0.030975342,-0.10189819,9.006226,-0.040542603,3.8799438,-0.003189087,0.010650635,-0.012786865,-22.981262,21.490479,-9.651184,0,0.0,0.0,0.0,0.0
1.283660889,0.39568418,0.0107213175,-0.9183241,-4.4546626E-4,0.999934,0.011482162,0.9183866,-0.004134227,0.3956628,0.39964393,-0.020541482,-0.91644025,0.012784366,0.99977654,-0.016834375,0.9165813,-0.0049883523,0.39981726,-0.04234314,-0.021697998,0.017654419,9.006226,-0.040542603,3.8800964,0.0053253174,0.003189087,-0.0063934326,-22.981262,21.490479,-9.651184,0,0.0,0.0,0.0,0.0
1.287963867,0.39551973,0.010512642,-0.9183973,-3.751251E-4,0.9999363,0.011284444,0.91845745,-0.004118706,0.39549848,0.39956915,-0.019916324,-0.9164866,0.012517339,0.9997893,-0.016269287,0.9166176,-0.0049712695,0.3997343,0.14859009,-0.017059326,-0.13871765,9.006836,-0.040390015,3.8784485,0.012786865,0.007461548,-0.01171875,-22.981262,21.490479,-9.651184,0,0.0,0.0,0.0,0.0
1.292266846,0.3953137,-0.016366323,-0.9184004,0.010142801,0.99985826,-0.013452101,0.9184903,-0.003997353,0.39542362,0.39949232,-0.019307835,-0.9165332,0.012257074,0.9998013,-0.015719444,0.9166546,-0.004954218,0.3996496,0.10998535,0.010482788,-0.07571411,9.007126,-0.03919983,3.8777008,0.026641846,-0.024505615,0.003189087,-21.546936,21.131897,-9.651184,0,0.0,0.0,0.0,0.0
1.296569824,0.3953265,-0.01635083,-0.91839516,0.0101639945,0.99985826,-0.013426047,0.91848445,-0.004026891,0.39543667,0.3994089,-0.019249007,-0.9165708,0.012214584,0.99980253,-0.015674287,0.91669154,-0.0049350807,0.3995652,0.13871765,-0.041900635,0.0725708,9.007126,-0.039489746,3.8778534,0.018112183,-0.0063934326,-0.019180298,-21.546936,21.131897,-9.651184,0,0.0,0.0,0.0,0.0
1.300872803,0.39539155,-0.016272426,-0.9183685,0.00999387,0.99986005,-0.013413631,0.9184583,-0.003874419,0.39549884,0.39932734,-0.019191043,-0.9166075,0.012173371,0.9998037,-0.0156295,0.9167276,-0.0049169166,0.3994826,-0.028579712,0.095443726,0.009719849,9.006836,-0.037994385,3.8784485,0.0,0.0010681152,-0.009597778,-21.546936,21.131897,-9.651184,0,0.0,0.0,0.0,0.0
1.305175781,0.39554253,0.009870979,-0.91839457,-4.8606028E-4,0.9999443,0.010538141,0.91844755,-0.0037218884,0.39552534,0.39924875,-0.019132674,-0.916643,0.012129592,0.999805,-0.015585368,0.9167624,-0.0048960666,0.39940295,-0.028579712,0.093948364,-0.08155823,9.006836,-0.036499023,3.8787537,0.012786865,0.017028809,-0.022384644,-21.72699,20.951843,-9.132385,0,0.0,0.0,0.0,0.0
1.30947876,0.39554214,0.009870477,-0.9183948,-5.273018E-4,0.9999446,0.010519833,0.91844773,-0.003676766,0.39552543,0.39917862,-0.018552681,-0.9166854,0.011875185,0.999816,-0.015063996,0.91679627,-0.0048725833,0.39932552,0.06718445,0.10787964,0.028579712,9.006836,-0.03605652,3.8787537,0.022369385,0.012786865,-0.018112183,-21.72699,20.951843,-9.132385,0,0.0,0.0,0.0,0.0
1.313781738,0.39555907,0.009891286,-0.91838735,-5.914336E-4,0.9999445,0.010514943,0.9184403,-0.003616115,0.39554292,0.3991098,-0.017984292,-0.91672677,0.011625124,0.99982655,-0.014553376,0.9168294,-0.004848667,0.39924964,0.1631012,0.15995789,0.1289978,9.006683,-0.035461426,3.878891,-0.0010681152,0.0053253174,-0.0138549805,-21.72699,20.951843,-9.132385,0,0.0,0.0,0.0,0.0
1.318084717,0.395316,0.047748297,-0.9173034,-0.015586737,0.998853,0.04527602,0.918413,-0.0036005701,0.39560682,0.39904252,-0.017426848,-0.9167668,0.011378869,0.9998365,-0.014053025,0.91686183,-0.0048240162,0.39917555,0.053268433,0.035308838,0.20979309,9.006378,-0.035308838,3.8795013,-0.0053253174,-0.004257202,-0.005340576,-23.339844,21.131897,-8.958435,0,0.0,0.0,0.0,0.0
1.322937012,0.39523384,0.047640134,-0.91734433,-0.015595639,0.99885833,0.045154057,0.91844815,-0.0035398419,0.3955256,0.39898598,-0.016123155,-0.9168152,0.010835117,0.9998585,-0.012868256,0.916893,-0.0047995467,0.39910424,0.019302368,0.010772705,0.07646179,9.006836,-0.034713745,3.8787537,0.0138549805,-0.0095825195,0.010650635,-23.339844,21.131897,-8.958435,0,0.0,0.0,0.0,0.0
1.327789307,0.39516166,0.047545146,-0.91738033,-0.015527239,0.9988627,0.04507978,0.91848034,-0.0035694155,0.39545047,0.3973981,-0.014769584,-0.91752744,0.00944132,0.99988335,-0.0120060695,0.9175977,-0.0038914802,0.39749122,0.08604431,-0.04638672,0.1777649,9.007126,-0.035003662,3.878006,0.004257202,-0.02557373,-0.012786865,-23.339844,21.131897,-8.958435,0,0.0,0.0,0.0,0.0
1.332672119,0.39473838,-0.049637333,-0.9174518,0.022914967,0.9987609,-0.044177152,0.91850775,-0.003584961,0.39538664,0.39736888,-0.013523047,-0.91755927,0.008939494,0.999901,-0.010865163,0.91761535,-0.003885039,0.39745042,0.33473206,0.05909729,0.31245422,9.007431,-0.03515625,3.8773956,-0.004257202,-0.026626587,0.0010528564,-23.698425,21.84906,-11.378479,0,0.0,0.0,0.0,0.0
1.337524414,0.3946632,-0.049732897,-0.9174789,0.02290773,0.99875623,-0.044284616,0.9185402,-0.0035398488,0.39531165,0.39732116,-0.014245662,-0.91756904,0.009220642,0.99989104,-0.01153107,0.9176333,-0.0038790372,0.39740923,0.11418152,0.082595825,0.20306396,9.007721,-0.034713745,3.876648,-0.009567261,-0.027694702,0.004257202,-23.698425,21.84906,-11.378479,0,0.0,0.0,0.0,0.0
1.342407227,0.39455542,-0.049870137,-0.91751784,0.022928271,0.99874955,-0.044425625,0.9185861,-0.0035087261,0.3952055,0.39727274,-0.014955728,-0.9175787,0.0094960155,0.9998807,-0.0121858055,0.9176514,-0.0038722535,0.39736733,-0.106552124,0.04397583,0.036514282,9.008179,-0.03440857,3.8756104,-0.0021209717,-0.03302002,-0.005340576,-23.698425,21.84906,-11.378479,0,0.0,0.0,0.0,0.0
1.347259522,0.3944993,0.06100165,-0.9168691,-0.02088082,0.9981315,0.0574239,0.91865903,-0.0035087136,0.39503604,0.39722288,-0.015654337,-0.9175886,0.00976631,0.99987,-0.012830258,0.9176702,-0.003864983,0.39732414,0.084243774,0.03440857,-0.062408447,9.008926,-0.03440857,3.8739624,-0.0084991455,-0.029830933,-0.007461548,-22.802734,20.593262,-8.441162,0,0.0,0.0,0.0,0.0
1.352142334,0.39439785,0.06086774,-0.9169216,-0.02077984,0.9981394,0.05732111,0.91870475,-0.0035538392,0.39492893,0.39719176,-0.01412062,-0.917627,0.009149891,0.99989283,-0.011426042,0.91769,-0.0038578578,0.3972784,0.13168335,-0.051330566,-0.013458252,9.009369,-0.034851074,3.8729095,-0.011703491,-0.03302002,-0.0021362305,-22.802734,20.593262,-8.441162,0,0.0,0.0,0.0,0.0
1.356994629,0.3942509,0.060673855,-0.91699773,-0.02069381,0.99815136,0.05714642,0.9187699,-0.0035538503,0.3947777,0.3971582,-0.012620228,-0.9176634,0.008547788,0.999913,-0.010051949,0.91771036,-0.0038517774,0.3972315,0.0017852783,-0.051330566,-0.011962891,9.009979,-0.034851074,3.8714142,-0.018096924,-0.020248413,-0.0032043457,-22.802734,20.593262,-8.441162,0,0.0,0.0,0.0,0.0
1.361877441,0.39267924,-0.09554877,-0.9146985,0.04098727,0.99541825,-0.0863849,0.9187617,-0.0035694386,0.3947964,0.39712134,-0.011153701,-0.9176983,0.0079593565,0.9999304,-0.008708847,0.9177316,-0.0038458188,0.39718246,0.102493286,-0.0320282,-0.06958008,9.009827,-0.035003662,3.8715668,0.010650635,-0.03302002,0.0021209717,-21.188354,21.84906,-11.378479,0,0.0,0.0,0.0,0.0
1.366729736,0.3926445,-0.09558811,-0.9147093,0.041014016,0.99541456,-0.08641638,0.9187754,-0.0035849912,0.39476448,0.39712134,-0.011153701,-0.9176983,0.0079593565,0.9999304,-0.008708847,0.9177316,-0.0038458188,0.39718246,0.1023407,-0.03187561,-0.0692749,9.009979,-0.03515625,3.8712616,0.010650635,-0.03302002,0.0021209717,-21.188354,21.84906,-11.378479,0,0.0,0.0,0.0,0.0
1.371612549,0.39260086,-0.095637515,-0.9147229,0.041015223,0.99540985,-0.0864698,0.918794,-0.0035694493,0.39472133,0.39699697,-0.014502799,-0.9177053,0.009278721,0.99988747,-0.011787599,0.917773,-0.0038354902,0.3970869,0.006439209,0.025436401,-0.10714722,9.010117,-0.035003662,3.870819,-0.004257202,-0.004257202,-0.012786865,-21.188354,21.84906,-11.378479,0,0.0,0.0,0.0,0.0
1.376312256,0.39469975,0.0028665739,-0.91880566,0.0021625133,0.9999894,0.004048829,0.91880757,-0.0035850015,0.39468938,0.3969342,-0.01612822,-0.9177053,0.009918509,0.9998626,-0.0132820485,0.91779345,-0.0038301693,0.39703962,0.06375122,-0.04145813,-0.082901,9.010269,-0.03515625,3.870514,0.008529663,0.007461548,0.010650635,-22.62268,21.490479,-9.651184,0,0.0,0.0,0.0,0.0
1.380737305,0.39465013,0.0028046833,-0.91882724,0.0021585284,0.9999898,0.0039795493,0.91882896,-0.003553844,0.39464006,0.3968911,-0.015748357,-0.91773057,0.009762547,0.99986863,-0.012935846,0.9178138,-0.003825266,0.39699268,0.049072266,0.073150635,-0.1159668,9.010574,-0.034851074,3.8700714,-0.009567261,0.010650635,0.003189087,-22.62268,21.490479,-9.651184,0,0.0,0.0,0.0,0.0
1.385162354,0.3947261,0.0028994356,-0.9187943,0.0021493859,0.99998933,0.004079067,0.9187963,-0.0035849574,0.39471564,0.3968477,-0.01537733,-0.9177556,0.0096096415,0.9998745,-0.012597944,0.91783416,-0.0038198375,0.39694566,0.17866516,-0.14678955,-0.049682617,9.010269,-0.03515625,3.870819,-0.009567261,0.0,-0.008529663,-22.62268,21.490479,-9.651184,0,0.0,0.0,0.0,0.0
1.389587402,0.39467534,0.016342893,-0.91867524,-0.0031709524,0.99986005,0.016424855,0.91881514,-0.0035694106,0.39467195,0.39680672,-0.015011826,-0.9177794,0.009459668,0.99988,-0.0122647835,0.9178535,-0.0038151399,0.39690113,0.12106323,0.035003662,-0.08753967,9.010422,-0.035003662,3.8703766,0.007461548,0.030883789,-0.004272461,-23.339844,21.131897,-9.651184,0,0.0,0.0,0.0,0.0
1.394012451,0.39478034,0.016480586,-0.9186277,-0.003241502,0.9998579,0.016544856,0.9187699,-0.0035538503,0.3947777,0.39786106,-0.014164419,-0.91733634,0.009149298,0.99989235,-0.011470979,0.91740006,-0.0038291274,0.39794785,0.131073,0.054000854,-0.02154541,9.009979,-0.034851074,3.8714142,-0.003189087,0.018096924,-0.0010681152,-23.339844,21.131897,-9.651184,0,0.0,0.0,0.0,0.0
1.398376465,0.39493117,0.016678458,-0.91855925,-0.0033081009,0.99985445,0.016732244,0.9187047,-0.0035693985,0.3949289,0.39780337,-0.013551554,-0.91737056,0.008899632,0.9999008,-0.010911519,0.9174275,-0.003823622,0.39788452,0.07901001,0.011062622,0.010482788,9.009369,-0.035003662,3.8729095,0.010650635,0.031936646,0.0053253174,-23.339844,21.131897,-9.651184,0,0.0,0.0,0.0,0.0
1.402740479,0.39486313,0.04598042,-0.91758865,-0.014948687,0.99893624,0.04362393,0.9186184,-0.0035087368,0.39513043,0.3977497,-0.012946985,-0.9174026,0.008653777,0.9999089,-0.01035943,0.91745317,-0.0038185373,0.3978255,0.0894928,0.04876709,0.0947113,9.008469,-0.03440857,3.8748627,0.0032043457,0.04046631,0.0053253174,-21.546936,20.056152,-8.267212,1,0.0,0.0,0.0,0.0
1.407104492,0.39501214,0.046170864,-0.91751504,-0.015002611,0.9989273,0.043808684,0.91855335,-0.0035398395,0.39528105,0.39770576,-0.011768197,-0.9174375,0.008178639,0.99992347,-0.009280855,0.91747653,-0.0038123415,0.39777157,0.14755249,-0.013168335,0.14588928,9.007874,-0.034713745,3.876358,0.010650635,0.045791626,-0.007461548,-21.546936,20.056152,-8.267212,1,0.0,0.0,0.0,0.0
1.411468506,0.39514944,0.04634648,-0.917447,-0.015022965,0.99891895,0.04399171,0.918494,-0.0036005278,0.39541855,0.3976653,-0.0106091555,-0.9174692,0.0077121984,0.99993646,-0.008220011,0.9174981,-0.0038068916,0.39772183,0.11462402,-0.046081543,9.0026855E-4,9.007278,-0.035308838,3.8777008,-0.009567261,0.031936646,0.004257202,-21.546936,20.056152,-8.267212,1,0.0,0.0,0.0,0.0
1.41583252,0.3955703,0.021590587,-0.9181819,-0.0052078795,0.9997602,0.021265207,0.91842085,-0.0036301035,0.39558792,0.3976278,-0.009469766,-0.91749793,0.007254925,0.99994797,-0.007176597,0.91751814,-0.0038027642,0.3976758,0.053115845,-0.074523926,0.1955719,9.006531,-0.035598755,3.8793488,-0.014892578,0.039398193,0.003189087,-23.161316,21.310425,-9.477234,1,0.0,0.0,0.0,0.0
