Serial,Time,Imid,ax,ay,az,vx,vy,vz,dx,dy,dz
0,0.0,0,8.868892,-1.1002802,-8.100932,0.0,0.0,6.6110744,0.0,0.0,0.0
1,0.004394531,0,9.180097,8.727741,-7.3801537,0.0,0.0,6.5786424,0.0,0.0,0.028910046
2,0.008789062,0,8.899925,8.658242,-7.633034,0.0,0.0,6.5450983,0.0,0.0,0.057672683
3,0.013183592,0,8.677163,8.647576,-7.9030347,0.0,0.0,6.5103683,0.0,0.0,0.0862827
4,0.017578123,0,8.453047,8.694389,-8.20635,0.0,0.0,6.474305,0.0,0.0,0.11473424
5,0.021972654,0,8.295116,8.708533,-8.511083,0.0,0.0,6.436903,0.0,0.0,0.1430214
6,0.026367186,0,8.14047,8.55514,-8.86504,0.0,0.0,6.3979454,0.0,0.0,0.17113738
7,0.030761717,0,7.9479523,8.590121,-9.005885,0.0,0.0,6.358369,0.0,0.0,0.19907942
8,0.03515625,0,7.706003,8.397067,-9.320135,0.0,0.0,6.317411,0.0,0.0,0.22684148
9,0.03955078,0,7.5562925,8.317918,-9.353927,0.0,0.0,6.276305,0.0,0.0,0.2544229
10,0.043945313,0,7.450511,8.196787,-9.542096,0.0,0.0,6.234372,0.0,0.0,0.28182006
11,0.048339844,0,7.149693,8.139032,-9.521999,0.0,0.0,6.1925273,0.0,0.0,0.3090333
12,0.052734375,0,7.015648,8.005041,-9.634299,0.0,0.0,6.150189,0.0,0.0,0.3360605
13,0.057128906,0,6.774199,7.7117844,-9.716539,0.0,0.0,6.1074896,0.0,0.0,0.36290005
14,0.061523438,0,6.638965,7.763564,-9.649922,0.0,0.0,6.0650826,0.0,0.0,0.38955325
15,0.06591797,0,6.532959,7.5716867,-9.707311,0.0,0.0,6.0224237,0.0,0.0,0.41601896
16,0.0703125,0,6.2196593,7.4106293,-9.866684,0.0,0.0,5.979064,0.0,0.0,0.44229415
17,0.07470703,0,6.219185,7.40763,-9.866569,0.0,0.0,5.935705,0.0,0.0,0.46837878
18,0.07910156,0,5.8951807,7.1327534,-9.641231,0.0,0.0,5.8933363,0.0,0.0,0.49427724
19,0.083496094,0,5.3541746,6.629386,-9.454186,0.0,0.0,5.8517895,0.0,0.0,0.5199931
20,0.087890625,0,5.353667,6.6260853,-9.453946,0.0,0.0,5.810244,0.0,0.0,0.54552644
21,0.092285156,0,5.3135924,6.4979553,-9.514048,0.0,0.0,5.768434,0.0,0.0,0.570876
22,0.09667969,0,5.2367315,6.384272,-9.4593,0.0,0.0,5.726865,0.0,0.0,0.5960429
23,0.10107422,0,4.866631,6.0185485,-9.276589,0.0,0.0,5.686099,0.0,0.0,0.6210306
24,0.10546875,0,4.866787,6.018693,-9.276552,0.0,0.0,5.645333,0.0,0.0,0.6458392
25,0.10986328,0,4.635631,5.632284,-8.960789,0.0,0.0,5.605954,0.0,0.0,0.67047477
26,0.11425781,0,4.527789,5.3764124,-8.841963,0.0,0.0,5.567098,0.0,0.0,0.69493955
27,0.118652344,0,4.271257,5.142789,-8.632168,0.0,0.0,5.529164,0.0,0.0,0.7192376
28,0.123046875,0,4.1300397,4.86603,-8.565909,0.0,0.0,5.4915204,0.0,0.0,0.7433703
29,0.1274414,0,4.0426464,4.703787,-8.305737,0.0,0.0,5.455021,0.0,0.0,0.76734257
30,0.13183594,0,4.0358357,4.4052663,-8.191698,0.0,0.0,5.419022,0.0,0.0,0.79115665
31,0.13623047,0,3.898999,4.1958666,-8.037294,0.0,0.0,5.383702,0.0,0.0,0.8148155
32,0.140625,0,3.5794775,4.1706834,-7.7642975,0.0,0.0,5.3495812,0.0,0.0,0.8383244
33,0.14501953,0,3.52377,3.9047763,-7.555217,0.0,0.0,5.3163795,0.0,0.0,0.8616874
34,0.14941406,0,3.4581382,3.799782,-7.3687663,0.0,0.0,5.2839975,0.0,0.0,0.88490814
35,0.1538086,0,3.2616599,3.62404,-7.1632066,0.0,0.0,5.2525187,0.0,0.0,0.9079905
36,0.15820313,0,3.1842782,3.425845,-6.966497,0.0,0.0,5.2219043,0.0,0.0,0.93093836
37,0.16259766,0,2.9629,3.1489196,-6.7102633,0.0,0.0,5.1924157,0.0,0.0,0.9537566
38,0.16699219,0,2.9331918,3.0783286,-6.5574026,0.0,0.0,5.163599,0.0,0.0,0.9764482
39,0.17138672,0,2.7185655,3.0735853,-6.2633696,0.0,0.0,5.1360745,0.0,0.0,0.9990188
40,0.17578125,0,2.637229,2.87546,-6.0620265,0.0,0.0,5.1094346,0.0,0.0,1.0214723
41,0.18017578,0,2.7021246,2.7820222,-5.9598017,0.0,0.0,5.0832443,0.0,0.0,1.0438108
42,0.18457031,0,2.376424,2.582896,-5.6415977,0.0,0.0,5.0584517,0.0,0.0,1.0660404
43,0.18896484,0,2.3447826,2.3192909,-5.542037,0.0,0.0,5.034097,0.0,0.0,1.0881629
44,0.19335938,0,2.3446395,2.3169649,-5.5428653,0.0,0.0,5.009739,0.0,0.0,1.1101784
45,0.1977539,0,2.2545063,2.1620183,-5.1632495,0.0,0.0,4.987049,0.0,0.0,1.1320941
46,0.20214844,0,2.0987136,2.0528347,-4.9466653,0.0,0.0,4.9653106,0.0,0.0,1.1539143
47,0.20654297,0,2.0383592,1.8359224,-4.8058,0.0,0.0,4.9441915,0.0,0.0,1.1756418
48,0.2109375,0,1.95508,1.9057447,-4.604114,0.0,0.0,4.9239583,0.0,0.0,1.1972803
49,0.21533203,0,1.7447183,1.633074,-4.344825,0.0,0.0,4.904865,0.0,0.0,1.2188349
50,0.21972656,0,1.7571156,1.5842808,-4.2564616,0.0,0.0,4.88616,0.0,0.0,1.2403072
51,0.2241211,0,1.6235511,1.1503664,-4.1006246,0.0,0.0,4.8681393,0.0,0.0,1.2617004
52,0.22851563,0,1.563092,1.2900915,-3.918921,0.0,0.0,4.850918,0.0,0.0,1.2830179
53,0.23291016,0,1.4433334,1.1003016,-3.7380614,0.0,0.0,4.834491,0.0,0.0,1.3042632
54,0.23730469,0,1.4665916,1.1101333,-3.6399946,0.0,0.0,4.818495,0.0,0.0,1.3254383
55,0.24169922,0,1.3906074,0.9915998,-3.4927955,0.0,0.0,4.8031454,0.0,0.0,1.3465458
56,0.24609375,0,1.4208944,0.9915266,-3.399807,0.0,0.0,4.788205,0.0,0.0,1.3675877
57,0.25048828,0,1.316829,0.8595941,-3.233017,0.0,0.0,4.7739973,0.0,0.0,1.3885672
58,0.2548828,0,1.2009544,0.8143312,-3.0451217,0.0,0.0,4.7606153,0.0,0.0,1.4094878
59,0.25927734,0,1.0678432,0.6283346,-2.8566275,0.0,0.0,4.748062,0.0,0.0,1.4303534
60,0.26367188,0,1.064687,0.63048863,-2.7557206,0.0,0.0,4.735952,0.0,0.0,1.4511657
61,0.2680664,0,1.0773189,0.44038388,-2.6734724,0.0,0.0,4.724203,0.0,0.0,1.4719263
62,0.27246094,0,0.97805697,0.5127868,-2.5143118,0.0,0.0,4.713154,0.0,0.0,1.4926385
63,0.27685547,0,0.94469637,0.41636774,-2.4042645,0.0,0.0,4.702588,0.0,0.0,1.5133041
64,0.28125,0,0.9281792,0.22993073,-2.3132625,0.0,0.0,4.6924224,0.0,0.0,1.533925
65,0.28564453,0,0.81829494,0.28777245,-2.1481194,0.0,0.0,4.6829824,0.0,0.0,1.5545045
66,0.29003906,0,0.84620637,0.19003138,-2.095224,0.0,0.0,4.673775,0.0,0.0,1.5750436
67,0.2944336,0,0.9405665,0.07730035,-2.09838,0.0,0.0,4.6645536,0.0,0.0,1.5955421
68,0.29882813,0,0.7890833,0.13917789,-1.9050069,0.0,0.0,0.0,0.0,0.0,1.5955421
69,0.30322266,0,0.6898747,-0.103116535,-1.7542019,0.0,0.0,0.0,0.0,0.0,1.5955421
70,0.3076172,0,0.6142439,-0.14390185,-1.6254911,0.0,0.0,0.0,0.0,0.0,1.5955421
71,0.31201172,0,0.57577604,-0.17714244,-1.5302649,0.0,0.0,0.0,0.0,0.0,1.5955421
72,0.31640625,0,0.48517364,-0.17743751,-1.3935099,0.0,0.0,0.0,0.0,0.0,1.5955421
73,0.32080078,0,0.42989188,-0.1908702,-1.2857294,0.0,0.0,0.0,0.0,0.0,1.5955421
74,0.3251953,0,0.33846372,-0.48307416,-1.1535149,0.0,0.0,0.0,0.0,0.0,1.5955421
75,0.32958984,0,0.32960683,-0.2546975,-1.0863323,0.0,0.0,0.0,0.0,0.0,1.5955421
76,0.33398438,0,0.33020562,-0.2947733,-1.0350723,0.0,0.0,0.0,0.0,0.0,1.5955421
77,0.3383789,0,0.27067035,-0.52928185,-0.93398666,0.0,0.0,0.0,0.0,0.0,1.5955421
78,0.34277344,0,0.24373806,-0.40779117,-0.8713522,0.0,0.0,0.0,0.0,0.0,1.5955421
79,0.34716797,0,0.25465703,-0.6172582,-0.8329706,0.0,0.0,0.0,0.0,0.0,1.5955421
80,0.3515625,0,0.24558777,-0.48282424,-0.7831383,0.0,0.0,0.0,0.0,0.0,1.5955421
81,0.35595703,0,0.02465409,-0.522262,-0.55220795,0.0,0.0,0.0,0.0,0.0,1.5955421
82,0.36035156,0,0.0023217797,-0.58935595,-0.48985577,0.0,0.0,0.0,0.0,0.0,1.5955421
83,0.3647461,0,0.11617488,-0.4527116,-0.5548067,0.0,0.0,0.0,0.0,0.0,1.5955421
84,0.36914063,0,0.20080274,-0.67399544,-0.5894022,0.0,0.0,0.0,0.0,0.0,1.5955421
85,0.37353516,0,0.10130048,-0.56755066,-0.4707842,0.0,0.0,0.0,0.0,0.0,1.5955421
86,0.3779297,0,0.046916723,-0.6931269,-0.3836813,0.0,0.0,0.0,0.0,0.0,1.5955421
87,0.38232422,0,0.09996599,-0.63567245,-0.40019226,0.0,0.0,0.0,0.0,0.0,1.5955421
88,0.38671875,0,0.033230484,-0.69884425,-0.30664158,0.0,0.0,0.0,0.0,0.0,1.5955421
89,0.39111328,0,-0.018915892,-0.6981075,-0.2247467,0.0,0.0,0.0,0.0,0.0,1.5955421
90,0.3955078,0,0.24803346,-0.58146954,-0.44113922,0.0,0.0,0.0,0.0,0.0,1.5955421
91,0.39990234,0,0.058850408,-0.693539,-0.24304771,0.0,0.0,0.0,0.0,0.0,1.5955421
92,0.40429688,0,0.029845476,-0.7265971,-0.18411827,0.0,0.0,0.0,0.0,0.0,1.5955421
93,0.4086914,0,-0.045063257,-0.69582164,-0.08900261,0.0,0.0,0.0,0.0,0.0,1.5955421
94,0.41308594,0,-0.10469663,-0.6251055,-0.0107421875,0.0,0.0,0.0,0.0,0.0,1.5955421
95,0.41748047,0,-0.09680152,-0.6096774,0.0070343018,0.0,0.0,0.0,0.0,0.0,1.5955421
96,0.421875,0,-0.05226344,-0.587108,-0.009755135,0.0,0.0,0.0,0.0,0.0,1.5955421
97,0.42626953,0,-0.116627455,-0.71629524,0.07609749,0.0,0.0,0.0,0.0,0.0,1.5955421
98,0.43066406,0,-0.124566674,-0.6063852,0.0931654,0.0,0.0,0.0,0.0,0.0,1.5955421
99,0.4350586,0,-0.18054473,-0.72083914,0.16834736,0.0,0.0,0.0,0.0,0.0,1.5955421
100,0.43945313,0,-0.19772446,-0.78305614,0.2059164,0.0,0.0,0.0,0.0,0.0,1.5955421
101,0.44415283,0,-0.19798762,-0.7854582,0.20596123,0.0,0.0,0.0,0.0,0.0,1.5955421
102,0.44885254,0,-0.12637937,-0.6837367,0.16817665,0.0,0.0,0.0,0.0,0.0,1.5955421
103,0.45358276,0,-0.12684858,-0.68716455,0.16811752,0.0,0.0,0.0,0.0,0.0,1.5955421
104,0.45828247,0,-0.2914484,-0.55422354,0.34735775,0.0,0.0,0.0,0.0,0.0,1.5955421
105,0.4630127,0,-0.21229768,-0.6300297,0.2903595,0.0,0.0,0.0,0.0,0.0,1.5955421
106,0.4677124,0,-0.33036214,-0.7860527,0.427248,0.0,0.0,0.0,0.0,0.0,1.5955421
107,0.47244263,0,-0.36330763,-0.6755606,0.46239853,0.0,0.0,0.0,0.0,0.0,1.5955421
108,0.47714233,0,-0.33590946,-0.713488,0.44908142,0.0,0.0,0.0,0.0,0.0,1.5955421
109,0.48187256,0,-0.4469331,-0.6928562,0.56404114,0.0,0.0,0.0,0.0,0.0,1.5955421
110,0.48657227,0,-0.3222941,-0.78004694,0.46379375,0.0,0.0,0.0,0.0,0.0,1.5955421
111,0.4913025,0,-0.4067735,-0.8382742,0.557991,0.0,0.0,0.0,0.0,0.0,1.5955421
112,0.4960022,0,-0.36262333,-0.7506824,0.52187824,0.0,0.0,0.0,0.0,0.0,1.5955421
113,0.5007324,0,-0.46938604,-0.9016361,0.65190125,0.0,0.0,0.0,0.0,0.0,1.5955421
114,0.5054321,0,-0.42803985,-0.8622639,0.6261158,0.0,0.0,0.0,0.0,0.0,1.5955421
115,0.51013184,0,-0.36244076,-0.90485775,0.5819502,0.0,0.0,0.0,0.0,0.0,1.5955421
116,0.5145569,0,-0.32908237,-0.9821222,0.5658264,0.0,0.0,0.0,0.0,0.0,1.5955421
117,0.5189514,0,-0.36938465,-0.7699541,0.59916306,0.0,0.0,0.0,0.0,0.0,1.5955421
118,0.52334595,0,-0.41240144,-0.79424286,0.65074253,0.0,0.0,0.0,0.0,0.0,1.5955421
119,0.5277405,0,-0.46404728,-0.9086604,0.71874523,0.0,0.0,0.0,0.0,0.0,1.5955421
120,0.532135,0,-0.408221,-0.9006413,0.675498,0.0,0.0,0.0,0.0,0.0,1.5955421
121,0.53652954,0,-0.38365206,-0.891474,0.66087055,0.0,0.0,0.0,0.0,0.0,1.5955421
122,0.5409241,0,-0.3632373,-0.8176733,0.6464157,0.0,0.0,0.0,0.0,0.0,1.5955421
123,0.5453186,0,-0.31943843,-0.8009912,0.6124706,0.0,0.0,0.0,0.0,0.0,1.5955421
124,0.54971313,0,-0.459861,-0.7184494,0.7491121,0.0,0.0,0.0,0.0,0.0,1.5955421
125,0.55410767,0,-0.37302434,-0.9439503,0.6881075,0.0,0.0,0.0,0.0,0.0,1.5955421
126,0.5585022,0,-0.38404632,-0.8977404,0.70121956,0.0,0.0,0.0,0.0,0.0,1.5955421
127,0.5628967,0,-0.4162059,-0.7961931,0.7303114,0.0,0.0,0.0,0.0,0.0,1.5955421
128,0.56729126,0,-0.61359394,-0.8564576,0.9312687,0.0,0.0,0.0,0.0,0.0,1.5955421
129,0.5716858,0,-0.494246,-0.8199452,0.8211851,0.0,0.0,0.0,0.0,0.0,1.5955421
130,0.5760803,0,-0.51818573,-0.9165275,0.8578377,0.0,0.0,0.0,0.0,0.0,1.5955421
131,0.58047485,0,-0.5413742,-0.8853201,0.88440514,0.0,0.0,0.0,0.0,0.0,1.5955421
132,0.5848694,0,-0.48419935,-0.7903238,0.8293114,0.0,0.0,0.0,0.0,0.0,1.5955421
133,0.5892639,0,-0.7071118,-0.9439187,1.0613585,0.0,0.0,0.0,0.0,0.0,1.5955421
134,0.59368896,0,-0.52969253,-0.8225006,0.88846684,0.0,0.0,0.0,0.0,0.0,1.5955421
135,0.5980835,0,-0.50304997,-0.87748516,0.876503,0.0,0.0,0.0,0.0,0.0,1.5955421
136,0.602478,0,-0.5876826,-0.714175,0.95201397,0.0,0.0,0.0,0.0,0.0,1.5955421
137,0.60687256,0,-0.5965855,-0.78796715,0.9696274,0.0,0.0,0.0,0.0,0.0,1.5955421
138,0.6112671,0,-0.6042315,-0.8694241,0.9883299,0.0,0.0,0.0,0.0,0.0,1.5955421
139,0.6156616,0,-0.5362332,-0.80707765,0.92220974,0.0,0.0,0.0,0.0,0.0,1.5955421
140,0.62005615,0,-0.547724,-0.6495999,0.92433834,0.0,0.0,0.0,0.0,0.0,1.5955421
141,0.6244507,0,-0.6237204,-0.8401931,1.0175018,0.0,0.0,0.0,0.0,0.0,1.5955421
142,0.6288452,0,-0.62405187,-0.8486153,1.0225725,0.0,0.0,0.0,0.0,0.0,1.5955421
143,0.63323975,0,-0.5923326,-0.8221998,0.9922848,0.0,0.0,0.0,0.0,0.0,1.5955421
144,0.6376343,0,-0.55823547,-0.82385087,0.964098,0.0,0.0,0.0,0.0,0.0,1.5955421
145,0.6420288,0,-0.61341923,-0.92854965,1.0310345,0.0,0.0,0.0,0.0,0.0,1.5955421
146,0.64642334,0,-0.6655247,-0.8823596,1.0818758,0.0,0.0,0.0,0.0,0.0,1.5955421
147,0.6508179,0,-0.4986143,-0.8142344,0.9188719,0.0,0.0,0.0,0.0,0.0,1.5955421
148,0.6552124,0,-0.5567803,-0.69170684,0.96852684,0.0,0.0,0.0,0.0,0.0,1.5955421
149,0.65960693,0,-0.47118345,-0.5984095,0.88203716,0.0,0.0,0.0,0.0,0.0,1.5955421
150,0.66400146,0,-0.6831206,-0.7813418,1.106595,0.0,0.0,0.0,0.0,0.0,1.5955421
151,0.6684265,0,-0.49345922,-0.71566635,0.91874695,0.0,0.0,0.0,0.0,0.0,1.5955421
152,0.67282104,0,-0.6069667,-1.0047091,1.0568781,0.0,0.0,0.0,0.0,0.0,1.5955421
153,0.6772156,0,-0.6628077,-0.8291191,1.0980024,0.0,0.0,0.0,0.0,0.0,1.5955421
154,0.6816101,0,-0.59441197,-0.6516614,1.0177746,0.0,0.0,0.0,0.0,0.0,1.5955421
155,0.68600464,0,-0.62950855,-0.87143767,1.0746365,0.0,0.0,0.0,0.0,0.0,1.5955421
156,0.69039917,0,-0.60597324,-0.5831619,1.0295229,0.0,0.0,0.0,0.0,0.0,1.5955421
157,0.6947937,0,-0.7770037,-0.5901885,1.1989803,0.0,0.0,0.0,0.0,0.0,1.5955421
158,0.69918823,0,-0.77700603,-0.5909196,1.1987619,0.0,0.0,0.0,0.0,0.0,1.5955421
159,0.70358276,0,-0.7569322,-0.69320923,1.1999435,0.0,0.0,0.0,0.0,0.0,1.5955421
160,0.7079773,0,-0.7927763,-0.8189838,1.2505951,0.0,0.0,0.0,0.0,0.0,1.5955421
161,0.7123718,0,-0.69345677,-0.75244737,1.1528482,0.0,0.0,0.0,0.0,0.0,1.5955421
162,0.71676636,0,-0.6651989,-0.7333627,1.1282158,0.0,0.0,0.0,0.0,0.0,1.5955421
163,0.7211609,0,-0.7356907,-0.82227844,1.2086382,0.0,0.0,0.0,0.0,0.0,1.5955421
164,0.7255554,0,-0.7591635,-0.78371644,1.2328348,0.0,0.0,0.0,0.0,0.0,1.5955421
165,0.72994995,0,-0.8263235,-0.900997,1.3126392,0.0,0.0,0.0,0.0,0.0,1.5955421
166,0.7343445,0,-0.678618,-0.7480471,1.1597042,0.0,0.0,0.0,0.0,0.0,1.5955421
167,0.738739,0,-0.77520216,-0.90257555,1.2696638,0.0,0.0,0.0,0.0,0.0,1.5955421
168,0.74316406,0,-0.6189102,-0.8084426,1.1122255,0.0,0.0,0.0,0.0,0.0,1.5955421
169,0.7475586,0,-0.69796365,-0.7678555,1.188673,0.0,0.0,0.0,0.0,0.0,1.5955421
170,0.7519531,0,-0.6315362,-0.83328843,1.1327152,0.0,0.0,0.0,0.0,0.0,1.5955421
171,0.75634766,0,-0.6757727,-0.6904229,1.1671791,0.0,0.0,0.0,0.0,0.0,1.5955421
172,0.7607422,0,-0.71637803,-0.84300756,1.2228508,0.0,0.0,0.0,0.0,0.0,1.5955421
173,0.7651367,0,-0.62197053,-1.020786,1.1467037,0.0,0.0,0.0,0.0,0.0,1.5955421
174,0.76953125,0,-0.7390658,-0.9578638,1.2564964,0.0,0.0,0.0,0.0,0.0,1.5955421
175,0.7739258,0,-0.7147095,-0.9096337,1.2302561,0.0,0.0,0.0,0.0,0.0,1.5955421
176,0.7783203,0,-0.6967814,-0.84161997,1.2111521,0.0,0.0,0.0,0.0,0.0,1.5955421
177,0.78271484,0,-0.71446115,-0.80733144,1.2299051,0.0,0.0,0.0,0.0,0.0,1.5955421
178,0.7871094,0,-0.67757964,-0.8149791,1.1978941,0.0,0.0,0.0,0.0,0.0,1.5955421
179,0.7915039,0,-0.63678205,-0.81879246,1.1605206,0.0,0.0,0.0,0.0,0.0,1.5955421
180,0.79589844,0,-0.68346334,-0.6614836,1.1948729,0.0,0.0,0.0,0.0,0.0,1.5955421
181,0.80029297,0,-0.6345005,-0.8940021,1.1669044,0.0,0.0,0.0,0.0,0.0,1.5955421
182,0.8046875,0,-0.57462823,-0.79556894,1.1027861,0.0,0.0,0.0,0.0,0.0,1.5955421
183,0.80908203,0,-0.74574614,-0.7955556,1.2721357,0.0,0.0,0.0,0.0,0.0,1.5955421
184,0.81347656,0,-0.74915886,-0.70475256,1.2696037,0.0,0.0,0.0,0.0,0.0,1.5955421
185,0.8179016,0,-0.8069117,-0.7913166,1.3336973,0.0,0.0,0.0,0.0,0.0,1.5955421
186,0.82229614,0,-0.8328253,-0.8158616,1.3613148,0.0,0.0,0.0,0.0,0.0,1.5955421
187,0.8266907,0,-0.72773236,-0.78857756,1.2561541,0.0,0.0,0.0,0.0,0.0,1.5955421
188,0.8310852,0,-0.812261,-0.73346364,1.3331308,0.0,0.0,0.0,0.0,0.0,1.5955421
189,0.83547974,0,-0.91187936,-0.7704675,1.4338017,0.0,0.0,0.0,0.0,0.0,1.5955421
190,0.83987427,0,-0.8739282,-0.8373728,1.4013853,0.0,0.0,0.0,0.0,0.0,1.5955421
191,0.8442688,0,-0.9128166,-0.6875817,1.4271965,0.0,0.0,0.0,0.0,0.0,1.5955421
192,0.84866333,0,-0.8436696,-0.6373817,1.3557405,0.0,0.0,0.0,0.0,0.0,1.5955421
193,0.85305786,0,-0.82019305,-0.6754812,1.3372498,0.0,0.0,0.0,0.0,0.0,1.5955421
194,0.8574524,0,-0.6778354,-0.9125709,1.2192326,0.0,0.0,0.0,0.0,0.0,1.5955421
195,0.8618469,0,-0.71504295,-1.0004976,1.2648182,0.0,0.0,0.0,0.0,0.0,1.5955421
196,0.86624146,0,-0.61470765,-0.6572739,1.1374731,0.0,0.0,0.0,0.0,0.0,1.5955421
197,0.870636,0,-0.659056,-0.7397846,1.1907177,0.0,0.0,0.0,0.0,0.0,1.5955421
198,0.8750305,0,-0.6358388,-0.9471905,1.1883154,0.0,0.0,0.0,0.0,0.0,1.5955421
199,0.87942505,0,-0.6465289,-0.94360244,1.2014208,0.0,0.0,0.0,0.0,0.0,1.5955421
200,0.8838196,0,-0.7614556,-0.8222325,1.3045702,0.0,0.0,0.0,0.0,0.0,1.5955421
201,0.8882141,0,-0.74187887,-0.85240924,1.2888451,0.0,0.0,0.0,0.0,0.0,1.5955421
202,0.89263916,0,-0.7428627,-0.81666124,1.2877197,0.0,0.0,0.0,0.0,0.0,1.5955421
203,0.8970337,0,-0.72003627,-0.8953572,1.2727365,0.0,0.0,0.0,0.0,0.0,1.5955421
204,0.9014282,0,-0.8488553,-0.7733276,1.3907595,0.0,0.0,0.0,0.0,0.0,1.5955421
205,0.90582275,0,-0.7666141,-0.7874904,1.3113251,0.0,0.0,0.0,0.0,0.0,1.5955421
206,0.9102173,0,-0.80848247,-0.77797675,1.3517227,0.0,0.0,0.0,0.0,0.0,1.5955421
207,0.9146118,0,-0.8659122,-0.7500375,1.4055662,0.0,0.0,0.0,0.0,0.0,1.5955421
208,0.91900635,0,-0.7671909,-0.73989457,1.3079004,0.0,0.0,0.0,0.0,0.0,1.5955421
209,0.92181396,0,-0.6657967,-0.5985309,1.1956491,0.0,0.0,0.0,0.0,0.0,1.5955421
210,0.92459106,0,-0.66598123,-0.6001505,1.1953259,0.0,0.0,0.0,0.0,0.0,1.5955421
211,0.92819214,0,-0.66617644,-0.6020739,1.194973,0.0,0.0,0.0,0.0,0.0,1.5955421
212,0.93307495,0,-0.71413344,-0.72075105,1.2522411,0.0,0.0,0.0,0.0,0.0,1.5955421
213,0.93795776,0,-0.73554343,-0.742676,1.2771463,0.0,0.0,0.0,0.0,0.0,1.5955421
214,0.9428711,0,-0.8377833,-0.7174653,1.3743324,0.0,0.0,0.0,0.0,0.0,1.5955421
215,0.9477539,0,-0.8377627,-0.7181834,1.3739634,0.0,0.0,0.0,0.0,0.0,1.5955421
216,0.9526367,0,-0.8266392,-0.5943272,1.3557682,0.0,0.0,0.0,0.0,0.0,1.5955421
217,0.95751953,0,-0.9011986,-0.56038654,1.4276533,0.0,0.0,0.0,0.0,0.0,1.5955421
218,0.96240234,0,-0.8048123,-0.56595504,1.3347139,0.0,0.0,0.0,0.0,0.0,1.5955421
219,0.96728516,0,-0.8068975,-0.5515551,1.3394575,0.0,0.0,0.0,0.0,0.0,1.5955421
220,0.97216797,0,-0.84522057,-0.48152962,1.3725071,0.0,0.0,0.0,0.0,0.0,1.5955421
221,0.9770813,0,-0.87315714,-0.5924381,1.4094486,0.0,0.0,0.0,0.0,0.0,1.5955421
222,0.9819641,0,-0.78480476,-0.6740562,1.3301315,0.0,0.0,0.0,0.0,0.0,1.5955421
223,0.98638916,0,-0.8098042,-0.6076722,1.350152,0.0,0.0,0.0,0.0,0.0,1.5955421
224,0.9907532,0,-0.7482934,-0.6630502,1.2957458,0.0,0.0,0.0,0.0,0.0,1.5955421
225,0.9951172,0,-0.7033076,-0.5078834,1.2409143,0.0,0.0,0.0,0.0,0.0,1.5955421
226,0.9994812,0,-0.71874493,-0.6988988,1.2736368,0.0,0.0,0.0,0.0,0.0,1.5955421
227,1.0038452,0,-0.78378814,-0.62356067,1.3295412,0.0,0.0,0.0,0.0,0.0,1.5955421
228,1.0082092,0,-0.80418974,-0.55696166,1.3450298,0.0,0.0,0.0,0.0,0.0,1.5955421
229,1.0125732,0,-0.7477978,-0.7831486,1.3096676,0.0,0.0,0.0,0.0,0.0,1.5955421
230,1.0169373,0,-0.7916176,-0.7014674,1.3468256,0.0,0.0,0.0,0.0,0.0,1.5955421
231,1.0213013,0,-0.8982009,-0.6946487,1.4518347,0.0,0.0,0.0,0.0,0.0,1.5955421
232,1.0256653,0,-0.82366765,-0.73836577,1.3822632,0.0,0.0,0.0,0.0,0.0,1.5955421
233,1.0300293,0,-0.911516,-0.6720443,1.46383,0.0,0.0,0.0,0.0,0.0,1.5955421
234,1.0343933,0,-0.7925429,-0.5998571,1.3375263,0.0,0.0,0.0,0.0,0.0,1.5955421
235,1.0387573,0,-0.7701878,-0.7623297,1.3302755,0.0,0.0,0.0,0.0,0.0,1.5955421
236,1.0431213,0,-0.75025964,-0.88037646,1.322011,0.0,0.0,0.0,0.0,0.0,1.5955421
237,1.0474854,0,-0.66486096,-0.8768059,1.2388725,0.0,0.0,0.0,0.0,0.0,1.5955421
238,1.0518494,0,-0.8190871,-0.75788367,1.3817987,0.0,0.0,0.0,0.0,0.0,1.5955421
239,1.0562134,0,-0.7666703,-0.7174844,1.326972,0.0,0.0,0.0,0.0,0.0,1.5955421
240,1.0605774,0,-0.8297751,-0.8424775,1.3995113,0.0,0.0,0.0,0.0,0.0,1.5955421
241,1.0649414,0,-0.64972085,-0.95878613,1.2321215,0.0,0.0,0.0,0.0,0.0,1.5955421
242,1.0693054,0,-0.8487506,-0.9329765,1.4237928,0.0,0.0,0.0,0.0,0.0,1.5955421
243,1.0736694,0,-0.820307,-0.8452146,1.3890152,0.0,0.0,0.0,0.0,0.0,1.5955421
244,1.0780334,0,-0.8123224,-0.87868154,1.3844681,0.0,0.0,0.0,0.0,0.0,1.5955421
245,1.0823975,0,-0.83719665,-0.71135783,1.3955126,0.0,0.0,0.0,0.0,0.0,1.5955421
246,1.0867615,0,-0.8974858,-0.84127176,1.467022,0.0,0.0,0.0,0.0,0.0,1.5955421
247,1.0911255,0,-0.93316334,-0.8936063,1.507863,0.0,0.0,0.0,0.0,0.0,1.5955421
248,1.0954895,0,-0.922342,-0.7597165,1.487073,0.0,0.0,0.0,0.0,0.0,1.5955421
249,1.0998535,0,-0.833794,-0.87444615,1.4104128,0.0,0.0,0.0,0.0,0.0,1.5955421
250,1.1042175,0,-0.79227364,-0.6658088,1.3530102,0.0,0.0,0.0,0.0,0.0,1.5955421
251,1.1085815,0,-0.8767759,-0.7123781,1.4405413,0.0,0.0,0.0,0.0,0.0,1.5955421
252,1.1129456,0,-0.83156997,-0.78969574,1.4035378,0.0,0.0,0.0,0.0,0.0,1.5955421
253,1.1173096,0,-0.8404679,-0.6868136,1.4048977,0.0,0.0,0.0,0.0,0.0,1.5955421
254,1.1216736,0,-0.93227607,-0.7317283,1.4997234,0.0,0.0,0.0,0.0,0.0,1.5955421
255,1.1260376,0,-0.909747,-0.8241818,1.486413,0.0,0.0,0.0,0.0,0.0,1.5955421
256,1.1304016,0,-0.9539633,-0.82748127,1.5311852,0.0,0.0,0.0,0.0,0.0,1.5955421
257,1.1347656,0,-0.75515586,-0.7057712,1.3246078,0.0,0.0,0.0,0.0,0.0,1.5955421
258,1.1391296,0,-0.82865685,-0.71137226,1.397274,0.0,0.0,0.0,0.0,0.0,1.5955421
259,1.1434937,0,-0.7472422,-0.6790347,1.3141441,0.0,0.0,0.0,0.0,0.0,1.5955421
260,1.1478577,0,-0.8860941,-0.96460974,1.476079,0.0,0.0,0.0,0.0,0.0,1.5955421
261,1.1522217,0,-0.7875424,-0.70292246,1.3569765,0.0,0.0,0.0,0.0,0.0,1.5955421
262,1.1565857,0,-0.8174665,-0.6196637,1.3791084,0.0,0.0,0.0,0.0,0.0,1.5955421
263,1.1609497,0,-0.7936522,-0.54787946,1.3475409,0.0,0.0,0.0,0.0,0.0,1.5955421
264,1.1653137,0,-0.7432609,-0.69966143,1.3093376,0.0,0.0,0.0,0.0,0.0,1.5955421
265,1.1696777,0,-0.82951814,-0.7302762,1.3993244,0.0,0.0,0.0,0.0,0.0,1.5955421
266,1.1740417,0,-0.8160788,-0.66399026,1.3787556,0.0,0.0,0.0,0.0,0.0,1.5955421
267,1.1784058,0,-0.7361721,-0.58703345,1.2919302,0.0,0.0,0.0,0.0,0.0,1.5955421
268,1.1827698,0,-0.81836885,-0.72914356,1.3834772,0.0,0.0,0.0,0.0,0.0,1.5955421
269,1.1871338,0,-0.815329,-0.6892705,1.3746557,0.0,0.0,0.0,0.0,0.0,1.5955421
270,1.1914978,0,-0.8346693,-0.5902246,1.3831387,0.0,0.0,0.0,0.0,0.0,1.5955421
271,1.1958618,0,-0.81393945,-0.6026901,1.3623056,0.0,0.0,0.0,0.0,0.0,1.5955421
272,1.2002258,0,-0.81407684,-0.6035539,1.3619146,0.0,0.0,0.0,0.0,0.0,1.5955421
273,1.2045898,0,-0.84965277,-0.6411618,1.4099216,0.0,0.0,0.0,0.0,0.0,1.5955421
274,1.2089539,0,-0.8709614,-0.7705347,1.4433565,0.0,0.0,0.0,0.0,0.0,1.5955421
275,1.2133179,0,-0.82876897,-0.6958783,1.3944921,0.0,0.0,0.0,0.0,0.0,1.5955421
276,1.2176819,0,-0.8879794,-0.6548391,1.4484568,0.0,0.0,0.0,0.0,0.0,1.5955421
277,1.2220459,0,-0.8878665,-0.4479606,1.429513,0.0,0.0,0.0,0.0,0.0,1.5955421
278,1.2264099,0,-0.9020846,-0.5875575,1.4575729,0.0,0.0,0.0,0.0,0.0,1.5955421
279,1.2307739,0,-0.8380099,-0.52715856,1.3921404,0.0,0.0,0.0,0.0,0.0,1.5955421
280,1.2351379,0,-0.8577051,-0.47339997,1.4098349,0.0,0.0,0.0,0.0,0.0,1.5955421
281,1.239502,0,-0.91673356,-0.64472765,1.4837294,0.0,0.0,0.0,0.0,0.0,1.5955421
282,1.243866,0,-0.8704548,-0.60380894,1.4352608,0.0,0.0,0.0,0.0,0.0,1.5955421
283,1.24823,0,-0.9653045,-0.5398314,1.523303,0.0,0.0,0.0,0.0,0.0,1.5955421
284,1.252594,0,-0.87870914,-0.7075088,1.4529552,0.0,0.0,0.0,0.0,0.0,1.5955421
285,1.256958,0,-0.8130578,-0.7004714,1.3885527,0.0,0.0,0.0,0.0,0.0,1.5955421
286,1.261322,0,-0.69519675,-0.5955218,1.2639704,0.0,0.0,0.0,0.0,0.0,1.5955421
287,1.265686,0,-0.8228557,-0.5940268,1.3909807,0.0,0.0,0.0,0.0,0.0,1.5955421
288,1.27005,0,-0.82801145,-0.8668443,1.4181814,0.0,0.0,0.0,0.0,0.0,1.5955421
289,1.2744141,0,-0.8837966,-0.71963936,1.4621534,0.0,0.0,0.0,0.0,0.0,1.5955421
290,1.2787781,0,-0.73254126,-0.73739314,1.3153381,0.0,0.0,0.0,0.0,0.0,1.5955421
291,1.2831421,0,-0.82015413,-0.78274095,1.4059124,0.0,0.0,0.0,0.0,0.0,1.5955421
292,1.2875061,0,-0.73721683,-0.8153902,1.326973,0.0,0.0,0.0,0.0,0.0,1.5955421
293,1.2918701,0,-0.70586306,-0.7348745,1.2887402,0.0,0.0,0.0,0.0,0.0,1.5955421
294,1.2962341,0,-0.64169365,-0.585326,1.2126245,0.0,0.0,0.0,0.0,0.0,1.5955421
295,1.3005981,0,-0.74647504,-0.71788394,1.3268442,0.0,0.0,0.0,0.0,0.0,1.5955421
296,1.3049622,0,-0.8828331,-0.78357893,1.4652109,0.0,0.0,0.0,0.0,0.0,1.5955421
297,1.3093262,0,-0.76235807,-0.80890054,1.3486938,0.0,0.0,0.0,0.0,0.0,1.5955421
298,1.3136902,0,-0.86713374,-0.78868437,1.4502497,0.0,0.0,0.0,0.0,0.0,1.5955421
299,1.3180542,0,-0.9170563,-0.7723687,1.4971695,0.0,0.0,0.0,0.0,0.0,1.5955421
300,1.3224182,0,-0.9143188,-0.6524756,1.4838037,0.0,0.0,0.0,0.0,0.0,1.5955421
301,1.3267822,0,-0.81518596,-0.5827844,1.3799124,0.0,0.0,0.0,0.0,0.0,1.5955421
302,1.3311462,0,-0.77821517,-0.79689497,1.3620634,0.0,0.0,0.0,0.0,0.0,1.5955421
303,1.3355103,0,-0.8598314,-0.6025301,1.4263325,0.0,0.0,0.0,0.0,0.0,1.5955421
304,1.3398743,0,-0.93343806,-0.74964035,1.5094624,0.0,0.0,0.0,0.0,0.0,1.5955421
305,1.3442383,0,-0.846684,-0.77944815,1.4269333,0.0,0.0,0.0,0.0,0.0,1.5955421
306,1.3486023,0,-0.85723084,-0.7461903,1.4350147,0.0,0.0,0.0,0.0,0.0,1.5955421
307,1.3529663,0,-0.96537507,-0.7204051,1.5393095,0.0,0.0,0.0,0.0,0.0,1.5955421
308,1.3573303,0,-0.8461865,-0.81152934,1.4298592,0.0,0.0,0.0,0.0,0.0,1.5955421
309,1.3616943,0,-0.95602036,-0.7803346,1.5352621,0.0,0.0,0.0,0.0,0.0,1.5955421
310,1.3660583,0,-0.8175344,-0.7217366,1.3935947,0.0,0.0,0.0,0.0,0.0,1.5955421
311,1.3704224,0,-0.9573183,-0.7142651,1.5273609,0.0,0.0,0.0,0.0,0.0,1.5955421
312,1.3747864,0,-0.7585321,-0.5972053,1.3209257,0.0,0.0,0.0,0.0,0.0,1.5955421
313,1.3791504,0,-0.7152462,-0.73928213,1.2905092,0.0,0.0,0.0,0.0,0.0,1.5955421
314,1.3835144,0,-0.7585529,-0.60544765,1.3204174,0.0,0.0,0.0,0.0,0.0,1.5955421
315,1.3878784,0,-0.74283797,-0.7227075,1.315424,0.0,0.0,0.0,0.0,0.0,1.5955421
316,1.3922424,0,-0.7270119,-0.6731472,1.2954855,0.0,0.0,0.0,0.0,0.0,1.5955421
317,1.3966064,0,-0.8161637,-0.5615349,1.3731699,0.0,0.0,0.0,0.0,0.0,1.5955421
318,1.4009705,0,-0.8011374,-0.8616973,1.3856039,0.0,0.0,0.0,0.0,0.0,1.5955421
319,1.4053345,0,-0.7588335,-0.7224298,1.3332434,0.0,0.0,0.0,0.0,0.0,1.5955421
320,1.4096985,0,-0.7574604,-0.78443086,1.3379908,0.0,0.0,0.0,0.0,0.0,1.5955421
321,1.4140625,0,-0.84972525,-0.707765,1.4217806,0.0,0.0,0.0,0.0,0.0,1.5955421
322,1.4184265,0,-0.8071656,-0.6929494,1.3783836,0.0,0.0,0.0,0.0,0.0,1.5955421
323,1.4227905,0,-0.82997644,-0.7306539,1.4008999,0.0,0.0,0.0,0.0,0.0,1.5955421
324,1.4271545,0,-0.7961066,-0.7387543,1.364891,0.0,0.0,0.0,0.0,0.0,1.5955421
325,1.4315186,0,-0.7186965,-0.70147276,1.2826595,0.0,0.0,0.0,0.0,0.0,1.5955421
326,1.4358826,0,-0.89151955,-0.72478276,1.456008,0.0,0.0,0.0,0.0,0.0,1.5955421
327,1.4402466,0,-0.772346,-0.75327724,1.3464088,0.0,0.0,0.0,0.0,0.0,1.5955421
328,1.4446106,0,-0.9479413,-0.63092566,1.510355,0.0,0.0,0.0,0.0,0.0,1.5955421
329,1.4489746,0,-0.94827485,-0.6329256,1.510889,0.0,0.0,0.0,0.0,0.0,1.5955421
330,1.4533386,0,-0.86140066,-0.747864,1.4327812,0.0,0.0,0.0,0.0,0.0,1.5955421
331,1.4577026,0,-0.83385503,-0.5665474,1.3873806,0.0,0.0,0.0,0.0,0.0,1.5955421
332,1.4620667,0,-0.90958035,-0.74694467,1.4819899,0.0,0.0,0.0,0.0,0.0,1.5955421
333,1.4664307,0,-1.0033789,-0.5892865,1.5638704,0.0,0.0,0.0,0.0,0.0,1.5955421
334,1.4707947,0,-0.89299047,-0.62185353,1.4630146,0.0,0.0,0.0,0.0,0.0,1.5955421
335,1.4751587,0,-0.8924675,-0.68001837,1.4679041,0.0,0.0,0.0,0.0,0.0,1.5955421
336,1.4795227,0,-0.9478251,-0.6669551,1.5216427,0.0,0.0,0.0,0.0,0.0,1.5955421
337,1.4838867,0,-0.9764471,-0.7399007,1.5567026,0.0,0.0,0.0,0.0,0.0,1.5955421
338,1.4882507,0,-0.9188877,-0.8090925,1.5056276,0.0,0.0,0.0,0.0,0.0,1.5955421
339,1.4926147,0,-0.68136156,-0.5612319,1.2493458,0.0,0.0,0.0,0.0,0.0,1.5955421
340,1.4972839,0,-0.833479,-0.8320347,1.4226532,0.0,0.0,0.0,0.0,0.0,1.5955421
341,1.5019531,0,-0.7784058,-0.71504617,1.3582058,0.0,0.0,0.0,0.0,0.0,1.5955421
342,1.5066528,0,-0.79608154,-0.81560344,1.3879795,0.0,0.0,0.0,0.0,0.0,1.5955421
343,1.511322,0,-0.70239955,-0.716757,1.2873936,0.0,0.0,0.0,0.0,0.0,1.5955421
344,1.5160217,0,-0.67992526,-0.73376256,1.267334,0.0,0.0,0.0,0.0,0.0,1.5955421
345,1.5206909,0,-0.6609155,-0.53255904,1.2312946,0.0,0.0,0.0,0.0,0.0,1.5955421
346,1.5253906,0,-0.6604409,-0.78568625,1.252675,0.0,0.0,0.0,0.0,0.0,1.5955421
347,1.5300598,0,-0.80599225,-0.67189395,1.3873405,0.0,0.0,0.0,0.0,0.0,1.5955421
348,1.5347595,0,-0.67723215,-0.659631,1.2598324,0.0,0.0,0.0,0.0,0.0,1.5955421
349,1.5394287,0,-0.7173775,-0.5850457,1.2962084,0.0,0.0,0.0,0.0,0.0,1.5955421
350,1.5441284,0,-0.7684172,-0.625072,1.3487644,0.0,0.0,0.0,0.0,0.0,1.5955421
351,1.5487976,0,-0.7811095,-0.53970695,1.352746,0.0,0.0,0.0,0.0,0.0,1.5955421
352,1.5534973,0,-0.8221756,-0.7312349,1.4084702,0.0,0.0,0.0,0.0,0.0,1.5955421
353,1.5581665,0,-0.8182894,-0.7347953,1.4043398,0.0,0.0,0.0,0.0,0.0,1.5955421
354,1.5628357,0,-0.81840485,-0.6729452,1.3982286,0.0,0.0,0.0,0.0,0.0,1.5955421
355,1.5675354,0,-0.8513585,-0.55273354,1.4198885,0.0,0.0,0.0,0.0,0.0,1.5955421
356,1.5722046,0,-0.84676063,-0.5174743,1.4124117,0.0,0.0,0.0,0.0,0.0,1.5955421
357,1.5769043,0,-0.8951055,-0.6825298,1.4742327,0.0,0.0,0.0,0.0,0.0,1.5955421
358,1.5815735,0,-0.9486448,-0.49831405,1.5110083,0.0,0.0,0.0,0.0,0.0,1.5955421
359,1.5859985,0,-1.0127699,-0.66755414,1.5891123,0.0,0.0,0.0,0.0,0.0,1.5955421
360,1.5903625,0,-0.9963743,-0.90635127,1.593667,0.0,0.0,0.0,0.0,0.0,1.5955421
361,1.5947266,0,-0.9275331,-0.6457742,1.503644,0.0,0.0,0.0,0.0,0.0,1.5955421
362,1.5990906,0,-0.9148805,-0.6115861,1.4885025,0.0,0.0,0.0,0.0,0.0,1.5955421
363,1.6034546,0,-0.9262674,-0.70272225,1.5077314,0.0,0.0,0.0,0.0,0.0,1.5955421
364,1.6078186,0,-0.950516,-0.6728232,1.5281391,0.0,0.0,0.0,0.0,0.0,1.5955421
365,1.6121826,0,-0.9584878,-0.7286031,1.5407486,0.0,0.0,0.0,0.0,0.0,1.5955421
366,1.6165466,0,-0.8738984,-0.709934,1.4544973,0.0,0.0,0.0,0.0,0.0,1.5955421
367,1.6209106,0,-0.78410876,-0.80521023,1.3737068,0.0,0.0,0.0,0.0,0.0,1.5955421
368,1.6252747,0,-0.87304324,-0.639138,1.4454613,0.0,0.0,0.0,0.0,0.0,1.5955421
369,1.6296387,0,-0.7939327,-0.8347247,1.3836555,0.0,0.0,0.0,0.0,0.0,1.5955421
370,1.6340027,0,-0.8058042,-0.62910414,1.3762913,0.0,0.0,0.0,0.0,0.0,1.5955421
371,1.6383667,0,-0.7257412,-0.5579568,1.2928648,0.0,0.0,0.0,0.0,0.0,1.5955421
372,1.6427307,0,-0.8235768,-0.6783625,1.4015865,0.0,0.0,0.0,0.0,0.0,1.5955421
373,1.6470947,0,-0.673076,-0.6800873,1.2563152,0.0,0.0,0.0,0.0,0.0,1.5955421
374,1.6514587,0,-0.8179641,-0.7946508,1.4094849,0.0,0.0,0.0,0.0,0.0,1.5955421
375,1.6558228,0,-0.79281074,-0.61760306,1.3693209,0.0,0.0,0.0,0.0,0.0,1.5955421
376,1.6601868,0,-0.66285014,-0.74679065,1.2525291,0.0,0.0,0.0,0.0,0.0,1.5955421
377,1.6645508,0,-0.7609951,-0.81880736,1.3560123,0.0,0.0,0.0,0.0,0.0,1.5955421
378,1.6689148,0,-0.7593677,-0.7137862,1.3467903,0.0,0.0,0.0,0.0,0.0,1.5955421
379,1.6732788,0,-0.78736615,-0.81238586,1.3822346,0.0,0.0,0.0,0.0,0.0,1.5955421
380,1.6776428,0,-0.78086877,-0.7359072,1.369071,0.0,0.0,0.0,0.0,0.0,1.5955421
381,1.6820068,0,-0.81886625,-0.6425256,1.3978958,0.0,0.0,0.0,0.0,0.0,1.5955421
382,1.6863708,0,-0.6915225,-0.72925466,1.2792978,0.0,0.0,0.0,0.0,0.0,1.5955421
383,1.6907349,0,-0.8633169,-0.8073987,1.4555502,0.0,0.0,0.0,0.0,0.0,1.5955421
384,1.6950989,0,-0.911614,-0.6086977,1.4868441,0.0,0.0,0.0,0.0,0.0,1.5955421
385,1.6994629,0,-0.97908354,-0.7166871,1.5630713,0.0,0.0,0.0,0.0,0.0,1.5955421
386,1.7038269,0,-0.9789037,-0.7165296,1.5629568,0.0,0.0,0.0,0.0,0.0,1.5955421
387,1.7081909,0,-0.9060775,-0.60858554,1.48073,0.0,0.0,0.0,0.0,0.0,1.5955421
388,1.7125549,0,-0.99348736,-0.5636805,1.5621748,0.0,0.0,0.0,0.0,0.0,1.5955421
389,1.716919,0,-1.0191048,-0.7266906,1.5996666,0.0,0.0,0.0,0.0,0.0,1.5955421
390,1.721283,0,-0.8974173,-0.5857072,1.466198,0.0,0.0,0.0,0.0,0.0,1.5955421
391,1.725647,0,-0.84449625,-0.66007614,1.4191313,0.0,0.0,0.0,0.0,0.0,1.5955421
392,1.730011,0,-0.8625194,-0.58516765,1.4305754,0.0,0.0,0.0,0.0,0.0,1.5955421
393,1.734375,0,-0.81664205,-0.74634176,1.4001045,0.0,0.0,0.0,0.0,0.0,1.5955421
394,1.738739,0,-0.7804202,-0.5721632,1.3540258,0.0,0.0,0.0,0.0,0.0,1.5955421
395,1.743103,0,-0.8407752,-0.64010316,1.4190016,0.0,0.0,0.0,0.0,0.0,1.5955421
396,1.747467,0,-0.799644,-0.6918237,1.3820066,0.0,0.0,0.0,0.0,0.0,1.5955421
397,1.751831,0,-0.8107192,-0.8485323,1.4065447,0.0,0.0,0.0,0.0,0.0,1.5955421
398,1.7561951,0,-0.7798264,-0.7529576,1.3697376,0.0,0.0,0.0,0.0,0.0,1.5955421
399,1.7605591,0,-0.7358603,-0.65219986,1.3188791,0.0,0.0,0.0,0.0,0.0,1.5955421
400,1.7649231,0,-0.7769721,-0.63156545,1.3584156,0.0,0.0,0.0,0.0,0.0,1.5955421
401,1.7692871,0,-0.7626401,-0.6657857,1.3473396,0.0,0.0,0.0,0.0,0.0,1.5955421
402,1.7736511,0,-0.72046036,-0.63174534,1.3055439,0.0,0.0,0.0,0.0,0.0,1.5955421
403,1.7780151,0,-0.80043554,-0.6128514,1.3830233,0.0,0.0,0.0,0.0,0.0,1.5955421
404,1.7823792,0,-0.7010085,-0.44562432,1.2702942,0.0,0.0,0.0,0.0,0.0,1.5955421
405,1.7867432,0,-0.8824707,-0.56300795,1.4588375,0.0,0.0,0.0,0.0,0.0,1.5955421
406,1.7911072,0,-0.8826064,-0.59978545,1.4610739,0.0,0.0,0.0,0.0,0.0,1.5955421
407,1.7954712,0,-0.76812655,-0.5411924,1.3443508,0.0,0.0,0.0,0.0,0.0,1.5955421
408,1.7998352,0,-0.90802413,-0.6630213,1.4929209,0.0,0.0,0.0,0.0,0.0,1.5955421
409,1.8041992,0,-0.9507095,-0.7332704,1.5417776,0.0,0.0,0.0,0.0,0.0,1.5955421
410,1.8085632,0,-0.9439408,-0.4954138,1.518568,0.0,0.0,0.0,0.0,0.0,1.5955421
411,1.8129272,0,-0.98305696,-0.7137511,1.5755396,0.0,0.0,0.0,0.0,0.0,1.5955421
412,1.8172913,0,-1.0219184,-0.78285927,1.620204,0.0,0.0,0.0,0.0,0.0,1.5955421
413,1.8216553,0,-1.0706341,-0.73171496,1.6632652,0.0,0.0,0.0,0.0,0.0,1.5955421
414,1.8260193,0,-0.92983186,-0.64592445,1.5168467,0.0,0.0,0.0,0.0,0.0,1.5955421
415,1.8303833,0,-1.0992949,-0.7947982,1.694807,0.0,0.0,0.0,0.0,0.0,1.5955421
416,1.8347473,0,-0.9997799,-0.7065927,1.5907536,0.0,0.0,0.0,0.0,0.0,1.5955421
417,1.8391113,0,-0.94384193,-0.5963687,1.5276413,0.0,0.0,0.0,0.0,0.0,1.5955421
418,1.8434753,0,-0.9771425,-0.79582083,1.5769787,0.0,0.0,0.0,0.0,0.0,1.5955421
419,1.8478394,0,-0.7656507,-0.83132416,1.3705482,0.0,0.0,0.0,0.0,0.0,1.5955421
420,1.8522034,0,-0.7876714,-0.68369067,1.3803167,0.0,0.0,0.0,0.0,0.0,1.5955421
421,1.8565674,0,-0.7312563,-0.8427293,1.3365412,0.0,0.0,0.0,0.0,0.0,1.5955421
422,1.8609314,0,-0.7525843,-0.7431338,1.3494148,0.0,0.0,0.0,0.0,0.0,1.5955421
423,1.8652954,0,-0.67538947,-0.7057933,1.2704287,0.0,0.0,0.0,0.0,0.0,1.5955421
424,1.8696594,0,-0.73870534,-0.8126221,1.3414478,0.0,0.0,0.0,0.0,0.0,1.5955421
425,1.8740234,0,-0.7244284,-0.76270574,1.320797,0.0,0.0,0.0,0.0,0.0,1.5955421
426,1.8783875,0,-0.7444519,-1.0345441,1.3627491,0.0,0.0,0.0,0.0,0.0,1.5955421
427,1.8827515,0,-0.76892483,-0.83403456,1.3721237,0.0,0.0,0.0,0.0,0.0,1.5955421
428,1.8871155,0,-0.8548614,-0.76599383,1.451644,0.0,0.0,0.0,0.0,0.0,1.5955421
429,1.8914795,0,-0.76932067,-0.735762,1.3653507,0.0,0.0,0.0,0.0,0.0,1.5955421
430,1.8958435,0,-0.8783518,-0.7112798,1.4708128,0.0,0.0,0.0,0.0,0.0,1.5955421
431,1.9002075,0,-0.82146764,-0.77201045,1.4192152,0.0,0.0,0.0,0.0,0.0,1.5955421
432,1.9045715,0,-0.97201926,-0.872185,1.5750723,0.0,0.0,0.0,0.0,0.0,1.5955421
433,1.9089355,0,-0.9002382,-0.75842756,1.4915075,0.0,0.0,0.0,0.0,0.0,1.5955421
434,1.9132996,0,-0.8916895,-0.6690787,1.4763193,0.0,0.0,0.0,0.0,0.0,1.5955421
435,1.9176636,0,-0.93978924,-0.6294222,1.5205269,0.0,0.0,0.0,0.0,0.0,1.5955421
436,1.9215393,0,-0.8833677,-0.6684431,1.4681253,0.0,0.0,0.0,0.0,0.0,1.5955421
437,1.925415,0,-0.8834486,-0.6688529,1.4676123,0.0,0.0,0.0,0.0,0.0,1.5955421
438,1.9293213,0,-0.8832966,-0.6690519,1.4665489,0.0,0.0,0.0,0.0,0.0,1.5955421
439,1.933197,0,-0.85798365,-0.7049935,1.4390125,0.0,0.0,0.0,0.0,0.0,1.5955421
440,1.9372864,0,-0.82161623,-0.7280932,1.4043207,0.0,0.0,0.0,0.0,0.0,1.5955421
441,1.9414063,0,-0.8918023,-0.73015344,1.4723158,0.0,0.0,0.0,0.0,0.0,1.5955421
442,1.9460449,0,-0.8826852,-0.7111131,1.4618168,0.0,0.0,0.0,0.0,0.0,1.5955421
443,1.9507141,0,-0.92320234,-0.7653712,1.5071306,0.0,0.0,0.0,0.0,0.0,1.5955421
444,1.9553528,0,-0.9231523,-0.7646141,1.5070496,0.0,0.0,0.0,0.0,0.0,1.5955421
445,1.960022,0,-0.7815864,-0.7072058,1.3643675,0.0,0.0,0.0,0.0,0.0,1.5955421
446,1.9646606,0,-0.87484825,-0.57980704,1.4471598,0.0,0.0,0.0,0.0,0.0,1.5955421
447,1.9693298,0,-0.8933891,-0.7552961,1.4808493,0.0,0.0,0.0,0.0,0.0,1.5955421
448,1.9739685,0,-0.8143347,-0.8195439,1.4117947,0.0,0.0,0.0,0.0,0.0,1.5955421
449,1.9786072,0,-0.8491092,-0.6559838,1.434474,0.0,0.0,0.0,0.0,0.0,1.5955421
450,1.9832764,0,-0.8488371,-0.8019194,1.4473476,0.0,0.0,0.0,0.0,0.0,1.5955421
451,1.987915,0,-0.8181218,-0.7465683,1.4142809,0.0,0.0,0.0,0.0,0.0,1.5955421
452,1.9925842,0,-0.7999246,-0.5677726,1.3823986,0.0,0.0,0.0,0.0,0.0,1.5955421
453,1.9972229,0,-0.87171066,-0.73962855,1.4675484,0.0,0.0,0.0,0.0,0.0,1.5955421
454,2.001892,0,-0.7813315,-0.6642208,1.3728638,0.0,0.0,0.0,0.0,0.0,1.5955421
455,2.0065308,0,-0.7716252,-0.42289802,1.3460369,0.0,0.0,0.0,0.0,0.0,1.5955421
456,2.0111694,0,-0.8131629,-0.56906563,1.4042807,0.0,0.0,0.0,0.0,0.0,1.5955421
457,2.0158386,0,-0.7701182,-0.34080973,1.3463535,0.0,0.0,0.0,0.0,0.0,1.5955421
458,2.0204773,0,-0.9218557,-0.5403296,1.5129318,0.0,0.0,0.0,0.0,0.0,1.5955421
459,2.0251465,0,-0.72143126,-0.4272851,1.3074007,0.0,0.0,0.0,0.0,0.0,1.5955421
460,2.0297852,0,-0.89389503,-0.49512818,1.4836636,0.0,0.0,0.0,0.0,0.0,1.5955421
461,2.0344543,0,-0.682717,-0.577235,1.279521,0.0,0.0,0.0,0.0,0.0,1.5955421
462,2.039093,0,-0.8141337,-0.628366,1.4114847,0.0,0.0,0.0,0.0,0.0,1.5955421
463,2.0437317,0,-0.875136,-0.65470266,1.471261,0.0,0.0,0.0,0.0,0.0,1.5955421
464,2.0484009,0,-0.8941937,-0.68340254,1.4930563,0.0,0.0,0.0,0.0,0.0,1.5955421
465,2.0530396,0,-0.8600944,-0.7053821,1.461894,0.0,0.0,0.0,0.0,0.0,1.5955421
466,2.0577087,0,-0.7815049,-0.70077485,1.3854351,0.0,0.0,0.0,0.0,0.0,1.5955421
467,2.0621643,0,-0.83161867,-0.76630974,1.4385567,0.0,0.0,0.0,0.0,0.0,1.5955421
468,2.0665588,1,-0.9502405,-0.8268895,1.5597153,0.0,0.0,0.0,0.0,0.0,1.5955421
469,2.0709534,1,-0.8646486,-0.78566164,1.4718571,0.0,0.0,0.0,0.0,0.0,1.5955421
470,2.075348,1,-0.75487626,-0.8398833,1.3679886,0.0,0.0,0.0,0.0,0.0,1.5955421
471,2.0797424,1,-0.8204677,-0.75491595,1.4266405,0.0,0.0,0.0,0.0,0.0,1.5955421
472,2.084137,1,-0.8904424,-0.82236457,1.5006847,0.0,0.0,0.0,0.0,0.0,1.5955421
473,2.0885315,1,-0.8927606,-0.86315536,1.5067444,0.0,0.0,0.0,0.0,0.0,1.5955421
474,2.092926,1,-0.82554734,-0.78285724,1.4359531,0.0,0.0,0.0,0.0,0.0,1.5955421
475,2.0973206,1,-0.79744613,-0.72950613,1.4052238,0.0,0.0,0.0,0.0,0.0,1.5955421
476,2.101715,1,-0.8609469,-0.66810477,1.462925,0.0,0.0,0.0,0.0,0.0,1.5955421
477,2.1061096,1,-0.9164595,-0.66454613,1.5168791,0.0,0.0,0.0,0.0,0.0,1.5955421
478,2.1105042,1,-0.88996613,-0.59726286,1.4868002,0.0,0.0,0.0,0.0,0.0,1.5955421
479,2.1148987,1,-0.7960095,-0.72624326,1.4025812,0.0,0.0,0.0,0.0,0.0,1.5955421
480,2.1192932,1,-0.874618,-0.7319708,1.4790926,0.0,0.0,0.0,0.0,0.0,1.5955421
481,2.1236877,1,-0.9242453,-0.74688727,1.5283175,0.0,0.0,0.0,0.0,0.0,1.5955421
482,2.1280823,1,-0.8711741,-0.82157797,1.4816341,0.0,0.0,0.0,0.0,0.0,1.5955421
483,2.1324768,1,-1.0138748,-0.6841378,1.6120386,0.0,0.0,0.0,0.0,0.0,1.5955421
484,2.1368713,1,-0.7088899,-0.65062606,1.3080206,0.0,0.0,0.0,0.0,0.0,1.5955421
485,2.1412659,1,-0.8772998,-0.645059,1.4714642,0.0,0.0,0.0,0.0,0.0,1.5955421
486,2.1456604,1,-0.79813033,-0.84860325,1.4098301,0.0,0.0,0.0,0.0,0.0,1.5955421
487,2.150055,1,-0.79938745,-0.8880775,1.4149942,0.0,0.0,0.0,0.0,0.0,1.5955421
488,2.1544495,1,-0.80166376,-0.7881808,1.4094772,0.0,0.0,0.0,0.0,0.0,1.5955421
489,2.158844,1,-0.8407612,-0.8854639,1.454278,0.0,0.0,0.0,0.0,0.0,1.5955421
490,2.1632385,1,-0.7792706,-0.6884905,1.378253,0.0,0.0,0.0,0.0,0.0,1.5955421
491,2.167633,1,-0.84694546,-0.81528306,1.4543791,0.0,0.0,0.0,0.0,0.0,1.5955421
492,2.1720276,1,-0.6991809,-0.73370385,1.3025484,0.0,0.0,0.0,0.0,0.0,1.5955421
493,2.176422,1,-0.7427252,-0.7087855,1.3404169,0.0,0.0,0.0,0.0,0.0,1.5955421
494,2.1808167,1,-0.79040915,-0.811677,1.3957262,0.0,0.0,0.0,0.0,0.0,1.5955421
495,2.1852112,1,-0.8276744,-0.7234603,1.425847,0.0,0.0,0.0,0.0,0.0,1.5955421
496,2.1896057,1,-0.8738154,-0.8014758,1.4777002,0.0,0.0,0.0,0.0,0.0,1.5955421
497,2.1940002,1,-0.8114396,-0.8648841,1.4195967,0.0,0.0,0.0,0.0,0.0,1.5955421
498,2.1983948,1,-0.7589636,-0.851881,1.3655558,0.0,0.0,0.0,0.0,0.0,1.5955421
499,2.2027893,1,-0.82920665,-0.6959284,1.4213839,0.0,0.0,0.0,0.0,0.0,1.5955421
500,2.2071838,1,-0.8568371,-0.84519637,1.4609938,0.0,0.0,0.0,0.0,0.0,1.5955421
501,2.2115784,1,-0.8566049,-0.84355074,1.4610176,0.0,0.0,0.0,0.0,0.0,1.5955421
502,2.215973,1,-0.9420778,-0.9161837,1.5534325,0.0,0.0,0.0,0.0,0.0,1.5955421
503,2.2203674,1,-0.9179939,-0.70969737,1.5151243,0.0,0.0,0.0,0.0,0.0,1.5955421
504,2.224762,1,-0.9585924,-0.69705343,1.5542746,0.0,0.0,0.0,0.0,0.0,1.5955421
505,2.2291565,1,-0.9540279,-0.70621914,1.5506449,0.0,0.0,0.0,0.0,0.0,1.5955421
506,2.233551,1,-0.91739917,-0.614379,1.5072336,0.0,0.0,0.0,0.0,0.0,1.5955421
507,2.2379456,1,-0.86796665,-0.66550237,1.4618521,0.0,0.0,0.0,0.0,0.0,1.5955421
508,2.24234,1,-0.84371847,-0.826774,1.4522581,0.0,0.0,0.0,0.0,0.0,1.5955421
509,2.2467346,1,-0.8114795,-0.6875094,1.4104052,0.0,0.0,0.0,0.0,0.0,1.5955421
510,2.2511292,1,-0.89142144,-0.7569915,1.4947071,0.0,0.0,0.0,0.0,0.0,1.5955421
511,2.2555237,1,-0.8469388,-0.66939723,1.4443836,0.0,0.0,0.0,0.0,0.0,1.5955421
512,2.2599182,1,-0.8815715,-0.7951293,1.4887428,0.0,0.0,0.0,0.0,0.0,1.5955421
513,2.2643127,1,-0.8488815,-0.7031727,1.4510756,0.0,0.0,0.0,0.0,0.0,1.5955421
514,2.2687073,1,-0.7857088,-0.6830268,1.3883457,0.0,0.0,0.0,0.0,0.0,1.5955421
515,2.2731018,1,-0.77156746,-0.8686642,1.3873615,0.0,0.0,0.0,0.0,0.0,1.5955421
516,2.2774963,1,-0.73911923,-0.68009806,1.3423634,0.0,0.0,0.0,0.0,0.0,1.5955421
517,2.2818909,1,-0.775582,-0.7388811,1.3824348,0.0,0.0,0.0,0.0,0.0,1.5955421
518,2.2862854,1,-0.82003087,-0.7738729,1.4291058,0.0,0.0,0.0,0.0,0.0,1.5955421
519,2.29068,1,-0.71917087,-0.6658273,1.3220482,0.0,0.0,0.0,0.0,0.0,1.5955421
520,2.2950745,1,-0.70860493,-0.67954123,1.3128567,0.0,0.0,0.0,0.0,0.0,1.5955421
521,2.299469,1,-0.82704586,-0.5764624,1.4223919,0.0,0.0,0.0,0.0,0.0,1.5955421
522,2.3038635,1,-0.77419114,-0.7285677,1.3820257,0.0,0.0,0.0,0.0,0.0,1.5955421
523,2.308258,1,-0.7164909,-0.6559362,1.3201942,0.0,0.0,0.0,0.0,0.0,1.5955421
524,2.3126526,1,-0.8155962,-0.5465732,1.4136496,0.0,0.0,0.0,0.0,0.0,1.5955421
525,2.317047,1,-0.8674645,-0.59465957,1.4720249,0.0,0.0,0.0,0.0,0.0,1.5955421
526,2.3214417,1,-0.85446507,-0.75088465,1.4723692,0.0,0.0,0.0,0.0,0.0,1.5955421
527,2.3258362,1,-0.9011395,-0.7883129,1.5210705,0.0,0.0,0.0,0.0,0.0,1.5955421
528,2.3302307,1,-0.8708627,-0.69818854,1.485362,0.0,0.0,0.0,0.0,0.0,1.5955421
529,2.3346252,1,-0.8051768,-0.57879114,1.4124804,0.0,0.0,0.0,0.0,0.0,1.5955421
530,2.3390198,1,-0.88557756,-0.61693656,1.4948521,0.0,0.0,0.0,0.0,0.0,1.5955421
531,2.3434143,1,-1.067385,-0.85296726,1.6921291,0.0,0.0,0.0,0.0,0.0,1.5955421
532,2.3478088,1,-1.0951135,-0.702168,1.7101688,0.0,0.0,0.0,0.0,0.0,1.5955421
533,2.3522034,1,-0.9876852,-0.9917568,1.6200647,0.0,0.0,0.0,0.0,0.0,1.5955421
534,2.356598,1,-1.1000025,-0.7900928,1.7157383,0.0,0.0,0.0,0.0,0.0,1.5955421
535,2.3609924,1,-1.021211,-0.82860297,1.6387177,0.0,0.0,0.0,0.0,0.0,1.5955421
536,2.365387,1,-0.86724454,-0.76633203,1.4831734,0.0,0.0,0.0,0.0,0.0,1.5955421
537,2.3697815,1,-0.84015214,-0.7186116,1.4537716,0.0,0.0,0.0,0.0,0.0,1.5955421
538,2.374176,1,-0.85853463,-0.61883366,1.4655962,0.0,0.0,0.0,0.0,0.0,1.5955421
539,2.3785706,1,-0.8769697,-0.71081454,1.4908428,0.0,0.0,0.0,0.0,0.0,1.5955421
540,2.382965,1,-0.97979903,-0.789379,1.596859,0.0,0.0,0.0,0.0,0.0,1.5955421
541,2.3873596,1,-0.93635756,-0.8070239,1.5544157,0.0,0.0,0.0,0.0,0.0,1.5955421
542,2.3917542,1,-0.9597582,-0.7194472,1.5718603,0.0,0.0,0.0,0.0,0.0,1.5955421
543,2.3961487,1,-0.7883592,-0.72096527,1.4028187,0.0,0.0,0.0,0.0,0.0,1.5955421
544,2.4005432,1,-0.8117916,-0.7034075,1.4241343,0.0,0.0,0.0,0.0,0.0,1.5955421
545,2.4049377,1,-0.93516445,-0.62672114,1.5401859,0.0,0.0,0.0,0.0,0.0,1.5955421
546,2.4093323,1,-0.6822086,-0.7266959,1.2965717,0.0,0.0,0.0,0.0,0.0,1.5955421
547,2.4137268,1,-0.8613668,-0.9546498,1.4872713,0.0,0.0,0.0,0.0,0.0,1.5955421
548,2.4181213,1,-0.7952754,-0.96130383,1.4232635,0.0,0.0,0.0,0.0,0.0,1.5955421
549,2.4225159,1,-0.67561245,-0.6344584,1.2841692,0.0,0.0,0.0,0.0,0.0,1.5955421
550,2.4269104,1,-0.76784426,-0.88769877,1.3922071,0.0,0.0,0.0,0.0,0.0,1.5955421
551,2.431305,1,-0.80454874,-0.8473434,1.4245243,0.0,0.0,0.0,0.0,0.0,1.5955421
552,2.4356995,1,-0.75422895,-0.79785204,1.3704987,0.0,0.0,0.0,0.0,0.0,1.5955421
553,2.440094,1,-0.7676837,-0.7422737,1.3789492,0.0,0.0,0.0,0.0,0.0,1.5955421
554,2.4444885,1,-0.79031605,-0.5978068,1.3892078,0.0,0.0,0.0,0.0,0.0,1.5955421
555,2.448883,1,-0.78935057,-0.8045467,1.4012251,0.0,0.0,0.0,0.0,0.0,1.5955421
556,2.4532776,1,-0.86662376,-0.82135296,1.4777699,0.0,0.0,0.0,0.0,0.0,1.5955421
557,2.457672,1,-0.95415896,-0.80623865,1.5616198,0.0,0.0,0.0,0.0,0.0,1.5955421
558,2.4620667,1,-0.95412976,-0.8060738,1.5614834,0.0,0.0,0.0,0.0,0.0,1.5955421
559,2.4664612,1,-0.9571205,-0.75801617,1.5587521,0.0,0.0,0.0,0.0,0.0,1.5955421
560,2.4708557,1,-1.0571417,-0.82844734,1.6627331,0.0,0.0,0.0,0.0,0.0,1.5955421
561,2.4752502,1,-1.0147426,-0.77908826,1.6178074,0.0,0.0,0.0,0.0,0.0,1.5955421
562,2.4796448,1,-0.96607196,-0.74479496,1.5665674,0.0,0.0,0.0,0.0,0.0,1.5955421
563,2.4840393,1,-0.91484934,-0.732463,1.5137434,0.0,0.0,0.0,0.0,0.0,1.5955421
564,2.4884338,1,-0.85814416,-0.7572873,1.4589529,0.0,0.0,0.0,0.0,0.0,1.5955421
565,2.4928284,1,-0.8246803,-0.7134174,1.4223547,0.0,0.0,0.0,0.0,0.0,1.5955421
566,2.497223,1,-0.8905556,-0.649536,1.481555,0.0,0.0,0.0,0.0,0.0,1.5955421
567,2.5016174,1,-0.8213696,-0.6126958,1.4095917,0.0,0.0,0.0,0.0,0.0,1.5955421
568,2.506012,1,-0.8521025,-0.5891342,1.4376574,0.0,0.0,0.0,0.0,0.0,1.5955421
569,2.5104065,1,-0.7126795,-0.51777256,1.294941,0.0,0.0,0.0,0.0,0.0,1.5955421
570,2.514801,1,-0.84229034,-0.8128452,1.4451456,0.0,0.0,0.0,0.0,0.0,1.5955421
571,2.5191956,1,-0.846892,-0.6657436,1.4396477,0.0,0.0,0.0,0.0,0.0,1.5955421
572,2.52359,1,-0.8200624,-0.8122065,1.4243813,0.0,0.0,0.0,0.0,0.0,1.5955421
573,2.5279846,1,-0.7990001,-0.7156965,1.3976669,0.0,0.0,0.0,0.0,0.0,1.5955421
574,2.5323792,1,-0.8247471,-0.67478806,1.4210911,0.0,0.0,0.0,0.0,0.0,1.5955421
575,2.5367737,1,-0.7665794,-0.6016209,1.3564768,0.0,0.0,0.0,0.0,0.0,1.5955421
576,2.5411682,1,-0.8020239,-0.8306611,1.4064589,0.0,0.0,0.0,0.0,0.0,1.5955421
577,2.5455627,1,-0.87362885,-0.5541462,1.4575481,0.0,0.0,0.0,0.0,0.0,1.5955421
578,2.5499573,1,-0.8508818,-0.7206366,1.4475956,0.0,0.0,0.0,0.0,0.0,1.5955421
579,2.5543518,1,-0.8776553,-0.59831417,1.4652863,0.0,0.0,0.0,0.0,0.0,1.5955421
580,2.5587463,1,-0.97729945,-0.68002146,1.5699778,0.0,0.0,0.0,0.0,0.0,1.5955421
581,2.5631409,1,-0.8738323,-0.48689952,1.4557581,0.0,0.0,0.0,0.0,0.0,1.5955421
582,2.5675354,1,-0.86669314,-0.6984699,1.4652262,0.0,0.0,0.0,0.0,0.0,1.5955421
583,2.57193,1,-0.7423763,-0.71986246,1.3449802,0.0,0.0,0.0,0.0,0.0,1.5955421
584,2.5763245,1,-0.7983136,-0.6232697,1.3929939,0.0,0.0,0.0,0.0,0.0,1.5955421
585,2.580719,1,-0.8194751,-0.63814473,1.4185438,0.0,0.0,0.0,0.0,0.0,1.5955421
586,2.5851135,1,-0.8257059,-0.63985926,1.4242716,0.0,0.0,0.0,0.0,0.0,1.5955421
587,2.589508,1,-0.76363283,-0.47184965,1.3508329,0.0,0.0,0.0,0.0,0.0,1.5955421
588,2.5939026,1,-0.84071946,-0.67535627,1.4405994,0.0,0.0,0.0,0.0,0.0,1.5955421
589,2.598297,1,-0.8234633,-0.69376636,1.4247112,0.0,0.0,0.0,0.0,0.0,1.5955421
590,2.6026917,1,-0.88827026,-0.72461,1.4907103,0.0,0.0,0.0,0.0,0.0,1.5955421
591,2.6070862,1,-0.8816489,-0.98678005,1.5021353,0.0,0.0,0.0,0.0,0.0,1.5955421
592,2.6114807,1,-0.85922813,-0.8578147,1.4690561,0.0,0.0,0.0,0.0,0.0,1.5955421
593,2.6158752,1,-0.8690165,-0.82424915,1.4767027,0.0,0.0,0.0,0.0,0.0,1.5955421
594,2.6202698,1,-0.8407133,-0.87011886,1.4524632,0.0,0.0,0.0,0.0,0.0,1.5955421
595,2.6246643,1,-0.9159035,-0.7683743,1.5191164,0.0,0.0,0.0,0.0,0.0,1.5955421
596,2.6290588,1,-0.8978514,-0.7763624,1.501277,0.0,0.0,0.0,0.0,0.0,1.5955421
597,2.6334534,1,-0.928136,-0.8525965,1.5366831,0.0,0.0,0.0,0.0,0.0,1.5955421
598,2.637848,1,-0.7853322,-0.9753294,1.4039278,0.0,0.0,0.0,0.0,0.0,1.5955421
599,2.6422424,1,-0.8544154,-0.68617165,1.4514313,0.0,0.0,0.0,0.0,0.0,1.5955421
600,2.646637,1,-0.898406,-0.74530286,1.493989,0.0,0.0,0.0,0.0,0.0,1.5955421
601,2.6510315,1,-0.8602863,-0.92429423,1.4694157,0.0,0.0,0.0,0.0,0.0,1.5955421
602,2.655426,1,-0.84574926,-0.84186554,1.449233,0.0,0.0,0.0,0.0,0.0,1.5955421
603,2.6598206,1,-0.8421346,-0.8130065,1.4429188,0.0,0.0,0.0,0.0,0.0,1.5955421
604,2.664215,1,-0.7942125,-0.8708041,1.3996735,0.0,0.0,0.0,0.0,0.0,1.5955421
605,2.6686096,1,-0.7840664,-0.72266114,1.3784361,0.0,0.0,0.0,0.0,0.0,1.5955421
606,2.6730042,1,-0.78651977,-0.9424107,1.3972349,0.0,0.0,0.0,0.0,0.0,1.5955421
607,2.6773987,1,-0.85427266,-0.6812781,1.4446764,0.0,0.0,0.0,0.0,0.0,1.5955421
608,2.6817932,1,-0.78076106,-0.96866,1.3937759,0.0,0.0,0.0,0.0,0.0,1.5955421
609,2.6861877,1,-0.87243056,-0.77145284,1.4697189,0.0,0.0,0.0,0.0,0.0,1.5955421
610,2.6905823,1,-0.89465266,-0.90575576,1.5020981,0.0,0.0,0.0,0.0,0.0,1.5955421
611,2.6949768,1,-0.8128139,-0.61487234,1.3983564,0.0,0.0,0.0,0.0,0.0,1.5955421
612,2.6993713,1,-0.88814294,-0.6276159,1.4723701,0.0,0.0,0.0,0.0,0.0,1.5955421
613,2.7037659,1,-0.7934921,-0.78084755,1.3895226,0.0,0.0,0.0,0.0,0.0,1.5955421
614,2.7081604,1,-0.7283142,-0.71334565,1.3203659,0.0,0.0,0.0,0.0,0.0,1.5955421
615,2.712555,1,-0.72853297,-0.7139716,1.3205872,0.0,0.0,0.0,0.0,0.0,1.5955421
616,2.7169495,1,-0.96074116,-0.5757391,1.5395985,0.0,0.0,0.0,0.0,0.0,1.5955421
617,2.721344,1,-0.8872684,-0.7370987,1.4800825,0.0,0.0,0.0,0.0,0.0,1.5955421
618,2.7257385,1,-0.94135404,-0.7448333,1.5348454,0.0,0.0,0.0,0.0,0.0,1.5955421
619,2.730133,1,-0.8521733,-0.6144821,1.4381924,0.0,0.0,0.0,0.0,0.0,1.5955421
620,2.7345276,1,-0.8366542,-0.89672375,1.4451885,0.0,0.0,0.0,0.0,0.0,1.5955421
621,2.738922,1,-0.82192624,-0.7400725,1.4208441,0.0,0.0,0.0,0.0,0.0,1.5955421
622,2.7433167,1,-0.9966321,-0.81270194,1.6003723,0.0,0.0,0.0,0.0,0.0,1.5955421
623,2.7477112,1,-0.91878176,-0.69221634,1.5140724,0.0,0.0,0.0,0.0,0.0,1.5955421
624,2.7521057,1,-0.88722587,-0.86458886,1.4967957,0.0,0.0,0.0,0.0,0.0,1.5955421
625,2.7565002,1,-0.87091136,-0.7508483,1.4736052,0.0,0.0,0.0,0.0,0.0,1.5955421
626,2.7608948,1,-0.76524746,-0.8034738,1.3727741,0.0,0.0,0.0,0.0,0.0,1.5955421
627,2.7652893,1,-0.82626504,-0.6960538,1.4251928,0.0,0.0,0.0,0.0,0.0,1.5955421
628,2.7696838,1,-0.8606708,-0.6597813,1.4564476,0.0,0.0,0.0,0.0,0.0,1.5955421
629,2.7740784,1,-0.76046765,-0.58015287,1.3521032,0.0,0.0,0.0,0.0,0.0,1.5955421
630,2.778473,1,-0.8840054,-0.9375297,1.499445,0.0,0.0,0.0,0.0,0.0,1.5955421
631,2.7828674,1,-0.9405061,-0.8784534,1.5524054,0.0,0.0,0.0,0.0,0.0,1.5955421
632,2.787262,1,-0.90258896,-0.681809,1.5014315,0.0,0.0,0.0,0.0,0.0,1.5955421
633,2.7916565,1,-0.80755746,-0.6261715,1.4042397,0.0,0.0,0.0,0.0,0.0,1.5955421
634,2.796051,1,-0.7247307,-0.7298537,1.3293657,0.0,0.0,0.0,0.0,0.0,1.5955421
635,2.8004456,1,-0.8109845,-0.7008382,1.4126816,0.0,0.0,0.0,0.0,0.0,1.5955421
636,2.80484,1,-0.76305205,-0.75223213,1.3692303,0.0,0.0,0.0,0.0,0.0,1.5955421
637,2.8092346,1,-0.83956337,-0.5709017,1.4321527,0.0,0.0,0.0,0.0,0.0,1.5955421
638,2.8136292,1,-0.87073827,-0.6619194,1.4730873,0.0,0.0,0.0,0.0,0.0,1.5955421
639,2.8180237,1,-0.8295583,-0.71514153,1.4360294,0.0,0.0,0.0,0.0,0.0,1.5955421
640,2.8224182,1,-0.89697534,-0.681184,1.5010242,0.0,0.0,0.0,0.0,0.0,1.5955421
641,2.8268127,1,-0.913601,-0.84042096,1.5287523,0.0,0.0,0.0,0.0,0.0,1.5955421
642,2.8312073,1,-0.8402051,-0.6870308,1.4468222,0.0,0.0,0.0,0.0,0.0,1.5955421
643,2.8356018,1,-0.7867905,-0.7436632,1.3981276,0.0,0.0,0.0,0.0,0.0,1.5955421
644,2.8399963,1,-0.9425678,-0.7926782,1.5559082,0.0,0.0,0.0,0.0,0.0,1.5955421
645,2.8443909,1,-0.9010693,-0.6782661,1.5084877,0.0,0.0,0.0,0.0,0.0,1.5955421
646,2.8487854,1,-0.97953135,-0.64831144,1.5859451,0.0,0.0,0.0,0.0,0.0,1.5955421
647,2.85318,1,-0.94599605,-0.66258013,1.554698,0.0,0.0,0.0,0.0,0.0,1.5955421
648,2.8575745,1,-0.8577573,-0.79780734,1.4769878,0.0,0.0,0.0,0.0,0.0,1.5955421
649,2.861969,1,-0.8973443,-0.7907599,1.5168753,0.0,0.0,0.0,0.0,0.0,1.5955421
650,2.8663635,1,-0.862669,-0.80379194,1.485136,0.0,0.0,0.0,0.0,0.0,1.5955421
651,2.870758,1,-0.89386064,-0.5140672,1.5001822,0.0,0.0,0.0,0.0,0.0,1.5955421
652,2.8751526,1,-0.8675769,-0.7887339,1.4923248,0.0,0.0,0.0,0.0,0.0,1.5955421
653,2.879547,1,-0.94746137,-0.7730961,1.5680523,0.0,0.0,0.0,0.0,0.0,1.5955421
654,2.8839417,1,-0.9247895,-0.55603236,1.5311584,0.0,0.0,0.0,0.0,0.0,1.5955421
655,2.8883362,1,-0.9169631,-0.5410455,1.5215454,0.0,0.0,0.0,0.0,0.0,1.5955421
656,2.8927307,1,-0.909111,-0.6788449,1.5229378,0.0,0.0,0.0,0.0,0.0,1.5955421
657,2.8971252,1,-0.8557663,-0.547752,1.4626923,0.0,0.0,0.0,0.0,0.0,1.5955421
658,2.9015198,1,-0.8329985,-0.6581828,1.447238,0.0,0.0,0.0,0.0,0.0,1.5955421
659,2.9059143,1,-0.86493635,-0.6544444,1.4771566,0.0,0.0,0.0,0.0,0.0,1.5955421
660,2.9103088,1,-0.8076977,-0.74328387,1.4246216,0.0,0.0,0.0,0.0,0.0,1.5955421
661,2.9147034,1,-0.9273012,-0.8374057,1.5462246,0.0,0.0,0.0,0.0,0.0,1.5955421
662,2.919098,1,-0.73780334,-0.70768034,1.3493147,0.0,0.0,0.0,0.0,0.0,1.5955421
663,2.922699,1,-0.64812523,-0.7867769,1.265132,0.0,0.0,0.0,0.0,0.0,1.5955421
664,2.9263,1,-0.6480881,-0.78763515,1.2646132,0.0,0.0,0.0,0.0,0.0,1.5955421
665,2.9299316,1,-0.6483067,-0.7889757,1.2646027,0.0,0.0,0.0,0.0,0.0,1.5955421
666,2.9339294,1,-0.7777433,-0.85174453,1.395648,0.0,0.0,0.0,0.0,0.0,1.5955421
667,2.9384155,1,-0.7573959,-0.82321465,1.3724079,0.0,0.0,0.0,0.0,0.0,1.5955421
668,2.9429321,1,-0.8446871,-0.79306763,1.4549112,0.0,0.0,0.0,0.0,0.0,1.5955421
669,2.9474182,1,-0.71334404,-1.0128075,1.3364792,0.0,0.0,0.0,0.0,0.0,1.5955421
670,2.9519043,1,-0.84274375,-0.86012495,1.4526119,0.0,0.0,0.0,0.0,0.0,1.5955421
671,2.9563904,1,-0.863605,-0.98084354,1.4823713,0.0,0.0,0.0,0.0,0.0,1.5955421
672,2.9608765,1,-0.8635705,-0.9805268,1.4822493,0.0,0.0,0.0,0.0,0.0,1.5955421
673,2.9653625,1,-0.8357612,-0.91859055,1.4518604,0.0,0.0,0.0,0.0,0.0,1.5955421
674,2.9698486,1,-0.8354847,-0.91693544,1.4515982,0.0,0.0,0.0,0.0,0.0,1.5955421
675,2.9743347,1,-0.9354623,-0.8662685,1.547368,0.0,0.0,0.0,0.0,0.0,1.5955421
676,2.9788208,1,-0.8721405,-0.772202,1.4791269,0.0,0.0,0.0,0.0,0.0,1.5955421
677,2.983307,1,-0.873494,-0.8425404,1.4835978,0.0,0.0,0.0,0.0,0.0,1.5955421
678,2.987793,1,-0.8811462,-0.7314722,1.4827461,0.0,0.0,0.0,0.0,0.0,1.5955421
679,2.992279,1,-0.7832843,-0.73989093,1.3864555,0.0,0.0,0.0,0.0,0.0,1.5955421
680,2.9967651,1,-0.8580175,-0.8272172,1.4682341,0.0,0.0,0.0,0.0,0.0,1.5955421
681,3.0012512,1,-0.8977662,-0.74262977,1.5030031,0.0,0.0,0.0,0.0,0.0,1.5955421
682,3.0057373,1,-0.87681425,-0.84498334,1.4915371,0.0,0.0,0.0,0.0,0.0,1.5955421
683,3.0102234,1,-0.9490974,-0.7355054,1.554532,0.0,0.0,0.0,0.0,0.0,1.5955421
684,3.0147095,1,-0.89670014,-0.5465685,1.4865637,0.0,0.0,0.0,0.0,0.0,1.5955421
685,3.0191956,1,-0.7718451,-0.8231251,1.3818846,0.0,0.0,0.0,0.0,0.0,1.5955421
686,3.0236816,1,-0.8078855,-0.62730896,1.4024954,0.0,0.0,0.0,0.0,0.0,1.5955421
687,3.0281677,1,-0.8378109,-0.84146684,1.4465714,0.0,0.0,0.0,0.0,0.0,1.5955421
688,3.0326538,1,-0.838192,-0.5802648,1.427269,0.0,0.0,0.0,0.0,0.0,1.5955421
689,3.03714,1,-0.68119144,-0.7327584,1.2844887,0.0,0.0,0.0,0.0,0.0,1.5955421
690,3.041626,1,-0.78021055,-0.72424626,1.3815126,0.0,0.0,0.0,0.0,0.0,1.5955421
691,3.046112,1,-0.7643062,-0.58755773,1.3562183,0.0,0.0,0.0,0.0,0.0,1.5955421
692,3.0505981,1,-0.7920584,-0.69274366,1.3893385,0.0,0.0,0.0,0.0,0.0,1.5955421
693,3.0550842,1,-0.829226,-0.64829236,1.4210119,0.0,0.0,0.0,0.0,0.0,1.5955421
694,3.0596008,1,-0.86062896,-0.65065646,1.4496593,0.0,0.0,0.0,0.0,0.0,1.5955421
695,3.064087,1,-0.8374173,-0.81232965,1.4385748,0.0,0.0,0.0,0.0,0.0,1.5955421
696,3.068573,1,-0.886064,-0.6833511,1.47684,0.0,0.0,0.0,0.0,0.0,1.5955421
697,3.073059,1,-0.81883687,-0.8318045,1.4212408,0.0,0.0,0.0,0.0,0.0,1.5955421
698,3.0775452,1,-0.8777449,-0.67888355,1.46766,0.0,0.0,0.0,0.0,0.0,1.5955421
699,3.0820313,1,-0.7985378,-0.8098109,1.4006491,0.0,0.0,0.0,0.0,0.0,1.5955421
700,3.0865173,1,-0.89649034,-0.74756414,1.4932699,0.0,0.0,0.0,0.0,0.0,1.5955421
701,3.0910034,1,-0.8775338,-0.78276944,1.4780178,0.0,0.0,0.0,0.0,0.0,1.5955421
702,3.0954895,1,-0.8369913,-0.5498413,1.4225426,0.0,0.0,0.0,0.0,0.0,1.5955421
703,3.0999756,1,-0.9108565,-0.5539295,1.4968119,0.0,0.0,0.0,0.0,0.0,1.5955421
704,3.1044617,1,-0.8913499,-0.61805993,1.4821758,0.0,0.0,0.0,0.0,0.0,1.5955421
705,3.1089478,1,-0.9705025,-0.5015836,1.5528498,0.0,0.0,0.0,0.0,0.0,1.5955421
706,3.1134338,1,-0.740354,-0.55714965,1.329979,0.0,0.0,0.0,0.0,0.0,1.5955421
707,3.11792,1,-0.8028943,-0.6227055,1.3980074,0.0,0.0,0.0,0.0,0.0,1.5955421
708,3.122406,1,-0.8588631,-0.5870885,1.4512148,0.0,0.0,0.0,0.0,0.0,1.5955421
709,3.126892,1,-0.9305959,-0.68029726,1.527914,0.0,0.0,0.0,0.0,0.0,1.5955421
710,3.1313782,1,-0.87160474,-0.6587486,1.467226,0.0,0.0,0.0,0.0,0.0,1.5955421
711,3.1358643,1,-0.8198134,-0.64173293,1.4135666,0.0,0.0,0.0,0.0,0.0,1.5955421
712,3.1403503,1,-0.9212971,-0.786935,1.5230427,0.0,0.0,0.0,0.0,0.0,1.5955421
713,3.1448364,1,-0.81200755,-0.6970922,1.4080458,0.0,0.0,0.0,0.0,0.0,1.5955421
714,3.1493225,1,-0.9469538,-0.82446456,1.5492191,0.0,0.0,0.0,0.0,0.0,1.5955421
715,3.1538086,1,-0.85782087,-0.7633712,1.4562397,0.0,0.0,0.0,0.0,0.0,1.5955421
716,3.1582947,1,-0.88178515,-0.83213794,1.4852266,0.0,0.0,0.0,0.0,0.0,1.5955421
717,3.1627808,1,-0.79778135,-0.68568027,1.392849,0.0,0.0,0.0,0.0,0.0,1.5955421
718,3.1672668,1,-0.7455703,-0.89907646,1.3565865,0.0,0.0,0.0,0.0,0.0,1.5955421
719,3.171753,1,-0.8997208,-0.5718472,1.4864187,0.0,0.0,0.0,0.0,0.0,1.5955421
720,3.176239,1,-0.7579012,-0.7854877,1.3611822,0.0,0.0,0.0,0.0,0.0,1.5955421
721,3.1807556,1,-0.8685814,-0.7288703,1.4665956,0.0,0.0,0.0,0.0,0.0,1.5955421
722,3.1852417,1,-0.84052336,-0.75849223,1.4411049,0.0,0.0,0.0,0.0,0.0,1.5955421
723,3.1897278,1,-0.81056005,-0.86315286,1.4191723,0.0,0.0,0.0,0.0,0.0,1.5955421
724,3.1942139,1,-0.82178974,-0.69653475,1.4194975,0.0,0.0,0.0,0.0,0.0,1.5955421
725,3.1987,1,-0.8287932,-0.6646874,1.4229603,0.0,0.0,0.0,0.0,0.0,1.5955421
726,3.203186,1,-0.8025788,-0.71135163,1.398776,0.0,0.0,0.0,0.0,0.0,1.5955421
727,3.207672,1,-0.83755934,-0.8789357,1.4433594,0.0,0.0,0.0,0.0,0.0,1.5955421
728,3.2121582,1,-0.85650605,-0.8054648,1.458561,0.0,0.0,0.0,0.0,0.0,1.5955421
729,3.2166443,1,-0.85628134,-0.8052827,1.4581614,0.0,0.0,0.0,0.0,0.0,1.5955421
730,3.2211304,1,-0.97568464,-0.8286377,1.5818911,0.0,0.0,0.0,0.0,0.0,1.5955421
731,3.2256165,1,-0.9291581,-0.8034053,1.5334578,0.0,0.0,0.0,0.0,0.0,1.5955421
732,3.2301025,1,-0.8988591,-0.6779635,1.4944153,0.0,0.0,0.0,0.0,0.0,1.5955421
733,3.2345886,1,-0.9110868,-0.6824604,1.5060453,0.0,0.0,0.0,0.0,0.0,1.5955421
734,3.2390747,1,-0.92295253,-0.9448422,1.5351286,0.0,0.0,0.0,0.0,0.0,1.5955421
735,3.2435608,1,-0.8916957,-0.6577797,1.4861546,0.0,0.0,0.0,0.0,0.0,1.5955421
736,3.2480469,1,-0.9280802,-0.7019104,1.5249357,0.0,0.0,0.0,0.0,0.0,1.5955421
737,3.252533,1,-0.93640685,-0.7683717,1.5377426,0.0,0.0,0.0,0.0,0.0,1.5955421
738,3.257019,1,-0.8481143,-0.74509674,1.4498329,0.0,0.0,0.0,0.0,0.0,1.5955421
739,3.2614136,1,-0.99690664,-0.7439649,1.597928,0.0,0.0,0.0,0.0,0.0,1.5955421
740,3.265808,1,-0.90022117,-0.68379754,1.5010176,0.0,0.0,0.0,0.0,0.0,1.5955421
741,3.2702026,1,-0.8590995,-0.7204757,1.4653473,0.0,0.0,0.0,0.0,0.0,1.5955421
742,3.2745972,1,-0.77865845,-0.7402407,1.3898802,0.0,0.0,0.0,0.0,0.0,1.5955421
743,3.2789917,1,-0.8571967,-0.8757924,1.4761171,0.0,0.0,0.0,0.0,0.0,1.5955421
744,3.2833862,1,-0.7706742,-0.9782027,1.396327,0.0,0.0,0.0,0.0,0.0,1.5955421
745,3.2877808,1,-0.814484,-0.8197945,1.4303942,0.0,0.0,0.0,0.0,0.0,1.5955421
746,3.2921753,1,-0.87642604,-0.7823485,1.4900379,0.0,0.0,0.0,0.0,0.0,1.5955421
747,3.2965698,1,-0.70604,-0.7795329,1.3221188,0.0,0.0,0.0,0.0,0.0,1.5955421
748,3.3009644,1,-0.7811612,-0.63452137,1.3866644,0.0,0.0,0.0,0.0,0.0,1.5955421
749,3.305359,1,-0.7606391,-0.6690943,1.3693047,0.0,0.0,0.0,0.0,0.0,1.5955421
750,3.3097534,1,-0.8244596,-0.63837945,1.4307995,0.0,0.0,0.0,0.0,0.0,1.5955421
751,3.314148,1,-0.7533433,-0.7669401,1.3688536,0.0,0.0,0.0,0.0,0.0,1.5955421
752,3.3185425,1,-0.7779691,-0.80451745,1.3946905,0.0,0.0,0.0,0.0,0.0,1.5955421
753,3.322937,1,-0.85943675,-0.58972716,1.4608889,0.0,0.0,0.0,0.0,0.0,1.5955421
754,3.3273315,1,-0.77168506,-0.61317736,1.3749475,0.0,0.0,0.0,0.0,0.0,1.5955421
755,3.331726,1,-0.8069262,-0.67566407,1.412302,0.0,0.0,0.0,0.0,0.0,1.5955421
756,3.3361206,1,-0.90718627,-0.7542125,1.5148067,0.0,0.0,0.0,0.0,0.0,1.5955421
757,3.3405151,1,-0.9397609,-0.65673137,1.5395613,0.0,0.0,0.0,0.0,0.0,1.5955421
758,3.3449097,1,-0.94385725,-0.7679508,1.5504007,0.0,0.0,0.0,0.0,0.0,1.5955421
759,3.3493042,1,-0.9508361,-0.86422426,1.5613003,0.0,0.0,0.0,0.0,0.0,1.5955421
760,3.3536987,1,-0.91235495,-0.92493916,1.5276613,0.0,0.0,0.0,0.0,0.0,1.5955421
761,3.3580933,1,-1.0798569,-0.81823784,1.6863909,0.0,0.0,0.0,0.0,0.0,1.5955421
762,3.3624878,1,-1.0545793,-0.9035227,1.6668453,0.0,0.0,0.0,0.0,0.0,1.5955421
763,3.3668823,1,-1.0545868,-0.9030953,1.667037,0.0,0.0,0.0,0.0,0.0,1.5955421
764,3.3712769,1,-0.98360246,-0.73424214,1.5874071,0.0,0.0,0.0,0.0,0.0,1.5955421
765,3.3756714,1,-1.07576,-0.88506925,1.6890268,0.0,0.0,0.0,0.0,0.0,1.5955421
766,3.380066,1,-0.97798395,-0.8154621,1.5890493,0.0,0.0,0.0,0.0,0.0,1.5955421
767,3.3844604,1,-0.9018874,-0.6921965,1.5076284,0.0,0.0,0.0,0.0,0.0,1.5955421
768,3.388855,1,-0.88945055,-1.0193081,1.516118,0.0,0.0,0.0,0.0,0.0,1.5955421
769,3.3932495,1,-0.7568842,-0.7071881,1.3667469,0.0,0.0,0.0,0.0,0.0,1.5955421
770,3.397644,1,-0.89338505,-0.7331877,1.5020876,0.0,0.0,0.0,0.0,0.0,1.5955421
771,3.4020386,1,-0.7934543,-0.77942073,1.4052267,0.0,0.0,0.0,0.0,0.0,1.5955421
772,3.406433,1,-0.7518961,-0.998773,1.3778982,0.0,0.0,0.0,0.0,0.0,1.5955421
773,3.4108276,1,-0.79850024,-0.77591574,1.4099016,0.0,0.0,0.0,0.0,0.0,1.5955421
774,3.4152222,1,-0.7592418,-0.69671667,1.3657475,0.0,0.0,0.0,0.0,0.0,1.5955421
775,3.4196167,1,-0.63648725,-0.91503257,1.258172,0.0,0.0,0.0,0.0,0.0,1.5955421
776,3.4240112,1,-0.8204275,-0.8021456,1.4337301,0.0,0.0,0.0,0.0,0.0,1.5955421
777,3.4284058,1,-0.7319936,-0.8229813,1.3482561,0.0,0.0,0.0,0.0,0.0,1.5955421
778,3.4328003,1,-0.8200771,-0.6309006,1.4233713,0.0,0.0,0.0,0.0,0.0,1.5955421
779,3.4371948,1,-0.6414793,-0.7525704,1.2537498,0.0,0.0,0.0,0.0,0.0,1.5955421
780,3.4415894,1,-0.7361344,-0.7955092,1.3480463,0.0,0.0,0.0,0.0,0.0,1.5955421
781,3.445984,1,-0.78022647,-0.84990585,1.3932304,0.0,0.0,0.0,0.0,0.0,1.5955421
782,3.4503784,1,-0.81899494,-0.82601136,1.4300451,0.0,0.0,0.0,0.0,0.0,1.5955421
783,3.454773,1,-0.6950458,-0.8839455,1.3094215,0.0,0.0,0.0,0.0,0.0,1.5955421
784,3.4591675,1,-0.9467148,-0.91766125,1.5585365,0.0,0.0,0.0,0.0,0.0,1.5955421
785,3.463562,1,-0.86798626,-0.7993284,1.4737682,0.0,0.0,0.0,0.0,0.0,1.5955421
786,3.4679565,1,-0.86822176,-0.8017584,1.4726057,0.0,0.0,0.0,0.0,0.0,1.5955421
787,3.472351,1,-0.8682392,-0.8037323,1.4710684,0.0,0.0,0.0,0.0,0.0,1.5955421
788,3.4767456,1,-0.89626324,-0.8912097,1.5084839,0.0,0.0,0.0,0.0,0.0,1.5955421
789,3.4811401,1,-0.97249603,-0.9285332,1.585145,0.0,0.0,0.0,0.0,0.0,1.5955421
790,3.4855347,1,-0.98941445,-0.89858955,1.6009064,0.0,0.0,0.0,0.0,0.0,1.5955421
791,3.4899292,1,-0.8783765,-0.79413307,1.4837885,0.0,0.0,0.0,0.0,0.0,1.5955421
792,3.4943237,1,-0.91484535,-0.8611928,1.5233727,0.0,0.0,0.0,0.0,0.0,1.5955421
793,3.4987183,1,-0.94363886,-0.7843328,1.5463295,0.0,0.0,0.0,0.0,0.0,1.5955421
794,3.5031128,1,-0.8059327,-0.7164052,1.4055386,0.0,0.0,0.0,0.0,0.0,1.5955421
795,3.5075073,1,-0.92236793,-0.9587308,1.5349417,0.0,0.0,0.0,0.0,0.0,1.5955421
796,3.5119019,1,-0.9491738,-0.79674935,1.5508394,0.0,0.0,0.0,0.0,0.0,1.5955421
797,3.5162964,1,-0.8803351,-0.8604586,1.487669,0.0,0.0,0.0,0.0,0.0,1.5955421
798,3.520691,1,-0.97545576,-0.707123,1.5728693,0.0,0.0,0.0,0.0,0.0,1.5955421
799,3.5250854,1,-0.7947527,-0.7700321,1.3988762,0.0,0.0,0.0,0.0,0.0,1.5955421
800,3.52948,1,-0.88202226,-0.5897263,1.4732685,0.0,0.0,0.0,0.0,0.0,1.5955421
801,3.5338745,1,-0.93578076,-0.78139067,1.5381346,0.0,0.0,0.0,0.0,0.0,1.5955421
802,3.538269,1,-0.8839012,-0.78476787,1.4864874,0.0,0.0,0.0,0.0,0.0,1.5955421
803,3.5426636,1,-0.9343144,-0.7476944,1.5339146,0.0,0.0,0.0,0.0,0.0,1.5955421
804,3.547058,1,-0.949083,-0.77989995,1.550394,0.0,0.0,0.0,0.0,0.0,1.5955421
805,3.5514526,1,-0.8223221,-0.71481943,1.4216118,0.0,0.0,0.0,0.0,0.0,1.5955421
806,3.5558472,1,-0.7625625,-0.65025723,1.3582745,0.0,0.0,0.0,0.0,0.0,1.5955421
807,3.5602417,1,-0.7995288,-0.8936245,1.4105701,0.0,0.0,0.0,0.0,0.0,1.5955421
808,3.5646362,1,-0.7642434,-0.54900265,1.3535376,0.0,0.0,0.0,0.0,0.0,1.5955421
809,3.5690308,1,-0.79682535,-0.63599056,1.3897991,0.0,0.0,0.0,0.0,0.0,1.5955421
810,3.5734253,1,-0.6873055,-0.5369008,1.2739506,0.0,0.0,0.0,0.0,0.0,1.5955421
811,3.5778198,1,-0.7265042,-0.63864213,1.3179092,0.0,0.0,0.0,0.0,0.0,1.5955421
812,3.5822144,1,-0.7999317,-0.54358757,1.3829374,0.0,0.0,0.0,0.0,0.0,1.5955421
813,3.586609,1,-0.80491644,-0.86988825,1.4097033,0.0,0.0,0.0,0.0,0.0,1.5955421
814,3.5910034,1,-0.9007868,-0.52764,1.4809532,0.0,0.0,0.0,0.0,0.0,1.5955421
815,3.595398,1,-0.83742595,-0.65993303,1.4260969,0.0,0.0,0.0,0.0,0.0,1.5955421
816,3.5997925,1,-0.9009414,-0.77974343,1.4954453,0.0,0.0,0.0,0.0,0.0,1.5955421
817,3.604187,1,-0.96229684,-0.8697357,1.5614119,0.0,0.0,0.0,0.0,0.0,1.5955421
818,3.6085815,1,-0.89390266,-0.8359245,1.4902811,0.0,0.0,0.0,0.0,0.0,1.5955421
819,3.612976,1,-0.8894026,-0.7316943,1.4782982,0.0,0.0,0.0,0.0,0.0,1.5955421
820,3.6173706,1,-0.95924217,-0.7601395,1.5481634,0.0,0.0,0.0,0.0,0.0,1.5955421
821,3.6217651,1,-0.87862223,-0.73848945,1.4663925,0.0,0.0,0.0,0.0,0.0,1.5955421
822,3.6261597,1,-0.9135935,-0.87795436,1.510272,0.0,0.0,0.0,0.0,0.0,1.5955421
823,3.6305542,1,-0.98979264,-0.76697564,1.5782871,0.0,0.0,0.0,0.0,0.0,1.5955421
824,3.6349487,1,-0.96968263,-0.9615278,1.572195,0.0,0.0,0.0,0.0,0.0,1.5955421
825,3.6393433,1,-0.9923129,-0.91322756,1.5929604,0.0,0.0,0.0,0.0,0.0,1.5955421
826,3.6437378,1,-0.902433,-0.8089559,1.499176,0.0,0.0,0.0,0.0,0.0,1.5955421
827,3.6481323,1,-0.92688227,-0.8221704,1.5245657,0.0,0.0,0.0,0.0,0.0,1.5955421
828,3.6525269,1,-0.98462546,-0.723066,1.5724506,0.0,0.0,0.0,0.0,0.0,1.5955421
829,3.6569214,1,-0.9150582,-0.88887835,1.5149755,0.0,0.0,0.0,0.0,0.0,1.5955421
830,3.661316,1,-0.8404737,-0.89824986,1.4426308,0.0,0.0,0.0,0.0,0.0,1.5955421
831,3.6657104,1,-0.8514279,-0.81124127,1.4482889,0.0,0.0,0.0,0.0,0.0,1.5955421
832,3.670105,1,-0.7123682,-0.73235273,1.3065233,0.0,0.0,0.0,0.0,0.0,1.5955421
833,3.6744995,1,-0.8286008,-0.764529,1.425087,0.0,0.0,0.0,0.0,0.0,1.5955421
834,3.678894,1,-0.7877782,-0.62903196,1.3774805,0.0,0.0,0.0,0.0,0.0,1.5955421
835,3.6832886,1,-0.7682177,-0.7943829,1.3700151,0.0,0.0,0.0,0.0,0.0,1.5955421
836,3.687683,1,-0.8947342,-0.7110008,1.4884701,0.0,0.0,0.0,0.0,0.0,1.5955421
837,3.6920776,1,-0.69603616,-0.8174447,1.2986822,0.0,0.0,0.0,0.0,0.0,1.5955421
838,3.6964722,1,-0.79589176,-0.9063571,1.4025583,0.0,0.0,0.0,0.0,0.0,1.5955421
839,3.7008667,1,-0.81242466,-0.78713423,1.410552,0.0,0.0,0.0,0.0,0.0,1.5955421
840,3.7052612,1,-0.8241543,-0.8153633,1.4236012,0.0,0.0,0.0,0.0,0.0,1.5955421
841,3.7096558,1,-0.8681231,-0.6986116,1.4583168,0.0,0.0,0.0,0.0,0.0,1.5955421
842,3.7140503,1,-0.8530462,-0.5803145,1.4339209,0.0,0.0,0.0,0.0,0.0,1.5955421
843,3.7184448,1,-0.8072387,-0.90938705,1.4100742,0.0,0.0,0.0,0.0,0.0,1.5955421
844,3.7228394,1,-0.807131,-0.9102063,1.4091053,0.0,0.0,0.0,0.0,0.0,1.5955421
845,3.727234,1,-0.81492805,-0.71893406,1.4026728,0.0,0.0,0.0,0.0,0.0,1.5955421
846,3.7316284,1,-0.81519884,-0.7204525,1.4029474,0.0,0.0,0.0,0.0,0.0,1.5955421
847,3.736023,1,-0.7860397,-0.86707217,1.3829889,0.0,0.0,0.0,0.0,0.0,1.5955421
848,3.7404175,1,-0.7631644,-0.87191856,1.3608065,0.0,0.0,0.0,0.0,0.0,1.5955421
849,3.744812,1,-0.8384354,-0.8362342,1.4328842,0.0,0.0,0.0,0.0,0.0,1.5955421
850,3.7492065,1,-0.86083627,-0.7950356,1.4519415,0.0,0.0,0.0,0.0,0.0,1.5955421
851,3.753601,1,-0.89217365,-0.7761017,1.4831476,0.0,0.0,0.0,0.0,0.0,1.5955421
852,3.7579956,1,-0.8568276,-0.7793095,1.4506044,0.0,0.0,0.0,0.0,0.0,1.5955421
853,3.7623901,1,-0.9191796,-0.8693967,1.5197105,0.0,0.0,0.0,0.0,0.0,1.5955421
854,3.7667847,1,-1.0256172,-0.75158995,1.617281,0.0,0.0,0.0,0.0,0.0,1.5955421
855,3.7711792,1,-0.9455781,-0.6172927,1.529767,0.0,0.0,0.0,0.0,0.0,1.5955421
856,3.7755737,1,-0.8683897,-0.89868635,1.472126,0.0,0.0,0.0,0.0,0.0,1.5955421
857,3.7799683,1,-0.9684782,-0.66652775,1.5543976,0.0,0.0,0.0,0.0,0.0,1.5955421
858,3.7843628,1,-0.8936193,-0.7526649,1.4847317,0.0,0.0,0.0,0.0,0.0,1.5955421
859,3.7887573,1,-1.0001032,-0.7176363,1.5860796,0.0,0.0,0.0,0.0,0.0,1.5955421
860,3.7931519,1,-0.86085474,-0.70791095,1.4501686,0.0,0.0,0.0,0.0,0.0,1.5955421
861,3.7975464,1,-0.83570915,-0.74937534,1.4298573,0.0,0.0,0.0,0.0,0.0,1.5955421
862,3.801941,1,-0.85272133,-0.93501127,1.461524,0.0,0.0,0.0,0.0,0.0,1.5955421
863,3.8063354,1,-0.71934736,-0.81809855,1.3223181,0.0,0.0,0.0,0.0,0.0,1.5955421
864,3.81073,1,-0.7239143,-0.7421553,1.3217459,0.0,0.0,0.0,0.0,0.0,1.5955421
865,3.8151245,1,-0.74871653,-0.7611165,1.347909,0.0,0.0,0.0,0.0,0.0,1.5955421
866,3.819519,1,-0.74475324,-0.8847859,1.3541641,0.0,0.0,0.0,0.0,0.0,1.5955421
867,3.8239136,1,-0.7784745,-0.66361517,1.3721924,0.0,0.0,0.0,0.0,0.0,1.5955421
868,3.828308,1,-0.7954479,-0.59753716,1.3841066,0.0,0.0,0.0,0.0,0.0,1.5955421
869,3.8327026,1,-0.8325932,-0.78590274,1.4314013,0.0,0.0,0.0,0.0,0.0,1.5955421
870,3.8370972,1,-0.883238,-0.7521668,1.4767971,0.0,0.0,0.0,0.0,0.0,1.5955421
871,3.8414917,1,-0.7569686,-0.62708664,1.3422289,0.0,0.0,0.0,0.0,0.0,1.5955421
872,3.8458862,1,-0.8064451,-0.6758935,1.3957882,0.0,0.0,0.0,0.0,0.0,1.5955421
873,3.8502808,1,-0.86912495,-0.64340806,1.4558601,0.0,0.0,0.0,0.0,0.0,1.5955421
874,3.8546753,1,-0.823346,-0.8070915,1.4254122,0.0,0.0,0.0,0.0,0.0,1.5955421
875,3.8590698,1,-0.8717879,-0.8780416,1.4784765,0.0,0.0,0.0,0.0,0.0,1.5955421
876,3.8634644,1,-0.8777896,-0.82202417,1.4820967,0.0,0.0,0.0,0.0,0.0,1.5955421
877,3.867859,1,-0.8982146,-0.58180416,1.488039,0.0,0.0,0.0,0.0,0.0,1.5955421
878,3.8722534,1,-0.894744,-0.8532666,1.5022573,0.0,0.0,0.0,0.0,0.0,1.5955421
879,3.876648,1,-0.9207205,-0.888062,1.5309515,0.0,0.0,0.0,0.0,0.0,1.5955421
880,3.8810425,1,-0.9899409,-0.8721516,1.5986872,0.0,0.0,0.0,0.0,0.0,1.5955421
881,3.885437,1,-0.9231434,-0.8560503,1.5317554,0.0,0.0,0.0,0.0,0.0,1.5955421
882,3.8898315,1,-0.94101185,-0.8394996,1.548131,0.0,0.0,0.0,0.0,0.0,1.5955421
883,3.894226,1,-0.9086719,-0.9479033,1.5233994,0.0,0.0,0.0,0.0,0.0,1.5955421
884,3.8986206,1,-0.8040676,-0.8381632,1.4137163,0.0,0.0,0.0,0.0,0.0,1.5955421
885,3.9030151,1,-0.92275536,-0.9669726,1.5387735,0.0,0.0,0.0,0.0,0.0,1.5955421
886,3.9074097,1,-0.97161937,-0.9247068,1.5847464,0.0,0.0,0.0,0.0,0.0,1.5955421
887,3.9118042,1,-0.75220245,-0.8179893,1.360713,0.0,0.0,0.0,0.0,0.0,1.5955421
888,3.9161987,1,-0.9959801,-0.74535555,1.5957937,0.0,0.0,0.0,0.0,0.0,1.5955421
889,3.9205933,1,-0.76166934,-0.64956963,1.3558264,0.0,0.0,0.0,0.0,0.0,1.5955421
890,3.9238892,1,-0.9354241,-0.83963513,1.5394545,0.0,0.0,0.0,0.0,0.0,1.5955421
891,3.927185,1,-0.93514806,-0.8379649,1.5391932,0.0,0.0,0.0,0.0,0.0,1.5955421
892,3.930481,1,-0.934723,-0.83599627,1.5389643,0.0,0.0,0.0,0.0,0.0,1.5955421
893,3.938202,1,-0.7676295,-0.8545023,1.3718433,0.0,0.0,0.0,0.0,0.0,1.5955421
894,3.9457703,1,-0.7675793,-0.85432583,1.3715706,0.0,0.0,0.0,0.0,0.0,1.5955421
895,3.9497986,1,-0.79198194,-0.7785375,1.3918257,0.0,0.0,0.0,0.0,0.0,1.5955421
896,3.9536438,1,-0.8735751,-0.74804074,1.4715796,0.0,0.0,0.0,0.0,0.0,1.5955421
897,3.957489,1,-0.7582833,-0.85428953,1.3651018,0.0,0.0,0.0,0.0,0.0,1.5955421
898,3.9613342,1,-0.81061715,-0.53306895,1.3960295,0.0,0.0,0.0,0.0,0.0,1.5955421
899,3.9651794,1,-0.7765939,-0.79308534,1.3787098,0.0,0.0,0.0,0.0,0.0,1.5955421
900,3.9690247,1,-0.8096225,-0.76613045,1.4085636,0.0,0.0,0.0,0.0,0.0,1.5955421
901,3.9728699,1,-0.80964637,-0.76614344,1.4087143,0.0,0.0,0.0,0.0,0.0,1.5955421
902,3.976715,1,-0.84701264,-0.8904856,1.4523878,0.0,0.0,0.0,0.0,0.0,1.5955421
903,3.9805603,1,-0.84706473,-0.89066344,1.452673,0.0,0.0,0.0,0.0,0.0,1.5955421
904,3.9844055,1,-0.93234134,-0.75132483,1.5293198,0.0,0.0,0.0,0.0,0.0,1.5955421
905,3.9882507,1,-0.8641918,-0.76850605,1.463234,0.0,0.0,0.0,0.0,0.0,1.5955421
906,3.992096,1,-0.8611957,-0.8453891,1.465848,0.0,0.0,0.0,0.0,0.0,1.5955421
907,3.998291,1,-0.94772327,-0.877917,1.553668,0.0,0.0,0.0,0.0,0.0,1.5955421
908,4.0044556,1,-0.83371854,-0.775525,1.4330244,0.0,0.0,0.0,0.0,0.0,1.5955421
909,4.0106506,1,-0.9427182,-0.801847,1.5412722,0.0,0.0,0.0,0.0,0.0,1.5955421
910,4.015381,1,-0.86680096,-0.7843721,1.4641056,0.0,0.0,0.0,0.0,0.0,1.5955421
911,4.019806,1,-0.8051969,-0.5769461,1.3892059,0.0,0.0,0.0,0.0,0.0,1.5955421
912,4.0242004,1,-0.83645755,-0.68122864,1.4258156,0.0,0.0,0.0,0.0,0.0,1.5955421
913,4.028595,1,-0.9050277,-0.79323316,1.50074,0.0,0.0,0.0,0.0,0.0,1.5955421
914,4.0329895,1,-0.9256066,-0.6998954,1.5152025,0.0,0.0,0.0,0.0,0.0,1.5955421
915,4.037384,1,-0.8136838,-0.81946325,1.413229,0.0,0.0,0.0,0.0,0.0,1.5955421
916,4.0417786,1,-0.86174,-0.75488675,1.4569178,0.0,0.0,0.0,0.0,0.0,1.5955421
917,4.046173,1,-0.7502704,-0.68894225,1.341836,0.0,0.0,0.0,0.0,0.0,1.5955421
918,4.0505676,1,-0.96899086,-0.7537291,1.5612974,0.0,0.0,0.0,0.0,0.0,1.5955421
919,4.054962,1,-0.94319934,-0.61402494,1.5268955,0.0,0.0,0.0,0.0,0.0,1.5955421
920,4.0593567,1,-0.89959246,-0.7750057,1.4954901,0.0,0.0,0.0,0.0,0.0,1.5955421
921,4.063751,1,-0.8324912,-0.65570366,1.4215784,0.0,0.0,0.0,0.0,0.0,1.5955421
922,4.0681458,1,-0.8326958,-0.65659,1.4216251,0.0,0.0,0.0,0.0,0.0,1.5955421
923,4.0725403,1,-0.9153088,-0.7806654,1.5134459,0.0,0.0,0.0,0.0,0.0,1.5955421
924,4.076935,1,-0.8664635,-0.7691025,1.4642887,0.0,0.0,0.0,0.0,0.0,1.5955421
925,4.0813293,1,-0.7671869,-0.8467877,1.3715706,0.0,0.0,0.0,0.0,0.0,1.5955421
926,4.085724,1,-0.959436,-0.841525,1.5645695,0.0,0.0,0.0,0.0,0.0,1.5955421
927,4.0901184,1,-0.8011297,-0.75464773,1.4074459,0.0,0.0,0.0,0.0,0.0,1.5955421
928,4.094513,1,-0.90145206,-0.7510351,1.5093594,0.0,0.0,0.0,0.0,0.0,1.5955421
929,4.0989075,1,-0.8450471,-0.9483211,1.4644241,0.0,0.0,0.0,0.0,0.0,1.5955421
930,4.103302,1,-0.7533647,-0.7716675,1.3620415,0.0,0.0,0.0,0.0,0.0,1.5955421
931,4.1076965,1,-0.8290196,-0.79230535,1.4372635,0.0,0.0,0.0,0.0,0.0,1.5955421
932,4.112091,1,-0.7699036,-0.79878926,1.3793087,0.0,0.0,0.0,0.0,0.0,1.5955421
933,4.1164856,1,-0.78645116,-0.7981597,1.3959999,0.0,0.0,0.0,0.0,0.0,1.5955421
934,4.12088,1,-0.7811855,-0.7393606,1.3870173,0.0,0.0,0.0,0.0,0.0,1.5955421
935,4.1252747,1,-0.8660318,-0.59128714,1.4618359,0.0,0.0,0.0,0.0,0.0,1.5955421
936,4.129669,1,-0.91025007,-0.7269733,1.5130014,0.0,0.0,0.0,0.0,0.0,1.5955421
937,4.1340637,1,-0.8722582,-0.7343501,1.4752846,0.0,0.0,0.0,0.0,0.0,1.5955421
938,4.1384583,1,-0.910039,-0.72617793,1.5115013,0.0,0.0,0.0,0.0,0.0,1.5955421
939,4.142853,1,-0.8253773,-0.7264956,1.4277601,0.0,0.0,0.0,0.0,0.0,1.5955421
940,4.1472473,1,-0.90417063,-0.8294246,1.51155,0.0,0.0,0.0,0.0,0.0,1.5955421
941,4.151642,1,-0.88395196,-0.6895591,1.4816561,0.0,0.0,0.0,0.0,0.0,1.5955421
942,4.1560364,1,-0.797703,-0.6868385,1.391264,0.0,0.0,0.0,0.0,0.0,1.5955421
943,4.160431,1,-0.83646667,-0.755929,1.4327593,0.0,0.0,0.0,0.0,0.0,1.5955421
944,4.1648254,1,-0.8719709,-0.624131,1.4587784,0.0,0.0,0.0,0.0,0.0,1.5955421
945,4.16922,1,-0.8415681,-0.7231422,1.4353151,0.0,0.0,0.0,0.0,0.0,1.5955421
946,4.1736145,1,-0.98063195,-0.78045267,1.575881,0.0,0.0,0.0,0.0,0.0,1.5955421
947,4.178009,1,-0.9514102,-0.78879786,1.547822,0.0,0.0,0.0,0.0,0.0,1.5955421
948,4.1824036,1,-0.955724,-0.93113947,1.5629673,0.0,0.0,0.0,0.0,0.0,1.5955421
949,4.186798,1,-0.86108816,-0.79906356,1.4609585,0.0,0.0,0.0,0.0,0.0,1.5955421
950,4.1911926,1,-0.8238834,-0.84907746,1.422535,0.0,0.0,0.0,0.0,0.0,1.5955421
951,4.195587,1,-0.80351937,-0.922336,1.4054232,0.0,0.0,0.0,0.0,0.0,1.5955421
952,4.1999817,1,-1.0128142,-0.96630967,1.6130896,0.0,0.0,0.0,0.0,0.0,1.5955421
953,4.204376,1,-0.9359442,-1.0145197,1.5397463,0.0,0.0,0.0,0.0,0.0,1.5955421
954,4.2087708,1,-0.8923389,-0.9437921,1.4905291,0.0,0.0,0.0,0.0,0.0,1.5955421
955,4.2131653,1,-0.8359658,-0.94051147,1.4339132,0.0,0.0,0.0,0.0,0.0,1.5955421
956,4.21756,1,-0.8209131,-0.67428416,1.3987875,0.0,0.0,0.0,0.0,0.0,1.5955421
957,4.2219543,1,-0.8176406,-0.7715681,1.4055624,0.0,0.0,0.0,0.0,0.0,1.5955421
958,4.226349,1,-0.8173546,-0.7709197,1.4049034,0.0,0.0,0.0,0.0,0.0,1.5955421
959,4.2307434,1,-0.7941891,-0.80264395,1.3846703,0.0,0.0,0.0,0.0,0.0,1.5955421
960,4.235138,1,-0.6793997,-0.79948246,1.271985,0.0,0.0,0.0,0.0,0.0,1.5955421
961,4.2395325,1,-0.76821613,-0.7217456,1.3551435,0.0,0.0,0.0,0.0,0.0,1.5955421
962,4.243927,1,-0.7020105,-0.78637147,1.2955151,0.0,0.0,0.0,0.0,0.0,1.5955421
963,4.2483215,1,-0.7547195,-0.6943506,1.3420076,0.0,0.0,0.0,0.0,0.0,1.5955421
964,4.252716,1,-0.78478664,-0.73981106,1.3756523,0.0,0.0,0.0,0.0,0.0,1.5955421
965,4.2571106,1,-0.74355614,-0.54959315,1.3238039,0.0,0.0,0.0,0.0,0.0,1.5955421
966,4.261505,1,-0.7681192,-0.6698135,1.3562193,0.0,0.0,0.0,0.0,0.0,1.5955421
967,4.2658997,1,-0.7979123,-0.8195752,1.3960438,0.0,0.0,0.0,0.0,0.0,1.5955421
968,4.270294,1,-0.75517464,-0.6352705,1.3409033,0.0,0.0,0.0,0.0,0.0,1.5955421
969,4.2746887,1,-0.76965415,-0.708413,1.3598433,0.0,0.0,0.0,0.0,0.0,1.5955421
970,4.2790833,1,-1.0046632,-0.7680516,1.5951853,0.0,0.0,0.0,0.0,0.0,1.5955421
971,4.283478,1,-0.9954859,-0.71967226,1.5801735,0.0,0.0,0.0,0.0,0.0,1.5955421
972,4.2878723,1,-0.8651973,-0.62426704,1.4420862,0.0,0.0,0.0,0.0,0.0,1.5955421
973,4.292267,1,-0.98542196,-0.85516405,1.5763378,0.0,0.0,0.0,0.0,0.0,1.5955421
974,4.2966614,1,-0.85094905,-0.8174311,1.4410353,0.0,0.0,0.0,0.0,0.0,1.5955421
975,4.301056,1,-0.93405205,-0.85986197,1.5256977,0.0,0.0,0.0,0.0,0.0,1.5955421
976,4.3054504,1,-1.0022724,-0.7003622,1.5818672,0.0,0.0,0.0,0.0,0.0,1.5955421
977,4.309845,1,-0.98520446,-0.7530583,1.5698872,0.0,0.0,0.0,0.0,0.0,1.5955421
978,4.3142395,1,-0.96201086,-0.8961795,1.5577097,0.0,0.0,0.0,0.0,0.0,1.5955421
979,4.318634,1,-0.9205483,-0.74058914,1.5076256,0.0,0.0,0.0,0.0,0.0,1.5955421
980,4.3230286,1,-0.8635122,-0.9542742,1.4674578,0.0,0.0,0.0,0.0,0.0,1.5955421
981,4.327423,1,-0.956092,-0.8337039,1.5510607,0.0,0.0,0.0,0.0,0.0,1.5955421
982,4.3318176,1,-1.0604737,-0.7847037,1.6515656,0.0,0.0,0.0,0.0,0.0,1.5955421
983,4.336212,1,-1.0602024,-0.78317,1.6512909,0.0,0.0,0.0,0.0,0.0,1.5955421
984,4.3406067,1,-0.8663049,-0.868814,1.4660273,0.0,0.0,0.0,0.0,0.0,1.5955421
985,4.345001,1,-0.75865114,-0.7324857,1.3510466,0.0,0.0,0.0,0.0,0.0,1.5955421
986,4.3493958,1,-0.92312384,-0.704854,1.5121546,0.0,0.0,0.0,0.0,0.0,1.5955421
987,4.3537903,1,-0.78826386,-0.61619335,1.3732233,0.0,0.0,0.0,0.0,0.0,1.5955421
988,4.358185,1,-0.6804035,-0.49629816,1.2605953,0.0,0.0,0.0,0.0,0.0,1.5955421
989,4.3625793,1,-0.7440282,-0.7508651,1.3398829,0.0,0.0,0.0,0.0,0.0,1.5955421
990,4.366974,1,-0.7322133,-0.74388224,1.3269291,0.0,0.0,0.0,0.0,0.0,1.5955421
991,4.3713684,1,-0.7392907,-0.71947676,1.3310385,0.0,0.0,0.0,0.0,0.0,1.5955421
992,4.375763,1,-0.72267985,-0.6097094,1.3063555,0.0,0.0,0.0,0.0,0.0,1.5955421
993,4.3801575,1,-0.7813314,-0.71678305,1.3711853,0.0,0.0,0.0,0.0,0.0,1.5955421
994,4.384552,1,-0.73516977,-0.5296155,1.3115568,0.0,0.0,0.0,0.0,0.0,1.5955421
995,4.3889465,1,-0.69171065,-0.6575624,1.2773094,0.0,0.0,0.0,0.0,0.0,1.5955421
996,4.393341,1,-0.77951014,-0.59366417,1.3592453,0.0,0.0,0.0,0.0,0.0,1.5955421
997,4.3977356,1,-0.8688607,-0.61793953,1.4491282,0.0,0.0,0.0,0.0,0.0,1.5955421
998,4.40213,1,-0.806294,-0.68730235,1.389741,0.0,0.0,0.0,0.0,0.0,1.5955421
999,4.4065247,1,-0.8787401,-0.72710776,1.4616947,0.0,0.0,0.0,0.0,0.0,1.5955421
1000,4.410919,1,-0.8815689,-0.7025027,1.4604626,0.0,0.0,0.0,0.0,0.0,1.5955421
1001,4.4153137,1,-0.87538683,-0.8081831,1.4614525,0.0,0.0,0.0,0.0,0.0,1.5955421
1002,4.4197083,1,-0.92886853,-0.8192657,1.5147476,0.0,0.0,0.0,0.0,0.0,1.5955421
1003,4.424103,1,-0.927863,-0.6731616,1.4990082,0.0,0.0,0.0,0.0,0.0,1.5955421
1004,4.4284973,1,-1.0624306,-0.736132,1.6369085,0.0,0.0,0.0,0.0,0.0,1.5955421
1005,4.432892,1,-0.9117105,-0.78291297,1.492423,0.0,0.0,0.0,0.0,0.0,1.5955421
1006,4.4372864,1,-0.8046266,-0.8711686,1.3944635,0.0,0.0,0.0,0.0,0.0,1.5955421
1007,4.441681,1,-0.8589699,-0.81502295,1.4448967,0.0,0.0,0.0,0.0,0.0,1.5955421
1008,4.4460754,1,-0.8386649,-0.7483747,1.4207983,0.0,0.0,0.0,0.0,0.0,1.5955421
1009,4.45047,1,-0.837913,-1.024592,1.441246,0.0,0.0,0.0,0.0,0.0,1.5955421
1010,4.4548645,1,-0.8858913,-0.82563007,1.4762001,0.0,0.0,0.0,0.0,0.0,1.5955421
1011,4.459259,1,-0.7882336,-0.7247646,1.3725643,0.0,0.0,0.0,0.0,0.0,1.5955421
1012,4.4636536,1,-0.7756401,-0.9623674,1.380084,0.0,0.0,0.0,0.0,0.0,1.5955421
1013,4.468048,1,-0.7757168,-0.96066725,1.381135,0.0,0.0,0.0,0.0,0.0,1.5955421
1014,4.4724426,1,-0.7883176,-0.9359957,1.3917608,0.0,0.0,0.0,0.0,0.0,1.5955421
1015,4.476837,1,-0.7881331,-0.9343761,1.3920841,0.0,0.0,0.0,0.0,0.0,1.5955421
1016,4.4812317,1,-0.88171065,-0.72654635,1.4685583,0.0,0.0,0.0,0.0,0.0,1.5955421
1017,4.485626,1,-0.8103163,-0.7083855,1.3950129,0.0,0.0,0.0,0.0,0.0,1.5955421
1018,4.4900208,1,-0.7727806,-0.7788398,1.3651142,0.0,0.0,0.0,0.0,0.0,1.5955421
1019,4.4944153,1,-0.81217647,-0.6475747,1.394495,0.0,0.0,0.0,0.0,0.0,1.5955421
1020,4.49881,1,-0.7780059,-1.0351355,1.3903894,0.0,0.0,0.0,0.0,0.0,1.5955421
1021,4.5032043,1,-0.7724159,-0.79802084,1.3675661,0.0,0.0,0.0,0.0,0.0,1.5955421
1022,4.507599,1,-0.8369559,-0.8377843,1.4337234,0.0,0.0,0.0,0.0,0.0,1.5955421
1023,4.5119934,1,-0.8311799,-0.7935653,1.424365,0.0,0.0,0.0,0.0,0.0,1.5955421
1024,4.516388,1,-0.76352245,-0.7763091,1.3563461,0.0,0.0,0.0,0.0,0.0,1.5955421
1025,4.5207825,1,-0.8319825,-0.6887244,1.4180326,0.0,0.0,0.0,0.0,0.0,1.5955421
1026,4.525177,1,-0.7844563,-0.8995882,1.3882465,0.0,0.0,0.0,0.0,0.0,1.5955421
1027,4.5295715,1,-0.93431926,-0.7735696,1.5269365,0.0,0.0,0.0,0.0,0.0,1.5955421
1028,4.533966,1,-0.9070739,-0.6864,1.4945469,0.0,0.0,0.0,0.0,0.0,1.5955421
1029,4.5383606,1,-0.8670017,-0.61436844,1.4508209,0.0,0.0,0.0,0.0,0.0,1.5955421
1030,4.542755,1,-0.9896322,-0.8201039,1.587163,0.0,0.0,0.0,0.0,0.0,1.5955421
1031,4.5471497,1,-0.7906017,-0.8055014,1.3887014,0.0,0.0,0.0,0.0,0.0,1.5955421
1032,4.551544,1,-0.8653986,-0.6551133,1.4502687,0.0,0.0,0.0,0.0,0.0,1.5955421
1033,4.5559387,1,-0.8363302,-0.6967555,1.4230547,0.0,0.0,0.0,0.0,0.0,1.5955421
1034,4.5603333,1,-0.80196667,-0.6450803,1.3830986,0.0,0.0,0.0,0.0,0.0,1.5955421
1035,4.564728,1,-0.78689903,-0.7817182,1.3773003,0.0,0.0,0.0,0.0,0.0,1.5955421
1036,4.5691223,1,-0.8670266,-0.9079472,1.4650803,0.0,0.0,0.0,0.0,0.0,1.5955421
1037,4.573517,1,-0.8892317,-0.69329244,1.4699516,0.0,0.0,0.0,0.0,0.0,1.5955421
1038,4.5779114,1,-0.8328536,-0.78997374,1.4211817,0.0,0.0,0.0,0.0,0.0,1.5955421
1039,4.582306,1,-0.9734332,-0.7743436,1.5580311,0.0,0.0,0.0,0.0,0.0,1.5955421
1040,4.5867004,1,-0.886773,-0.9342077,1.485714,0.0,0.0,0.0,0.0,0.0,1.5955421
1041,4.591095,1,-0.8813362,-0.8696973,1.4760513,0.0,0.0,0.0,0.0,0.0,1.5955421
1042,4.5954895,1,-0.8713065,-0.85575145,1.4653435,0.0,0.0,0.0,0.0,0.0,1.5955421
1043,4.599884,1,-0.871291,-0.85531104,1.4653835,0.0,0.0,0.0,0.0,0.0,1.5955421
1044,4.6042786,1,-0.7613102,-0.75752664,1.3536682,0.0,0.0,0.0,0.0,0.0,1.5955421
1045,4.608673,1,-0.7099985,-0.760262,1.3055248,0.0,0.0,0.0,0.0,0.0,1.5955421
1046,4.6130676,1,-0.7315704,-0.8141638,1.3320045,0.0,0.0,0.0,0.0,0.0,1.5955421
1047,4.617462,1,-0.8470962,-0.71430624,1.4395742,0.0,0.0,0.0,0.0,0.0,1.5955421
1048,4.6218567,1,-0.8063762,-0.6467564,1.3951292,0.0,0.0,0.0,0.0,0.0,1.5955421
1049,4.626251,1,-0.7931354,-0.7649176,1.3924379,0.0,0.0,0.0,0.0,0.0,1.5955421
1050,4.6306458,1,-0.8979271,-0.67028713,1.4888058,0.0,0.0,0.0,0.0,0.0,1.5955421
1051,4.6350403,1,-0.82565546,-0.8221053,1.4275217,0.0,0.0,0.0,0.0,0.0,1.5955421
1052,4.639435,1,-0.7686258,-0.6923503,1.3606834,0.0,0.0,0.0,0.0,0.0,1.5955421
1053,4.6438293,1,-0.96289855,-0.57609063,1.5425787,0.0,0.0,0.0,0.0,0.0,1.5955421
1054,4.648224,1,-0.8467364,-0.5363667,1.4240904,0.0,0.0,0.0,0.0,0.0,1.5955421
1055,4.6526184,1,-0.81741345,-0.6722157,1.4059048,0.0,0.0,0.0,0.0,0.0,1.5955421
1056,4.657013,1,-0.8855444,-0.74908274,1.4793749,0.0,0.0,0.0,0.0,0.0,1.5955421
1057,4.6614075,1,-0.81330043,-0.6856473,1.4066763,0.0,0.0,0.0,0.0,0.0,1.5955421
1058,4.665802,1,-0.88613707,-0.65223444,1.475172,0.0,0.0,0.0,0.0,0.0,1.5955421
1059,4.6701965,1,-0.93490934,-0.9318799,1.5416679,0.0,0.0,0.0,0.0,0.0,1.5955421
1060,4.674591,1,-0.85222507,-0.9290513,1.4592991,0.0,0.0,0.0,0.0,0.0,1.5955421
1061,4.6789856,1,-0.839772,-0.8048744,1.4381132,0.0,0.0,0.0,0.0,0.0,1.5955421
1062,4.68338,1,-0.8535648,-0.84887874,1.4545069,0.0,0.0,0.0,0.0,0.0,1.5955421
1063,4.6877747,1,-0.9476622,-0.73248434,1.5391216,0.0,0.0,0.0,0.0,0.0,1.5955421
1064,4.692169,1,-0.89876866,-0.90601754,1.5008287,0.0,0.0,0.0,0.0,0.0,1.5955421
1065,4.6965637,1,-0.95750195,-0.7170702,1.5460243,0.0,0.0,0.0,0.0,0.0,1.5955421
1066,4.7009583,1,-0.912965,-0.80928075,1.5090532,0.0,0.0,0.0,0.0,0.0,1.5955421
1067,4.705353,1,-1.0194976,-0.8273772,1.6152773,0.0,0.0,0.0,0.0,0.0,1.5955421
1068,4.7097473,1,-1.0187473,-0.9057196,1.6194582,0.0,0.0,0.0,0.0,0.0,1.5955421
1069,4.714142,1,-0.8697963,-0.81639814,1.4663868,0.0,0.0,0.0,0.0,0.0,1.5955421
1070,4.7185364,1,-0.88342476,-0.93079317,1.4902744,0.0,0.0,0.0,0.0,0.0,1.5955421
1071,4.722931,1,-0.9273248,-0.88762283,1.5326052,0.0,0.0,0.0,0.0,0.0,1.5955421
1072,4.7273254,1,-0.92706716,-0.8850265,1.5337849,0.0,0.0,0.0,0.0,0.0,1.5955421
1073,4.73172,1,-0.8121256,-0.70535445,1.4099598,0.0,0.0,0.0,0.0,0.0,1.5955421
1074,4.7361145,1,-0.81209713,-0.7038793,1.4102468,0.0,0.0,0.0,0.0,0.0,1.5955421
1075,4.740509,1,-0.81359434,-0.72657156,1.4152613,0.0,0.0,0.0,0.0,0.0,1.5955421
1076,4.7449036,1,-0.8872986,-0.6941953,1.4844551,0.0,0.0,0.0,0.0,0.0,1.5955421
1077,4.749298,1,-0.78864896,-0.75212586,1.389533,0.0,0.0,0.0,0.0,0.0,1.5955421
1078,4.7536926,1,-0.7499153,-0.7247844,1.3484278,0.0,0.0,0.0,0.0,0.0,1.5955421
1079,4.758087,1,-0.78143233,-0.64825475,1.3725872,0.0,0.0,0.0,0.0,0.0,1.5955421
1080,4.7624817,1,-0.7333475,-0.6792693,1.3297081,0.0,0.0,0.0,0.0,0.0,1.5955421
1081,4.766876,1,-0.79878867,-0.70926,1.3944016,0.0,0.0,0.0,0.0,0.0,1.5955421
1082,4.7712708,1,-0.7606751,-0.79399645,1.361022,0.0,0.0,0.0,0.0,0.0,1.5955421
1083,4.7756653,1,-0.831197,-0.738377,1.423769,0.0,0.0,0.0,0.0,0.0,1.5955421
1084,4.78006,1,-0.8126039,-0.59407276,1.3924809,0.0,0.0,0.0,0.0,0.0,1.5955421
1085,4.7844543,1,-0.7078563,-0.6718506,1.2955332,0.0,0.0,0.0,0.0,0.0,1.5955421
1086,4.788849,1,-0.79750746,-0.5087367,1.3724613,0.0,0.0,0.0,0.0,0.0,1.5955421
1087,4.7932434,1,-0.7575392,-0.67850417,1.3451357,0.0,0.0,0.0,0.0,0.0,1.5955421
1088,4.797638,1,-0.8559596,-0.6690027,1.4403572,0.0,0.0,0.0,0.0,0.0,1.5955421
1089,4.8020325,1,-0.81494313,-0.5739691,1.3917274,0.0,0.0,0.0,0.0,0.0,1.5955421
1090,4.806427,1,-0.85054696,-0.54248214,1.423749,0.0,0.0,0.0,0.0,0.0,1.5955421
1091,4.8108215,1,-0.84631747,-0.56391007,1.4225988,0.0,0.0,0.0,0.0,0.0,1.5955421
1092,4.815216,1,-0.9010468,-0.586945,1.4794531,0.0,0.0,0.0,0.0,0.0,1.5955421
1093,4.8196106,1,-0.80277324,-0.5953999,1.3841105,0.0,0.0,0.0,0.0,0.0,1.5955421
1094,4.824005,1,-0.89241964,-0.70555615,1.4829702,0.0,0.0,0.0,0.0,0.0,1.5955421
1095,4.8283997,1,-0.9608724,-0.79492795,1.559228,0.0,0.0,0.0,0.0,0.0,1.5955421
1096,4.832794,1,-0.91047263,-0.7127136,1.5059233,0.0,0.0,0.0,0.0,0.0,1.5955421
1097,4.8371887,1,-0.77969724,-0.74298656,1.3806295,0.0,0.0,0.0,0.0,0.0,1.5955421
1098,4.8415833,1,-0.8944542,-0.8002703,1.4993668,0.0,0.0,0.0,0.0,0.0,1.5955421
1099,4.845978,1,-0.85532963,-0.7613508,1.4600868,0.0,0.0,0.0,0.0,0.0,1.5955421
1100,4.8503723,1,-0.8572186,-0.8575608,1.4698477,0.0,0.0,0.0,0.0,0.0,1.5955421
1101,4.854767,1,-0.89776075,-0.94469273,1.5175428,0.0,0.0,0.0,0.0,0.0,1.5955421
1102,4.8591614,1,-0.90354776,-0.915884,1.5232334,0.0,0.0,0.0,0.0,0.0,1.5955421
1103,4.863556,1,-0.90327376,-0.91363454,1.5231762,0.0,0.0,0.0,0.0,0.0,1.5955421
1104,4.8679504,1,-0.82421,-0.6695124,1.4333153,0.0,0.0,0.0,0.0,0.0,1.5955421
1105,4.872345,1,-0.7790253,-0.6988691,1.3926992,0.0,0.0,0.0,0.0,0.0,1.5955421
1106,4.8767395,1,-0.82846487,-0.69975376,1.4408197,0.0,0.0,0.0,0.0,0.0,1.5955421
1107,4.881134,1,-0.76857525,-0.6630957,1.3782082,0.0,0.0,0.0,0.0,0.0,1.5955421
1108,4.8855286,1,-0.770154,-0.79657674,1.3872652,0.0,0.0,0.0,0.0,0.0,1.5955421
1109,4.889923,1,-0.7255438,-0.63335085,1.3325872,0.0,0.0,0.0,0.0,0.0,1.5955421
1110,4.8943176,1,-0.7965977,-0.76388884,1.4113684,0.0,0.0,0.0,0.0,0.0,1.5955421
1111,4.898712,1,-0.7362078,-0.7330978,1.3497763,0.0,0.0,0.0,0.0,0.0,1.5955421
1112,4.9031067,1,-0.7145125,-0.79955727,1.3329153,0.0,0.0,0.0,0.0,0.0,1.5955421
1113,4.907501,1,-0.7286601,-0.7446849,1.3436394,0.0,0.0,0.0,0.0,0.0,1.5955421
1114,4.9118958,1,-0.8787544,-0.87968516,1.5009937,0.0,0.0,0.0,0.0,0.0,1.5955421
1115,4.9162903,1,-0.81573755,-0.59746414,1.420927,0.0,0.0,0.0,0.0,0.0,1.5955421
1116,4.920685,1,-0.89581627,-0.8119887,1.513195,0.0,0.0,0.0,0.0,0.0,1.5955421
1117,4.9243774,1,-0.9372558,-0.9478551,1.562974,0.0,0.0,0.0,0.0,0.0,1.5955421
1118,4.92807,1,-0.9374532,-0.9478737,1.5632515,0.0,0.0,0.0,0.0,0.0,1.5955421
1119,4.9317627,1,-0.9375262,-0.94806325,1.563673,0.0,0.0,0.0,0.0,0.0,1.5955421
1120,4.9379883,1,-0.915443,-1.0355301,1.542655,0.0,0.0,0.0,0.0,0.0,1.5955421
1121,4.944214,1,-0.9154432,-1.0349495,1.5428448,0.0,0.0,0.0,0.0,0.0,1.5955421
1122,4.95047,1,-0.8079556,-0.98705375,1.4325218,0.0,0.0,0.0,0.0,0.0,1.5955421
1123,4.954651,1,-1.0117246,-0.98503864,1.632596,0.0,0.0,0.0,0.0,0.0,1.5955421
1124,4.9588013,1,-0.9491014,-0.8301164,1.562087,0.0,0.0,0.0,0.0,0.0,1.5955421
1125,4.962982,1,-0.9164887,-0.88911194,1.5334501,0.0,0.0,0.0,0.0,0.0,1.5955421
1126,4.9671326,1,-0.9390805,-0.9137778,1.5584793,0.0,0.0,0.0,0.0,0.0,1.5955421
1127,4.9713135,1,-0.9062067,-1.0444031,1.5333891,0.0,0.0,0.0,0.0,0.0,1.5955421
1128,4.9754944,1,-0.79876274,-0.6881511,1.4036884,0.0,0.0,0.0,0.0,0.0,1.5955421
1129,4.979645,1,-0.7988018,-0.6872941,1.4042225,0.0,0.0,0.0,0.0,0.0,1.5955421
1130,4.9838257,1,-0.8214673,-0.90437806,1.439106,0.0,0.0,0.0,0.0,0.0,1.5955421
1131,4.987976,1,-0.760614,-0.8096788,1.3719149,0.0,0.0,0.0,0.0,0.0,1.5955421
1132,4.992157,1,-0.8321219,-0.6896477,1.4336319,0.0,0.0,0.0,0.0,0.0,1.5955421
1133,4.996338,1,-0.83198416,-0.688054,1.4342556,0.0,0.0,0.0,0.0,0.0,1.5955421
1134,5.0004883,1,-0.7437585,-0.74887335,1.3514261,0.0,0.0,0.0,0.0,0.0,1.5955421
1135,5.004669,1,-0.74358815,-0.85343444,1.3585348,0.0,0.0,0.0,0.0,0.0,1.5955421
1136,5.0088196,1,-0.7815646,-0.66285884,1.3820028,0.0,0.0,0.0,0.0,0.0,1.5955421
1137,5.0130005,1,-0.8199153,-0.70707816,1.4219255,0.0,0.0,0.0,0.0,0.0,1.5955421
1138,5.0171814,1,-0.80722934,-0.75517905,1.4108715,0.0,0.0,0.0,0.0,0.0,1.5955421
1139,5.021332,1,-0.6917799,-0.74864066,1.2970018,0.0,0.0,0.0,0.0,0.0,1.5955421
1140,5.0255127,1,-0.84327406,-0.6702118,1.4413528,0.0,0.0,0.0,0.0,0.0,1.5955421
1141,5.0296936,1,-0.8384806,-0.80951047,1.4471807,0.0,0.0,0.0,0.0,0.0,1.5955421
1142,5.033844,1,-0.81795037,-0.7316581,1.4213495,0.0,0.0,0.0,0.0,0.0,1.5955421
1143,5.038025,1,-0.8627233,-0.5699243,1.4542866,0.0,0.0,0.0,0.0,0.0,1.5955421
1144,5.0421753,1,-0.85637665,-0.6306901,1.4519014,0.0,0.0,0.0,0.0,0.0,1.5955421
1145,5.046356,1,-0.85788125,-0.7768812,1.4614296,0.0,0.0,0.0,0.0,0.0,1.5955421
1146,5.050537,1,-0.89808947,-0.7174933,1.4948492,0.0,0.0,0.0,0.0,0.0,1.5955421
1147,5.0546875,1,-0.9588636,-0.72142243,1.5535727,0.0,0.0,0.0,0.0,0.0,1.5955421
1148,5.059906,1,-0.9364302,-0.65283215,1.5265903,0.0,0.0,0.0,0.0,0.0,1.5955421
1149,5.065155,1,-0.9067297,-0.7416262,1.5028267,0.0,0.0,0.0,0.0,0.0,1.5955421
1150,5.0703735,1,-0.85223925,-0.75108284,1.4496841,0.0,0.0,0.0,0.0,0.0,1.5955421
1151,5.075592,1,-0.86688584,-0.7187362,1.4627743,0.0,0.0,0.0,0.0,0.0,1.5955421
1152,5.0808105,1,-0.7835631,-0.90617824,1.3937702,0.0,0.0,0.0,0.0,0.0,1.5955421
1153,5.086029,1,-0.85742354,-1.0557071,1.4781818,0.0,0.0,0.0,0.0,0.0,1.5955421
1154,5.0911865,1,-0.87702864,-0.9923079,1.4943762,0.0,0.0,0.0,0.0,0.0,1.5955421
1155,5.095581,1,-0.7459111,-0.95267665,1.3607674,0.0,0.0,0.0,0.0,0.0,1.5955421
1156,5.0999756,1,-0.86181,-0.9289167,1.4742088,0.0,0.0,0.0,0.0,0.0,1.5955421
1157,5.10437,1,-0.84060794,-0.8502983,1.4491911,0.0,0.0,0.0,0.0,0.0,1.5955421
1158,5.1087646,1,-0.800971,-0.70613635,1.4013968,0.0,0.0,0.0,0.0,0.0,1.5955421
1159,5.113159,1,-0.8743081,-0.7501749,1.4777336,0.0,0.0,0.0,0.0,0.0,1.5955421
1160,5.1175537,1,-0.8181257,-0.58051777,1.4107199,0.0,0.0,0.0,0.0,0.0,1.5955421
1161,5.1219482,1,-0.8689306,-0.5287763,1.4570618,0.0,0.0,0.0,0.0,0.0,1.5955421
1162,5.126343,1,-0.90439236,-0.54336894,1.4924259,0.0,0.0,0.0,0.0,0.0,1.5955421
1163,5.1307373,1,-0.87111926,-0.5344089,1.4606228,0.0,0.0,0.0,0.0,0.0,1.5955421
1164,5.135132,1,-0.81012493,-0.60025704,1.4055052,0.0,0.0,0.0,0.0,0.0,1.5955421
1165,5.1395264,1,-0.91996884,-0.54765654,1.5116024,0.0,0.0,0.0,0.0,0.0,1.5955421
1166,5.143921,1,-0.87342036,-0.58032334,1.4693193,0.0,0.0,0.0,0.0,0.0,1.5955421
1167,5.1483154,1,-0.90119267,-0.6582,1.504425,0.0,0.0,0.0,0.0,0.0,1.5955421
1168,5.15271,1,-0.8935267,-0.46924815,1.4855165,0.0,0.0,0.0,0.0,0.0,1.5955421
1169,5.1571045,1,-0.88607985,-0.7706251,1.4978409,0.0,0.0,0.0,0.0,0.0,1.5955421
1170,5.161499,1,-0.8520263,-0.6732157,1.454773,0.0,0.0,0.0,0.0,0.0,1.5955421
1171,5.1658936,1,-0.85267866,-0.49804696,1.4431229,0.0,0.0,0.0,0.0,0.0,1.5955421
1172,5.170288,1,-0.8565167,-0.58142436,1.4531345,0.0,0.0,0.0,0.0,0.0,1.5955421
1173,5.1746826,1,-0.7734134,-0.50958407,1.3665705,0.0,0.0,0.0,0.0,0.0,1.5955421
1174,5.179077,1,-0.75366485,-0.55926216,1.3506765,0.0,0.0,0.0,0.0,0.0,1.5955421
1175,5.1834717,1,-0.7375502,-0.75914586,1.3488789,0.0,0.0,0.0,0.0,0.0,1.5955421
1176,5.187866,1,-0.8263467,-0.6552273,1.4305849,0.0,0.0,0.0,0.0,0.0,1.5955421
1177,5.1922607,1,-0.8748519,-0.7395051,1.4843435,0.0,0.0,0.0,0.0,0.0,1.5955421
1178,5.1966553,1,-0.9158349,-0.8346554,1.5291252,0.0,0.0,0.0,0.0,0.0,1.5955421
1179,5.20105,1,-0.81131244,-0.7111235,1.4197102,0.0,0.0,0.0,0.0,0.0,1.5955421
1180,5.2054443,1,-0.8600486,-0.9819521,1.4865742,0.0,0.0,0.0,0.0,0.0,1.5955421
1181,5.209839,2,-0.9756391,-0.775847,1.586278,0.0,0.0,0.0,0.0,0.0,1.5955421
1182,5.2142334,2,-1.0089983,-0.93419135,1.6280146,0.0,0.0,0.0,0.0,0.0,1.5955421
1183,5.218628,2,-0.8166381,-0.8933184,1.4345198,0.0,0.0,0.0,0.0,0.0,1.5955421
1184,5.2230225,2,-0.93516535,-0.8025416,1.5451746,0.0,0.0,0.0,0.0,0.0,1.5955421
1185,5.227417,2,-0.8718902,-0.6329738,1.470788,0.0,0.0,0.0,0.0,0.0,1.5955421
1186,5.2318115,2,-0.8717955,-0.63408285,1.4698076,0.0,0.0,0.0,0.0,0.0,1.5955421
1187,5.236206,2,-0.7850966,-0.93058956,1.4050665,0.0,0.0,0.0,0.0,0.0,1.5955421
1188,5.2406006,2,-0.8717195,-0.7307712,1.4785233,0.0,0.0,0.0,0.0,0.0,1.5955421
1189,5.244995,2,-0.76046956,-0.78572464,1.3718643,0.0,0.0,0.0,0.0,0.0,1.5955421
1190,5.2493896,2,-0.7282127,-0.78814006,1.3393526,0.0,0.0,0.0,0.0,0.0,1.5955421
1191,5.253784,2,-0.7632143,-0.81291175,1.3744097,0.0,0.0,0.0,0.0,0.0,1.5955421
1192,5.2581787,2,-0.7445964,-0.878189,1.3599815,0.0,0.0,0.0,0.0,0.0,1.5955421
1193,5.2625732,2,-0.77089894,-1.118207,1.40345,0.0,0.0,0.0,0.0,0.0,1.5955421
1194,5.266968,2,-0.7290089,-0.9018914,1.3490324,0.0,0.0,0.0,0.0,0.0,1.5955421
1195,5.2713623,2,-0.717094,-0.98968875,1.3442612,0.0,0.0,0.0,0.0,0.0,1.5955421
1196,5.275757,2,-0.81694305,-0.87358284,1.4369125,0.0,0.0,0.0,0.0,0.0,1.5955421
1197,5.2801514,2,-0.9104309,-0.82432926,1.5274248,0.0,0.0,0.0,0.0,0.0,1.5955421
1198,5.284546,2,-0.7980279,-0.89413345,1.422327,0.0,0.0,0.0,0.0,0.0,1.5955421
1199,5.2889404,2,-0.92344224,-0.67810047,1.5321598,0.0,0.0,0.0,0.0,0.0,1.5955421
1200,5.293335,2,-0.85425144,-0.82130045,1.4717436,0.0,0.0,0.0,0.0,0.0,1.5955421
1201,5.2977295,2,-0.74224526,-0.7763542,1.3566809,0.0,0.0,0.0,0.0,0.0,1.5955421
1202,5.302124,2,-0.9890363,-0.6900151,1.5945034,0.0,0.0,0.0,0.0,0.0,1.5955421
1203,5.3065186,2,-0.8742782,-0.77587783,1.486764,0.0,0.0,0.0,0.0,0.0,1.5955421
1204,5.310913,2,-0.964888,-0.75197923,1.5738497,0.0,0.0,0.0,0.0,0.0,1.5955421
1205,5.3153076,2,-0.88381654,-0.8290801,1.4976063,0.0,0.0,0.0,0.0,0.0,1.5955421
1206,5.319702,2,-0.96818495,-0.57042015,1.5624218,0.0,0.0,0.0,0.0,0.0,1.5955421
1207,5.3240967,2,-0.8694673,-0.7823349,1.4769936,0.0,0.0,0.0,0.0,0.0,1.5955421
1208,5.328491,2,-0.9016543,-0.64798784,1.5000238,0.0,0.0,0.0,0.0,0.0,1.5955421
1209,5.3328857,2,-0.90172136,-0.65012306,1.4987593,0.0,0.0,0.0,0.0,0.0,1.5955421
1210,5.3372803,2,-0.90423805,-0.6660066,1.5000677,0.0,0.0,0.0,0.0,0.0,1.5955421
1211,5.341675,2,-1.0079854,-0.744143,1.6078787,0.0,0.0,0.0,0.0,0.0,1.5955421
1212,5.3460693,2,-0.83330876,-0.8698696,1.4433031,0.0,0.0,0.0,0.0,0.0,1.5955421
1213,5.350464,2,-0.833275,-0.87087834,1.4427567,0.0,0.0,0.0,0.0,0.0,1.5955421
1214,5.3548584,2,-0.85890186,-0.7492308,1.461649,0.0,0.0,0.0,0.0,0.0,1.5955421
1215,5.359253,2,-0.8925456,-0.7748825,1.4961815,0.0,0.0,0.0,0.0,0.0,1.5955421
1216,5.3636475,2,-0.922581,-0.84900105,1.5314045,0.0,0.0,0.0,0.0,0.0,1.5955421
1217,5.368042,2,-0.92243254,-0.8478488,1.5318213,0.0,0.0,0.0,0.0,0.0,1.5955421
1218,5.3724365,2,-0.83358896,-0.88748777,1.4488573,0.0,0.0,0.0,0.0,0.0,1.5955421
1219,5.376831,2,-0.83786786,-0.6872219,1.4417877,0.0,0.0,0.0,0.0,0.0,1.5955421
1220,5.3812256,2,-0.7054523,-0.82795674,1.3205948,0.0,0.0,0.0,0.0,0.0,1.5955421
1221,5.38562,2,-0.7710588,-0.62943757,1.3737726,0.0,0.0,0.0,0.0,0.0,1.5955421
1222,5.3900146,2,-0.9362485,-0.7204303,1.5434914,0.0,0.0,0.0,0.0,0.0,1.5955421
1223,5.394409,2,-0.75669575,-0.6979724,1.3656893,0.0,0.0,0.0,0.0,0.0,1.5955421
1224,5.3988037,2,-0.9189482,-0.5839149,1.5222006,0.0,0.0,0.0,0.0,0.0,1.5955421
1225,5.4031982,2,-0.77868956,-0.8407564,1.4001169,0.0,0.0,0.0,0.0,0.0,1.5955421
1226,5.407593,2,-0.9465004,-0.5190207,1.5472059,0.0,0.0,0.0,0.0,0.0,1.5955421
1227,5.4119873,2,-0.8050898,-0.71014446,1.4193621,0.0,0.0,0.0,0.0,0.0,1.5955421
1228,5.416382,2,-0.8573314,-0.5899256,1.4645634,0.0,0.0,0.0,0.0,0.0,1.5955421
1229,5.4207764,2,-0.7584408,-0.5778123,1.3642721,0.0,0.0,0.0,0.0,0.0,1.5955421
1230,5.425171,2,-0.8830714,-0.4780015,1.4795532,0.0,0.0,0.0,0.0,0.0,1.5955421
1231,5.4295654,2,-0.7758022,-0.5973657,1.3806038,0.0,0.0,0.0,0.0,0.0,1.5955421
1232,5.43396,2,-0.872083,-0.5076796,1.470398,0.0,0.0,0.0,0.0,0.0,1.5955421
1233,5.4383545,2,-0.6713299,-0.6468307,1.2793713,0.0,0.0,0.0,0.0,0.0,1.5955421
1234,5.442749,2,-0.7056655,-0.81230366,1.3228388,0.0,0.0,0.0,0.0,0.0,1.5955421
1235,5.4471436,2,-0.83831054,-0.65820634,1.4438715,0.0,0.0,0.0,0.0,0.0,1.5955421
1236,5.451538,2,-0.851608,-0.72423625,1.4603662,0.0,0.0,0.0,0.0,0.0,1.5955421
1237,5.4559326,2,-0.9927212,-0.7101948,1.59795,0.0,0.0,0.0,0.0,0.0,1.5955421
1238,5.460327,2,-0.87419736,-0.8224784,1.4878759,0.0,0.0,0.0,0.0,0.0,1.5955421
1239,5.4647217,2,-0.9326024,-0.7725115,1.5411539,0.0,0.0,0.0,0.0,0.0,1.5955421
1240,5.469116,2,-0.93091905,-0.7618785,1.5390453,0.0,0.0,0.0,0.0,0.0,1.5955421
1241,5.4735107,2,-0.7911456,-0.7189456,1.3982573,0.0,0.0,0.0,0.0,0.0,1.5955421
1242,5.4779053,2,-0.87050104,-0.836774,1.4833584,0.0,0.0,0.0,0.0,0.0,1.5955421
1243,5.4823,2,-0.8708318,-0.8374471,1.4843016,0.0,0.0,0.0,0.0,0.0,1.5955421
1244,5.4866943,2,-0.93520653,-0.85931355,1.5505342,0.0,0.0,0.0,0.0,0.0,1.5955421
1245,5.491089,2,-0.9271971,-0.9699708,1.5504284,0.0,0.0,0.0,0.0,0.0,1.5955421
1246,5.4954834,2,-0.86394227,-0.7993281,1.4803448,0.0,0.0,0.0,0.0,0.0,1.5955421
1247,5.499878,2,-0.86106455,-0.882505,1.4804049,0.0,0.0,0.0,0.0,0.0,1.5955421
1248,5.5042725,2,-1.040616,-0.9617747,1.6623106,0.0,0.0,0.0,0.0,0.0,1.5955421
1249,5.508667,2,-0.9488163,-1.028906,1.575449,0.0,0.0,0.0,0.0,0.0,1.5955421
1250,5.5130615,2,-0.9593448,-0.8539847,1.5763693,0.0,0.0,0.0,0.0,0.0,1.5955421
1251,5.517456,2,-0.80358326,-0.9677279,1.4301472,0.0,0.0,0.0,0.0,0.0,1.5955421
1252,5.5218506,2,-0.87547654,-0.9329568,1.5003862,0.0,0.0,0.0,0.0,0.0,1.5955421
1253,5.526245,2,-0.8318368,-0.71394753,1.4436798,0.0,0.0,0.0,0.0,0.0,1.5955421
1254,5.5306396,2,-0.77140963,-0.7935177,1.3872614,0.0,0.0,0.0,0.0,0.0,1.5955421
1255,5.535034,2,-0.7714847,-0.5429294,1.3708858,0.0,0.0,0.0,0.0,0.0,1.5955421
1256,5.5394287,2,-0.69059336,-0.7770686,1.3073063,0.0,0.0,0.0,0.0,0.0,1.5955421
1257,5.5438232,2,-0.7496822,-0.65074,1.3583221,0.0,0.0,0.0,0.0,0.0,1.5955421
1258,5.548218,2,-0.7913416,-0.738858,1.4058485,0.0,0.0,0.0,0.0,0.0,1.5955421
1259,5.5526123,2,-0.7102644,-0.78472155,1.3292484,0.0,0.0,0.0,0.0,0.0,1.5955421
1260,5.557007,2,-0.7700814,-0.74075127,1.3850126,0.0,0.0,0.0,0.0,0.0,1.5955421
1261,5.5614014,2,-0.8829481,-0.76110774,1.4970722,0.0,0.0,0.0,0.0,0.0,1.5955421
1262,5.565796,2,-0.9131705,-0.8530705,1.5308533,0.0,0.0,0.0,0.0,0.0,1.5955421
1263,5.5701904,2,-0.77540475,-0.77420914,1.3889484,0.0,0.0,0.0,0.0,0.0,1.5955421
1264,5.574585,2,-0.6721143,-0.6680716,1.2794247,0.0,0.0,0.0,0.0,0.0,1.5955421
1265,5.5789795,2,-0.7727509,-0.8176248,1.3871222,0.0,0.0,0.0,0.0,0.0,1.5955421
1266,5.583374,2,-0.8482301,-0.7702389,1.4580431,0.0,0.0,0.0,0.0,0.0,1.5955421
1267,5.5877686,2,-0.927917,-0.8149843,1.5386515,0.0,0.0,0.0,0.0,0.0,1.5955421
1268,5.592163,2,-0.82888854,-0.80776787,1.4389734,0.0,0.0,0.0,0.0,0.0,1.5955421
1269,5.5965576,2,-0.80712783,-0.75985396,1.4135065,0.0,0.0,0.0,0.0,0.0,1.5955421
1270,5.600952,2,-0.85527015,-0.7393262,1.4579763,0.0,0.0,0.0,0.0,0.0,1.5955421
1271,5.6053467,2,-0.83286035,-0.7443599,1.4345407,0.0,0.0,0.0,0.0,0.0,1.5955421
1272,5.609741,2,-0.7981583,-0.6615936,1.3940849,0.0,0.0,0.0,0.0,0.0,1.5955421
1273,5.6141357,2,-1.0053363,-0.6504911,1.5967817,0.0,0.0,0.0,0.0,0.0,1.5955421
1274,5.6185303,2,-0.8310901,-0.71078193,1.4274969,0.0,0.0,0.0,0.0,0.0,1.5955421
1275,5.622925,2,-0.90147746,-0.95523036,1.5121269,0.0,0.0,0.0,0.0,0.0,1.5955421
1276,5.6273193,2,-0.9929435,-0.8571584,1.5960894,0.0,0.0,0.0,0.0,0.0,1.5955421
1277,5.631714,2,-1.0093106,-0.92987466,1.6166887,0.0,0.0,0.0,0.0,0.0,1.5955421
1278,5.6361084,2,-0.97503924,-0.66547513,1.5644016,0.0,0.0,0.0,0.0,0.0,1.5955421
1279,5.640503,2,-0.9407868,-0.6982119,1.5327816,0.0,0.0,0.0,0.0,0.0,1.5955421
1280,5.6448975,2,-0.85859084,-0.7378149,1.4553595,0.0,0.0,0.0,0.0,0.0,1.5955421
1281,5.649292,2,-0.9384905,-0.4334663,1.5145407,0.0,0.0,0.0,0.0,0.0,1.5955421
1282,5.6536865,2,-0.8482328,-0.6914242,1.443306,0.0,0.0,0.0,0.0,0.0,1.5955421
1283,5.658081,2,-0.904506,-0.6082109,1.4943151,0.0,0.0,0.0,0.0,0.0,1.5955421
1284,5.6624756,2,-0.79730266,-0.6218506,1.3908873,0.0,0.0,0.0,0.0,0.0,1.5955421
1285,5.66687,2,-0.75893795,-0.8768936,1.3706455,0.0,0.0,0.0,0.0,0.0,1.5955421
1286,5.6712646,2,-0.8116207,-0.57294685,1.4019032,0.0,0.0,0.0,0.0,0.0,1.5955421
1287,5.675659,2,-0.7907458,-0.56724507,1.380393,0.0,0.0,0.0,0.0,0.0,1.5955421
1288,5.6800537,2,-0.7493205,-0.6095046,1.3414326,0.0,0.0,0.0,0.0,0.0,1.5955421
1289,5.6844482,2,-0.77496445,-0.6709076,1.3678379,0.0,0.0,0.0,0.0,0.0,1.5955421
1290,5.688843,2,-0.8450119,-0.55498695,1.4251966,0.0,0.0,0.0,0.0,0.0,1.5955421
1291,5.6932373,2,-0.7309717,-0.61263007,1.3135319,0.0,0.0,0.0,0.0,0.0,1.5955421
1292,5.697632,2,-0.8352906,-0.6204685,1.4161901,0.0,0.0,0.0,0.0,0.0,1.5955421
1293,5.7020264,2,-0.82664204,-0.5954212,1.4067316,0.0,0.0,0.0,0.0,0.0,1.5955421
1294,5.706421,2,-0.82283574,-0.68350136,1.4081774,0.0,0.0,0.0,0.0,0.0,1.5955421
1295,5.7108154,2,-0.83937204,-0.59665036,1.4165001,0.0,0.0,0.0,0.0,0.0,1.5955421
1296,5.71521,2,-0.8986223,-0.78650355,1.4871721,0.0,0.0,0.0,0.0,0.0,1.5955421
1297,5.7196045,2,-0.91982067,-0.6948008,1.5003004,0.0,0.0,0.0,0.0,0.0,1.5955421
1298,5.723999,2,-0.85976946,-0.6916851,1.4428282,0.0,0.0,0.0,0.0,0.0,1.5955421
1299,5.7283936,2,-0.92979836,-0.8257483,1.5227833,0.0,0.0,0.0,0.0,0.0,1.5955421
1300,5.732788,2,-0.929766,-0.82674325,1.522253,0.0,0.0,0.0,0.0,0.0,1.5955421
1301,5.7371826,2,-0.76831967,-0.76524925,1.3640785,0.0,0.0,0.0,0.0,0.0,1.5955421
1302,5.741577,2,-0.87826025,-0.738165,1.4721155,0.0,0.0,0.0,0.0,0.0,1.5955421
1303,5.7459717,2,-0.8464357,-0.8708642,1.4509172,0.0,0.0,0.0,0.0,0.0,1.5955421
1304,5.750366,2,-0.85562336,-0.91257024,1.4616013,0.0,0.0,0.0,0.0,0.0,1.5955421
1305,5.7547607,2,-1.015085,-0.94636214,1.6197004,0.0,0.0,0.0,0.0,0.0,1.5955421
1306,5.7591553,2,-0.850157,-0.9665233,1.4570007,0.0,0.0,0.0,0.0,0.0,1.5955421
1307,5.76355,2,-0.92680967,-0.8336657,1.5227089,0.0,0.0,0.0,0.0,0.0,1.5955421
1308,5.7679443,2,-0.8484062,-1.023592,1.454628,0.0,0.0,0.0,0.0,0.0,1.5955421
1309,5.772339,2,-0.8784764,-1.0278339,1.4834518,0.0,0.0,0.0,0.0,0.0,1.5955421
1310,5.7767334,2,-0.79106367,-0.85675496,1.3868561,0.0,0.0,0.0,0.0,0.0,1.5955421
1311,5.781128,2,-0.7997294,-1.0082493,1.4073133,0.0,0.0,0.0,0.0,0.0,1.5955421
1312,5.7855225,2,-0.7729717,-0.82047343,1.369133,0.0,0.0,0.0,0.0,0.0,1.5955421
1313,5.789917,2,-0.90221584,-0.80806434,1.4962454,0.0,0.0,0.0,0.0,0.0,1.5955421
1314,5.7943115,2,-0.90572804,-0.9865645,1.5121431,0.0,0.0,0.0,0.0,0.0,1.5955421
1315,5.798706,2,-0.83306503,-0.82676166,1.4290876,0.0,0.0,0.0,0.0,0.0,1.5955421
1316,5.8031006,2,-0.81675696,-0.83458453,1.4122944,0.0,0.0,0.0,0.0,0.0,1.5955421
1317,5.807495,2,-0.7004658,-0.63411856,1.2826614,0.0,0.0,0.0,0.0,0.0,1.5955421
1318,5.8118896,2,-0.77254164,-0.81772625,1.3657618,0.0,0.0,0.0,0.0,0.0,1.5955421
1319,5.816284,2,-0.69136196,-0.85831463,1.2907181,0.0,0.0,0.0,0.0,0.0,1.5955421
1320,5.8206787,2,-0.84777397,-0.65698075,1.4321728,0.0,0.0,0.0,0.0,0.0,1.5955421
1321,5.8250732,2,-0.70460373,-0.64536583,1.2915707,0.0,0.0,0.0,0.0,0.0,1.5955421
1322,5.829468,2,-0.7842057,-0.6231363,1.369854,0.0,0.0,0.0,0.0,0.0,1.5955421
1323,5.8338623,2,-0.72422767,-0.7891323,1.3273191,0.0,0.0,0.0,0.0,0.0,1.5955421
1324,5.838257,2,-0.71667403,-0.8630476,1.3259954,0.0,0.0,0.0,0.0,0.0,1.5955421
1325,5.8426514,2,-0.8427817,-0.6938846,1.4402714,0.0,0.0,0.0,0.0,0.0,1.5955421
1326,5.847046,2,-0.86887014,-0.7258837,1.4686747,0.0,0.0,0.0,0.0,0.0,1.5955421
1327,5.8514404,2,-1.0035005,-0.8296567,1.6083698,0.0,0.0,0.0,0.0,0.0,1.5955421
1328,5.855835,2,-0.87708205,-0.69662195,1.473052,0.0,0.0,0.0,0.0,0.0,1.5955421
1329,5.8602295,2,-0.97225046,-0.8071008,1.5719366,0.0,0.0,0.0,0.0,0.0,1.5955421
1330,5.864624,2,-0.8979729,-0.5848577,1.482338,0.0,0.0,0.0,0.0,0.0,1.5955421
1331,5.8690186,2,-1.0160357,-0.8251635,1.6141987,0.0,0.0,0.0,0.0,0.0,1.5955421
1332,5.873413,2,-0.85064924,-0.8422606,1.4527798,0.0,0.0,0.0,0.0,0.0,1.5955421
1333,5.8778076,2,-0.84006083,-0.7094344,1.434905,0.0,0.0,0.0,0.0,0.0,1.5955421
1334,5.882202,2,-0.80190766,-0.96480346,1.4135551,0.0,0.0,0.0,0.0,0.0,1.5955421
1335,5.8865967,2,-0.8860383,-0.8047956,1.4870253,0.0,0.0,0.0,0.0,0.0,1.5955421
1336,5.890991,2,-0.8391421,-0.8071287,1.4416456,0.0,0.0,0.0,0.0,0.0,1.5955421
1337,5.8953857,2,-0.84349763,-0.8440158,1.4490376,0.0,0.0,0.0,0.0,0.0,1.5955421
1338,5.8997803,2,-0.84081733,-0.8084762,1.4438219,0.0,0.0,0.0,0.0,0.0,1.5955421
1339,5.904175,2,-0.85194445,-0.79764676,1.4549942,0.0,0.0,0.0,0.0,0.0,1.5955421
1340,5.9085693,2,-0.8837943,-0.71627975,1.4801617,0.0,0.0,0.0,0.0,0.0,1.5955421
1341,5.912964,2,-0.81152165,-0.7069006,1.4065876,0.0,0.0,0.0,0.0,0.0,1.5955421
1342,5.9173584,2,-0.76347697,-0.6470209,1.3534737,0.0,0.0,0.0,0.0,0.0,1.5955421
1343,5.921753,2,-0.82273597,-0.60977876,1.410222,0.0,0.0,0.0,0.0,0.0,1.5955421
1344,5.9259644,2,-0.88146245,-0.6703278,1.4720936,0.0,0.0,0.0,0.0,0.0,1.5955421
1345,5.930176,2,-0.88149166,-0.67049265,1.472229,0.0,0.0,0.0,0.0,0.0,1.5955421
1346,5.9344177,2,-0.8814366,-0.670894,1.4717388,0.0,0.0,0.0,0.0,0.0,1.5955421
1347,5.938629,2,-0.8751965,-0.6623696,1.4668903,0.0,0.0,0.0,0.0,0.0,1.5955421
1348,5.942871,2,-0.8807938,-0.6681681,1.4727383,0.0,0.0,0.0,0.0,0.0,1.5955421
1349,5.9470825,2,-0.91018146,-0.9545275,1.5189562,0.0,0.0,0.0,0.0,0.0,1.5955421
1350,5.9513245,2,-0.8678762,-0.67590255,1.4579735,0.0,0.0,0.0,0.0,0.0,1.5955421
1351,5.955536,2,-0.86777264,-0.6291797,1.4523535,0.0,0.0,0.0,0.0,0.0,1.5955421
1352,5.959778,2,-0.7252767,-0.7247015,1.3193378,0.0,0.0,0.0,0.0,0.0,1.5955421
1353,5.9639893,2,-0.8090973,-0.81083965,1.408637,0.0,0.0,0.0,0.0,0.0,1.5955421
1354,5.968231,2,-0.7936558,-0.79594636,1.3921509,0.0,0.0,0.0,0.0,0.0,1.5955421
1355,5.9724426,2,-0.78221405,-0.7809242,1.3783035,0.0,0.0,0.0,0.0,0.0,1.5955421
1356,5.9766846,2,-0.78344643,-0.9769944,1.390851,0.0,0.0,0.0,0.0,0.0,1.5955421
1357,5.980896,2,-0.7834723,-0.97642815,1.3912058,0.0,0.0,0.0,0.0,0.0,1.5955421
1358,5.98584,2,-0.89688385,-0.8218631,1.4912558,0.0,0.0,0.0,0.0,0.0,1.5955421
1359,5.9907837,2,-0.9057956,-0.78418636,1.4982967,0.0,0.0,0.0,0.0,0.0,1.5955421
1360,5.9957275,2,-0.8310334,-0.7348896,1.4211206,0.0,0.0,0.0,0.0,0.0,1.5955421
1361,6.0006714,2,-0.8310388,-0.7350414,1.4211063,0.0,0.0,0.0,0.0,0.0,1.5955421
1362,6.005615,2,-0.91682935,-1.007344,1.5239153,0.0,0.0,0.0,0.0,0.0,1.5955421
1363,6.010559,2,-0.85491776,-0.7713685,1.4493589,0.0,0.0,0.0,0.0,0.0,1.5955421
1364,6.015503,2,-0.9084599,-0.7919625,1.5020485,0.0,0.0,0.0,0.0,0.0,1.5955421
1365,6.020447,2,-0.76912296,-0.7660419,1.3615637,0.0,0.0,0.0,0.0,0.0,1.5955421
1366,6.0253906,2,-0.82869613,-0.75901926,1.4182854,0.0,0.0,0.0,0.0,0.0,1.5955421
1367,6.0303345,2,-0.9046706,-0.7913965,1.496481,0.0,0.0,0.0,0.0,0.0,1.5955421
1368,6.034851,2,-0.8404896,-0.84122014,1.4368534,0.0,0.0,0.0,0.0,0.0,1.5955421
1369,6.039154,2,-0.7996346,-0.8407589,1.3977413,0.0,0.0,0.0,0.0,0.0,1.5955421
1370,6.043457,2,-0.8447844,-0.7945268,1.440733,0.0,0.0,0.0,0.0,0.0,1.5955421
1371,6.04776,2,-0.8437838,-0.86227965,1.4453831,0.0,0.0,0.0,0.0,0.0,1.5955421
1372,6.052063,2,-0.88285905,-0.8886083,1.4865484,0.0,0.0,0.0,0.0,0.0,1.5955421
1373,6.056366,2,-0.76629776,-0.77924955,1.3650179,0.0,0.0,0.0,0.0,0.0,1.5955421
1374,6.060669,2,-0.75869983,-0.84133804,1.3622484,0.0,0.0,0.0,0.0,0.0,1.5955421
1375,6.064972,2,-0.74681747,-0.6991657,1.3420458,0.0,0.0,0.0,0.0,0.0,1.5955421
1376,6.069275,2,-0.81219083,-0.85846823,1.4206858,0.0,0.0,0.0,0.0,0.0,1.5955421
1377,6.073578,2,-0.74654186,-0.69090474,1.3476095,0.0,0.0,0.0,0.0,0.0,1.5955421
1378,6.077881,2,-0.8199836,-0.67199826,1.421011,0.0,0.0,0.0,0.0,0.0,1.5955421
1379,6.082184,2,-0.8175193,-0.7167455,1.4230604,0.0,0.0,0.0,0.0,0.0,1.5955421
1380,6.086487,2,-0.8755153,-0.8666649,1.4913158,0.0,0.0,0.0,0.0,0.0,1.5955421
1381,6.09079,2,-1.0358852,-1.0568606,1.6618338,0.0,0.0,0.0,0.0,0.0,1.5955421
1382,6.095093,2,-0.87917566,-0.939255,1.5006447,0.0,0.0,0.0,0.0,0.0,1.5955421
1383,6.0993958,2,-0.9959651,-0.7829262,1.6072369,0.0,0.0,0.0,0.0,0.0,1.5955421
1384,6.1036987,2,-0.8057704,-0.81929284,1.4224663,0.0,0.0,0.0,0.0,0.0,1.5955421
1385,6.1080017,2,-0.8734067,-0.70807576,1.4826193,0.0,0.0,0.0,0.0,0.0,1.5955421
1386,6.1123047,2,-0.8377365,-0.75346315,1.449543,0.0,0.0,0.0,0.0,0.0,1.5955421
1387,6.1166077,2,-0.8931958,-0.8982279,1.5123806,0.0,0.0,0.0,0.0,0.0,1.5955421
1388,6.1209106,2,-0.8696603,-0.941054,1.4921961,0.0,0.0,0.0,0.0,0.0,1.5955421
1389,6.1252136,2,-0.9130346,-0.73902184,1.5244865,0.0,0.0,0.0,0.0,0.0,1.5955421
1390,6.1295166,2,-0.8377693,-0.72279376,1.4497585,0.0,0.0,0.0,0.0,0.0,1.5955421
1391,6.1338196,2,-0.8731991,-0.9329847,1.4953117,0.0,0.0,0.0,0.0,0.0,1.5955421
1392,6.1381226,2,-0.84566194,-0.7236194,1.4558392,0.0,0.0,0.0,0.0,0.0,1.5955421
1393,6.1424255,2,-0.92055875,-0.7647439,1.5311022,0.0,0.0,0.0,0.0,0.0,1.5955421
1394,6.1467285,2,-0.9999931,-0.8066659,1.6121082,0.0,0.0,0.0,0.0,0.0,1.5955421
1395,6.1510315,2,-0.9058739,-0.66913193,1.5116501,0.0,0.0,0.0,0.0,0.0,1.5955421
1396,6.1553345,2,-0.85437226,-0.7497226,1.465209,0.0,0.0,0.0,0.0,0.0,1.5955421
1397,6.1596375,2,-0.86375797,-0.733908,1.471365,0.0,0.0,0.0,0.0,0.0,1.5955421
1398,6.1639404,2,-0.8445189,-0.8746811,1.4584408,0.0,0.0,0.0,0.0,0.0,1.5955421
1399,6.1682434,2,-0.8494794,-0.60337377,1.4454517,0.0,0.0,0.0,0.0,0.0,1.5955421
1400,6.1725464,2,-0.90503323,-0.60619223,1.5014334,0.0,0.0,0.0,0.0,0.0,1.5955421
1401,6.1768494,2,-0.83283186,-0.8478584,1.4451494,0.0,0.0,0.0,0.0,0.0,1.5955421
1402,6.1811523,2,-0.7713293,-0.65083086,1.3737679,0.0,0.0,0.0,0.0,0.0,1.5955421
1403,6.1854553,2,-0.8942348,-0.8702508,1.5079613,0.0,0.0,0.0,0.0,0.0,1.5955421
1404,6.1897583,2,-0.824959,-0.57690644,1.4228325,0.0,0.0,0.0,0.0,0.0,1.5955421
1405,6.1940613,2,-0.82222044,-0.8198194,1.4344282,0.0,0.0,0.0,0.0,0.0,1.5955421
1406,6.1983643,2,-0.8772348,-0.6839466,1.4804926,0.0,0.0,0.0,0.0,0.0,1.5955421
1407,6.202667,2,-0.859272,-0.907937,1.4767723,0.0,0.0,0.0,0.0,0.0,1.5955421
1408,6.20697,2,-0.91673315,-0.9344622,1.5349455,0.0,0.0,0.0,0.0,0.0,1.5955421
1409,6.211273,2,-0.90290105,-0.570428,1.5002413,0.0,0.0,0.0,0.0,0.0,1.5955421
1410,6.215576,2,-0.8686506,-0.6454787,1.4698954,0.0,0.0,0.0,0.0,0.0,1.5955421
1411,6.219879,2,-0.8682615,-0.81174135,1.478591,0.0,0.0,0.0,0.0,0.0,1.5955421
1412,6.224182,2,-0.9111864,-0.79499245,1.5212345,0.0,0.0,0.0,0.0,0.0,1.5955421
1413,6.228485,2,-0.91670436,-0.6766126,1.520649,0.0,0.0,0.0,0.0,0.0,1.5955421
1414,6.232788,2,-0.9167496,-0.6772331,1.5207434,0.0,0.0,0.0,0.0,0.0,1.5955421
1415,6.237091,2,-0.85662997,-0.76662314,1.4700575,0.0,0.0,0.0,0.0,0.0,1.5955421
1416,6.241394,2,-0.93082654,-0.87794024,1.549284,0.0,0.0,0.0,0.0,0.0,1.5955421
1417,6.245697,2,-0.8874903,-0.7965615,1.5014524,0.0,0.0,0.0,0.0,0.0,1.5955421
1418,6.25,2,-0.8557793,-0.7321969,1.466258,0.0,0.0,0.0,0.0,0.0,1.5955421
1419,6.254303,2,-0.82557106,-0.8696617,1.4436722,0.0,0.0,0.0,0.0,0.0,1.5955421
1420,6.2592773,2,-0.8699728,-0.7520225,1.4806032,0.0,0.0,0.0,0.0,0.0,1.5955421
1421,6.2642517,2,-0.8811563,-0.8938676,1.4985304,0.0,0.0,0.0,0.0,0.0,1.5955421
1422,6.2692566,2,-0.9320198,-0.92454875,1.5498228,0.0,0.0,0.0,0.0,0.0,1.5955421
1423,6.274231,2,-0.9153671,-0.8707471,1.5289717,0.0,0.0,0.0,0.0,0.0,1.5955421
1424,6.279236,2,-0.73655736,-0.84788924,1.3518353,0.0,0.0,0.0,0.0,0.0,1.5955421
1425,6.28421,2,-0.7629055,-0.8404238,1.3780384,0.0,0.0,0.0,0.0,0.0,1.5955421
1426,6.289215,2,-0.7827058,-0.9654771,1.4055119,0.0,0.0,0.0,0.0,0.0,1.5955421
1427,6.2941895,2,-0.8559886,-0.75887585,1.4663515,0.0,0.0,0.0,0.0,0.0,1.5955421
1428,6.2991943,2,-0.76852053,-0.7788547,1.3813505,0.0,0.0,0.0,0.0,0.0,1.5955421
1429,6.303833,2,-0.7918203,-0.77473223,1.4026031,0.0,0.0,0.0,0.0,0.0,1.5955421
1430,6.3081055,2,-0.7479001,-0.88946486,1.364315,0.0,0.0,0.0,0.0,0.0,1.5955421
1431,6.312378,2,-0.8769742,-0.76106036,1.482645,0.0,0.0,0.0,0.0,0.0,1.5955421
1432,6.3166504,2,-0.80131835,-0.8573389,1.4116535,0.0,0.0,0.0,0.0,0.0,1.5955421
1433,6.320923,2,-0.82550776,-0.7120608,1.4270163,0.0,0.0,0.0,0.0,0.0,1.5955421
1434,6.3251953,2,-0.8285526,-0.90108895,1.4423332,0.0,0.0,0.0,0.0,0.0,1.5955421
1435,6.329468,2,-0.82708925,-0.897051,1.4414454,0.0,0.0,0.0,0.0,0.0,1.5955421
1436,6.33374,2,-0.95760983,-0.6347436,1.5555038,0.0,0.0,0.0,0.0,0.0,1.5955421
1437,6.3380127,2,-0.9420048,-0.972891,1.557828,0.0,0.0,0.0,0.0,0.0,1.5955421
1438,6.342285,2,-0.94294846,-0.91398424,1.5559149,0.0,0.0,0.0,0.0,0.0,1.5955421
1439,6.3465576,2,-0.9803608,-0.8562907,1.5896349,0.0,0.0,0.0,0.0,0.0,1.5955421
1440,6.35083,2,-0.99446905,-0.6405076,1.5906506,0.0,0.0,0.0,0.0,0.0,1.5955421
1441,6.3551025,2,-0.8658049,-0.7761781,1.4715042,0.0,0.0,0.0,0.0,0.0,1.5955421
1442,6.359375,2,-0.81627184,-0.61696947,1.4136496,0.0,0.0,0.0,0.0,0.0,1.5955421
1443,6.3636475,2,-0.8650807,-0.8770268,1.4776878,0.0,0.0,0.0,0.0,0.0,1.5955421
1444,6.36792,2,-0.85633045,-0.79365045,1.4649477,0.0,0.0,0.0,0.0,0.0,1.5955421
1445,6.3721924,2,-0.78448015,-0.9205835,1.4023304,0.0,0.0,0.0,0.0,0.0,1.5955421
1446,6.376465,2,-0.81352264,-0.6697581,1.4170475,0.0,0.0,0.0,0.0,0.0,1.5955421
1447,6.3807373,2,-0.7661838,-0.7207956,1.3742905,0.0,0.0,0.0,0.0,0.0,1.5955421
1448,6.38501,2,-0.97152853,-0.99166167,1.5929327,0.0,0.0,0.0,0.0,0.0,1.5955421
1449,6.389282,2,-0.63755846,-0.5532151,1.2362843,0.0,0.0,0.0,0.0,0.0,1.5955421
1450,6.3935547,2,-0.7721733,-0.65949583,1.3750744,0.0,0.0,0.0,0.0,0.0,1.5955421
1451,6.397827,2,-0.9007852,-0.8024025,1.5103292,0.0,0.0,0.0,0.0,0.0,1.5955421
1452,6.4020996,2,-0.85911655,-0.73947114,1.4642782,0.0,0.0,0.0,0.0,0.0,1.5955421
1453,6.406372,2,-0.73871315,-0.6557435,1.3422289,0.0,0.0,0.0,0.0,0.0,1.5955421
1454,6.4106445,2,-0.8710349,-0.7123059,1.4738178,0.0,0.0,0.0,0.0,0.0,1.5955421
1455,6.414917,2,-0.88548356,-0.6366236,1.4812784,0.0,0.0,0.0,0.0,0.0,1.5955421
1456,6.4191895,2,-0.8875785,-0.8096682,1.4919777,0.0,0.0,0.0,0.0,0.0,1.5955421
1457,6.423462,2,-0.8543893,-0.75540364,1.4557543,0.0,0.0,0.0,0.0,0.0,1.5955421
1458,6.4277344,2,-0.8611192,-0.889767,1.4709558,0.0,0.0,0.0,0.0,0.0,1.5955421
1459,6.432007,2,-0.86259574,-0.7995041,1.4675016,0.0,0.0,0.0,0.0,0.0,1.5955421
1460,6.4362793,2,-0.8644445,-0.96242595,1.4791336,0.0,0.0,0.0,0.0,0.0,1.5955421
1461,6.4405518,2,-0.94541126,-0.8024978,1.5491686,0.0,0.0,0.0,0.0,0.0,1.5955421
1462,6.444824,2,-0.8890073,-0.81306213,1.4942608,0.0,0.0,0.0,0.0,0.0,1.5955421
1463,6.4490967,2,-0.89298904,-0.94636333,1.5059013,0.0,0.0,0.0,0.0,0.0,1.5955421
1464,6.453369,2,-0.8433823,-0.80018306,1.4474926,0.0,0.0,0.0,0.0,0.0,1.5955421
1465,6.4576416,2,-0.84945685,-0.74680424,1.4496145,0.0,0.0,0.0,0.0,0.0,1.5955421
1466,6.461914,2,-0.7819451,-0.6677087,1.3770704,0.0,0.0,0.0,0.0,0.0,1.5955421
1467,6.4661865,2,-0.73291576,-0.8090026,1.3368311,0.0,0.0,0.0,0.0,0.0,1.5955421
1468,6.470459,2,-0.92843115,-0.85256326,1.5324507,0.0,0.0,0.0,0.0,0.0,1.5955421
1469,6.4747314,2,-0.8891856,-0.67242694,1.4783916,0.0,0.0,0.0,0.0,0.0,1.5955421
1470,6.479004,2,-0.7561279,-0.6580534,1.3459988,0.0,0.0,0.0,0.0,0.0,1.5955421
1471,6.4832764,2,-0.7561439,-0.65850896,1.3459568,0.0,0.0,0.0,0.0,0.0,1.5955421
1472,6.487549,2,-0.87846315,-0.7663772,1.4708014,0.0,0.0,0.0,0.0,0.0,1.5955421
1473,6.492096,2,-0.90758455,-0.7828131,1.5009375,0.0,0.0,0.0,0.0,0.0,1.5955421
1474,6.496643,2,-0.96049345,-0.75117636,1.5514708,0.0,0.0,0.0,0.0,0.0,1.5955421
1475,6.5012207,2,-0.86322343,-0.8281661,1.4606009,0.0,0.0,0.0,0.0,0.0,1.5955421
1476,6.505768,2,-0.96230376,-0.6667125,1.5475473,0.0,0.0,0.0,0.0,0.0,1.5955421
1477,6.5103455,2,-0.78151184,-0.75950444,1.375413,0.0,0.0,0.0,0.0,0.0,1.5955421
1478,6.5148926,2,-0.8589777,-0.8720395,1.458312,0.0,0.0,0.0,0.0,0.0,1.5955421
1479,6.51947,2,-0.8240224,-0.8783135,1.4236679,0.0,0.0,0.0,0.0,0.0,1.5955421
1480,6.5240173,2,-0.8647588,-0.9510976,1.4681644,0.0,0.0,0.0,0.0,0.0,1.5955421
1481,6.528595,2,-0.87757504,-0.86056376,1.4757318,0.0,0.0,0.0,0.0,0.0,1.5955421
1482,6.533142,2,-0.89827096,-0.6477402,1.4827528,0.0,0.0,0.0,0.0,0.0,1.5955421
1483,6.5377197,2,-0.9061599,-0.95435834,1.5124359,0.0,0.0,0.0,0.0,0.0,1.5955421
1484,6.542267,2,-0.943932,-1.0323308,1.5560131,0.0,0.0,0.0,0.0,0.0,1.5955421
1485,6.5468445,2,-0.8956135,-0.8291474,1.4963284,0.0,0.0,0.0,0.0,0.0,1.5955421
1486,6.5513916,2,-0.7626194,-0.97751033,1.3758278,0.0,0.0,0.0,0.0,0.0,1.5955421
1487,6.5559387,2,-0.8574043,-0.92751193,1.4657125,0.0,0.0,0.0,0.0,0.0,1.5955421
1488,6.5605164,2,-0.78687775,-0.81793964,1.3895311,0.0,0.0,0.0,0.0,0.0,1.5955421
1489,6.5650635,2,-0.87632704,-0.8597104,1.4800329,0.0,0.0,0.0,0.0,0.0,1.5955421
1490,6.569641,2,-0.8956112,-0.9262626,1.5044041,0.0,0.0,0.0,0.0,0.0,1.5955421
1491,6.574188,2,-0.8658305,-0.72887814,1.4638166,0.0,0.0,0.0,0.0,0.0,1.5955421
1492,6.578766,2,-0.83132786,-0.799698,1.4347458,0.0,0.0,0.0,0.0,0.0,1.5955421
1493,6.583313,2,-0.7976645,-0.8510189,1.4051161,0.0,0.0,0.0,0.0,0.0,1.5955421
1494,6.5878906,2,-0.8152947,-0.8040279,1.419179,0.0,0.0,0.0,0.0,0.0,1.5955421
1495,6.5924377,2,-0.7731278,-0.69154954,1.3705816,0.0,0.0,0.0,0.0,0.0,1.5955421
1496,6.5970154,2,-0.83379185,-0.64370465,1.4272394,0.0,0.0,0.0,0.0,0.0,1.5955421
1497,6.6015625,2,-0.79072315,-0.81991553,1.3957548,0.0,0.0,0.0,0.0,0.0,1.5955421
1498,6.60614,2,-0.86529005,-0.7121743,1.4659567,0.0,0.0,0.0,0.0,0.0,1.5955421
1499,6.6106873,2,-0.8842781,-0.7611157,1.4863834,0.0,0.0,0.0,0.0,0.0,1.5955421
1500,6.6152344,2,-0.85849863,-0.78326535,1.4616995,0.0,0.0,0.0,0.0,0.0,1.5955421
1501,6.619812,2,-0.7758531,-0.7101885,1.3742514,0.0,0.0,0.0,0.0,0.0,1.5955421
1502,6.624359,2,-0.8053263,-0.68507713,1.4030485,0.0,0.0,0.0,0.0,0.0,1.5955421
1503,6.628937,2,-0.79766417,-0.5592493,1.389595,0.0,0.0,0.0,0.0,0.0,1.5955421
1504,6.633484,2,-0.83666193,-0.6404629,1.434803,0.0,0.0,0.0,0.0,0.0,1.5955421
1505,6.6380615,2,-0.8609474,-0.7180457,1.4642334,0.0,0.0,0.0,0.0,0.0,1.5955421
1506,6.6426086,2,-0.82169086,-0.7637571,1.4277706,0.0,0.0,0.0,0.0,0.0,1.5955421
1507,6.6471863,2,-0.8237473,-0.7737504,1.4301167,0.0,0.0,0.0,0.0,0.0,1.5955421
1508,6.6517334,2,-0.9381465,-0.7932307,1.5439873,0.0,0.0,0.0,0.0,0.0,1.5955421
1509,6.656311,2,-0.83437985,-0.7668017,1.4393282,0.0,0.0,0.0,0.0,0.0,1.5955421
1510,6.660858,2,-0.91507316,-0.77108014,1.5188856,0.0,0.0,0.0,0.0,0.0,1.5955421
1511,6.665436,2,-0.9662146,-0.74605393,1.5675268,0.0,0.0,0.0,0.0,0.0,1.5955421
1512,6.6698,2,-0.8550507,-0.746416,1.4578695,0.0,0.0,0.0,0.0,0.0,1.5955421
1513,6.6740723,2,-0.8698191,-0.8614201,1.4775391,0.0,0.0,0.0,0.0,0.0,1.5955421
1514,6.6783447,2,-0.9053681,-0.6144608,1.4979811,0.0,0.0,0.0,0.0,0.0,1.5955421
1515,6.682617,2,-0.9430254,-0.75977015,1.5437717,0.0,0.0,0.0,0.0,0.0,1.5955421
1516,6.6868896,2,-0.8869276,-0.6710024,1.483324,0.0,0.0,0.0,0.0,0.0,1.5955421
1517,6.691162,2,-0.8822634,-0.69451356,1.479887,0.0,0.0,0.0,0.0,0.0,1.5955421
1518,6.6954346,2,-0.8681027,-0.5719954,1.4582224,0.0,0.0,0.0,0.0,0.0,1.5955421
1519,6.699707,2,-0.8386848,-0.84512836,1.4457397,0.0,0.0,0.0,0.0,0.0,1.5955421
1520,6.7039795,2,-0.94480604,-0.62130845,1.5390539,0.0,0.0,0.0,0.0,0.0,1.5955421
1521,6.7082725,2,-0.95239973,-0.6614642,1.5498457,0.0,0.0,0.0,0.0,0.0,1.5955421
1522,6.712545,2,-0.9201458,-0.79328144,1.5278463,0.0,0.0,0.0,0.0,0.0,1.5955421
