Time,Rot1,Rot2,Rot3,Rot4,Rot5,Rot6,Rot7,Rot8,Rot9,FRot1,FRot2,FRot3,FRot4,FRot5,FRot6,FRot7,FRot8,FRot9,AccX,AccY,AccZ,GravX,GravY,GravZ,GyroX,GyroY,GyroZ,MagX,MagY,MagZ,Imid
0.0,0.0,0.0,0.0,0.0,0.0,0.0,0.0,0.0,0.0,0.0,0.0,0.0,0.0,0.0,0.0,0.0,0.0,0.0,0.0,0.0,0.0,9.7960205,0.031723022,0.45324707,0.0,0.0,0.0,0.0,0.0,0.0,0
0.004425049,-0.045815617,0.20990053,0.97664875,-0.0065626185,-0.9777175,0.20982236,0.9989283,0.003203768,0.046172224,1.0,0.0,0.0,0.0,1.0,0.0,0.0,0.0,1.0,9.979019,-0.05744934,0.37348938,9.7960205,0.031417847,0.4527893,0.0,0.0,0.0,-30.921936,-23.078918,3.5095215,0
0.00881958,-0.04579884,0.20987889,0.9766542,-0.0065738633,-0.97772217,0.20980012,0.99892896,0.0031882103,0.04615825,0.9978211,0.0585459,-0.030420031,-0.058520388,0.9982847,0.0017290763,0.030469084,5.488323E-5,0.99953574,9.658203,0.02394104,0.3830719,9.7960205,0.03126526,0.45265198,-0.0021362305,0.004257202,0.0053253174,-30.921936,-23.078918,3.5095215,0
0.013244629,-0.045795605,0.20987469,0.9766551,-0.006588863,-0.977723,0.20979522,0.9989291,0.0031726507,0.046158254,0.9914656,0.115744,-0.059994765,-0.115543716,0.9932791,0.0068085957,0.0603796,1.8152961E-4,0.9981755,9.715668,-0.02394104,0.43572998,9.7960205,0.03111267,0.45265198,0.014907837,-0.0138549805,0.0010681152,-30.921936,-23.078918,3.5095215,0
0.017669678,-0.045338094,0.26289052,0.96375984,-0.009068727,-0.9648204,0.2627532,0.99893045,0.0031726551,0.0461272,0.9812255,0.17142777,-0.08836872,-0.17076379,0.98519665,0.0150764175,0.08964508,2.968126E-4,0.9959737,9.878464,0.03829956,0.41178894,9.7960205,0.03111267,0.4523468,0.012786865,-0.014923096,0.0010681152,-30.3833,-22.54181,4.7195435,0
0.022064209,-0.045338094,0.26289052,0.96375984,-0.009068727,-0.9648204,0.2627532,0.99893045,0.0031726551,0.0461272,0.9676531,0.2243906,-0.11531005,-0.22286247,0.9744992,0.026146108,0.1182365,3.9792067E-4,0.9929854,9.792282,0.028717041,0.43095398,9.7960205,0.03111267,0.4523468,0.010650635,-0.01171875,0.0053253174,-30.3833,-22.54181,4.7195435,0
0.026489258,-0.045310616,0.2628557,0.9637706,-0.0089951195,-0.96482974,0.2627217,0.9989325,0.0032348507,0.046081454,0.9509241,0.27564412,-0.1405832,-0.2727394,0.96125966,0.039913032,0.14613876,3.8831664E-4,0.989264,9.883255,0.19152832,0.34475708,9.796173,0.031723022,0.4519043,-0.013839722,-0.0063934326,0.01171875,-30.3833,-22.54181,4.7195435,0
0.030883789,-0.045370597,0.25248438,0.9665367,-0.008515439,-0.96759564,0.2523613,0.998934,0.0032192958,0.0460504,0.9313034,0.3251734,-0.16412248,-0.32032746,0.9456543,0.055931136,0.17339045,4.8407854E-4,0.984853,9.720444,-0.02394104,0.3830719,9.796173,0.031570435,0.45159912,0.008514404,-0.010665894,-0.0032043457,-30.204773,-24.154663,4.891968,0
0.035308838,-0.045421507,0.2525444,0.96651864,-0.008563774,-0.96757996,0.25241926,0.9989311,0.003188217,0.04611167,0.9090541,0.37302876,-0.18566163,-0.36561018,0.9278196,0.07402696,0.19987468,5.852703E-4,0.97982126,9.830582,-0.05265808,0.59854126,9.7960205,0.03126526,0.4521942,0.01171875,0.011703491,0.004257202,-30.204773,-24.154663,4.891968,0
0.039733887,-0.045377687,0.25249273,0.96653414,-0.008549834,-0.9675936,0.25236806,0.9989334,0.0031881747,0.046065934,0.8844903,0.41897932,-0.2052639,-0.40828896,0.9079956,0.09404351,0.225781,6.2642066E-4,0.9741779,9.98381,0.04788208,0.34954834,9.796173,0.03126526,0.4517517,-0.0010681152,-0.010665894,0.007446289,-30.204773,-24.154663,4.891968,0
0.044128418,-0.04529864,0.26003557,0.9645359,-0.008884624,-0.9655937,0.25990352,0.998934,0.0032037362,0.0460504,0.8578759,0.46303576,-0.22281583,-0.44836175,0.8863393,0.1156475,0.25103936,6.9089304E-4,0.9679766,9.806641,0.04788208,0.3878479,9.796173,0.031417847,0.45159912,0.0021209717,-0.015991211,-0.004272461,-29.48761,-22.003174,4.547119,0
0.048553467,-0.045261007,0.25998813,0.9645504,-0.008904331,-0.9656065,0.25985497,0.9989355,0.0031726216,0.046019353,0.82962453,0.5049597,-0.23819925,-0.48557633,0.86314267,0.13856556,0.27556995,7.065391E-4,0.96128076,9.897629,-0.04788208,0.3878479,9.796173,0.03111267,0.45129395,-0.006378174,-0.0021362305,0.007446289,-29.48761,-22.003174,4.547119,0
0.052947998,-0.045225266,0.25994313,0.9645643,-0.008923061,-0.96561885,0.25980896,0.99893695,0.0031430628,0.045989856,0.7999024,0.54493356,-0.2514032,-0.52013296,0.83847886,0.16252647,0.29936242,7.5779273E-4,0.9541392,9.749176,-0.02394104,0.36390686,9.796173,0.030822754,0.45100403,0.0010681152,0.015960693,0.0021209717,-29.48761,-22.003174,4.547119,0
0.057373047,-0.045020696,0.27647814,0.9599651,-0.009685075,-0.96101516,0.27632633,0.99893916,0.0031430698,0.04594328,0.76892096,0.58296824,-0.2625046,-0.5520397,0.8124945,0.18736291,0.32251015,8.4568193E-4,0.9465656,9.749176,0.03829956,0.34954834,9.796173,0.030822754,0.45054626,0.007446289,0.013824463,-0.007461548,-29.666138,-23.617554,5.4107666,0
0.061798096,-0.04503544,0.27649537,0.95995945,-0.009690179,-0.96101004,0.27634338,0.9989383,0.0031430672,0.045958802,0.7371487,0.6187576,-0.27157107,-0.58100593,0.78558147,0.21282361,0.34502742,9.017511E-4,0.93859214,9.76355,0.0335083,0.49319458,9.796173,0.030822754,0.45069885,0.0021209717,0.0095825195,-0.0010681152,-29.666138,-23.617554,5.4107666,0
0.066192627,-0.045011245,0.2764671,0.95996875,-0.0096672475,-0.96101826,0.27631608,0.99893975,0.0031570755,0.0459293,0.7046206,0.6526216,-0.27855858,-0.60738343,0.75768334,0.23874953,0.3668723,9.640284E-4,0.93027085,9.701294,0.06703186,0.3543396,9.796173,0.030960083,0.45040894,0.004257202,0.017028809,0.0,-29.666138,-23.617554,5.4107666,0
0.071166992,-0.04543707,0.22581154,0.9731108,-0.007309301,-0.9741659,0.2257151,0.99894047,0.003143074,0.045913775,0.67151886,0.6845939,-0.28353766,-0.631232,0.7289239,0.26498315,0.38808322,0.0010368549,0.92162377,9.753967,-0.02394104,0.42137146,9.796173,0.030822754,0.45025635,0.0063934326,0.018081665,-0.0021362305,-31.100464,-23.617554,4.0283203,0
0.076141357,-0.04541514,0.22578393,0.97311825,-0.0073347855,-0.97417253,0.22568622,0.99894136,0.003111957,0.045898255,0.6373486,0.71542937,-0.28626508,-0.6532672,0.6986843,0.29168877,0.40869159,0.001100154,0.9126719,9.859314,-0.05744934,0.40222168,9.796173,0.030517578,0.45010376,0.004257202,0.011703491,-0.0010681152,-31.100464,-23.617554,4.0283203,0
0.08114624,-0.045555003,0.22596,0.9730708,-0.0074077006,-0.97413164,0.22585955,0.9989343,0.003080816,0.04605042,0.60292923,0.7443924,-0.28697783,-0.672844,0.66774154,0.31843713,0.42866918,0.0010962463,0.90346086,9.787491,0.04788208,0.48840332,9.796173,0.030212402,0.45159912,-0.012771606,0.015960693,-0.0063934326,-31.100464,-23.617554,4.0283203,0
0.086120605,-0.045569986,0.22597887,0.97306573,-0.0074120965,-0.97412735,0.2258783,0.9989337,0.003080814,0.04606595,0.60292923,0.7443924,-0.28697783,-0.672844,0.66774154,0.31843713,0.42866918,0.0010962463,0.90346086,9.787491,0.04788208,0.48840332,9.796173,0.030212402,0.4517517,-0.012771606,0.015960693,-0.0063934326,-31.100464,-23.617554,4.0283203,0
0.091094971,-0.045337703,0.25475848,0.96594125,-0.00879232,-0.9669999,0.25462502,0.9989331,0.0030512488,0.04608148,0.5340755,0.7966388,-0.28307238,-0.70485586,0.60445434,0.37123182,0.46684203,0.0012593849,0.88433987,9.806641,0.12449646,0.30166626,9.796173,0.029922485,0.4519043,0.015975952,0.003189087,-0.007461548,-29.48761,-23.796082,4.891968,0
0.096069336,-0.045289643,0.25470245,0.96595836,-0.008730271,-0.9670145,0.2545716,0.9989357,0.0030963798,0.046019364,0.5340755,0.7966388,-0.28307238,-0.70485586,0.60445434,0.37123182,0.46684203,0.0012593849,0.88433987,9.806641,0.12449646,0.30166626,9.796173,0.03036499,0.45129395,0.015975952,0.003189087,-0.007461548,-29.48761,-23.796082,4.891968,0
0.101043701,-0.044806745,0.304404,0.95148855,-0.011071766,-0.95253795,0.30421832,0.9989343,0.0030963756,0.04605042,0.46687922,0.8411457,-0.27294287,-0.72753006,0.54080665,0.42217085,0.5027165,0.0014713695,0.8644501,9.859314,0.01914978,0.5219269,9.796173,0.03036499,0.45159912,0.017044067,0.018081665,0.0,-30.921936,-22.003174,5.583191,0
0.106018066,-0.044787508,0.3043792,0.95149744,-0.011080673,-0.95254594,0.30419302,0.99893504,0.003080818,0.04603489,0.43471107,0.86036676,-0.26607385,-0.7353809,0.5096731,0.44659624,0.5198473,0.001525297,0.8542578,9.854523,0.0143585205,0.42137146,9.796173,0.030212402,0.45144653,0.010650635,0.0053253174,0.0095825195,-30.921936,-22.003174,5.583191,0
0.110992432,-0.04482703,0.30443013,0.9514793,-0.011110585,-0.95252985,0.3042428,0.998933,0.0030668082,0.046081476,0.4030268,0.8781292,-0.25779548,-0.74149233,0.47842103,0.4704279,0.53643125,0.0015583152,0.8439426,9.821014,0.0,0.5602417,9.796173,0.030075073,0.4519043,-0.0021362305,0.006378174,-0.004272461,-30.921936,-22.003174,5.583191,0
0.115539551,-0.04530754,0.2584794,0.96495366,-0.008951784,-0.9660119,0.25834253,0.998933,0.0030668082,0.046081476,0.3719695,0.8944193,-0.24829978,-0.7459096,0.4472264,0.49356616,0.5525013,0.001617619,0.8335105,9.706085,0.0143585205,0.45489502,9.796173,0.030075073,0.4519043,0.0063934326,0.0021209717,-0.0010681152,-32.17621,-23.258972,4.7195435,0
0.119842529,-0.04533242,0.25851187,0.9649438,-0.008976095,-0.9660032,0.25837398,0.9989316,0.0030512917,0.046111695,0.34088227,0.90970904,-0.237126,-0.7490695,0.41524294,0.5162055,0.5680617,0.001658553,0.8229843,9.753967,-0.0143585205,0.5171356,9.7960205,0.029922485,0.4521942,0.003189087,0.0,0.0,-32.17621,-23.258972,4.7195435,0
0.124145508,-0.04528478,0.25844976,0.9649627,-0.008976405,-0.9660199,0.25831166,0.99893373,0.003035691,0.04606595,0.31054848,0.9235851,-0.22483362,-0.75072074,0.3833896,0.53798777,0.5830763,0.0017159726,0.81241554,9.725235,-0.01914978,0.3256073,9.796173,0.029769897,0.4517517,0.0063934326,0.011703491,-0.0032043457,-32.17621,-23.258972,4.7195435,0
0.128448486,-0.045269962,0.25843045,0.96496856,-0.008971484,-0.9660251,0.25829253,0.99893457,0.0030356934,0.04605043,0.28101727,0.9360917,-0.21156946,-0.7509207,0.35175145,0.55891776,0.59761816,0.0018063423,0.80177885,9.739609,0.0622406,0.40701294,9.796173,0.029769897,0.45159912,0.017044067,0.006378174,-0.0021362305,-32.17621,-23.258972,4.7195435,0
0.132751465,-0.045255143,0.25841114,0.96497446,-0.008966561,-0.9660303,0.25827336,0.9989352,0.0030356955,0.0460349,0.25231835,0.9473162,-0.19730034,-0.74978775,0.3202945,0.57899034,0.6116811,0.0018434948,0.79110223,9.840164,0.0,0.42616272,9.796173,0.029769897,0.45144653,-0.0010681152,0.006378174,-0.0063934326,-32.17621,-23.258972,4.7195435,0
0.137054443,-0.045295637,0.25846392,0.9649585,-0.008996101,-0.9660163,0.25832498,0.99893314,0.0030201296,0.046081483,0.22450376,0.9572858,-0.18221389,-0.7473802,0.28913713,0.59818274,0.6253166,0.001888781,0.78036886,9.777908,0.0,0.5746002,9.796173,0.02961731,0.4519043,0.003189087,-0.005340576,-0.004272461,-32.17621,-23.258972,4.7195435,0
0.141357422,-0.045611046,0.22301258,0.97374797,-0.0073238723,-0.9748109,0.22291297,0.9989325,0.0030356874,0.046095457,0.19760995,0.9660488,-0.16643336,-0.7437963,0.2583522,0.6164587,0.6385276,0.0019741505,0.76959646,9.907196,0.05265808,0.5027771,9.796173,0.029769897,0.45204163,0.018112183,-0.014923096,-0.0010681152,-28.770447,-22.720337,3.855896,0
0.1456604,-0.045587584,0.22298416,0.97375554,-0.007363361,-0.97481745,0.2228826,0.99893314,0.0029905662,0.046081483,0.171101,0.9738472,-0.1494861,-0.7392717,0.22719476,0.6339243,0.6513078,0.002045767,0.7588109,9.821014,-0.05744934,0.39743042,9.796173,0.029327393,0.4519043,0.012786865,-0.019180298,-0.0032043457,-28.770447,-22.720337,3.855896,0
0.149963379,-0.04560648,0.22300705,0.97374946,-0.0074165855,-0.9748123,0.22290312,0.9989319,0.0029439295,0.046111707,0.14557226,0.9805254,-0.13182853,-0.7337736,0.19638185,0.6503926,0.66361517,0.0020531714,0.7480714,9.859314,-0.10055542,0.55545044,9.7960205,0.028869629,0.4521942,-0.006378174,-0.0063934326,-0.0032043457,-28.770447,-22.720337,3.855896,0
0.154266357,-0.04556548,0.22365423,0.9736029,-0.0074689267,-0.9746642,0.22354849,0.99893343,0.0029143249,0.0460815,0.120981984,0.9861249,-0.11367093,-0.7273725,0.1659916,0.6658648,0.67549425,0.0021234602,0.73736215,9.792282,-0.04788208,0.36390686,9.796173,0.028579712,0.4519043,0.004257202,-0.0032043457,-0.0138549805,-30.563354,-24.513245,4.2007446,0
0.158569336,-0.0455286,0.2236103,0.97361475,-0.0074902177,-0.97467434,0.2235034,0.9989349,0.0028832096,0.046050444,0.09740133,0.9906981,-0.09502774,-0.72009534,0.13606116,0.68040437,0.68700486,0.002156745,0.72664964,9.8736725,-0.06703186,0.37348938,9.796173,0.028274536,0.45159912,-0.0032043457,-0.014923096,-0.009597778,-30.563354,-24.513245,4.2007446,0
0.162872314,-0.04549172,0.22356632,0.9736265,-0.0075115124,-0.9746846,0.22345832,0.99893653,0.0028520948,0.046019398,0.07487711,0.9942903,-0.0760275,-0.71207,0.10668659,0.6939555,0.6981043,0.0021755253,0.7159927,9.878464,-0.05265808,0.39743042,9.796173,0.02796936,0.45129395,0.007446289,-0.009597778,0.0063934326,-30.563354,-24.513245,4.2007446,0
0.167175293,-0.045139253,0.26665124,0.9627355,-0.009547083,-0.9637889,0.26649538,0.99893504,0.002838087,0.04605045,0.053341057,0.9969712,-0.05659643,-0.7033609,0.07774275,0.7065689,0.70882875,0.0021185817,0.7053774,9.7444,0.004776001,0.52671814,9.796173,0.027832031,0.45159912,-0.015960693,-0.01171875,0.007446289,-31.99768,-23.078918,4.891968,0
0.171478271,-0.045168795,0.26668963,0.9627234,-0.009557171,-0.96377826,0.26653343,0.9989337,0.002838083,0.046081506,0.033356488,0.99873555,-0.037611343,-0.6940112,0.05022613,0.7182101,0.719191,0.002145732,0.6948091,9.749176,0.0335083,0.49319458,9.796173,0.027832031,0.4519043,0.0021209717,-0.014923096,-0.0021362305,-31.99768,-23.078918,4.891968,0
0.17578125,-0.04517657,0.26669973,0.9627202,-0.009529184,-0.9637754,0.26654488,0.9989336,0.0028676463,0.046081502,0.014278649,0.9997282,-0.018428136,-0.68420875,0.023208462,0.7289169,0.7291464,0.0022007434,0.6843542,9.792282,0.10055542,0.46925354,9.796173,0.028121948,0.4519043,0.004257202,0.0010528564,-0.009597778,-31.99768,-23.078918,4.891968,0
0.180084228,-0.045763753,0.20346656,0.97801185,-0.0065686647,-0.9790777,0.20338094,0.9989307,0.0028832424,0.046142768,-0.0038437238,0.9999922,9.553771E-4,-0.6739428,-0.0032962859,0.7387762,0.7387735,0.002195782,0.6739502,9.768341,0.05744934,0.6033325,9.7960205,0.028274536,0.4524994,-0.007446289,-0.005340576,-0.0010681152,-31.100464,-24.693298,3.6819458,0
0.184387207,-0.045609005,0.20327857,0.9780581,-0.0065592425,-0.9791168,0.20319274,0.99893785,0.0028520986,0.045989897,-0.021907981,0.9995325,0.02132499,-0.6632351,-0.030491004,0.7477897,0.7480904,0.00223908,0.6635931,9.8736725,0.02394104,0.43572998,9.796173,0.02796936,0.45100403,0.013839722,-0.014923096,0.003189087,-31.100464,-24.693298,3.6819458,0
0.188690185,-0.04550809,0.20315596,0.9780884,-0.006516519,-0.9791423,0.20307168,0.99894273,0.0028676724,0.045882758,-0.039031744,0.99836445,0.041772325,-0.652103,-0.057124987,0.75597507,0.7571249,0.0022671698,0.6532662,9.854523,0.0143585205,0.46925354,9.796173,0.028121948,0.44995117,0.01171875,-0.030899048,0.0053253174,-31.100464,-24.693298,3.6819458,0
0.192993164,-0.04474346,0.29213047,0.95533127,-0.010688117,-0.9563742,0.29194883,0.99894136,0.0028521086,0.045913815,-0.055284213,0.9965239,0.062319886,-0.6406605,-0.08327634,0.76329494,0.7658315,0.002272274,0.6430374,9.792282,0.009567261,0.54107666,9.796173,0.02796936,0.45025635,-0.007446289,-0.026641846,-0.004272461,-29.307556,-22.183228,5.4107666,0
0.197296143,-0.044781912,0.29217732,0.9553152,-0.010716852,-0.95636,0.2919945,0.9989393,0.0028380991,0.045958843,-0.06943407,0.99426496,0.08133916,-0.6291585,-0.106920265,0.76988804,0.7741695,0.0022812379,0.63297415,9.730026,-0.02394104,0.56980896,9.796173,0.027832031,0.45069885,0.01171875,-0.004272461,0.010650635,-29.307556,-22.183228,5.4107666,0
0.201599121,-0.044691,0.29206648,0.95535326,-0.010699749,-0.9563939,0.2918841,0.9989436,0.0028225514,0.04586724,-0.08281492,0.9915,0.10034602,-0.6174277,-0.13008606,0.7757968,0.7822562,0.002291124,0.62295276,9.911987,0.01914978,0.49798584,9.796173,0.027679443,0.44979858,0.0021209717,-0.021316528,0.0021209717,-29.307556,-22.183228,5.4107666,0
0.2059021,-0.044884115,0.25909087,0.9648095,-0.009120988,-0.96584886,0.25894567,0.9989506,0.0028225316,0.045714434,-0.09542662,0.9882625,0.11929436,-0.6055498,-0.1527486,0.7810105,0.79006535,0.0022905113,0.6130184,9.821014,0.04788208,0.56980896,9.79631,0.027679443,0.44830322,-0.004257202,-0.024505615,0.0,-30.741882,-22.90039,4.7195435,0
0.210205078,-0.044646766,0.25879112,0.964901,-0.009121496,-0.9659294,0.25864488,0.99896115,0.0027463182,0.045486186,-0.1076753,0.98446983,0.13865522,-0.59343165,-0.17553905,0.7855094,0.7976497,0.0022975744,0.6031167,9.777908,-0.04788208,0.33039856,9.79631,0.026931763,0.44606018,0.0,-0.04475403,0.0010681152,-30.741882,-22.90039,4.7195435,0
0.214508057,-0.044679303,0.2588322,0.96488845,-0.009180504,-0.96591854,0.2586834,0.9989592,0.0026996331,0.045532778,-0.11912501,0.9802555,0.1578242,-0.5812543,-0.19772199,0.78933483,0.8049551,0.0022935204,0.59333134,9.720444,-0.0909729,0.5793915,9.79631,0.026473999,0.44651794,0.01171875,-0.041549683,0.012771606,-30.741882,-22.90039,4.7195435,0
0.218811035,-0.044843934,0.2216893,0.9740856,-0.007381672,-0.97511345,0.2215834,0.99896675,0.0027462908,0.045364365,-0.12992609,0.9756281,0.17683086,-0.5690894,-0.2194186,0.79245996,0.8119461,0.0023286552,0.5837278,9.811432,0.11491394,0.45968628,9.796463,0.026931763,0.44487,0.0063934326,-0.020248413,-0.0032043457,-31.459045,-22.54181,3.6819458,0
0.223114014,-0.044658538,0.22144118,0.97415066,-0.0072974004,-0.9751698,0.2213383,0.99897563,0.0027758789,0.045165602,-0.14044629,0.97042865,0.19632384,-0.5567397,-0.24137683,0.79484475,0.8187281,0.002331711,0.5741766,9.76355,0.0909729,0.30645752,9.796463,0.02722168,0.44291687,-0.0095825195,-0.03729248,-0.0053253174,-31.459045,-22.54181,3.6819458,0
0.227416992,-0.044401005,0.22109647,0.97424066,-0.0072529046,-0.9752481,0.22099455,0.9989875,0.002746305,0.044905588,-0.15025833,0.9648537,0.21559197,-0.54439884,-0.26277754,0.796604,0.82525903,0.0023283954,0.5647497,9.888046,0.004776001,0.28729248,9.796616,0.026931763,0.44036865,-0.0095825195,-0.03303528,-0.0032043457,-31.459045,-22.54181,3.6819458,0
0.231719971,-0.043329854,0.31504652,0.9480866,-0.0114763165,-0.94907224,0.31484953,0.99899495,0.0027618425,0.044738732,-0.15934512,0.95894843,0.23457856,-0.53205323,-0.28357112,0.79781383,0.831582,0.0023194635,0.5553972,9.864105,-0.0143585205,0.33517456,9.796768,0.02708435,0.43873596,0.0021209717,-0.043685913,0.0063934326,-30.3833,-22.54181,6.1019897,0
0.236022949,-0.043258693,0.31495932,0.9481188,-0.011448353,-0.94910115,0.3147633,0.99899834,0.0027618518,0.044662643,-0.16684368,0.9532861,0.25181094,-0.5201109,-0.3020599,0.79890203,0.8376442,0.0023221527,0.54621124,9.720444,0.03829956,0.25856018,9.796768,0.02708435,0.43798828,-0.017028809,-0.029830933,-0.009597778,-30.3833,-22.54181,6.1019897,0
0.240325928,-0.043119792,0.31478912,0.9481817,-0.011426562,-0.9491577,0.31459352,0.9990046,0.0027307493,0.04452444,-0.17379445,0.947403,0.26874325,-0.5083025,-0.3200343,0.7995039,0.84345955,0.0023464668,0.5371876,9.849731,0.028717041,0.44052124,9.796768,0.026779175,0.43663025,-0.006378174,-0.017044067,-0.008529663,-30.3833,-22.54181,6.1019897,0
0.244628906,-0.043235466,0.29092947,0.95576704,-0.01023247,-0.9567404,0.29076287,0.99901253,0.0027914115,0.044342052,-0.18013793,0.94132614,0.28540394,-0.49656492,-0.3374902,0.79970217,0.8491016,0.0023351118,0.52822435,9.878464,0.0,0.42616272,9.796921,0.027374268,0.43484497,0.0,-0.03303528,0.0053253174,-29.846191,-21.644592,5.2383423,0
0.248931885,-0.043011524,0.2906441,0.95586395,-0.010181432,-0.9568273,0.2904789,0.9990228,0.0027618762,0.044113778,-0.18628225,0.9348778,0.3021627,-0.48480728,-0.35496134,0.7993524,0.854553,0.0024144803,0.51935863,9.840164,-0.05744934,0.36869812,9.796921,0.02708435,0.43260193,0.0095825195,-0.03942871,-0.0138549805,-29.846191,-21.644592,5.2383423,0
0.253234863,-0.042799708,0.29037416,0.9559555,-0.010136623,-0.9569093,0.29021007,0.9990323,0.0027307444,0.043898854,-0.19186227,0.9282483,0.31865963,-0.4731736,-0.37195316,0.7985972,0.859823,0.0024393704,0.5105863,9.76355,-0.07661438,0.37348938,9.797058,0.026779175,0.43049622,0.0063934326,-0.045806885,-0.0010681152,-29.846191,-21.644592,5.2383423,0
0.257537842,-0.043237157,0.22975089,0.9722886,-0.007387755,-0.97324556,0.2296485,0.9990375,0.0027463185,0.043777715,-0.19698615,0.92144746,0.3348596,-0.46169665,-0.388495,0.79743826,0.8648888,0.0024807216,0.50195736,9.840164,0.02394104,0.4165802,9.797058,0.026931763,0.42930603,0.007446289,-0.03942871,-0.0053253174,-31.100464,-22.90039,4.0283203,0
0.26184082,-0.043079212,0.22954613,0.972344,-0.00738896,-0.9732941,0.22944307,0.99904436,0.0026996152,0.043624848,-0.20223497,0.9139568,0.35182944,-0.45016897,-0.40580392,0.7954063,0.8697408,0.0024762633,0.49350274,9.768341,-0.07182312,0.33996582,9.797211,0.026473999,0.42781067,-0.013839722,-0.02557373,-0.0053253174,-31.100464,-22.90039,4.0283203,0
0.266143799,-0.042924613,0.22934572,0.9723981,-0.0073113237,-0.97334117,0.22924541,0.9990515,0.0027307542,0.043457117,-0.20697364,0.9063198,0.36843765,-0.43879837,-0.42258528,0.793018,0.8744243,0.0024640062,0.4851557,9.878464,0.0622406,0.30166626,9.797211,0.026779175,0.42616272,-0.004257202,-0.028762817,0.0021209717,-31.100464,-22.90039,4.0283203,0
0.270446777,-0.04289599,0.23018965,0.9721999,-0.0073752175,-0.9731421,0.23008731,0.99905235,0.0026996369,0.04344159,-0.21129224,0.8985462,0.38466904,-0.42759636,-0.43887177,0.7902866,0.87892944,0.0024983245,0.4769453,9.811432,-0.04788208,0.36390686,9.797211,0.026473999,0.42601013,0.0063934326,-0.024505615,-0.004272461,-29.666138,-22.54181,4.0283203,0
0.274749756,-0.042789184,0.2300556,0.9722363,-0.007295915,-0.97317356,0.22995628,0.9990575,0.0027462877,0.04331977,-0.2151684,0.89065254,0.40055045,-0.4166277,-0.45467776,0.7872036,0.88324624,0.0025009178,0.46890283,9.753967,-0.028717041,0.43095398,9.797363,0.026931763,0.42481995,0.003189087,-0.012786865,0.0021209717,-29.666138,-22.54181,4.0283203,0
0.279052734,-0.04278564,0.23005116,0.9722376,-0.0073108487,-0.9731748,0.2299512,0.9990576,0.0027307284,0.043319777,-0.21867962,0.8826335,0.41609767,-0.40576392,-0.4700547,0.78383934,0.88743156,0.002572282,0.46093222,9.749176,-0.02394104,0.41178894,9.797363,0.026779175,0.42481995,0.0053253174,-0.02557373,-0.014923096,-29.666138,-22.54181,4.0283203,0
0.283355713,-0.042659286,0.23735522,0.9704858,-0.0075988695,-0.9714191,0.23724945,0.9990608,0.0027462968,0.043243673,-0.22177361,0.87453353,0.43128595,-0.395134,-0.48495805,0.78018254,0.89145136,0.0026081575,0.45310885,9.739609,-0.06703186,0.49798584,9.797363,0.026931763,0.42407227,0.008514404,-0.019180298,-0.004272461,-30.02472,-24.693298,4.7195435,0
0.287658691,-0.042610776,0.23729925,0.9705016,-0.0076004453,-0.97143275,0.23719323,0.99906284,0.0027307428,0.043197084,-0.22446595,0.86642325,0.44601095,-0.3847118,-0.4993031,0.77633315,0.89532775,0.002674677,0.44539982,9.7348175,0.0,0.27772522,9.797363,0.026779175,0.4236145,0.010650635,-0.021316528,-0.01171875,-30.02472,-24.693298,4.7195435,0
0.29196167,-0.042496644,0.23716758,0.9705388,-0.007614534,-0.97146505,0.23706052,0.9990676,0.002684076,0.043089926,-0.22680978,0.85823125,0.46043083,-0.37456128,-0.5132563,0.77218646,0.8990335,0.0026798726,0.43787172,9.768341,-0.07661438,0.15322876,9.797363,0.026321411,0.42256165,-0.0021362305,-0.005340576,-0.0021362305,-30.02472,-24.693298,4.7195435,0
0.296264648,-0.042003796,0.28762034,0.956823,-0.00984515,-0.9577408,0.28746402,0.9990689,0.002654516,0.04306042,-0.22875582,0.8499888,0.47454163,-0.3646052,-0.52679414,0.7678222,0.9026261,0.0026234593,0.43041757,9.792282,-0.07182312,0.34954834,9.797363,0.026031494,0.42227173,-0.006378174,-0.017044067,0.01171875,-31.100464,-22.54181,5.4107666,0
0.300567627,-0.04197379,0.28758204,0.95683575,-0.009834377,-0.9577522,0.2874261,0.9990703,0.0026544782,0.043028686,-0.2301017,0.8422535,0.48750624,-0.35511705,-0.5390754,0.76373404,0.9060602,0.0026147256,0.42314073,9.821014,0.01914978,0.33517456,9.797516,0.026031494,0.42196655,-0.007446289,-0.0021362305,-0.0010681152,-31.100464,-22.54181,5.4107666,0
0.304870605,-0.04197965,0.28758952,0.9568333,-0.0098689515,-0.9577502,0.2874321,0.99906975,0.0026233573,0.04304422,-0.23121527,0.8345159,0.5001227,-0.34584406,-0.5509776,0.75948375,0.90935767,0.0026397777,0.4160068,9.840164,-0.0335083,0.46925354,9.797516,0.025726318,0.42211914,0.0021209717,0.004257202,-0.0053253174,-31.100464,-22.54181,5.4107666,0
0.309173584,-0.042861536,0.17161849,0.9842306,-0.0047746412,-0.9851598,0.1715726,0.99906963,0.0026545178,0.043044887,-0.23203959,0.8268087,0.5123914,-0.3367606,-0.5624768,0.75512385,0.9125513,0.002665387,0.40895352,9.710876,0.0909729,0.42137146,9.797363,0.026031494,0.42211914,0.017044067,-0.005340576,0.0010681152,-30.563354,-23.796082,2.8182983,0
0.313476562,-0.04282781,0.17157625,0.9842396,-0.004782706,-0.9851673,0.17152987,0.99907094,0.0026389202,0.043013155,-0.23345782,0.81767887,0.5262117,-0.32738158,-0.5756685,0.7492844,0.9155975,0.0026542796,0.40208733,9.801849,0.0143585205,0.33517456,9.797516,0.025878906,0.42181396,-0.006378174,0.012756348,0.0,-30.563354,-23.796082,2.8182983,0
0.317779541,-0.042861536,0.17161849,0.9842306,-0.0047746412,-0.9851598,0.1715726,0.99906963,0.0026545178,0.043044887,-0.23460113,0.8085688,0.53960985,-0.31821936,-0.58839554,0.74332166,0.91853076,0.002669802,0.39534053,9.849731,0.06703186,0.51234436,9.797363,0.026031494,0.42211914,0.01171875,0.013824463,0.0010681152,-30.563354,-23.796082,2.8182983,0
0.322082519,-0.042638496,0.22135435,0.9742609,-0.006958834,-0.97518986,0.22126086,0.9990663,0.002654509,0.043120988,-0.23548345,0.7994381,0.5526719,-0.30927163,-0.6007425,0.73719704,0.9213569,0.0026719528,0.38870844,9.787491,0.004776001,0.6033325,9.797363,0.026031494,0.42286682,0.0063934326,0.013824463,0.0021209717,-29.846191,-22.720337,3.855896,0
0.326385498,-0.042601656,0.22130801,0.974273,-0.006980245,-0.9752004,0.22121345,0.9990677,0.002623393,0.04308993,-0.23581883,0.7909182,0.56465745,-0.3007237,-0.61191607,0.7315218,0.92409676,0.0027007286,0.38214913,9.806641,-0.05265808,0.34954834,9.797363,0.025726318,0.42256165,0.0053253174,0.003189087,-0.0053253174,-29.846191,-22.720337,3.855896,0
0.330688477,-0.042595174,0.22129987,0.9742752,-0.007008694,-0.97520244,0.22120407,0.9990679,0.0025938298,0.043089937,-0.23591633,0.7824521,0.57629174,-0.2923708,-0.6227048,0.725781,0.9267485,0.0027327049,0.37567237,9.682144,-0.0622406,0.43095398,9.797363,0.025436401,0.42256165,0.018112183,-0.004272461,-0.0010681152,-29.846191,-22.720337,3.855896,0
0.334991455,-0.042559836,0.22125539,0.9742867,-0.0070305346,-0.97521245,0.2211585,0.99906915,0.002562713,0.043060426,-0.23584549,0.7739687,0.5876642,-0.28422692,-0.63321775,0.71989596,0.9292965,0.0027542245,0.36932433,9.682144,-0.0335083,0.33039856,9.797363,0.025131226,0.42227173,0.0021209717,0.0,-0.0053253174,-29.846191,-22.720337,3.855896,0
0.339294434,-0.042595174,0.22129987,0.9742752,-0.007008694,-0.97520244,0.22120407,0.9990679,0.0025938298,0.043089937,-0.23559365,0.7654999,0.59875333,-0.2762602,-0.64343,0.71391743,0.93175954,0.0027826885,0.36306518,9.82579,0.10055542,0.48362732,9.797363,0.025436401,0.42256165,-0.0032043457,-0.005340576,-0.009597778,-29.846191,-22.720337,3.855896,0
0.343597412,-0.042566653,0.22126399,0.97428447,-0.00700059,-0.97521055,0.22116844,0.99906915,0.002593833,0.043060426,-0.23515223,0.75710785,0.6095007,-0.26851976,-0.65328383,0.7078964,0.9341309,0.0028004518,0.3569196,9.806641,0.028717041,0.36390686,9.797363,0.025436401,0.42227173,0.008514404,-0.004272461,-0.0021362305,-29.846191,-22.720337,3.855896,0
0.349121094,-0.042787302,0.18145159,0.9824686,-0.005245543,-0.98339635,0.18139449,0.9990704,0.0026077994,0.04302869,-0.2345163,0.74873036,0.62000406,-0.26101238,-0.66286904,0.7017672,0.93641585,0.0027471103,0.3508815,9.701294,0.03829956,0.32081604,9.797516,0.02557373,0.42196655,-0.007446289,-0.004272461,0.0095825195,-31.6391,-22.720337,2.8182983,0
0.354644775,-0.04281577,0.1814902,0.98246026,-0.0052667074,-0.98338944,0.18143232,0.99906915,0.002593833,0.043060426,-0.23390442,0.7399232,0.6307158,-0.25345287,-0.6726858,0.6951658,0.93864286,0.0027456372,0.34487984,9.662994,-0.004776001,0.5027771,9.797363,0.025436401,0.42227173,0.014907837,-0.017044067,0.0053253174,-31.6391,-22.720337,2.8182983,0
0.360198975,-0.042707685,0.18134363,0.98249197,-0.0052560745,-0.9834164,0.18128577,0.9990738,0.002578245,0.042952597,-0.23317082,0.7311313,0.64115393,-0.24612802,-0.68223137,0.68846303,0.94077224,0.0027235548,0.33902836,9.844955,0.028717041,0.46446228,9.797516,0.025283813,0.42121887,0.004257202,-0.008529663,0.0053253174,-31.6391,-22.720337,2.8182983,0
0.365722656,-0.042222895,0.25290072,0.9665705,-0.008374617,-0.9674889,0.2527752,0.99907315,0.0025782431,0.042968128,-0.23224767,0.7224136,0.6512907,-0.23893145,-0.69145584,0.6817629,0.94285357,0.0027239786,0.33319634,9.801849,0.0143585205,0.45489502,9.797516,0.025283813,0.42137146,0.010650635,-0.024505615,0.003189087,-29.846191,-22.361755,4.547119,0
0.371154785,-0.042124223,0.2527765,0.9666073,-0.008327043,-0.96752125,0.25265262,0.9990777,0.0025938146,0.04286096,-0.2308962,0.71475315,0.66016275,-0.23231506,-0.6993716,0.6759505,0.9448368,0.0027086542,0.32753015,9.749176,0.11012268,0.45489502,9.797516,0.025436401,0.4203186,0.0021209717,-0.012786865,0.003189087,-29.846191,-22.361755,4.547119,0
0.375671387,-0.042034116,0.25266308,0.9666409,-0.008314365,-0.96755093,0.25253937,0.99908155,0.002578265,0.042770877,-0.22940087,0.7072088,0.66875327,-0.22582877,-0.7069995,0.67018884,0.9467717,0.0027181825,0.3218944,9.888046,-0.009567261,0.46446228,9.797516,0.025283813,0.4194336,0.015975952,-0.026641846,0.003189087,-29.846191,-22.361755,4.547119,0
0.380004883,-0.042042945,0.23180225,0.971854,-0.007354552,-0.9727594,0.23170006,0.9990887,0.002593803,0.042602476,-0.22785822,0.69967777,0.6771497,-0.21952455,-0.71445346,0.6643533,0.94862515,0.0027273723,0.3163905,9.710876,0.004776001,0.31123352,9.797668,0.025436401,0.41778564,0.0021209717,-0.024505615,-0.0021362305,-30.204773,-21.644592,3.855896,0
0.384338379,-0.04190374,0.23161694,0.97190416,-0.0074073197,-0.9728039,0.231512,0.99909425,0.0025020146,0.042479787,-0.2263304,0.6918783,0.68562305,-0.21327792,-0.72200894,0.6581912,0.9504142,0.0027404253,0.31097493,9.897629,-0.11491394,0.34954834,9.797668,0.024536133,0.4165802,-0.007446289,-0.027709961,-0.0063934326,-30.204773,-21.644592,3.855896,0
0.388671875,-0.041790638,0.23146637,0.971945,-0.007357644,-0.9728398,0.2313631,0.9990993,0.002517587,0.042358637,-0.22469735,0.6841571,0.6938589,-0.20726635,-0.7293297,0.6520114,0.95213014,0.0026916405,0.3056812,9.739609,0.05744934,0.52671814,9.797668,0.02468872,0.41539,-0.010635376,-0.021316528,0.007446289,-30.204773,-21.644592,3.855896,0
0.393005371,-0.041384943,0.26394868,0.96364844,-0.008670624,-0.96453315,0.26381865,0.9991056,0.002562687,0.04220576,-0.22296779,0.6765531,0.7018271,-0.20135961,-0.7363889,0.64589906,0.95380276,0.002695058,0.30042148,9.730026,0.0909729,0.27772522,9.797821,0.025131226,0.41389465,0.0053253174,-0.036224365,0.0,-30.3833,-23.258972,5.065918,0
0.397338867,-0.0413957,0.26396185,0.9636443,-0.008690287,-0.96452963,0.26383105,0.999105,0.0025471258,0.042221293,-0.22109784,0.66946936,0.7091731,-0.19579172,-0.74283475,0.6402048,0.95539594,0.0026976797,0.29531574,9.811432,0.009567261,0.42137146,9.797821,0.024978638,0.41404724,-0.012771606,-0.021316528,-0.0053253174,-30.3833,-23.258972,5.065918,0
0.401672363,-0.04127764,0.26381737,0.963689,-0.00871427,-0.9645694,0.26368514,0.9991097,0.0024864543,0.042114127,-0.21921356,0.6625631,0.71620923,-0.19045785,-0.74900126,0.6346045,0.95690715,0.0027062504,0.29038158,9.706085,-0.004776001,0.34954834,9.797821,0.024383545,0.41299438,0.015975952,-0.0021362305,0.0021209717,-30.3833,-23.258972,5.065918,0
0.406005859,-0.04135289,0.2540135,0.9663162,-0.008275873,-0.96719736,0.253891,0.9991103,0.0025020158,0.042098593,-0.21721232,0.6556621,0.7231362,-0.18525703,-0.7550497,0.6289513,0.9583833,0.002649896,0.28547212,9.892838,0.05265808,0.37828064,9.797821,0.024536133,0.4128418,-0.010635376,-0.018112183,0.0095825195,-30.3833,-22.90039,4.7195435,0
0.410339355,-0.041367754,0.2540321,0.96631074,-0.008280618,-0.9671926,0.25390944,0.9991097,0.0025020142,0.042114127,-0.21531111,0.64874196,0.72991437,-0.1801615,-0.76100373,0.6232297,0.9597827,0.0026858,0.28073087,9.897629,0.0335083,0.45489502,9.797821,0.024536133,0.41299438,0.010650635,0.0010528564,-0.0063934326,-30.3833,-22.90039,4.7195435,0
0.414672852,-0.04130979,0.25395963,0.96633226,-0.008262121,-0.9672116,0.25383753,0.99911225,0.0025020207,0.04205355,-0.21331774,0.6418716,0.73654354,-0.17526929,-0.7668077,0.61748415,0.96113276,0.0026268577,0.27607405,9.715668,-0.009567261,0.28729248,9.797821,0.024536133,0.4123993,-0.006378174,0.0,0.01171875,-30.3833,-22.90039,4.7195435,0
0.419006348,-0.041042816,0.27358177,0.96097267,-0.009138072,-0.9618457,0.27344003,0.99911565,0.0024413115,0.041976865,-0.21130086,0.635081,0.7429833,-0.17041056,-0.77244097,0.6117967,0.96245116,0.0026609641,0.27144197,9.76355,0.07182312,0.33517456,9.797958,0.02394104,0.4116516,-0.0021362305,-0.014923096,-0.009597778,-30.741882,-23.617554,5.4107666,0
0.423339844,-0.04098374,0.27351016,0.9609957,-0.00911801,-0.96186614,0.27336904,0.99911827,0.0024413178,0.041914735,-0.20912291,0.62875915,0.74895227,-0.16587397,-0.77759576,0.60649043,0.96371853,0.0025993516,0.26690787,9.811432,0.04788208,0.27293396,9.797958,0.02394104,0.41104126,0.010650635,-0.01171875,0.017028809,-30.741882,-23.617554,5.4107666,0
0.42767334,-0.040932495,0.27344796,0.9610154,-0.00913294,-0.96188366,0.273306,0.9991202,0.002410203,0.041869693,-0.2070284,0.6225303,0.7547154,-0.16139571,-0.78259116,0.60125077,0.96493036,0.0026681623,0.26249233,9.768341,-0.07661438,0.27293396,9.797958,0.023635864,0.41059875,0.02130127,-0.0032043457,-0.01171875,-30.741882,-23.617554,5.4107666,0
0.432006836,-0.04109951,0.25058386,0.9672221,-0.00818298,-0.96809196,0.25046152,0.99912155,0.0023790868,0.04183863,-0.20494999,0.61634743,0.7603364,-0.15714936,-0.7874699,0.5959827,0.96607435,0.0026602545,0.25825056,9.792282,-0.05744934,0.31602478,9.797958,0.023330688,0.41029358,0.0053253174,0.01914978,0.0021209717,-30.741882,-23.258972,4.7195435,0
0.436340332,-0.041089974,0.25057197,0.96722555,-0.00816392,-0.96809506,0.2504504,0.99912214,0.002394648,0.04182465,-0.20286131,0.60984737,0.7661159,-0.1528967,-0.79251456,0.59037554,0.96719694,0.0026277623,0.2540142,9.878464,0.08618164,0.37348938,9.797958,0.023483276,0.41015625,-0.004257202,0.0010528564,0.0053253174,-30.741882,-23.258972,4.7195435,0
0.440673828,-0.041096043,0.25057954,0.9672234,-0.008196341,-0.96809316,0.2504566,0.99912155,0.002365083,0.04183863,-0.20078675,0.60346055,0.7716995,-0.148809,-0.7973887,0.58483094,0.9682668,0.002590477,0.24990544,9.811432,-0.05265808,0.48362732,9.797958,0.02319336,0.41029358,0.0021209717,0.012756348,0.008514404,-30.741882,-23.258972,4.7195435,0
0.445007324,-0.041196734,0.23877385,0.9702009,-0.0077443654,-0.9710724,0.2386595,0.99912107,0.0023184025,0.04185417,-0.19869225,0.59719396,0.7770976,-0.14476472,-0.8020925,0.5793882,0.96931136,0.0026236183,0.24582219,9.883255,-0.09576416,0.4740448,9.797958,0.022735596,0.41044617,0.014907837,0.0,-0.0053253174,-31.817627,-23.258972,4.373169,0
0.44934082,-0.041204084,0.2387834,0.9701982,-0.007714578,-0.97106993,0.23867032,0.99912095,0.002349522,0.041854165,-0.19659148,0.5908662,0.78245056,-0.14081043,-0.80676526,0.5738486,0.9703217,0.0026365437,0.24180332,9.768341,0.11491394,0.42137146,9.797958,0.023040771,0.41044617,0.026626587,-0.0032043457,0.0021209717,-31.817627,-23.258972,4.373169,0
0.453674316,-0.04120041,0.23877864,0.97019964,-0.0077294717,-0.9710712,0.2386649,0.99912095,0.0023339621,0.041854165,-0.19445266,0.5845405,0.78771853,-0.13695347,-0.81136024,0.5682766,0.97130424,0.0026220793,0.23782602,9.648621,-0.009567261,0.3878479,9.797958,0.022888184,0.41044617,0.0,-0.01171875,0.0021209717,-31.817627,-23.258972,4.373169,0
0.458007812,-0.04052156,0.30651563,0.9510028,-0.010615102,-0.95186293,0.30634058,0.9991224,0.0023184055,0.04182466,-0.19232784,0.57824963,0.7928666,-0.13322817,-0.8158558,0.5626984,0.972245,0.0025904186,0.23395093,9.797058,-0.028717041,0.34475708,9.797958,0.022735596,0.41015625,-0.017028809,-0.005340576,0.0021209717,-30.02472,-23.976135,6.4483643,0
0.462341309,-0.04041142,0.30638987,0.95104796,-0.010606486,-0.95190334,0.30621478,0.9991268,0.0022872963,0.041717485,-0.18998584,0.57328814,0.79702324,-0.12983985,-0.81934965,0.5583975,0.9731634,0.0026022247,0.2301005,9.830582,-0.04788208,0.34475708,9.797958,0.02243042,0.4091034,0.008514404,-0.017044067,-0.0021362305,-30.02472,-23.976135,6.4483643,0
0.466674805,-0.040407185,0.306385,0.9510496,-0.010619599,-0.95190495,0.30620936,0.9991269,0.0022732925,0.04171749,-0.18763568,0.56842846,0.80105054,-0.12655844,-0.8227286,0.55416656,0.9740512,0.0026017148,0.22631264,9.749176,0.004776001,0.4165802,9.797958,0.02229309,0.4091034,0.014907837,-0.019180298,0.0021209717,-30.02472,-23.976135,6.4483643,0
0.471008301,-0.040695492,0.26383665,0.9637085,-0.00887176,-0.9645649,0.2636965,0.9991322,0.0021814674,0.04159414,-0.18534169,0.56360435,0.8049836,-0.12338614,-0.8260408,0.5499386,0.974897,0.0026027288,0.22264074,9.840164,-0.06703186,0.36390686,9.798111,0.021392822,0.40789795,0.003189087,-0.008529663,-0.0010681152,-29.129028,-22.361755,4.891968,0
0.475341797,-0.040557,0.26366767,0.9637607,-0.008858558,-0.9646113,0.2635276,0.999138,0.0021503603,0.041457452,-0.18308772,0.5581171,0.809311,-0.12015702,-0.82975835,0.54503524,0.97572595,0.002544868,0.21898025,9.835373,-0.004776001,0.33039856,9.798111,0.021087646,0.40655518,-0.0010681152,-0.022384644,0.01171875,-29.129028,-22.361755,4.891968,0
0.479675293,-0.040498227,0.2635959,0.9637827,-0.008902144,-0.9646311,0.26345387,0.99914,0.0020896816,0.041412413,-0.18085203,0.5527149,0.8135102,-0.116998576,-0.83336663,0.5401957,0.97652644,0.0025159435,0.21538289,9.859314,-0.13406372,0.28729248,9.798111,0.020492554,0.40611267,0.0010681152,-0.0234375,0.0053253174,-29.129028,-22.361755,4.891968,0
0.484008789,-0.041110884,0.1806974,0.9826792,-0.005414339,-0.98353654,0.18062854,0.99913996,0.0021052412,0.041412413,-0.17869042,0.5473787,0.81758565,-0.11390783,-0.83688116,0.5354017,0.9772895,0.002541751,0.21189336,9.7827,0.05265808,0.39263916,9.798111,0.020645142,0.40611267,-0.0010681152,-0.0138549805,-0.008529663,-30.921936,-22.361755,2.8182983,0
0.488342285,-0.040989805,0.18053438,0.9827141,-0.005478373,-0.9835665,0.18046248,0.99914455,0.0020134475,0.04130524,-0.17673373,0.540714,0.8224315,-0.110623,-0.8412026,0.5292832,0.97802234,0.0025623704,0.20848428,9.816223,-0.06703186,0.37348938,9.798111,0.019744873,0.4050598,0.003189087,-0.010665894,-0.0063934326,-30.921936,-22.361755,2.8182983,0
0.492675781,-0.041014556,0.18056771,0.982707,-0.005515957,-0.98356056,0.18049432,0.9991433,0.0019823255,0.041336305,-0.17470375,0.5341782,0.82712287,-0.10748173,-0.8453682,0.5232593,0.97873706,0.0025147605,0.20510338,9.7827,-0.05744934,0.48840332,9.798111,0.019439697,0.405365,0.008514404,-0.019180298,0.010650635,-30.921936,-22.361755,2.8182983,0
0.497009277,-0.040821616,0.20772167,0.9773358,-0.0066899233,-0.9781861,0.20762296,0.99914414,0.0019372033,0.041320782,-0.17273971,0.52773225,0.8316608,-0.1044376,-0.8494071,0.5173011,0.979415,0.0025017858,0.20184141,9.696503,-0.1197052,0.36390686,9.798111,0.018997192,0.4052124,0.007446289,-0.0063934326,0.0021209717,-28.770447,-23.796082,3.855896,0
0.501342773,-0.040800136,0.2076967,0.97734207,-0.006716067,-0.9781915,0.20759685,0.9991448,0.0019060848,0.041305248,-0.17073672,0.5218604,0.8357695,-0.10160908,-0.8530273,0.5118789,0.98006356,0.0024747562,0.19866884,9.76355,-0.06703186,0.3543396,9.798111,0.018692017,0.4050598,0.007446289,0.0,0.0053253174,-28.770447,-23.796082,3.855896,0
0.505676269,-0.040752906,0.2076418,0.9773556,-0.0067179995,-0.9782031,0.20754173,0.99914676,0.0018920553,0.041259564,-0.16873701,0.5160718,0.8397605,-0.09884971,-0.85654175,0.50652236,0.98069185,0.0024589903,0.19554386,9.667786,-0.02394104,0.27772522,9.798264,0.018554688,0.4046173,0.0053253174,-0.0032043457,0.0021209717,-28.770447,-23.796082,3.855896,0
0.510009766,-0.040485177,0.25083098,0.9671838,-0.008553491,-0.968029,0.25069213,0.99914354,0.0018765187,0.041336317,-0.16677761,0.51031244,0.84366256,-0.096209675,-0.8599857,0.50116694,0.98128945,0.0024149271,0.19252335,9.806641,0.07182312,0.28250122,9.798111,0.0184021,0.405365,-0.012771606,0.007446289,0.0053253174,-30.563354,-23.796082,4.891968,0
0.514343262,-0.04047361,0.250817,0.96718806,-0.008598053,-0.9680328,0.25067627,0.9991436,0.0018298393,0.04133632,-0.16482048,0.5055363,0.8469163,-0.09385689,-0.862802,0.496753,0.98184776,0.0023861325,0.18965551,9.739609,-0.06703186,0.4165802,9.798111,0.017944336,0.405365,0.02130127,0.029800415,0.008514404,-30.563354,-23.796082,4.891968,0
0.518676758,-0.040470306,0.250813,0.96718925,-0.008548839,-0.9680338,0.2506743,0.9991442,0.00187652,0.041320782,-0.1627855,0.5007993,0.85011816,-0.09147372,-0.8655601,0.49238014,0.98241204,0.002388873,0.18671061,9.768341,0.11491394,0.36390686,9.798111,0.0184021,0.4052124,0.01171875,-0.0021362305,-0.0010681152,-30.563354,-23.796082,4.891968,0
0.523010254,-0.040713776,0.22251703,0.97407836,-0.0073853144,-0.974927,0.22240223,0.99914354,0.0018609589,0.041336317,-0.1608592,0.4961046,0.8532318,-0.08919165,-0.86825943,0.48802704,0.98293906,0.002402481,0.18391591,9.797058,-0.01914978,0.42616272,9.798111,0.018249512,0.405365,0.0021209717,0.020217896,-0.0053253174,-30.741882,-23.258972,4.0283203,0
0.52734375,-0.040680345,0.22247475,0.9740893,-0.00739179,-0.97493666,0.22235958,0.99914485,0.0018454015,0.04130525,-0.15895465,0.49098107,0.856546,-0.08690537,-0.871167,0.4832344,0.9834536,0.0023739126,0.18114494,9.739609,-0.004776001,0.3543396,9.798111,0.018096924,0.4050598,0.0,0.012756348,0.004257202,-30.741882,-23.258972,4.0283203,0
0.531677246,-0.040765412,0.22258231,0.9740612,-0.007431846,-0.9749121,0.22246571,0.99914104,0.0018298347,0.041396897,-0.15702203,0.4860415,0.85971373,-0.084648706,-0.8739324,0.4786195,0.9839607,0.0023801548,0.17836945,9.816223,-0.0143585205,0.33039856,9.798111,0.017944336,0.40596008,0.027694702,-0.0010681152,0.0010681152,-30.741882,-23.258972,4.0283203,0
0.536010742,-0.040974714,0.19249097,0.98044294,-0.0061744805,-0.981297,0.1924006,0.99914104,0.0018298347,0.041396897,-0.15521756,0.48109668,0.86281717,-0.08251235,-0.87666434,0.473974,0.9844284,0.0023760153,0.17577012,9.749176,0.0,0.39263916,9.798111,0.017944336,0.40596008,0.003189087,0.027679443,-0.0010681152,-31.100464,-23.617554,3.3370972,0
0.540344238,-0.040969074,0.19248377,0.98044455,-0.006203166,-0.98129857,0.19239223,0.9991412,0.0018002712,0.041396905,-0.15345535,0.47568077,0.86612886,-0.08031765,-0.8796147,0.46885708,0.98488605,0.00238319,0.17318715,9.830582,-0.04309082,0.44052124,9.798111,0.017654419,0.40596008,0.0,0.01914978,-0.004272461,-31.100464,-23.617554,3.3370972,0
0.544677734,-0.041018568,0.1925469,0.9804301,-0.006185496,-0.9812861,0.19245623,0.99913925,0.0018298313,0.041441943,-0.15165657,0.470347,0.86935264,-0.078159526,-0.88247836,0.46381363,0.9853382,0.0023921954,0.17059572,9.706085,0.0909729,0.48840332,9.798111,0.017944336,0.4064026,-0.0021362305,0.0053253174,-0.0053253174,-31.100464,-23.617554,3.3370972,0
0.54901123,-0.04096553,0.19247925,0.9804456,-0.0061404877,-0.9812993,0.19239026,0.99914163,0.0018609554,0.041381363,-0.14989886,0.46513543,0.87245595,-0.0761067,-0.8852363,0.458873,0.9857678,0.0023847995,0.16809583,9.821014,0.10055542,0.27772522,9.798111,0.018249512,0.4058075,0.0053253174,0.014892578,0.0,-31.100464,-23.617554,3.3370972,0
0.553344727,-0.040992804,0.19251403,0.9804376,-0.0061631803,-0.98129237,0.1924242,0.9991404,0.0018453932,0.041412428,-0.14811458,0.46003312,0.8754608,-0.07410952,-0.88789856,0.45403066,0.9861896,0.0023685866,0.16560356,9.696503,-0.04309082,0.47883606,9.798111,0.018096924,0.40611267,0.010650635,0.0053253174,0.003189087,-31.100464,-23.617554,3.3370972,0
0.557678223,-0.041024502,0.19255446,0.9804283,-0.006155302,-0.9812845,0.19246505,0.9991392,0.0018609507,0.04144194,-0.14636724,0.45502275,0.8783684,-0.07221531,-0.8904768,0.44926167,0.9865909,0.0023255427,0.16319624,9.830582,0.04788208,0.46446228,9.798111,0.018249512,0.4064026,0.010650635,0.013824463,0.0095825195,-31.100464,-23.617554,3.3370972,0
0.562011719,-0.04040322,0.27278018,0.96122754,-0.009539176,-0.9620746,0.2726196,0.99913794,0.0018453887,0.04147301,-0.1446309,0.45008734,0.8811942,-0.07034612,-0.8929815,0.44456202,0.9869819,0.0023088048,0.16081461,9.777908,0.0143585205,0.48840332,9.798111,0.018096924,0.40670776,0.008514404,0.008514404,0.003189087,-28.770447,-22.720337,5.2383423,0
0.566345215,-0.040465016,0.27285308,0.96120435,-0.009543819,-0.96205395,0.27269247,0.9991354,0.0018609436,0.041533586,-0.14277782,0.44668725,0.88322425,-0.06876528,-0.89468724,0.4413684,0.9873631,0.002282454,0.15845807,9.844955,0.04788208,0.5602417,9.798111,0.018249512,0.40730286,0.0010681152,0.003189087,0.004257202,-28.770447,-22.720337,5.2383423,0
0.570678711,-0.04046921,0.27285805,0.9612028,-0.009529073,-0.9620526,0.27269807,0.9991354,0.0018765035,0.041533586,-0.14100856,0.44331568,0.885205,-0.06717801,-0.8963626,0.43820235,0.98772657,0.0023239735,0.15617585,9.926346,0.05744934,0.43572998,9.798111,0.0184021,0.40730286,-0.0053100586,0.0095825195,-0.012786865,-28.770447,-22.720337,5.2383423,0
0.575012207,-0.04048744,0.27360323,0.96099013,-0.009583877,-0.96184087,0.27344167,0.9991341,0.0018609414,0.041564655,-0.13919045,0.44006097,0.88711464,-0.065654464,-0.89796495,0.43514198,0.9880868,0.0023245679,0.15388009,9.777908,-0.028717041,0.49319458,9.798111,0.018249512,0.40760803,0.007446289,-0.004272461,-0.0010681152,-29.666138,-22.183228,5.065918,0
0.579345703,-0.040511273,0.27363294,0.96098065,-0.009608161,-0.96183246,0.27347043,0.99913293,0.0018453795,0.04159417,-0.13737638,0.43682534,0.8889946,-0.06415186,-0.89954334,0.4320953,0.9884393,0.0023290303,0.15159915,9.892838,-0.0335083,0.45968628,9.798111,0.018096924,0.40789795,-0.006378174,-0.01171875,-0.004272461,-29.666138,-22.183228,5.065918,0
0.583679199,-0.04040511,0.2735006,0.96102285,-0.009651204,-0.96187025,0.273336,0.9991368,0.0017691439,0.041504085,-0.13556585,0.43367475,0.8908132,-0.062721744,-0.90106654,0.42912126,0.988781,0.0023008336,0.1493547,9.844955,-0.0909729,0.46446228,9.798111,0.017349243,0.40701294,-0.0010681152,-0.0138549805,0.004257202,-29.666138,-22.183228,5.065918,0
0.588012695,-0.040514637,0.2421902,0.96938246,-0.008244995,-0.9702271,0.24205664,0.99914503,0.001814282,0.041305255,-0.13374658,0.43061608,0.8925702,-0.06132179,-0.90253234,0.4262335,0.9891165,0.0022732683,0.14711677,9.911987,0.02394104,0.21546936,9.798111,0.017791748,0.4050598,0.008514404,-0.022384644,0.0053253174,-29.48761,-24.513245,4.891968,0
0.592346191,-0.040334523,0.24198526,0.96944124,-0.008205504,-0.9702783,0.24185282,0.9991526,0.0018002638,0.041121323,-0.13199559,0.42701072,0.8945608,-0.059801593,-0.9042436,0.42280877,0.98944473,0.0023127296,0.14489208,9.797058,-0.1197052,0.296875,9.798264,0.017654419,0.40325928,0.0063934326,-0.028762817,-0.010650635,-29.48761,-24.513245,4.891968,0
0.596679687,-0.040178142,0.24180731,0.96949214,-0.008144315,-0.97032267,0.24167694,0.9991594,0.0018142798,0.04095511,-0.13025203,0.42347977,0.8964928,-0.058322523,-0.9059025,0.41945094,0.98976403,0.0023486174,0.14269406,9.768341,0.0,0.4453125,9.798264,0.017791748,0.4016266,0.0095825195,-0.031967163,-0.009597778,-29.48761,-24.513245,4.891968,0
0.601013184,-0.040319253,0.19859374,0.97925216,-0.006398025,-0.98008037,0.19849828,0.9991664,0.0017380217,0.040786717,-0.12849696,0.42001295,0.89837503,-0.05689401,-0.907515,0.41614845,0.99007654,0.0023616487,0.14050914,9.7348175,-0.01914978,0.29208374,9.798416,0.017044067,0.39997864,0.0095825195,-0.038360596,-0.004272461,-30.204773,-23.4375,3.5095215,0
0.60534668,-0.04009891,0.19831945,0.97931683,-0.0064036264,-0.98013604,0.19822314,0.99917525,0.0016773535,0.040572353,-0.12681976,0.4157767,0.9005812,-0.055477988,-0.9094638,0.4120652,0.99037313,0.0022955758,0.13840444,9.758759,-0.0335083,0.3256073,9.798416,0.016448975,0.39787292,0.0,-0.028762817,0.012771606,-30.204773,-23.4375,3.5095215,0
0.609680176,-0.039974682,0.19816479,0.97935325,-0.0064021247,-0.9801674,0.1980682,0.9991802,0.0016477724,0.040450554,-0.12510753,0.41167265,0.9027035,-0.05407652,-0.91132903,0.40811166,0.99066836,0.002242778,0.13627595,9.730026,-0.01914978,0.40222168,9.798569,0.016159058,0.39668274,0.015975952,-0.042617798,0.01171875,-30.204773,-23.4375,3.5095215,0
0.614013672,-0.03938383,0.25356272,0.9665169,-0.008621601,-0.96731764,0.2534215,0.999187,0.0016477836,0.040282786,-0.12349162,0.40760532,0.9047695,-0.052711245,-0.91315556,0.40418875,0.9909447,0.002222402,0.13425244,9.758759,-0.07182312,0.3830719,9.798569,0.016159058,0.3950348,0.008514404,-0.027709961,0.003189087,-29.307556,-22.54181,4.7195435,0
0.618347168,-0.039234042,0.25337934,0.9665711,-0.008527868,-0.96736556,0.25324148,0.99919367,0.0016928945,0.040114444,-0.12182399,0.40462133,0.90633357,-0.05146564,-0.91448164,0.4013412,0.99121654,0.002247945,0.1322299,9.773117,0.01914978,0.37828064,9.798706,0.016601563,0.39338684,0.0021209717,-0.036224365,-0.008529663,-29.307556,-22.54181,4.7195435,0
0.622680664,-0.039205793,0.2533447,0.9665812,-0.008518983,-0.9673745,0.25320712,0.99919486,0.0016928966,0.04008493,-0.12019546,0.40169153,0.90785295,-0.050240308,-0.9157722,0.3985439,0.99147815,0.0022923565,0.13025276,9.7444,0.05265808,0.5171356,9.798706,0.016601563,0.39309692,0.003189087,-0.034088135,-0.012786865,-29.307556,-22.54181,4.7195435,0
0.62701416,-0.03949321,0.22097336,0.97448,-0.0072296937,-0.9752785,0.22086145,0.9991937,0.0016773349,0.040114444,-0.118623205,0.39891115,0.9092846,-0.049146652,-0.9169868,0.39587858,0.9917223,0.0022720937,0.12838106,9.816223,-0.02394104,0.45489502,9.798706,0.016448975,0.39338684,0.025558472,-0.018112183,0.0053253174,-30.741882,-23.258972,4.0283203,0
0.631347656,-0.039501753,0.22098418,0.9744772,-0.007262376,-0.9752761,0.22087096,0.99919313,0.0016477705,0.040129982,-0.11717651,0.39540997,0.9109998,-0.047997113,-0.918502,0.39249262,0.9919506,0.0022655567,0.12660539,9.888046,-0.06703186,0.45010376,9.798706,0.016159058,0.39353943,-0.014907837,-0.004272461,-0.0032043457,-30.741882,-23.258972,4.0283203,0
0.635681152,-0.039479937,0.22095655,0.9744842,-0.0072881477,-0.97528225,0.22084223,0.9991938,0.0016166522,0.040114447,-0.115748316,0.39211473,0.9126053,-0.046890557,-0.91991353,0.3893076,0.99217117,0.002269123,0.12486491,9.830582,-0.05744934,0.3543396,9.798706,0.015853882,0.39338684,0.02130127,-0.004272461,-0.0010681152,-30.741882,-23.258972,4.0283203,0
0.640014648,-0.039365653,0.23472273,0.9712649,-0.0078758,-0.972061,0.23459592,0.9991938,0.0015855329,0.040114447,-0.114356846,0.38881975,0.9141891,-0.045838337,-0.9213111,0.3861149,0.9923817,0.0022499722,0.12318109,9.730026,-0.05744934,0.37828064,9.798706,0.015548706,0.39338684,0.0053253174,0.0010528564,0.0021209717,-30.741882,-21.824646,4.0283203,0
0.644348144,-0.03934747,0.23469836,0.97127163,-0.007884767,-0.97206706,0.23457114,0.9991945,0.0015715302,0.040098917,-0.11296194,0.3858027,0.9156396,-0.044820163,-0.9225786,0.38319695,0.9925879,0.0022475526,0.12150801,9.797058,-0.02394104,0.3591156,9.798706,0.015411377,0.39323425,-0.0053100586,-0.004272461,-0.0032043457,-30.741882,-21.824646,4.0283203,0
0.648681641,-0.03936241,0.2347184,0.97126615,-0.007889225,-0.9720621,0.23459102,0.9991938,0.0015715292,0.040114447,-0.1115872,0.3828552,0.9170443,-0.043801717,-0.9238056,0.38034812,0.99278885,0.0022738643,0.11985459,9.749176,0.03829956,0.45489502,9.798706,0.015411377,0.39338684,-0.0010681152,-0.007461548,-0.009597778,-30.741882,-21.824646,4.0283203,0
0.653015137,-0.039629165,0.19408523,0.9801839,-0.0063032247,-0.9809835,0.19398871,0.99919456,0.0015092916,0.04009892,-0.11017607,0.37996405,0.9184163,-0.042837385,-0.92499846,0.3775483,0.99298847,0.0022542377,0.118189365,9.758759,-0.14364624,0.34954834,9.798706,0.014801025,0.39323425,-0.0021362305,-0.018112183,0.0010681152,-31.280518,-22.361755,3.163147,0
0.657348633,-0.03960046,0.19404632,0.9801927,-0.006295922,-0.9809912,0.19395003,0.99919575,0.0015092933,0.040069405,-0.108879894,0.37637773,0.9200462,-0.04180096,-0.92646354,0.37405616,0.9931756,0.0022683823,0.116606206,9.892838,-0.009567261,0.30166626,9.798706,0.014801025,0.39294434,0.004257202,-0.0063934326,-0.0063934326,-31.280518,-22.361755,3.163147,0
0.661682129,-0.039570242,0.19400537,0.980202,-0.006288238,-0.9809993,0.1939093,0.999197,0.0015092952,0.040038336,-0.10757585,0.37290165,0.92161375,-0.040813617,-0.9278681,0.37066832,0.9933588,0.0022605679,0.11503565,9.830582,0.03829956,0.31602478,9.798706,0.014801025,0.39263916,0.014907837,-0.010665894,0.0,-31.280518,-22.361755,3.163147,0
0.666015625,-0.039351106,0.22693962,0.9731135,-0.0076210946,-0.97390765,0.22681664,0.99919635,0.0015092943,0.040053867,-0.10633959,0.36939377,0.92316854,-0.03987998,-0.92927027,0.36724153,0.9935298,0.002236372,0.113549635,9.878464,-0.0143585205,0.4453125,9.798706,0.014801025,0.39279175,-0.0095825195,0.0021209717,0.0010681152,-30.3833,-22.54181,4.0283203,0
0.670349121,-0.03933962,0.22692484,0.9731174,-0.0076018297,-0.9739111,0.2268026,0.999197,0.0015248549,0.040038336,-0.1051049,0.36659425,0.924425,-0.039000165,-0.93037814,0.36452088,0.9936961,0.002260202,0.112084545,9.801849,0.08139038,0.33996582,9.798706,0.014953613,0.39263916,-0.004257202,0.0,-0.009597778,-30.3833,-22.54181,4.0283203,0
0.674682617,-0.039369576,0.22696339,0.97310716,-0.007610442,-0.97390205,0.22684088,0.99919575,0.001524853,0.040069405,-0.10393534,0.36385256,0.9256396,-0.038177095,-0.9314538,0.36185127,0.99385107,0.0022709025,0.1107018,9.792282,-0.009567261,0.47883606,9.798706,0.014953613,0.39294434,-0.0032043457,0.012756348,-0.0063934326,-30.3833,-22.54181,4.0283203,0
0.679351807,-0.03923158,0.25587013,0.9659148,-0.008854405,-0.96671003,0.25572115,0.99919087,0.0014797434,0.040191136,-0.10277042,0.36119154,0.92681116,-0.037445042,-0.93248904,0.35925218,0.9940001,0.0022160113,0.10935712,9.801849,-0.05744934,0.45489502,9.798569,0.014511108,0.39413452,0.0021209717,0.014892578,0.0095825195,-29.307556,-23.617554,5.065918,0
0.684020996,-0.039165214,0.25579277,0.965938,-0.008865697,-0.9667306,0.2556432,0.99919343,0.0014486071,0.040129993,-0.10165913,0.35911238,0.9277412,-0.03678874,-0.9332918,0.35722974,0.99413884,0.0021852325,0.10808891,9.931137,-0.05265808,0.20588684,9.798706,0.014205933,0.39353943,-0.0032043457,0.024475098,0.003189087,-29.307556,-23.617554,5.065918,0
0.688720703,-0.03920137,0.2558349,0.96592534,-0.008907617,-0.9667195,0.25568375,0.9991917,0.001419061,0.04017561,-0.100486435,0.3571361,0.9286314,-0.036088582,-0.93404984,0.35531482,0.99428374,0.002191329,0.10674787,9.773117,-0.04788208,0.5315094,9.798569,0.013916016,0.39398193,0.012786865,0.003189087,-0.0032043457,-29.307556,-23.617554,5.065918,0
0.693389893,-0.03959362,0.22051302,0.97458017,-0.007545392,-0.97538316,0.22038816,0.99918735,0.0013723755,0.0402828,-0.09942945,0.3551562,0.9295041,-0.035423,-0.9348044,0.35339218,0.9944139,0.0022117647,0.10552777,9.849731,-0.009567261,0.36869812,9.798569,0.013458252,0.3950348,0.003189087,0.023406982,-0.007461548,-30.3833,-23.258972,4.0283203,0
0.6980896,-0.03960699,0.22052972,0.97457576,-0.007627229,-0.97537935,0.22040159,0.9991862,0.0012961309,0.040313873,-0.09840553,0.35255995,0.9306008,-0.034789257,-0.9357868,0.3508459,0.99453807,0.0021502671,0.104351886,9.878464,-0.1484375,0.48840332,9.798569,0.012710571,0.39533997,0.007446289,0.027679443,0.010650635,-30.3833,-23.258972,4.0283203,0
0.702758789,-0.03959538,0.22051522,0.9745795,-0.007608048,-0.9753826,0.22038783,0.9991868,0.0013116915,0.040298335,-0.09736618,0.34998888,0.93168,-0.034143,-0.9367515,0.34832588,0.9946628,0.0021048053,0.10315758,9.888046,0.02394104,0.34954834,9.798569,0.012863159,0.39518738,0.0021209717,0.018081665,0.0063934326,-30.3833,-23.258972,4.0283203,0
0.707458496,-0.039893717,0.18186502,0.98251396,-0.006045472,-0.9833227,0.18176925,0.9991856,0.00131169,0.04032785,-0.0963323,0.34747353,0.9327284,-0.03348925,-0.9376875,0.34586218,0.99478567,0.0020813264,0.10196622,9.844955,0.03829956,0.48362732,9.798569,0.012863159,0.3954773,0.004257202,0.013824463,0.0021209717,-30.3833,-24.693298,3.3370972,0
0.712127685,-0.039813798,0.1817695,0.9825348,-0.0060583293,-0.9833404,0.18167304,0.9991888,0.0012805744,0.040251736,-0.095323436,0.3442567,0.934024,-0.0327775,-0.93887335,0.34269887,0.9949066,0.0020522638,0.10078051,9.849731,-0.0622406,0.19152832,9.798569,0.012557983,0.3947296,0.0021209717,0.0095825195,0.003189087,-30.3833,-24.693298,3.3370972,0
0.716827393,-0.039862096,0.18182722,0.98252213,-0.006053857,-0.98332965,0.18173105,0.99918693,0.0012961319,0.040298343,-0.094285525,0.3411425,0.93527114,-0.03210693,-0.9400095,0.33963412,0.99502736,0.001993896,0.09958233,9.7348175,0.05265808,0.49798584,9.798569,0.012710571,0.39518738,0.01171875,0.0021209717,0.010650635,-30.3833,-24.693298,3.3370972,0
0.721496582,-0.03974869,0.19965404,0.97906,-0.0067615006,-0.9798657,0.19954382,0.9991868,0.0013116915,0.040298335,-0.09327942,0.33804652,0.9364953,-0.031405002,-0.9411273,0.33659044,0.99514455,0.0019863239,0.09840416,9.797058,0.05265808,0.42137146,9.798569,0.012863159,0.39518738,0.003189087,0.0010528564,-0.0010681152,-31.280518,-23.4375,3.5095215,0
0.726196289,-0.039780438,0.19969496,0.97905034,-0.006753824,-0.97985727,0.19958512,0.9991856,0.0013272497,0.04032785,-0.09223516,0.33537656,0.9375582,-0.030720994,-0.942082,0.33397257,0.9952632,0.0020012956,0.09719619,9.931137,0.02394104,0.47883606,9.798569,0.013015747,0.3954773,0.0095825195,-0.010665894,-0.0053253174,-31.280518,-23.4375,3.5095215,0
0.730865478,-0.039798293,0.19971798,0.9790449,-0.0067441533,-0.97985256,0.19960858,0.99918497,0.0013412526,0.040343385,-0.091209784,0.33273768,0.9385981,-0.03008259,-0.94301736,0.33138102,0.99537724,0.0019897276,0.096022025,9.706085,0.07182312,0.42616272,9.798569,0.013153076,0.39562988,0.004257202,-0.008529663,0.0,-31.280518,-23.4375,3.5095215,0
0.735565185,-0.039012227,0.28572255,0.9575179,-0.010247717,-0.95831144,0.2855418,0.9991862,0.0013272505,0.040313873,-0.09021637,0.33015516,0.93960553,-0.029482918,-0.94392467,0.32884198,0.9954857,0.001964615,0.09489139,9.844955,-0.03829956,0.296875,9.798569,0.013015747,0.39533997,0.0053253174,-0.004272461,0.003189087,-29.666138,-22.183228,5.4107666,0
0.740234375,-0.03897846,0.28568077,0.9575318,-0.010252034,-0.95832396,0.28549978,0.99918747,0.0013116923,0.0402828,-0.08922906,0.3292451,0.9400191,-0.029000588,-0.94424236,0.3279715,0.99558884,0.002003483,0.093802154,9.768341,-0.0143585205,0.32081604,9.798569,0.012863159,0.3950348,-0.0053100586,0.0,-0.01171875,-29.666138,-22.183228,5.4107666,0
0.744903564,-0.038950622,0.28564635,0.95754325,-0.010290894,-0.9583343,0.28546372,0.9991882,0.0012650138,0.04026727,-0.088193044,0.32843274,0.940401,-0.02858948,-0.9445253,0.327192,0.995693,0.0019704823,0.09269028,9.777908,-0.11012268,0.36390686,9.798569,0.0124053955,0.3948822,0.01171875,-0.009597778,0.0053253174,-29.666138,-22.183228,5.4107666,0
0.749603271,-0.039116777,0.26486886,0.9634907,-0.009448275,-0.9642836,0.2647032,0.9991899,0.0012510121,0.04022222,-0.08721911,0.32759875,0.9407826,-0.028198794,-0.9448149,0.32638863,0.99578995,0.0019383918,0.09164381,9.773117,-0.0143585205,0.27293396,9.798569,0.012268066,0.3944397,0.003189087,0.0,0.004257202,-30.921936,-22.361755,4.891968,0
0.754272461,-0.039124504,0.26487887,0.9634877,-0.009420197,-0.96428084,0.2647144,0.9991899,0.0012805759,0.04022222,-0.086228766,0.32638547,0.9412955,-0.027748961,-0.94523484,0.3252094,0.9958888,0.0019224344,0.09056329,9.821014,0.06703186,0.39743042,9.798569,0.012557983,0.3944397,0.0063934326,-0.01171875,0.0010681152,-30.921936,-22.361755,4.891968,0
0.758972168,-0.039174464,0.2649436,0.96346784,-0.009467365,-0.96426314,0.26477736,0.9991876,0.0012510092,0.04028281,-0.085332625,0.3252237,0.9417791,-0.02734611,-0.94563526,0.32407755,0.99597716,0.0019003963,0.08958714,9.801849,-0.07661438,0.55545044,9.798569,0.012268066,0.3950348,0.012786865,0.006378174,0.003189087,-30.921936,-22.361755,4.891968,0
0.763641357,-0.039191846,0.26496616,0.963461,-0.00952149,-0.96425706,0.26479778,0.99918634,0.0012043283,0.040313877,-0.08438071,0.32407185,0.9422618,-0.026913999,-0.9460306,0.32295784,0.99607,0.0018913771,0.0885488,9.787491,-0.08139038,0.46446228,9.798569,0.011810303,0.39533997,0.0095825195,-0.01171875,0.0,-30.921936,-22.361755,4.891968,0
0.767974853,-0.03915047,0.26491252,0.9634774,-0.009554552,-0.9642718,0.2647427,0.99918765,0.0011592064,0.040282812,-0.083512045,0.32290322,0.9427403,-0.026485352,-0.9464301,0.32182086,0.9961547,0.001907107,0.08759051,9.76355,-0.11012268,0.31123352,9.798569,0.011367798,0.3950348,0.0010681152,0.0010528564,-0.0063934326,-30.921936,-22.361755,4.891968,0
0.772277832,-0.039120886,0.26487416,0.96348906,-0.009544762,-0.9642822,0.26470467,0.99918884,0.0011592078,0.04025174,-0.08259222,0.3217312,0.94322187,-0.026109397,-0.94682926,0.32067543,0.99624133,0.001858339,0.08660093,9.787491,-0.004776001,0.30645752,9.798569,0.011367798,0.3947296,-0.006378174,-0.010665894,0.007446289,-30.921936,-22.361755,4.891968,0
0.77658081,-0.039313402,0.24127717,0.9696596,-0.008580666,-0.9704555,0.24112733,0.9991901,0.0011592092,0.040222224,-0.08171103,0.32064,0.94367015,-0.02567871,-0.9471993,0.31961563,0.9963252,0.0018838934,0.085630246,9.787491,0.03829956,0.33996582,9.798569,0.011367798,0.3944397,0.0095825195,-0.010665894,-0.008529663,-29.48761,-23.078918,4.547119,0
0.780883789,-0.039339077,0.24130823,0.9696508,-0.00854192,-0.9704478,0.24116,0.99918944,0.001204332,0.04023776,-0.08090764,0.31903547,0.944283,-0.02528322,-0.947741,0.3180375,0.9964009,0.001857152,0.08474573,9.797058,0.11491394,0.4165802,9.798569,0.011810303,0.3945923,-0.0095825195,0.0053253174,0.0021209717,-29.48761,-23.078918,4.547119,0
0.785186768,-0.03931296,0.24127662,0.9696598,-0.008518052,-0.9704556,0.24112928,0.99919057,0.0012198932,0.040206686,-0.080094345,0.31756797,0.94484687,-0.02493204,-0.9482338,0.31659287,0.99647546,0.0018003396,0.083865784,9.854523,0.0335083,0.3256073,9.798569,0.011962891,0.3942871,0.015975952,0.0021209717,0.01171875,-29.48761,-23.078918,4.547119,0
0.789520264,-0.039077148,0.26204056,0.96426535,-0.009347543,-0.96505606,0.26187664,0.9991925,0.0012198784,0.040161073,-0.07929017,0.31605154,0.9454229,-0.024592731,-0.9487404,0.31509805,0.9965482,0.0017336452,0.08299836,9.7827,0.04788208,0.27293396,9.798706,0.011962891,0.3938446,-0.0032043457,0.0010528564,0.012771606,-29.666138,-24.334717,5.4107666,0
0.793823242,-0.039081175,0.26204517,0.964264,-0.009332728,-0.96505487,0.26188186,0.9991925,0.0012354382,0.040161073,-0.07854253,0.31504115,0.9458224,-0.024266006,-0.9490764,0.31410992,0.99661535,0.0017196567,0.08218766,9.792282,0.05265808,0.37828064,9.798706,0.0121154785,0.3938446,0.014907837,0.010650635,0.0021209717,-29.666138,-24.334717,5.4107666,0
0.798126221,-0.039047495,0.26200673,0.9642758,-0.009338031,-0.96506524,0.26184312,0.9991937,0.00121988,0.040130004,-0.07775536,0.31402296,0.946226,-0.023910433,-0.9494138,0.31311607,0.9966857,0.0017217812,0.08133045,9.849731,-0.028717041,0.34954834,9.798706,0.011962891,0.39353943,0.008514404,-0.004272461,-0.0021362305,-29.666138,-24.334717,5.4107666,0
0.802429199,-0.03942693,0.21650626,0.97548485,-0.0074950587,-0.9762805,0.21637993,0.9991943,0.0012198807,0.04011447,-0.07707069,0.31302726,0.9466119,-0.023568846,-0.9497425,0.31214362,0.996747,0.0017465719,0.080575,9.797058,0.0,0.33517456,9.798706,0.011962891,0.39338684,0.0095825195,0.015960693,-0.007461548,-30.02472,-23.617554,4.0283203,0
0.806732178,-0.039475348,0.21656524,0.97546977,-0.0074923597,-0.9762674,0.21643913,0.9991925,0.0012354382,0.040161073,-0.076369084,0.3111819,0.94727695,-0.02314695,-0.95034873,0.31032488,0.9968109,0.0017726559,0.07978017,9.94072,0.05744934,0.51234436,9.798706,0.0121154785,0.3938446,0.014907837,0.003189087,-0.007461548,-30.02472,-23.617554,4.0283203,0
0.811065674,-0.039460324,0.21654694,0.9754745,-0.007488255,-0.97627157,0.21642096,0.99919313,0.001235439,0.040145542,-0.075688265,0.30932313,0.9479402,-0.022814034,-0.9509554,0.30848548,0.9968705,0.0017223915,0.07903308,9.773117,-0.009567261,0.36869812,9.798706,0.0121154785,0.39369202,0.0010681152,0.010650635,0.0095825195,-30.02472,-23.617554,4.0283203,0
0.815368652,-0.039287254,0.23291722,0.97170275,-0.008124132,-0.97249573,0.23277883,0.99919486,0.0012510008,0.04009893,-0.07503911,0.30755776,0.94856596,-0.022449665,-0.95152783,0.30674216,0.99692786,0.0017226692,0.07830637,9.739609,0.06703186,0.27293396,9.798706,0.012268066,0.39323425,0.015975952,0.011703491,-0.0010681152,-29.666138,-24.693298,4.7195435,0
0.819671631,-0.039305445,0.23293796,0.9716969,-0.008114982,-0.9724908,0.23280002,0.9991943,0.0012650038,0.04011447,-0.0744126,0.3061016,0.9490862,-0.022055678,-0.95199716,0.3053112,0.9969836,0.0017862606,0.07759186,9.835373,0.0335083,0.42137146,9.798706,0.0124053955,0.39338684,0.0063934326,0.011703491,-0.017044067,-29.666138,-24.693298,4.7195435,0
0.823974609,-0.03929048,0.23292089,0.9717017,-0.008110671,-0.97249484,0.23278305,0.99919486,0.0012650045,0.04009893,-0.0737342,0.3046552,0.9496044,-0.021739854,-0.95246106,0.30388367,0.9970409,0.0017623582,0.07685212,9.691727,0.0335083,0.36869812,9.798706,0.0124053955,0.39323425,0.0,0.0021209717,0.003189087,-29.666138,-24.693298,4.7195435,0
0.828277588,-0.03884097,0.27989316,0.95924515,-0.009991128,-0.9600303,0.2797177,0.99919546,0.001280565,0.04008495,-0.07306116,0.30322358,0.9501145,-0.021425268,-0.9529179,0.3024707,0.9970973,0.0017424034,0.07611793,9.768341,0.04309082,0.34475708,9.798706,0.012557983,0.39309692,-0.0032043457,0.0,0.0021209717,-30.204773,-24.513245,5.9295654,0
0.832611084,-0.03882193,0.2798714,0.95925224,-0.010000825,-0.9600367,0.27969554,0.9991961,0.0012650061,0.04006942,-0.07245185,0.3027846,0.9503011,-0.021211585,-0.95305747,0.3020456,0.9971463,0.0017263707,0.075473316,9.835373,-0.01914978,0.36869812,9.798706,0.0124053955,0.39294434,0.0063934326,0.018081665,0.0021209717,-30.204773,-24.513245,5.9295654,0
0.836914062,-0.03878858,0.27983335,0.95926464,-0.010004021,-0.9600477,0.27965724,0.9991973,0.0012510038,0.040038347,-0.071857154,0.3023669,0.9504792,-0.0209377,-0.95318997,0.30164635,0.9971952,0.0017745991,0.074824385,9.777908,-0.01914978,0.28250122,9.798706,0.012268066,0.39263916,0.010650635,0.013824463,-0.012786865,-30.204773,-24.513245,5.9295654,0
0.841217041,-0.039267268,0.23226036,0.97186065,-0.008077128,-0.97265285,0.23212333,0.9991961,0.0012650061,0.04006942,-0.07123383,0.3019419,0.95066124,-0.020690477,-0.9533246,0.30123746,0.997245,0.0017886654,0.07415629,9.844955,0.03829956,0.4740448,9.798706,0.0124053955,0.39294434,0.0063934326,0.006378174,-0.0053253174,-31.459045,-23.617554,4.373169,0
0.845520019,-0.039249096,0.23223732,0.97186685,-0.008086198,-0.9726582,0.23209988,0.9991967,0.0012510031,0.04005388,-0.07058753,0.30058146,0.9511404,-0.020347258,-0.95375437,0.2998975,0.997298,0.0018159222,0.07343918,9.797058,-0.03829956,0.37828064,9.798706,0.012268066,0.39279175,0.0053253174,-0.008529663,-0.008529663,-31.459045,-23.617554,4.373169,0
0.849822998,-0.039347682,0.23236236,0.97183305,-0.008068698,-0.9726285,0.23222587,0.9991931,0.0012961216,0.04014554,-0.069944054,0.2992616,0.95160407,-0.020043287,-0.95416933,0.29859516,0.9973495,0.0018116806,0.07273666,9.806641,0.028717041,0.43572998,9.798706,0.012710571,0.39369202,0.008514404,-0.008529663,-0.0010681152,-31.459045,-23.617554,4.373169,0
0.854156494,-0.039402213,0.2307,0.9722268,-0.008027086,-0.9730241,0.23056386,0.99919116,0.0012805775,0.040191147,-0.06942931,0.29801515,0.95203286,-0.019740187,-0.9545593,0.2973664,0.9973915,0.0018526377,0.07215727,9.888046,-0.04788208,0.51234436,9.798569,0.012557983,0.39413452,0.020233154,0.017028809,-0.010650635,-29.48761,-21.28601,3.855896,0
0.858459473,-0.039410423,0.23071085,0.972224,-0.008059854,-0.9730216,0.23057342,0.99919057,0.001251013,0.040206686,-0.068879515,0.29673424,0.95247275,-0.019485122,-0.9549583,0.29609948,0.9974347,0.0018361416,0.07155897,9.7827,-0.07182312,0.4165802,9.798569,0.012268066,0.3942871,0.012786865,0.0095825195,0.0021209717,-29.48761,-21.28601,3.855896,0
0.862762451,-0.039264116,0.23051755,0.9722757,-0.008080899,-0.97306734,0.23037891,0.9991961,0.0011887634,0.04006942,-0.06833826,0.2954255,0.95291847,-0.019213114,-0.955364,0.2948058,0.9974772,0.0018379869,0.070963964,9.753967,-0.009567261,0.34954834,9.798706,0.011657715,0.39294434,0.0,0.007446289,-0.0032043457,-29.48761,-21.28601,3.855896,0
0.86706543,-0.0388442,0.2680716,0.96261555,-0.0095902225,-0.9633983,0.26790255,0.9991993,0.0011747634,0.0399933,-0.067666575,0.29415473,0.9533594,-0.018957116,-0.9557561,0.2935487,0.99752784,0.0017904914,0.07024907,9.801849,0.004776001,0.46446228,9.798706,0.011520386,0.39219666,0.003189087,-0.0234375,0.008514404,-30.02472,-22.54181,5.065918,0
0.871368408,-0.03884791,0.26807618,0.9626141,-0.009576927,-0.96339697,0.2679077,0.9991993,0.0011887671,0.0399933,-0.066998,0.29367438,0.95355475,-0.01873392,-0.9559039,0.29308158,0.99757725,0.00177206,0.06954532,9.768341,0.04309082,0.39743042,9.798706,0.011657715,0.39219666,0.0095825195,-0.0234375,0.0021209717,-30.02472,-22.54181,5.065918,0
0.875701904,-0.03877303,0.267983,0.96264315,-0.009503663,-0.9634229,0.26781726,0.99920285,0.001235451,0.03990164,-0.06639663,0.2931848,0.9537474,-0.018570032,-0.9560542,0.29260117,0.99762046,0.0017166114,0.068923235,9.777908,-0.009567261,0.42616272,9.798706,0.0121154785,0.3912964,0.004257202,-0.007461548,0.010650635,-30.02472,-22.54181,5.065918,0
0.880004883,-0.038951173,0.23150453,0.97205377,-0.008016233,-0.9728331,0.23136891,0.9992089,0.0012198795,0.039748777,-0.06576889,0.2926794,0.9539461,-0.018298043,-0.956209,0.2921121,0.9976671,0.0017565446,0.06824427,9.883255,-0.01914978,0.34475708,9.798859,0.011962891,0.38980103,0.0,-0.0234375,-0.01171875,-30.204773,-22.720337,4.2007446,0
0.884307861,-0.038966127,0.23152345,0.9720486,-0.00802059,-0.9728285,0.2313877,0.99920833,0.0012198788,0.039764315,-0.06511623,0.29143187,0.95437276,-0.018015107,-0.95658994,0.2908798,0.99771506,0.0017478679,0.06753971,9.830582,0.01914978,0.43572998,9.798859,0.011962891,0.3899536,-0.008514404,-0.031967163,-0.0010681152,-30.204773,-22.720337,4.2007446,0
0.88861084,-0.039006535,0.23157462,0.97203475,-0.008048326,-0.9728163,0.23143786,0.99920654,0.0012043357,0.039809987,-0.06456758,0.2902749,0.9547625,-0.017720874,-0.9569416,0.289739,0.99775594,0.0017885176,0.06693133,9.849731,-0.01914978,0.51234436,9.798706,0.011810303,0.39039612,0.008514404,-0.012786865,-0.01171875,-30.204773,-22.720337,4.2007446,0
0.892944336,-0.039134167,0.21133804,0.9766292,-0.007230495,-0.9774122,0.21121775,0.9992078,0.0012043185,0.0397783,-0.06406325,0.2891814,0.9551283,-0.017523894,-0.9572727,0.2886553,0.99779195,0.0017546295,0.066393584,9.7444,-0.004776001,0.33039856,9.798859,0.011810303,0.39009094,0.017044067,0.0010528564,0.0063934326,-28.948975,-23.976135,4.0283203,0
0.897247314,-0.039137423,0.21134181,0.9766283,-0.0072154505,-0.97741145,0.21122213,0.9992078,0.0012198782,0.0397783,-0.063568436,0.287606,0.95563686,-0.017265726,-0.9577472,0.28709263,0.99782807,0.0017502625,0.06584821,9.888046,0.0622406,0.37828064,9.798859,0.011962891,0.39009094,-0.008514404,-0.0032043457,-0.0021362305,-28.948975,-23.976135,4.0283203,0
0.901550293,-0.03914394,0.21134935,0.9766264,-0.0071853595,-0.9774097,0.21123087,0.99920774,0.0012509974,0.039778296,-0.063034594,0.28612304,0.9561173,-0.017018393,-0.95819134,0.2856217,0.9978662,0.0017324676,0.065268554,9.840164,0.09576416,0.39743042,9.798859,0.012268066,0.39009094,0.0063934326,-0.0138549805,0.0021209717,-28.948975,-23.976135,4.0283203,0
0.905853271,-0.03904891,0.2318047,0.9719783,-0.008005774,-0.9727615,0.23166986,0.9992052,0.0012650175,0.039841052,-0.06257507,0.28471613,0.9565673,-0.016735671,-0.95861024,0.2842294,0.99789995,0.001776877,0.06475002,9.835373,0.028717041,0.5315094,9.798706,0.0124053955,0.3907013,0.019165039,-0.0021362305,-0.01171875,-30.204773,-24.154663,4.547119,0
0.91015625,-0.039022546,0.23177335,0.9719868,-0.007982187,-0.9727689,0.2316394,0.9992064,0.001280579,0.039809983,-0.062096007,0.28363836,0.9569187,-0.016577668,-0.9589298,0.28315872,0.9979325,0.0017195443,0.06424777,9.710876,0.07182312,0.31602478,9.798706,0.012557983,0.39039612,-0.007446289,-0.0010681152,0.010650635,-30.204773,-24.154663,4.547119,0
0.914489746,-0.039041087,0.23179542,0.9719808,-0.007971551,-0.9727637,0.23166193,0.9992058,0.0012961382,0.039825518,-0.061601624,0.28258994,0.9572607,-0.01634565,-0.95923924,0.2821221,0.99796695,0.0017321329,0.06370981,9.797058,0.0335083,0.4453125,9.798706,0.012710571,0.3905487,-0.004257202,-0.01171875,-0.0053253174,-30.204773,-24.154663,4.547119,0
0.918792725,-0.039204486,0.2166166,0.97546923,-0.0073722857,-0.9762559,0.21649498,0.999204,0.0012961358,0.039870568,-0.06108404,0.28155193,0.9575997,-0.01615177,-0.9595445,0.28109342,0.99800193,0.0017033941,0.06316042,9.816223,0.01914978,0.48362732,9.798706,0.012710571,0.3909912,-0.007446289,-0.017044067,0.004257202,-30.921936,-24.513245,4.2007446,0
0.923095703,-0.039179265,0.21658611,0.975477,-0.0073494883,-0.97626257,0.21646535,0.9992052,0.0013116972,0.039841052,-0.06063989,0.2802827,0.9580002,-0.015956124,-0.959916,0.2798332,0.99803215,0.0016830846,0.06268143,9.897629,0.04788208,0.33996582,9.798706,0.012863159,0.3907013,0.004257202,-0.0032043457,0.003189087,-30.921936,-24.513245,4.2007446,0
0.927398682,-0.039172594,0.21657808,0.9754791,-0.0073795225,-0.9762645,0.2164561,0.9992052,0.0012805775,0.039841052,-0.060175497,0.27906054,0.95838624,-0.0157006,-0.96027195,0.27862382,0.99806434,0.0017190892,0.06216626,9.859314,-0.04788208,0.3878479,9.798706,0.012557983,0.3907013,0.010650635,-0.0138549805,-0.009597778,-30.921936,-24.513245,4.2007446,0
0.93170166,-0.03870128,0.2690523,0.96234775,-0.009482785,-0.9631248,0.26888818,0.9992058,0.0012805783,0.039825518,-0.05979292,0.27782264,0.95876974,-0.015539019,-0.9606309,0.2773929,0.99808985,0.0016877892,0.06175602,9.864105,0.009567261,0.34475708,9.798706,0.012557983,0.3905487,0.0,0.008514404,0.0053253174,-30.741882,-22.54181,5.065918,0
0.936035156,-0.038647186,0.2689833,0.96236914,-0.00944859,-0.96314406,0.26882046,0.99920833,0.0012961213,0.039764315,-0.059370637,0.27772185,0.9588251,-0.015371925,-0.96066,0.27730146,0.9981176,0.0017245763,0.061304115,9.76355,0.03829956,0.25856018,9.798859,0.012710571,0.3899536,0.019165039,-0.0032043457,-0.009597778,-30.741882,-22.54181,5.065918,0
0.940338135,-0.038647186,0.2689833,0.96236914,-0.00944859,-0.96314406,0.26882046,0.99920833,0.0012961213,0.039764315,-0.058992594,0.2775439,0.95890003,-0.015274056,-0.9607115,0.27712852,0.9981416,0.001702237,0.060914084,9.715668,0.028717041,0.3591156,9.798859,0.012710571,0.3899536,-0.0010681152,0.0095825195,0.003189087,-30.741882,-22.54181,5.065918,0
0.944641113,-0.03839708,0.28817454,0.95680773,-0.010235267,-0.95757705,0.28799552,0.9992102,0.0012650042,0.039717708,-0.058620267,0.27738446,0.958969,-0.015135476,-0.96075743,0.2769766,0.9981656,0.0017219888,0.060518205,9.8688965,-0.06703186,0.29208374,9.798859,0.0124053955,0.38949585,0.003189087,0.006378174,-0.0063934326,-31.100464,-23.258972,5.757141,0
0.948944092,-0.03837803,0.28815106,0.9568156,-0.010196041,-0.9575841,0.28797352,0.9992113,0.0012961251,0.039688192,-0.058183376,0.2776053,0.9589317,-0.015037568,-0.9606937,0.27720296,0.99819267,0.0017086038,0.060070913,9.753967,0.08139038,0.296875,9.798859,0.012710571,0.38920593,0.0010681152,-0.007461548,0.0010681152,-31.100464,-23.258972,5.757141,0
0.95324707,-0.03836919,0.28814015,0.9568193,-0.01022538,-0.9575874,0.28796145,0.9992113,0.0012650057,0.039688192,-0.057809405,0.27778465,0.9589024,-0.014993347,-0.960642,0.27738467,0.998215,0.0016582871,0.05969906,9.797058,-0.05744934,0.39263916,9.798859,0.0124053955,0.38920593,-0.008514404,0.008514404,0.0095825195,-31.100464,-23.258972,5.757141,0
0.957580566,-0.03887346,0.23845166,0.9703761,-0.008243224,-0.9711536,0.2383125,0.9992102,0.0012650042,0.039717708,-0.057438627,0.27799258,0.9588644,-0.014837101,-0.96058166,0.27760166,0.99823874,0.0017182908,0.059299096,9.82579,-0.0143585205,0.46925354,9.798859,0.0124053955,0.38949585,0.0010681152,0.0,-0.015975952,-31.459045,-24.334717,4.7195435,0
0.961883545,-0.03879699,0.23835789,0.9704022,-0.008234907,-0.9711766,0.23821887,0.99921316,0.0012510042,0.039641585,-0.05700737,0.2772216,0.9591133,-0.014638593,-0.96080446,0.2768403,0.99826646,0.0017418674,0.058831066,9.8688965,-0.004776001,0.20588684,9.798859,0.012268066,0.38874817,0.004257202,-0.018112183,-0.007461548,-31.459045,-24.334717,4.7195435,0
0.966186523,-0.038768623,0.23832309,0.97041184,-0.008226479,-0.9711851,0.23818435,0.9992143,0.0012510057,0.039612066,-0.056698073,0.27645066,0.9593541,-0.014468203,-0.9610265,0.27607748,0.99828655,0.0017729297,0.058488097,9.816223,0.0,0.30166626,9.798859,0.012268066,0.38845825,0.0010681152,0.0095825195,-0.009597778,-31.459045,-24.334717,4.7195435,0
0.970489502,-0.038782056,0.23833954,0.9704072,-0.00823047,-0.971181,0.23820066,0.99921376,0.0012510049,0.039626047,-0.056319665,0.27571166,0.95958906,-0.014364696,-0.96123886,0.2753426,0.99830943,0.001722997,0.058097165,9.8736725,0.03829956,0.4165802,9.798859,0.012268066,0.38859558,0.004257202,-0.0032043457,0.0095825195,-31.459045,-24.334717,4.7195435,0
0.97479248,-0.038808253,0.23837169,0.9703983,-0.008254262,-0.9711732,0.23823193,0.99921256,0.0012354437,0.03965712,-0.056000605,0.27501374,0.95980805,-0.014213331,-0.9614388,0.2746517,0.9983296,0.0017385936,0.057750013,9.811432,-0.04788208,0.49319458,9.798859,0.0121154785,0.38890076,0.01171875,0.0053253174,-0.0053253174,-31.459045,-24.334717,4.7195435,0
0.979125977,-0.03877106,0.23832607,0.970411,-0.008275231,-0.9711845,0.23818542,0.9992139,0.0012043258,0.039626054,-0.05568363,0.274326,0.9600232,-0.014050182,-0.9616352,0.27397165,0.9983496,0.0017672337,0.057401665,9.773117,-0.08139038,0.29208374,9.798859,0.011810303,0.38859558,0.010650635,0.003189087,-0.008529663,-31.459045,-24.334717,4.7195435,0
0.983428955,-0.039197117,0.18177441,0.9825587,-0.0060377945,-0.98333955,0.181678,0.9992133,0.0011887654,0.03964159,-0.05535097,0.273545,0.9602653,-0.01393211,-0.9618577,0.27319553,0.99836975,0.0017431162,0.057050813,9.854523,0.004776001,0.42616272,9.798859,0.011657715,0.38874817,-0.015960693,0.0010528564,0.0021209717,-32.89337,-23.258972,2.9907227,0
0.987731934,-0.03923021,0.18181995,0.98254895,-0.0060299737,-0.9833311,0.18172392,0.99921197,0.0012043235,0.039672658,-0.055047207,0.27175167,0.96079177,-0.013731895,-0.9623658,0.27141014,0.9983893,0.0017468777,0.05670721,9.902405,0.028717041,0.4740448,9.798859,0.011810303,0.38905334,0.0053253174,0.0010528564,-0.0032043457,-32.89337,-23.258972,2.9907227,0
0.992034912,-0.03919601,0.18177289,0.9825591,-0.0061292322,-0.98334,0.18167286,0.9992128,0.0010985183,0.03965713,-0.05473567,0.26996154,0.9613141,-0.01357004,-0.9628696,0.2696257,0.9984086,0.0017130725,0.0563667,9.907196,-0.11012268,0.5602417,9.798859,0.010772705,0.38890076,-0.0032043457,0.0,0.0053253174,-32.89337,-23.258972,2.9907227,0
0.996368408,-0.038850553,0.23171152,0.9720084,-0.008111233,-0.9727839,0.2315722,0.99921215,0.0011125213,0.03967266,-0.0543565,0.26830256,0.9618,-0.013422734,-0.9633333,0.2679717,0.9984314,0.0016560175,0.055964775,9.931137,0.01914978,0.42616272,9.798859,0.010910034,0.38905334,0.020233154,-0.015991211,0.01171875,-29.307556,-23.258972,4.373169,0
1.000671387,-0.038875774,0.23174177,0.97200024,-0.008132896,-0.9727768,0.23160163,0.99921095,0.0010985162,0.03970218,-0.05398645,0.26757327,0.96202385,-0.013348123,-0.9635362,0.26724482,0.9984524,0.0015863861,0.0555895,9.82579,0.0,0.45968628,9.798859,0.010772705,0.38934326,-0.0010681152,-0.01171875,0.013824463,-29.307556,-23.258972,4.373169,0
1.004974365,-0.038893946,0.23176356,0.9719943,-0.008123755,-0.9727714,0.2316238,0.99921024,0.0011125192,0.03971771,-0.053645246,0.26682958,0.9622495,-0.013216347,-0.96374243,0.26650676,0.9984726,0.0015793953,0.05522671,9.821014,0.03829956,0.45010376,9.798859,0.010910034,0.38949585,-0.007446289,-0.010665894,-0.0010681152,-29.307556,-23.258972,4.373169,0
1.009277344,-0.038477898,0.27107275,0.96178955,-0.009664989,-0.96255827,0.27090272,0.9992127,0.0011280817,0.039657127,-0.053309932,0.26611352,0.96246636,-0.013078035,-0.9639404,0.26579666,0.99849236,0.0015824332,0.05486784,9.844955,0.03829956,0.22026062,9.798859,0.011062622,0.38890076,-0.004257202,-0.01171875,-0.0032043457,-30.204773,-21.644592,4.891968,0
1.013916016,-0.03848059,0.27107626,0.96178836,-0.009712742,-0.9625573,0.27090436,0.9992122,0.0010829578,0.039672665,-0.05298858,0.26625073,0.9624463,-0.0129811,-0.96390253,0.2659389,0.9985108,0.0015981134,0.054532055,10.00296,-0.08139038,0.42616272,9.798859,0.010620117,0.38905334,0.0095825195,-0.007461548,-0.0053253174,-30.204773,-21.644592,4.891968,0
1.01852417,-0.038395792,0.27096573,0.961823,-0.009732585,-0.9625885,0.27079284,0.9992152,0.0010362817,0.039596543,-0.052650005,0.26631024,0.96244836,-0.012908921,-0.9638861,0.26600188,0.9985296,0.0015808308,0.054186385,9.859314,-0.03829956,0.5027771,9.798859,0.0101623535,0.38830566,-0.008514404,-0.010665894,0.0010681152,-30.204773,-21.644592,4.891968,0
1.023162842,-0.038929127,0.20855992,0.97723454,-0.0073048635,-0.97800916,0.20843424,0.9992153,9.755987E-4,0.039596546,-0.052249722,0.26640034,0.96244526,-0.0128496885,-0.9638612,0.26609468,0.99855137,0.0015362522,0.053784642,9.773117,-0.12449646,0.37828064,9.798859,0.009567261,0.38830566,-0.0010681152,-0.024505615,0.007446289,-28.770447,-23.4375,3.855896,0
1.027801514,-0.038910855,0.20853835,0.9772399,-0.0073159705,-0.97801375,0.2084122,0.9992159,9.6003944E-4,0.039581012,-0.052011,0.26525596,0.96277416,-0.012714,-0.96417683,0.26495555,0.99856555,0.0015398917,0.053520262,9.840164,-0.028717041,0.36390686,9.798859,0.009414673,0.38815308,0.0010681152,0.004257202,-0.0032043457,-28.770447,-23.4375,3.855896,0
1.032409668,-0.038929127,0.20855992,0.97723454,-0.0073048635,-0.97800916,0.20843424,0.9992153,9.755987E-4,0.039596546,-0.051701237,0.26411608,0.9631042,-0.012581405,-0.96448976,0.26382065,0.9985834,0.0015226493,0.053188264,9.816223,0.01914978,0.4165802,9.798859,0.009567261,0.38830566,-0.0032043457,-0.01171875,0.0010681152,-28.770447,-23.4375,3.855896,0
1.03704834,-0.038825646,0.21615873,0.975586,-0.007597282,-0.9763578,0.2160274,0.99921715,9.7560044E-4,0.03954994,-0.05144512,0.26301208,0.96342,-0.012444903,-0.9647913,0.26272196,0.9985983,0.0015260938,0.052906964,9.859314,0.028717041,0.28729248,9.798859,0.009567261,0.3878479,0.0,-0.0021362305,-0.0032043457,-30.921936,-24.513245,4.2007446,0
1.041687012,-0.038825646,0.21615873,0.975586,-0.007597282,-0.9763578,0.2160274,0.99921715,9.7560044E-4,0.03954994,-0.05121247,0.26212987,0.96367276,-0.012294802,-0.9650314,0.261846,0.9986121,0.0015616158,0.052644476,9.706085,0.0,0.36390686,9.798859,0.009567261,0.3878479,0.01171875,0.0010528564,-0.009597778,-30.921936,-24.513245,4.2007446,0
1.046295166,-0.038782064,0.21610603,0.9755993,-0.0075854473,-0.9763694,0.21597508,0.99921894,9.756022E-4,0.039504886,-0.05098866,0.26125175,0.9639231,-0.012169507,-0.96526945,0.26097292,0.9986251,0.0015761895,0.052397095,9.859314,0.01914978,0.27772522,9.798859,0.009567261,0.3874054,0.008514404,0.003189087,-0.0053253174,-30.921936,-24.513245,4.2007446,0
1.050933838,-0.038655493,0.22811054,0.9728676,-0.00805526,-0.9736348,0.22797036,0.99922013,9.756034E-4,0.039473817,-0.050781928,0.26031408,0.9641876,-0.01210549,-0.96552277,0.26003695,0.99863636,0.0015332156,0.05218234,9.897629,0.0909729,0.2681427,9.798859,0.009567261,0.38710022,-0.0095825195,0.0095825195,0.0063934326,-29.307556,-23.617554,4.373169,0
1.055541992,-0.03861907,0.22806747,0.9728792,-0.008012996,-0.97364485,0.22792888,0.99922186,0.0010067248,0.03942876,-0.050781928,0.26031408,0.9641876,-0.01210549,-0.96552277,0.26003695,0.99863636,0.0015332156,0.05218234,9.897629,0.0909729,0.2681427,9.798859,0.0098724365,0.3866577,-0.0095825195,0.0095825195,0.0063934326,-29.307556,-23.617554,4.373169,0
1.060180664,-0.038566515,0.22800529,0.97289574,-0.00803005,-0.97365934,0.22786593,0.99922377,9.755917E-4,0.03938154,-0.05037112,0.25907263,0.96454346,-0.011901377,-0.9658566,0.25880378,0.9986597,0.0015568412,0.0517346,9.859314,-0.05265808,0.27772522,9.799011,0.009567261,0.38619995,0.007446289,0.010650635,0.0010681152,-29.307556,-23.617554,4.373169,0
1.064819336,-0.038154315,0.2695245,0.96223736,-0.009682555,-0.96299297,0.26935223,0.9992249,9.6003315E-4,0.039352022,-0.05013579,0.25842133,0.96473044,-0.011821156,-0.9660311,0.2581554,0.9986724,0.0015385955,0.051487572,9.797058,-0.028717041,0.30166626,9.799011,0.009414673,0.38591003,-0.007446289,0.0,0.0010681152,-30.921936,-23.078918,5.2383423,0
1.06942749,-0.0381815,0.26955852,0.96222675,-0.009643176,-0.9629834,0.26938784,0.99922425,0.0010067116,0.039367557,-0.049959015,0.2586855,0.96466875,-0.011787956,-0.9659604,0.25842133,0.99868166,0.0015390037,0.051307805,9.730026,0.12449646,0.42137146,9.799011,0.0098724365,0.38606262,0.0095825195,0.013824463,-0.0021362305,-30.921936,-23.078918,5.2383423,0
1.074066162,-0.038213715,0.26959884,0.9622142,-0.009637764,-0.9629721,0.26942846,0.99922305,0.0010222701,0.039397076,-0.049669128,0.25891602,0.96462196,-0.011708425,-0.96589863,0.2586558,0.9986971,0.0015530029,0.05100684,9.768341,0.05265808,0.46925354,9.799011,0.010025024,0.38635254,0.003189087,-0.0138549805,-0.0053253174,-30.921936,-23.078918,5.2383423,0
1.078704834,-0.038659036,0.22545831,0.97348547,-0.007897865,-0.9742522,0.22532226,0.99922127,0.0010222842,0.039444294,-0.049402818,0.25918427,0.9645636,-0.011619342,-0.96582663,0.25892854,0.99871135,0.0015842055,0.050726105,9.7827,0.0143585205,0.5171356,9.798859,0.010025024,0.3868103,0.012786865,-0.010665894,-0.008529663,-30.02472,-22.54181,4.0283203,0
1.083312988,-0.038705606,0.22551754,0.97347,-0.007896747,-0.9742386,0.22538163,0.9992195,0.0010362861,0.03948935,-0.049220268,0.25852588,0.9647496,-0.011535627,-0.96600306,0.25827324,0.9987213,0.0015832863,0.050529186,9.749176,0.028717041,0.49798584,9.798859,0.0101623535,0.3872528,0.003189087,0.006378174,-0.0021362305,-30.02472,-22.54181,4.0283203,0
1.08795166,-0.03870248,0.22551358,0.973471,-0.007910223,-0.97423947,0.22537713,0.9992195,0.0010222823,0.03948935,-0.04899574,0.2579102,0.96492577,-0.011441312,-0.9661676,0.25766116,0.99873346,0.0015842825,0.050288927,9.777908,-0.0143585205,0.39743042,9.798859,0.010025024,0.3872528,0.0095825195,-0.004272461,-0.0021362305,-30.02472,-22.54181,4.0283203,0
1.092559814,-0.038259327,0.2679161,0.96268225,-0.009643545,-0.9634418,0.2677442,0.9992213,9.600447E-4,0.039444298,-0.0488005,0.25724465,0.9651133,-0.011330981,-0.96634495,0.257,0.99874425,0.0016060479,0.05007295,9.797058,-0.13885498,0.27293396,9.798859,0.009414673,0.3868103,-0.004257202,0.0,-0.007461548,-30.3833,-22.54181,5.065918,0
1.097198486,-0.038291525,0.2679567,0.96266973,-0.00963809,-0.96343046,0.2677851,0.99922013,9.756034E-4,0.039473817,-0.048576057,0.2575211,0.96505094,-0.011256268,-0.96627134,0.25728017,0.9987561,0.0016347822,0.049836375,9.806641,0.028717041,0.44052124,9.798859,0.009567261,0.38710022,0.014907837,-0.005340576,-0.008529663,-30.3833,-22.54181,5.065918,0
1.101837158,-0.03824866,0.26790267,0.9626865,-0.009623869,-0.96344554,0.26773155,0.9992219,9.756051E-4,0.039428763,-0.048300914,0.25773332,0.9650081,-0.011277921,-0.9662149,0.2574911,0.99876916,0.0015537728,0.049575757,9.907196,0.004776001,0.27772522,9.798859,0.009567261,0.3866577,0.0,-0.01171875,0.014892578,-30.3833,-22.54181,5.065918,0
1.106445312,-0.037794977,0.30905578,0.9502926,-0.011273364,-0.9510434,0.3088516,0.9992219,9.600452E-4,0.039428763,-0.048109967,0.25792748,0.96496576,-0.011244729,-0.96616304,0.25768688,0.99877876,0.0015465295,0.0493824,9.792282,-0.028717041,0.3830719,9.798859,0.009414673,0.3866577,-0.0021362305,0.0021209717,-0.0010681152,-30.921936,-23.078918,6.27594,0
1.111083984,-0.03775627,0.30900854,0.9503096,-0.0112898,-0.95105886,0.30880362,0.9992232,9.304681E-4,0.039397076,-0.047925033,0.25895107,0.96470076,-0.011322081,-0.96588933,0.25870764,0.9987868,0.0014761513,0.049222145,9.773117,-0.07182312,0.3256073,9.799011,0.009124756,0.38635254,-0.0021362305,0.008514404,0.012771606,-30.921936,-23.078918,6.27594,0
1.115722656,-0.037781242,0.30903903,0.95029867,-0.011315579,-0.9510489,0.30883315,0.9992219,9.149215E-4,0.039428763,-0.047730815,0.25994644,0.9644427,-0.011349155,-0.96562195,0.2597026,0.99879575,0.0014502085,0.049040094,9.749176,-0.0143585205,0.45010376,9.798859,0.008972168,0.3866577,-0.0032043457,0.003189087,0.003189087,-30.921936,-23.078918,6.27594,0
1.12033081,-0.038756207,0.20298086,0.9784155,-0.0071321395,-0.9791823,0.20285743,0.9992232,8.837891E-4,0.039397076,-0.0475602,0.26094916,0.9641803,-0.011361088,-0.96535146,0.26070574,0.99880373,0.0014450807,0.048876975,9.801849,-0.06703186,0.3256073,9.799011,0.008666992,0.38635254,0.003189087,0.006378174,-0.0010681152,-30.741882,-23.617554,3.6819458,0
1.124969482,-0.03879261,0.20302653,0.97840446,-0.007109811,-0.9791727,0.20290406,0.9992219,9.149073E-4,0.03942815,-0.04736801,0.2597413,0.96451575,-0.011245517,-0.96567714,0.25950176,0.99881417,0.0014456036,0.04866313,9.907196,0.07661438,0.44052124,9.799011,0.008972168,0.3866577,-0.012771606,-0.005340576,-0.0032043457,-30.741882,-23.617554,3.6819458,0
1.129608154,-0.038679212,0.20288424,0.9784385,-0.0071280906,-0.97920233,0.20276085,0.9992262,8.682321E-4,0.039320957,-0.047192875,0.25860146,0.96483064,-0.011160711,-0.9659831,0.25836447,0.99882346,0.0014247645,0.048473693,9.773117,-0.03829956,0.39263916,9.799011,0.008514404,0.38560486,-0.0032043457,-0.0010681152,0.0021209717,-30.741882,-23.617554,3.6819458,0
1.134002685,-0.03853904,0.21889651,0.9749867,-0.007770958,-0.97574764,0.21876019,0.99922687,8.542289E-4,0.039305422,-0.04691779,0.25753778,0.9651285,-0.011061502,-0.9662673,0.2573039,0.99883753,0.0013963595,0.04818388,9.768341,-0.02394104,0.34954834,9.799011,0.008377075,0.38545227,0.0095825195,-0.0234375,0.004257202,-30.921936,-24.154663,4.2007446,0
1.138336182,-0.038535308,0.21889196,0.97498786,-0.0077237217,-0.9757487,0.21875751,0.9992274,8.993526E-4,0.039291438,-0.04666551,0.2567611,0.96534765,-0.010994455,-0.966474,0.2565292,0.9988501,0.0013575947,0.04792395,9.773117,0.10533142,0.3591156,9.799011,0.00881958,0.38531494,-0.0021362305,-0.019180298,0.0063934326,-30.921936,-24.154663,4.2007446,0
1.142669678,-0.03840842,0.21873644,0.97502774,-0.0076569845,-0.97578347,0.21860436,0.99923277,9.3047705E-4,0.03915317,-0.046433616,0.25605202,0.96554714,-0.010927179,-0.9666621,0.2558222,0.9988616,0.0013280445,0.047683544,9.7827,0.03829956,0.27293396,9.799011,0.009124756,0.3839569,0.010650635,-0.015991211,0.0053253174,-30.921936,-24.154663,4.2007446,0
1.147003174,-0.03857816,0.19524474,0.9799954,-0.0067478362,-0.98075396,0.19513024,0.99923277,9.1491727E-4,0.03915317,-0.046197955,0.25537366,0.9657381,-0.010811896,-0.96684146,0.25514826,0.99887383,0.0013458671,0.047427177,9.792282,-0.04309082,0.37348938,9.799011,0.008972168,0.3839569,0.015975952,-0.020248413,-0.0053253174,-31.280518,-23.796082,3.5095215,0
1.15133667,-0.038481463,0.1951218,0.9800238,-0.00669188,-0.9807786,0.19500929,0.9992369,9.4604073E-4,0.03904752,-0.04596845,0.25418818,0.9660618,-0.010685673,-0.96715385,0.25396708,0.99888575,0.0013514536,0.047174737,9.686935,0.09576416,0.45010376,9.799011,0.009277344,0.3829193,0.0021209717,-0.020248413,-0.0032043457,-31.280518,-23.796082,3.5095215,0
1.155670166,-0.03832041,0.19491704,0.98007077,-0.0066373004,-0.9808191,0.19480635,0.9992434,9.6003595E-4,0.038879123,-0.045695566,0.25300208,0.966386,-0.010563532,-0.9674648,0.25278503,0.9988996,0.0013427056,0.04688145,9.787491,0.0622406,0.22026062,9.799164,0.009414673,0.38127136,-0.0032043457,-0.030899048,0.0,-31.280518,-23.796082,3.5095215,0
1.160003662,-0.03796014,0.21451193,0.9759834,-0.0073388712,-0.97672087,0.2143886,0.9992524,9.7560446E-4,0.03865074,-0.045454122,0.25188366,0.96668947,-0.010455501,-0.96775657,0.2516701,0.9989117,0.0013322198,0.046622094,9.7348175,0.004776001,0.34954834,9.799164,0.009567261,0.37902832,0.008514404,-0.0234375,0.0010681152,-31.280518,-23.078918,3.855896,0
1.164337158,-0.03785371,0.21437345,0.976018,-0.007247825,-0.97675115,0.21425338,0.9992569,0.0010362766,0.03852739,-0.045120694,0.2511471,0.9668967,-0.010311302,-0.96794796,0.25093898,0.99892837,0.0013525772,0.046264138,9.840164,0.06703186,0.3543396,9.799316,0.0101623535,0.37782288,0.0021209717,-0.046875,-0.0063934326,-31.280518,-23.078918,3.855896,0
1.168670654,-0.037736468,0.21422091,0.97605604,-0.0072159437,-0.9767846,0.21410182,0.99926156,0.0010362815,0.03840621,-0.04488028,0.25042677,0.9670947,-0.01018682,-0.9681346,0.25022328,0.9989404,0.0013784707,0.0460012,9.892838,0.06703186,0.36869812,9.799316,0.0101623535,0.3766327,0.003189087,-0.02557373,-0.007461548,-31.280518,-23.078918,3.855896,0
1.17300415,-0.03739485,0.24738668,0.9681949,-0.008479026,-0.96891624,0.24724351,0.9992646,0.0010362845,0.038330078,-0.044626497,0.24975017,0.96728134,-0.010107,-0.96830934,0.2495493,0.99895257,0.0013601972,0.045736477,9.892838,0.009567261,0.1819458,9.799316,0.0101623535,0.375885,0.010650635,-0.026641846,0.003189087,-30.204773,-22.361755,4.547119,0
1.177337646,-0.037383776,0.24737257,0.9681991,-0.008459571,-0.96891993,0.24723011,0.99926513,0.0010518449,0.03831454,-0.044419613,0.24974303,0.9672928,-0.010081311,-0.9683112,0.24954304,0.9989621,0.0013330259,0.04552975,9.811432,0.04788208,0.36390686,9.799316,0.010314941,0.37573242,0.0095825195,-0.0138549805,0.0053253174,-30.204773,-22.361755,4.547119,0
1.181671143,-0.037325706,0.24729842,0.9682202,-0.00844172,-0.9689387,0.24715652,0.9992674,0.0010518474,0.038253944,-0.044238485,0.24969225,0.9673142,-0.010061405,-0.96832436,0.24949285,0.9989703,0.0013046463,0.045349456,9.768341,0.0622406,0.45010376,9.799316,0.010314941,0.37513733,-0.0010681152,-0.008529663,0.0053253174,-30.204773,-22.361755,4.547119,0
1.186004639,-0.03730302,0.24726948,0.96822846,-0.008402671,-0.9689461,0.24712902,0.9992686,0.0010829532,0.038222335,-0.044004846,0.24967147,0.9673302,-0.010013481,-0.9683297,0.24947393,0.9989811,0.0012917191,0.04511128,9.892838,0.08139038,0.31123352,9.799454,0.010620117,0.37483215,0.0063934326,-0.022384644,0.0021209717,-30.204773,-22.361755,4.547119,0
1.190338135,-0.037344396,0.24732226,0.9682133,-0.008431418,-0.96893257,0.24718079,0.9992668,0.0010674066,0.038269483,-0.043850366,0.24964423,0.9673443,-0.009952328,-0.96833676,0.24944922,0.99898857,0.0013111122,0.044946462,9.835373,-0.05265808,0.49798584,9.799316,0.010467529,0.37528992,0.0053253174,-0.0063934326,-0.0053253174,-30.204773,-22.361755,4.547119,0
1.194671631,-0.037380293,0.2473681,0.9682002,-0.008410361,-0.96892095,0.24722753,0.99926573,0.0010985251,0.038299005,-0.043679662,0.24959874,0.9673637,-0.00993443,-0.96834844,0.24940427,0.9989962,0.0012836877,0.04477676,9.7444,0.0909729,0.45010376,9.799316,0.010772705,0.37557983,0.0,-0.008529663,0.0053253174,-30.204773,-22.361755,4.547119,0
1.199005127,-0.037203655,0.2667974,0.96303433,-0.009160157,-0.96375203,0.26664236,0.99926573,0.0010985251,0.038299005,-0.043500505,0.2495528,0.9673836,-0.009857278,-0.9683603,0.24936149,0.9990048,0.0013115811,0.044584073,9.806641,0.0335083,0.39743042,9.799316,0.010772705,0.37557983,0.0,-0.014923096,-0.007461548,-29.307556,-23.617554,5.4107666,0
1.203338623,-0.037236966,0.266836,0.96302223,-0.009156454,-0.9637412,0.26668113,0.9992645,0.0011125276,0.038330074,-0.043312304,0.24990556,0.9673011,-0.009796849,-0.9682693,0.24971704,0.99901354,0.0013393176,0.044386256,9.7348175,0.028717041,0.42616272,9.799316,0.010910034,0.375885,0.0021209717,-0.017044067,-0.007461548,-29.307556,-23.617554,5.4107666,0
1.207672119,-0.037195448,0.2667879,0.96303725,-0.009189759,-0.96375465,0.2666317,0.99926573,0.0010674055,0.038299005,-0.043151125,0.25022757,0.9672249,-0.0097759385,-0.9681861,0.2500401,0.9990207,0.0013339812,0.04422453,9.7348175,-0.11012268,0.296875,9.799316,0.010467529,0.37557983,-0.004257202,-0.009597778,0.0,-29.307556,-23.617554,5.4107666,0
1.212005615,-0.03776117,0.19475877,0.98012406,-0.0063946,-0.98085064,0.19465677,0.9992663,0.0010829659,0.038283467,-0.04298589,0.25054172,0.967151,-0.009744977,-0.96810484,0.2503557,0.99902815,0.0013368984,0.04405637,9.816223,0.05265808,0.3543396,9.799316,0.010620117,0.37542725,-0.004257202,-0.01171875,-0.0021362305,-31.6391,-23.796082,3.5095215,0
1.216339111,-0.037755165,0.19475104,0.9801258,-0.0064248038,-0.9808521,0.19464786,0.9992663,0.0010518462,0.038283467,-0.042857647,0.24947706,0.96743184,-0.009665092,-0.96837974,0.24929333,0.9990344,0.0013338082,0.043913696,9.7827,-0.05744934,0.3591156,9.799316,0.010314941,0.37542725,0.010650635,-0.0063934326,0.0,-31.6391,-23.796082,3.5095215,0
1.220672607,-0.037692696,0.1946707,0.98014414,-0.0064250715,-0.9808681,0.1945674,0.9992687,0.0010362742,0.03822234,-0.04271485,0.24835412,0.967727,-0.009578647,-0.96866834,0.24817291,0.9990414,0.0013311526,0.04375542,9.878464,-0.01914978,0.2106781,9.799454,0.0101623535,0.37483215,-0.008514404,-0.010665894,-0.0010681152,-31.6391,-23.796082,3.5095215,0
1.225006103,-0.037228845,0.24904773,0.9677755,-0.008456036,-0.96849066,0.24890648,0.9992709,0.0010829556,0.03816174,-0.0426145,0.24729185,0.9680035,-0.009518651,-0.9689401,0.2471121,0.9990462,0.0013164711,0.043644786,9.7827,0.11012268,0.22984314,9.799454,0.010620117,0.37423706,0.0010681152,0.0,0.0021209717,-31.100464,-24.334717,5.065918,0
1.2293396,-0.03714822,0.24895051,0.96780354,-0.008463459,-0.9685157,0.24880883,0.99927396,0.0010518394,0.038085613,-0.042464882,0.247342,0.9679973,-0.009533493,-0.96892744,0.24716146,0.9990525,0.001267287,0.043503422,9.864105,-0.07661438,0.19152832,9.799454,0.010314941,0.37348938,0.003189087,-0.007461548,0.010650635,-31.100464,-24.334717,5.065918,0
1.233673096,-0.037159275,0.24896383,0.96779966,-0.008482898,-0.9685121,0.24882141,0.99927324,0.001036279,0.038101148,-0.04237035,0.24736279,0.96799606,-0.009557213,-0.9689221,0.24718112,0.9990562,0.0012218064,0.04341767,9.821014,0.004776001,0.3830719,9.799454,0.0101623535,0.37364197,-0.0032043457,0.0053253174,0.0095825195,-31.100464,-24.334717,5.065918,0
1.238006592,-0.0373663,0.22275539,0.974158,-0.0074439603,-0.97487384,0.22263354,0.99927396,0.0010673993,0.038085613,-0.042254243,0.24741939,0.9679867,-0.009490877,-0.96890765,0.24724048,0.9990618,0.0012599175,0.04328869,9.773117,0.07182312,0.3543396,9.799454,0.010467529,0.37348938,0.0063934326,-0.005340576,-0.009597778,-30.204773,-23.4375,4.2007446,0
1.242340088,-0.037277766,0.22264636,0.9741863,-0.007419362,-0.97489864,0.22252525,0.99927735,0.0010674029,0.037993938,-0.042094547,0.24692225,0.9681206,-0.009510644,-0.96903455,0.24674185,0.9990683,0.0011790368,0.04313946,9.816223,0.02394104,0.33517456,9.799454,0.010467529,0.3725891,-0.0021362305,-0.010665894,0.018096924,-30.204773,-23.4375,4.2007446,0
1.246673584,-0.03724111,0.22260123,0.97419804,-0.007377288,-0.974909,0.22248167,0.9992791,0.0010985244,0.037948884,-0.04192129,0.24657847,0.96821564,-0.009460565,-0.9691221,0.24639969,0.9990761,0.0011695263,0.042959623,9.768341,0.0909729,0.28250122,9.799454,0.010772705,0.3721466,0.034088135,-0.018112183,0.003189087,-30.204773,-23.4375,4.2007446,0
1.25100708,-0.03754599,0.18373273,0.98225886,-0.0059169806,-0.98297554,0.18364063,0.99927735,0.0010829626,0.037993938,-0.041810162,0.24605091,0.9683547,-0.00937931,-0.96925616,0.245875,0.99908155,0.001197575,0.042832546,9.787491,-0.004776001,0.46925354,9.799454,0.010620117,0.3725891,-0.011703491,-0.0063934326,-0.007461548,-30.02472,-23.976135,3.3370972,0
1.255340576,-0.037518505,0.18369932,0.9822662,-0.0058947103,-0.9829818,0.183608,0.9992785,0.0010985237,0.037962865,-0.041680016,0.24478687,0.9686806,-0.009287682,-0.9695761,0.24461356,0.99908787,0.0011986998,0.042685457,9.844955,0.04788208,0.31123352,9.799454,0.010772705,0.37228394,-0.006378174,-0.01171875,-0.0010681152,-30.02472,-23.976135,3.3370972,0
1.259674072,-0.037512835,0.18369244,0.9822677,-0.0059250155,-0.9829831,0.18359995,0.99927855,0.0010674042,0.03796287,-0.04154599,0.24359666,0.96898645,-0.009224297,-0.9698759,0.2434248,0.999094,0.0011751066,0.042541463,9.821014,-0.05265808,0.3543396,9.799454,0.010467529,0.37228394,0.0053253174,-0.01171875,0.0053253174,-30.02472,-23.976135,3.3370972,0
1.264007568,-0.037255425,0.22268228,0.974179,-0.0074475915,-0.9748906,0.22256012,0.999278,0.0010362839,0.037978403,-0.041439522,0.242438,0.9692815,-0.009155393,-0.9701662,0.24226788,0.9990991,0.0011653127,0.042422842,9.92157,-0.0143585205,0.5650177,9.799454,0.0101623535,0.37243652,0.007446289,-0.0063934326,0.0021209717,-31.100464,-24.334717,4.373169,0
1.268341064,-0.037223823,0.22264369,0.974189,-0.0074531846,-0.9748993,0.22252123,0.9992791,0.0010222812,0.037948884,-0.041307162,0.24195708,0.96940726,-0.009130529,-0.97028625,0.24178742,0.99910474,0.0011363508,0.04228897,9.864105,-0.004776001,0.28729248,9.799454,0.010025024,0.3721466,-0.02130127,-0.010665894,0.0053253174,-31.100464,-24.334717,4.373169,0
1.27267456,-0.03706932,0.22245504,0.974238,-0.0074422993,-0.9749424,0.22233272,0.9992849,9.911519E-4,0.037796028,-0.041152716,0.24156657,0.9695112,-0.00905386,-0.9703835,0.2413996,0.99911183,0.0011564312,0.042121034,9.8736725,-0.08618164,0.30166626,9.799606,0.009719849,0.37065125,-0.0010681152,-0.019180298,-0.0053253174,-31.100464,-24.334717,4.373169,0
1.277008057,-0.036964115,0.21296345,0.9763606,-0.007027206,-0.9770596,0.21284986,0.9992919,0.0010067186,0.037612684,-0.04095335,0.24130791,0.9695841,-0.008990633,-0.9704479,0.24114317,0.99912065,0.0011584437,0.041912604,9.725235,0.009567261,0.22505188,9.799606,0.0098724365,0.3688507,0.029830933,-0.028762817,0.0,-29.666138,-23.617554,4.0283203,0
1.281341553,-0.03681887,0.21278846,0.9764043,-0.0070507326,-0.9770978,0.21267372,0.9992971,9.4604027E-4,0.037475955,-0.040773522,0.24072918,0.9697355,-0.008905357,-0.97059155,0.24056728,0.9991287,0.0011729352,0.04171822,9.8688965,-0.07661438,0.40701294,9.799606,0.009277344,0.36750793,-0.0032043457,-0.02557373,-0.004272461,-29.666138,-23.617554,4.0283203,0
1.285675049,-0.03667779,0.21261849,0.9764467,-0.0070451926,-0.9771348,0.21250369,0.99930227,9.1491104E-4,0.037337083,-0.040539723,0.2402129,0.9698733,-0.008855429,-0.9707195,0.24005234,0.99913865,0.0011430113,0.041479893,9.792282,-0.04788208,0.36869812,9.799759,0.008972168,0.3661499,0.0095825195,-0.036224365,0.0063934326,-29.666138,-23.617554,4.0283203,0
1.290008545,-0.03683417,0.1639386,0.98578256,-0.005178779,-0.98647004,0.16385943,0.999308,9.304761E-4,0.037184812,-0.040341046,0.23964977,0.97002095,-0.00879626,-0.9708587,0.23949096,0.99914724,0.0011287592,0.04127348,9.864105,0.0143585205,0.27772522,9.799759,0.009124756,0.36465454,-0.0032043457,-0.028762817,0.0021209717,-31.459045,-25.05188,2.9907227,0
1.294342041,-0.03665794,0.16372238,0.9858252,-0.0051255086,-0.986506,0.16364485,0.99931467,9.4602746E-4,0.037002433,-0.040168893,0.23819564,0.9703862,-0.008673746,-0.9712165,0.23804042,0.9991553,0.001144936,0.04107874,9.806641,0.11491394,0.22505188,9.7999115,0.009277344,0.36286926,0.01171875,-0.026641846,-0.004272461,-31.459045,-25.05188,2.9907227,0
1.298675537,-0.036691688,0.16376379,0.985817,-0.005102741,-0.98649913,0.16368718,0.99931365,9.7558985E-4,0.03703196,-0.039975967,0.23672314,0.9707544,-0.008580428,-0.97157645,0.23657027,0.9991638,0.0011276368,0.040870894,9.883255,0.05265808,0.45010376,9.7999115,0.009567261,0.36315918,0.0010681152,-0.029830933,0.003189087,-31.459045,-25.05188,2.9907227,0
1.303009033,-0.035586238,0.2816328,0.9588621,-0.009492184,-0.9595218,0.28147426,0.9993215,9.149145E-4,0.03681908,-0.03986499,0.2352531,0.9711162,-0.008475415,-0.9719334,0.23510315,0.9991691,0.0011417719,0.04073999,9.8688965,-0.10533142,0.28250122,9.7999115,0.008972168,0.36106873,-0.0053100586,-0.012786865,-0.004272461,-28.948975,-23.258972,5.757141,0
1.307342529,-0.035435673,0.2814594,0.95891863,-0.009408668,-0.95957273,0.2813037,0.9993277,9.4603986E-4,0.036651265,-0.03962071,0.2362172,0.97089225,-0.008465609,-0.9716996,0.23606819,0.99917895,0.0011339942,0.040499147,9.806641,-0.028717041,0.18673706,9.7999115,0.009277344,0.35942078,0.007446289,-0.038360596,0.0010681152,-28.948975,-23.258972,5.757141,0
1.311676025,-0.035439566,0.28146386,0.95891714,-0.009395404,-0.95957124,0.28130865,0.9993276,9.600436E-4,0.03665126,-0.039451398,0.23719564,0.97066045,-0.0084207095,-0.9714611,0.23704904,0.999186,0.0011782671,0.04032286,9.739609,0.02394104,0.3543396,9.7999115,0.009414673,0.35942078,0.017044067,-0.0234375,-0.010650635,-28.948975,-23.258972,5.757141,0
1.316009521,-0.035728812,0.2423036,0.9695423,-0.007948698,-0.97019994,0.24217503,0.9993299,9.460272E-4,0.036590092,-0.039285827,0.23809978,0.9704458,-0.008431926,-0.97124,0.23795328,0.9991925,0.0011654639,0.04016361,9.864105,-0.004776001,0.2106781,9.800064,0.009277344,0.35882568,0.003189087,-0.020248413,0.0021209717,-29.666138,-23.258972,4.7195435,0
1.320343018,-0.03573217,0.24230768,0.9695413,-0.00793527,-0.970199,0.2421796,0.99932986,9.600308E-4,0.03659009,-0.03918918,0.23818174,0.9704296,-0.008355851,-0.97121984,0.23803823,0.9991969,0.0012197573,0.04005152,9.821014,0.03829956,0.3543396,9.800064,0.009414673,0.35882568,0.0,-0.009597778,-0.0138549805,-29.666138,-23.258972,4.7195435,0
1.324676514,-0.035776008,0.24236059,0.96952635,-0.007948266,-0.9701857,0.24223211,0.9993282,9.6004416E-4,0.03663572,-0.03908872,0.23833385,0.97039634,-0.0083022425,-0.97118247,0.2381925,0.99920124,0.0012541732,0.039940983,9.801849,-0.004776001,0.47883606,9.7999115,0.009414673,0.3592682,0.017044067,-0.009597778,-0.008529663,-29.666138,-23.258972,4.7195435,0
1.32901001,-0.03602838,0.22139746,0.9745179,-0.0071957763,-0.9751831,0.22128256,0.9993248,9.6004095E-4,0.036727402,-0.038957905,0.23847325,0.9703674,-0.008330728,-0.9711483,0.23833072,0.9992061,0.0012009977,0.039820556,9.8688965,0.0143585205,0.61769104,9.7999115,0.009414673,0.36016846,0.013839722,-0.012786865,0.01171875,-29.846191,-24.871826,4.547119,0
1.333343506,-0.036036924,0.22140723,0.9745153,-0.007228389,-0.975181,0.22129117,0.9993243,9.304768E-4,0.03674294,-0.03888556,0.23821208,0.97043437,-0.008326792,-0.9712124,0.2380694,0.9992089,0.0011768577,0.039749682,9.725235,-0.04788208,0.37348938,9.7999115,0.009124756,0.36032104,0.019165039,-0.0021362305,0.0053253174,-29.846191,-24.871826,4.547119,0
1.337677002,-0.035991844,0.22135559,0.97452873,-0.007216158,-0.97519267,0.22123988,0.999326,9.304784E-4,0.036696322,-0.038851764,0.2379599,0.9704976,-0.008304791,-0.9712742,0.23781787,0.9992105,0.0011798644,0.039711922,9.715668,0.0,0.23461914,9.7999115,0.009124756,0.35986328,0.020233154,0.0053253174,-0.0010681152,-29.846191,-24.871826,4.547119,0
1.342010498,-0.03564629,0.2610018,0.96467996,-0.008643966,-0.96533775,0.26086035,0.999327,9.6004305E-4,0.0366668,-0.038791493,0.23769036,0.9705661,-0.008295137,-0.9713403,0.23754841,0.9992129,0.0011638787,0.039651416,9.926346,0.06703186,0.31123352,9.7999115,0.009414673,0.35957336,0.014907837,0.0,0.003189087,-29.846191,-23.4375,5.2383423,0
1.346343994,-0.035601214,0.26094803,0.96469617,-0.008629679,-0.9653524,0.26080707,0.9993288,9.600298E-4,0.03661961,-0.038757052,0.23816346,0.9704515,-0.008338447,-0.97122437,0.23802014,0.9992139,0.0011329021,0.039627712,9.964661,0.0335083,0.22026062,9.800064,0.009414673,0.3591156,0.0010681152,0.008514404,0.0063934326,-29.846191,-23.4375,5.2383423,0
1.35067749,-0.03557703,0.26091918,0.9647049,-0.008605899,-0.96536016,0.26077905,0.99932986,9.755905E-4,0.03659009,-0.038751632,0.23864968,0.97033226,-0.008317986,-0.971105,0.23850755,0.99921423,0.0011713479,0.039616987,9.76355,0.05744934,0.30645752,9.800064,0.009567261,0.35882568,0.007446289,0.011703491,-0.009597778,-29.846191,-23.4375,5.2383423,0
1.355010986,-0.035921633,0.2221643,0.9743473,-0.007185119,-0.9750087,0.22205022,0.99932873,9.756046E-4,0.03662018,-0.038707905,0.23911041,0.9702205,-0.008357919,-0.9709917,0.23896703,0.9992156,0.0011408888,0.039583523,9.835373,-0.004776001,0.4165802,9.7999115,0.009567261,0.3591156,0.003189087,0.006378174,0.0063934326,-29.666138,-23.976135,4.373169,0
1.359344482,-0.035963267,0.2222135,0.9743346,-0.007212455,-0.9749975,0.22209848,0.999327,9.6004305E-4,0.0366668,-0.038610622,0.23876593,0.97030926,-0.0083892,-0.9710765,0.23862092,0.9992191,0.0010731854,0.03949693,9.806641,-0.01914978,0.48362732,9.7999115,0.009414673,0.35957336,-0.0021362305,-0.0063934326,0.014892578,-29.666138,-23.976135,4.373169,0
1.363677978,-0.035886034,0.22212224,0.9743582,-0.0072057038,-0.9750184,0.22200735,0.9993299,9.460272E-4,0.036590092,-0.03858744,0.23847374,0.97038203,-0.008339427,-0.9711483,0.23833045,0.99922043,0.0011041311,0.03946286,9.844955,-0.02394104,0.16758728,9.800064,0.009277344,0.35882568,0.0095825195,0.0053253174,-0.007461548,-29.666138,-23.976135,4.373169,0
1.368011475,-0.03620259,0.16517147,0.9856002,-0.0050743953,-0.98626435,0.16509639,0.9993316,9.755922E-4,0.036543474,-0.038552213,0.23818593,0.9704541,-0.0082971435,-0.9712189,0.23804402,0.9992221,0.001125128,0.039418902,9.830582,0.05744934,0.25378418,9.800064,0.009567261,0.35836792,0.0095825195,0.003189087,-0.0053253174,-30.204773,-23.4375,2.8182983,0
1.372344971,-0.036171112,0.16513185,0.985608,-0.0050833994,-0.9862711,0.16505638,0.9993327,9.6003356E-4,0.03651395,-0.038583346,0.23677595,0.97079784,-0.008224067,-0.9715636,0.23663585,0.99922156,0.0011462957,0.039433435,9.830582,-0.028717041,0.2681427,9.800064,0.009414673,0.358078,0.0095825195,0.017028809,-0.0053253174,-30.204773,-23.4375,2.8182983,0
1.376678467,-0.036138363,0.16509064,0.98561615,-0.0050905575,-0.98627806,0.16501485,0.99933386,9.4603095E-4,0.036482874,-0.038610954,0.23537058,0.9711385,-0.008142679,-0.97190493,0.23523264,0.99922115,0.0011748865,0.03944272,9.662994,-0.009567261,0.28250122,9.800064,0.009277344,0.35777283,0.004257202,0.015960693,-0.007461548,-30.204773,-23.4375,2.8182983,0
1.381011963,-0.035878524,0.21018843,0.9770023,-0.0067624724,-0.9776604,0.21008167,0.99933326,9.304707E-4,0.036498412,-0.038650457,0.23401015,0.9714656,-0.008084701,-0.9722334,0.23387344,0.9992201,0.0011853068,0.039469168,9.758759,-0.04309082,0.36869812,9.800064,0.009124756,0.35792542,0.008514404,0.020217896,-0.0032043457,-30.204773,-23.078918,3.855896,0
1.385345459,-0.035884682,0.21019618,0.9770004,-0.0067338725,-0.9776586,0.21009046,0.99933314,9.6003397E-4,0.03649841,-0.038675275,0.23357016,0.9715705,-0.008071417,-0.9723392,0.23343368,0.99921924,0.0011861603,0.039490726,9.8688965,0.08618164,0.3591156,9.800064,0.009414673,0.35792542,0.008514404,0.01914978,-0.0010681152,-30.204773,-23.078918,3.855896,0
1.389678955,-0.035884682,0.21019618,0.9770004,-0.0067338725,-0.9776586,0.21009046,0.99933314,9.6003397E-4,0.03649841,-0.038694225,0.23309444,0.97168404,-0.008042513,-0.97245336,0.23295875,0.99921876,0.0011993761,0.039502993,9.8736725,0.0335083,0.37828064,9.800064,0.009414673,0.35792542,-0.0021362305,0.017028809,-0.004272461,-30.204773,-23.078918,3.855896,0
1.394012451,-0.035941333,0.21026744,0.9769831,-0.006685161,-0.97764343,0.21016362,0.99933153,0.0010222712,0.036543474,-0.038645063,0.23265505,0.9717912,-0.008007136,-0.97255856,0.23252033,0.9992209,0.0012044981,0.039447486,9.859314,0.16758728,0.47883606,9.800064,0.010025024,0.35836792,0.004257202,0.0010528564,-0.0021362305,-30.204773,-23.078918,3.855896,0
1.398345947,-0.035968207,0.2103012,0.9769748,-0.0067081414,-0.9776361,0.21019658,0.99933034,0.0010067103,0.03657455,-0.038616646,0.23224808,0.97188973,-0.007990125,-0.97265583,0.23211369,0.99922216,0.0011979324,0.0394164,9.801849,-0.04309082,0.42616272,9.800064,0.0098724365,0.3586731,0.0095825195,0.006378174,0.0010681152,-30.204773,-23.078918,3.855896,0
1.402679443,-0.03593726,0.2102623,0.9769843,-0.0067779287,-0.97764456,0.21015508,0.99933106,9.3046855E-4,0.03655901,-0.03854774,0.2318107,0.9719968,-0.007973284,-0.97276014,0.23167653,0.9992249,0.0011806004,0.039346,9.82579,-0.17237854,0.34475708,9.800064,0.009124756,0.3585205,0.0,-0.0032043457,0.003189087,-30.204773,-23.078918,3.855896,0
1.407012939,-0.036175065,0.1782627,0.9833178,-0.005578632,-0.9839825,0.17817797,0.99932986,9.600308E-4,0.03659009,-0.038483296,0.23140551,0.9720959,-0.007903395,-0.97285664,0.2312737,0.999228,0.0012173159,0.03926762,9.911987,0.08139038,0.42137146,9.800064,0.009414673,0.35882568,0.0063934326,-0.005340576,-0.009597778,-31.280518,-23.796082,3.163147,0
1.411346435,-0.036177814,0.1782662,0.98331696,-0.005563461,-0.9839818,0.17818204,0.99932986,9.755905E-4,0.03659009,-0.03846343,0.23035626,0.9723459,-0.007827643,-0.97310555,0.23022659,0.9992294,0.0012441274,0.039232124,9.844955,0.04309082,0.36390686,9.800064,0.009567261,0.35882568,0.0021209717,0.004257202,-0.007461548,-31.280518,-23.796082,3.163147,0
1.415679932,-0.036172587,0.17825952,0.98331845,-0.005592286,-0.98398316,0.17817429,0.9993299,9.460272E-4,0.036590092,-0.038434442,0.2293244,0.9725909,-0.0077741197,-0.9733492,0.22919598,0.99923086,0.0012479825,0.039192934,9.7348175,-0.08618164,0.3591156,9.800064,0.009277344,0.35882568,0.0010681152,0.003189087,-0.0021362305,-31.280518,-23.796082,3.163147,0
1.420013428,-0.03563554,0.2546644,0.96637267,-0.008422972,-0.9670289,0.25452676,0.99932927,9.304669E-4,0.036605626,-0.0383138,0.22835751,0.97282314,-0.0077192513,-0.97357655,0.22823036,0.9992359,0.0012349047,0.039064165,9.730026,-0.0335083,0.39743042,9.800064,0.009124756,0.35897827,0.01171875,-0.018112183,0.0021209717,-30.563354,-24.154663,5.2383423,0
1.424346924,-0.03563554,0.2546644,0.96637267,-0.008422972,-0.9670289,0.25452676,0.99932927,9.304669E-4,0.036605626,-0.038250517,0.22882403,0.97271603,-0.007737031,-0.973467,0.22869645,0.9992382,0.0012218236,0.039006036,9.753967,0.02394104,0.34475708,9.800064,0.009124756,0.35897827,-0.014907837,-0.0021362305,0.0010681152,-30.563354,-24.154663,5.2383423,0
1.42868042,-0.035662193,0.25469607,0.9663633,-0.008321893,-0.9670206,0.25456217,0.9993292,0.0010362725,0.036605626,-0.03811574,0.2293866,0.9725887,-0.0077231424,-0.97333455,0.22925983,0.99924344,0.0012269675,0.038870957,9.753967,0.08139038,0.36869812,9.800064,0.0101623535,0.35897827,0.010650635,-0.020248413,-0.0021362305,-30.563354,-24.154663,5.2383423,0
1.433013916,-0.03556465,0.26642144,0.9632002,-0.008786724,-0.9638559,0.2662784,0.9993287,0.0010067243,0.03662018,-0.038092088,0.22998828,0.9724476,-0.0076680677,-0.9731925,0.22986408,0.9992448,0.0012992087,0.0388345,9.797058,-0.07182312,0.37348938,9.7999115,0.0098724365,0.3591156,0.0234375,0.0021209717,-0.017044067,-30.3833,-23.617554,5.4107666,0
1.437347412,-0.0356009,0.266465,0.96318686,-0.008830732,-0.963844,0.2663204,0.999327,9.756029E-4,0.0366668,-0.03806676,0.23071931,0.97227544,-0.007665594,-0.9730194,0.23059575,0.99924576,0.0013249636,0.038808297,9.830582,-0.06703186,0.49319458,9.7999115,0.009567261,0.35957336,0.0,0.004257202,-0.007461548,-30.3833,-23.617554,5.4107666,0
1.441680908,-0.0356009,0.266465,0.96318686,-0.008830732,-0.963844,0.2663204,0.999327,9.756029E-4,0.0366668,-0.038004328,0.23152004,0.97208744,-0.0076687355,-0.97282916,0.23139687,0.99924815,0.0013394007,0.038747188,9.8736725,0.03829956,0.33996582,9.7999115,0.009567261,0.35957336,0.020233154,-0.004272461,-0.004272461,-30.3833,-23.617554,5.4107666,0
1.446014404,-0.036012616,0.2249229,0.97371083,-0.00728058,-0.974376,0.22480728,0.9993248,0.0010067204,0.036727402,-0.037879582,0.23218659,0.97193336,-0.0076658614,-0.9726703,0.23206387,0.9992529,0.0013397762,0.038624257,9.878464,0.08139038,0.52671814,9.7999115,0.0098724365,0.36016846,-0.008514404,-0.019180298,-0.0021362305,-30.563354,-23.078918,4.2007446,0
1.4503479,-0.036004197,0.22491223,0.9737135,-0.0072479015,-0.97437835,0.22479779,0.9993253,0.0010362845,0.036711857,-0.037789587,0.23201962,0.9719768,-0.007645308,-0.9727102,0.23189746,0.9992565,0.0013322463,0.038532175,9.8736725,0.06703186,0.3256073,9.7999115,0.0101623535,0.36001587,-0.0053100586,-0.012786865,0.0,-30.563354,-23.078918,4.2007446,0
1.454681396,-0.035957582,0.22485332,0.97372895,-0.0072492254,-0.9743921,0.22473876,0.999327,0.0010222824,0.0366668,-0.037709046,0.23190925,0.9720062,-0.0076496117,-0.97273654,0.23178671,0.9992595,0.0013049861,0.038454983,9.730026,-0.0143585205,0.23461914,9.7999115,0.010025024,0.35957336,0.007446289,-0.009597778,0.0053253174,-30.563354,-23.078918,4.2007446,0
1.459014893,-0.03593941,0.22321728,0.9741059,-0.007181913,-0.97476804,0.22310404,0.9993281,0.0010222836,0.03663572,-0.037659965,0.2317956,0.9720352,-0.007661203,-0.97276366,0.23167248,0.9992612,0.0012778175,0.038410075,9.82579,0.0,0.31602478,9.7999115,0.010025024,0.3592682,0.0063934326,-0.0021362305,0.0053253174,-30.3833,-23.976135,4.373169,0
1.463348389,-0.0359441,0.22322296,0.9741044,-0.0072310627,-0.9747668,0.22310792,0.9993276,9.7560347E-4,0.03665126,-0.037531354,0.23163465,0.9720786,-0.0076712556,-0.97280204,0.23151086,0.99926597,0.0012318529,0.038287506,9.830582,-0.10055542,0.39743042,9.7999115,0.009567261,0.35942078,0.0021209717,-0.020248413,0.0095825195,-30.3833,-23.976135,4.373169,0
1.467681885,-0.035848442,0.2231072,0.9741345,-0.0072350204,-0.97479343,0.22299187,0.99933106,9.460283E-4,0.03655901,-0.037443176,0.23143426,0.9721297,-0.0076069124,-0.9728497,0.23131268,0.99926984,0.0012661744,0.038187083,9.816223,0.004776001,0.42616272,9.800064,0.009277344,0.3585205,-0.007446289,-0.015991211,-0.009597778,-30.3833,-23.976135,4.373169,0
1.472015381,-0.03563157,0.24695195,0.96837246,-0.00810492,-0.9690273,0.24682073,0.99933213,9.4602926E-4,0.03652949,-0.03729864,0.23129973,0.97216725,-0.0076048523,-0.97288173,0.23117796,0.9992752,0.001229434,0.038046163,9.76355,0.0335083,0.2681427,9.800064,0.009277344,0.3582306,0.007446289,-0.02557373,0.007446289,-29.48761,-23.4375,4.891968,0
1.476531982,-0.035608977,0.24692515,0.9683801,-0.008067629,-0.969034,0.24679522,0.99933314,9.755937E-4,0.03649841,-0.03725044,0.23169404,0.9720752,-0.007658213,-0.972788,0.23157045,0.9992766,0.0011817426,0.038011145,9.792282,0.06703186,0.25378418,9.800064,0.009567261,0.35792542,0.019165039,-0.0010681152,0.010650635,-29.48761,-23.4375,4.891968,0
1.481048584,-0.035582956,0.24689423,0.96838886,-0.008043751,-0.9690418,0.24676515,0.99933434,9.911546E-4,0.036467332,-0.03723848,0.23204589,0.97199184,-0.00770097,-0.9727042,0.23192093,0.99927676,0.0011511022,0.038009,9.888046,0.0622406,0.29208374,9.800064,0.009719849,0.35762024,0.010650635,0.006378174,0.0063934326,-29.48761,-23.4375,4.891968,0
1.485595703,-0.035604905,0.24376935,0.96917945,-0.007944091,-0.9698327,0.24364181,0.99933434,9.7559486E-4,0.036467332,-0.037164103,0.2323295,0.9719268,-0.007698437,-0.97263646,0.23220475,0.9992795,0.0011473639,0.037935738,9.76355,-0.0335083,0.3543396,9.800064,0.009567261,0.35762024,-0.0032043457,-0.009597778,0.0,-30.3833,-21.824646,4.373169,0
1.490112305,-0.03562357,0.24379395,0.9691726,-0.007933703,-0.9698266,0.24366683,0.99933374,9.91154E-4,0.03648287,-0.037105333,0.23258597,0.97186774,-0.0076970914,-0.9725751,0.2324614,0.9992817,0.0011450029,0.037877962,9.82579,0.04788208,0.3878479,9.800064,0.009719849,0.35777283,0.0063934326,-0.0063934326,0.0,-30.3833,-21.824646,4.373169,0
1.494659424,-0.03557658,0.243732,0.9691899,-0.007935522,-0.96984214,0.24360473,0.9993354,9.755959E-4,0.036437806,-0.037135124,0.23276822,0.971823,-0.007696896,-0.97253156,0.23264381,0.99928063,0.0011592363,0.037906673,9.7348175,-0.0143585205,0.2681427,9.800064,0.009567261,0.35733032,-0.0095825195,0.012756348,-0.004272461,-30.3833,-21.824646,4.373169,0
1.499176025,-0.035511844,0.24564491,0.9687092,-0.008009314,-0.9693594,0.24551618,0.99933714,9.6003787E-4,0.03639119,-0.03716439,0.23304203,0.9717563,-0.0076922188,-0.97246593,0.23291804,0.99927956,0.0011812956,0.037933715,9.82579,-0.04309082,0.24420166,9.800064,0.009414673,0.35687256,0.012786865,0.012756348,-0.0053253174,-29.666138,-22.90039,4.7195435,0
1.503723144,-0.03550221,0.24563313,0.96871257,-0.007990372,-0.96936244,0.24550506,0.9993377,9.755981E-4,0.036377206,-0.037161298,0.23335063,0.97168225,-0.0077352896,-0.97239196,0.23322521,0.9992793,0.0011507086,0.037940383,9.844955,0.0335083,0.31602478,9.800064,0.009567261,0.35673523,0.012786865,0.008514404,0.0063934326,-29.666138,-22.90039,4.7195435,0
