Serial,Time,Imid,ax,ay,az,vx,vy,vz,dx,dy,dz,0.08430257,0.06273687,0.097578876
0,0.0,0,-0.16046369,0.0036365986,-0.093663216,0.0,0.0,0.0,0.0,0.0,0.0
1,0.004425049,0,-0.06782883,0.08252573,0.02648735,0.0,0.0,0.0,0.0,0.0,0.0
2,0.00881958,0,-0.049618237,0.008250952,0.025465965,0.0,0.0,0.0,0.0,0.0,0.0
3,0.013244629,0,0.0017221626,0.06748295,0.09174347,0.0,0.0,0.0,0.0,0.0,0.0
4,0.017669678,0,-0.026921624,-8.201599E-5,0.045918465,0.0,0.0,0.0,0.0,0.0,0.0
5,0.022064209,0,-0.0052677933,0.014695883,0.07116127,0.0,0.0,0.0,0.0,0.0,0.0
6,0.026489258,0,-0.09465545,-0.16508842,-0.0642643,0.0,0.0,0.0,0.0,0.0,0.0
7,0.030883789,0,-0.04998865,0.054457664,0.035553932,0.0,0.0,0.0,0.0,0.0,0.0
8,0.035308838,0,0.16187724,0.13605094,0.26820755,0.0,0.0,0.0,0.0,0.0,0.0
9,0.039733887,0,-0.09157344,-0.025846004,-0.025712013,0.0,0.0,0.0,0.0,0.0,0.0
10,0.044128418,0,-0.048137836,-0.014686108,0.02000618,0.0,0.0,0.0,0.0,0.0,0.0
11,0.048553467,0,-0.049748383,0.07715821,0.041632652,0.0,0.0,0.0,0.0,0.0,0.0
12,0.052947998,0,-0.06936654,0.048653364,0.014609337,0.0,0.0,0.0,0.0,0.0,0.0
13,0.057373047,0,-0.083686225,-0.015307188,-0.016316414,0.0,0.0,0.0,0.0,0.0,0.0
14,0.061798096,0,0.05937413,0.025774479,0.13673496,0.0,0.0,0.0,0.0,0.0,0.0
15,0.06619263,0,-0.07760393,-0.041452885,-0.01713276,0.0,0.0,0.0,0.0,0.0,0.0
16,0.07116699,0,-0.01131391,0.063237906,0.07540417,0.0,0.0,0.0,0.0,0.0,0.0
17,0.07614136,0,-0.03304871,0.08978462,0.060585976,0.0,0.0,0.0,0.0,0.0,0.0
18,0.08114624,0,0.052907266,0.009865761,0.12745857,0.0,0.0,0.0,0.0,0.0,0.0
19,0.086120605,0,0.052754737,0.009865761,0.1274538,0.0,0.0,0.0,0.0,0.0,0.0
20,0.09109497,0,-0.13512132,-0.11229229,-0.090325356,0.0,0.0,0.0,0.0,0.0,0.0
21,0.096069336,0,-0.13450822,-0.11186385,-0.09041977,0.0,0.0,0.0,0.0,0.0,0.0
22,0.1010437,0,0.08458749,0.045867205,0.16812229,0.0,0.0,0.0,0.0,0.0,0.0
23,0.10601807,0,-0.015606249,0.024816036,0.06292629,0.0,0.0,0.0,0.0,0.0,0.0
24,0.11099243,0,0.12379036,0.0741632,0.2147522,0.0,0.0,0.0,0.0,0.0,0.0
25,0.11553955,0,0.021632677,0.034274578,0.10280228,0.0,0.0,0.0,0.0,0.0,0.0
26,0.11984253,0,0.08239696,0.07748175,0.17481422,0.0,0.0,0.0,0.0,0.0,0.0
27,0.12414551,0,-0.1077617,0.033420563,-0.026256561,0.0,0.0,0.0,0.0,0.0,0.0
28,0.12844849,0,-0.027198875,-0.024837017,0.039064407,0.0,0.0,0.0,0.0,0.0,0.0
29,0.13275146,0,-0.010316903,0.039622545,0.072161674,0.0,0.0,0.0,0.0,0.0,0.0
30,0.13705444,0,0.13935593,0.07768202,0.23134232,0.0,0.0,0.0,0.0,0.0,0.0
31,0.14135742,0,0.06341974,0.0076088905,0.13810539,0.0,0.0,0.0,0.0,0.0,0.0
32,0.1456604,0,-0.0385653,0.08768797,0.056871414,0.0,0.0,0.0,0.0,0.0,0.0
33,0.14996338,0,0.11830459,0.16897655,0.23440075,0.0,0.0,0.0,0.0,0.0,0.0
34,0.15426636,0,-0.0713345,0.06937218,0.019945145,0.0,0.0,0.0,0.0,0.0,0.0
35,0.15856934,0,-0.06361868,0.089487314,0.032657623,0.0,0.0,0.0,0.0,0.0,0.0
36,0.16287231,0,-0.039618067,0.08132076,0.054350853,0.0,0.0,0.0,0.0,0.0,0.0
37,0.1671753,0,0.092699684,0.05938697,0.1808176,0.0,0.0,0.0,0.0,0.0,0.0
38,0.17147827,0,0.0585543,0.022984028,0.13787842,0.0,0.0,0.0,0.0,0.0,0.0
39,0.17578125,0,0.03295154,-0.048100233,0.094239235,0.0,0.0,0.0,0.0,0.0,0.0
40,0.18008423,0,0.16734561,0.028134108,0.24803829,0.0,0.0,0.0,0.0,0.0,0.0
41,0.1843872,0,-0.0014324728,0.016877413,0.07575035,0.0,0.0,0.0,0.0,0.0,0.0
42,0.18869019,0,0.033736117,0.034976006,0.11425495,0.0,0.0,0.0,0.0,0.0,0.0
43,0.19299316,0,0.10701168,0.058187723,0.19343853,0.0,0.0,0.0,0.0,0.0,0.0
44,0.19729614,0,0.13727367,0.09827781,0.23419094,0.0,0.0,0.0,0.0,0.0,0.0
45,0.20159912,0,0.060951807,0.03680277,0.14194584,0.0,0.0,0.0,0.0,0.0,0.0
46,0.2059021,0,0.13661379,0.027851582,0.2133789,0.0,0.0,0.0,0.0,0.0,0.0
47,0.21020508,0,-0.09858885,0.059325457,-0.014699936,0.0,0.0,0.0,0.0,0.0,0.0
48,0.21450806,0,0.15175381,0.16438913,0.2618904,0.0,0.0,0.0,0.0,0.0,0.0
49,0.21881104,0,0.029781437,-0.06580496,0.080140114,0.0,0.0,0.0,0.0,0.0,0.0
50,0.22311401,0,-0.11991411,-0.08096266,-0.07485962,0.0,0.0,0.0,0.0,0.0,0.0
51,0.22741699,0,-0.13944581,-0.003526926,-0.07702732,0.0,0.0,0.0,0.0,0.0,0.0
52,0.23171997,0,-0.08914047,0.027475357,-0.020881653,0.0,0.0,0.0,0.0,0.0,0.0
53,0.23602295,0,-0.1612814,-0.04200816,-0.11118984,0.0,0.0,0.0,0.0,0.0,0.0
54,0.24032593,0,0.018376058,0.012345552,0.08046436,0.0,0.0,0.0,0.0,0.0,0.0
55,0.2446289,0,0.005201852,0.03685069,0.071413994,0.0,0.0,0.0,0.0,0.0,0.0
56,0.24893188,0,-0.048525713,0.07789302,0.02626419,0.0,0.0,0.0,0.0,0.0,0.0
57,0.25323486,0,-0.03933751,0.09790206,0.038417816,0.0,0.0,0.0,0.0,0.0,0.0
58,0.25753784,0,0.0020780023,0.011029959,0.056464195,0.0,0.0,0.0,0.0,0.0,0.0
59,0.26184082,0,-0.07032817,0.084364414,0.0015411377,0.0,0.0,0.0,0.0,0.0,0.0
60,0.2661438,0,-0.11098423,-0.05577302,-0.07614994,0.0,0.0,0.0,0.0,0.0,0.0
61,0.27044678,0,-0.0459766,0.066949606,0.019670486,0.0,0.0,0.0,0.0,0.0,0.0
62,0.27474976,0,0.023729866,0.06625223,0.08734226,0.0,0.0,0.0,0.0,0.0,0.0
63,0.27905273,0,0.0046744104,0.05663562,0.065999985,0.0,0.0,0.0,0.0,0.0,0.0
64,0.2833557,0,0.09214739,0.12053323,0.16851234,0.0,0.0,0.0,0.0,0.0,0.0
65,0.2876587,0,-0.12788615,-5.631447E-4,-0.08170128,0.0,0.0,0.0,0.0,0.0,0.0
66,0.29196167,0,-0.25170377,0.04131937,-0.19514656,0.0,0.0,0.0,0.0,0.0,0.0
67,0.29626465,0,-0.055887274,0.0861671,0.011127472,0.0,0.0,0.0,0.0,0.0,0.0
68,0.30056763,0,-0.07137715,-0.0058825016,-0.028059006,0.0,0.0,0.0,0.0,0.0,0.0
69,0.3048706,0,0.06230984,0.07881713,0.12687969,0.0,0.0,0.0,0.0,0.0,0.0
70,0.30917358,0,0.017243749,-0.05271983,0.048516273,0.0,0.0,0.0,0.0,0.0,0.0
71,0.31347656,0,-0.07065227,-0.001250267,-0.026247978,0.0,0.0,0.0,0.0,0.0,0.0
72,0.31777954,0,0.10442413,-0.0073742867,0.14695454,0.0,0.0,0.0,0.0,0.0,0.0
73,0.32208252,0,0.19680744,0.07654095,0.26091385,0.0,0.0,0.0,0.0,0.0,0.0
74,0.3263855,0,-0.056715094,0.06719923,0.00593853,0.0,0.0,0.0,0.0,0.0,0.0
75,0.33068848,0,0.028232163,0.097804785,0.0983448,0.0,0.0,0.0,0.0,0.0,0.0
76,0.33499146,0,-0.072189264,0.04408884,-0.015414238,0.0,0.0,0.0,0.0,0.0,0.0
77,0.33929443,0,0.07571942,-0.047566652,0.10888195,0.0,0.0,0.0,0.0,0.0,0.0
78,0.3435974,0,-0.042630218,-0.008277416,6.8855286E-4,0.0,0.0,0.0,0.0,0.0,0.0
79,0.3491211,0,-0.0824857,-0.02767539,-0.04451561,0.0,0.0,0.0,0.0,0.0,0.0
80,0.35464478,0,0.10046292,0.06053257,0.16052914,0.0,0.0,0.0,0.0,0.0,0.0
81,0.36019897,0,0.05785755,0.01684308,0.10608482,0.0,0.0,0.0,0.0,0.0,0.0
82,0.36572266,0,0.049455978,0.028630733,0.10081959,0.0,0.0,0.0,0.0,0.0,0.0
83,0.3711548,0,0.0513419,-0.06363487,0.078157425,0.0,0.0,0.0,0.0,0.0,0.0
84,0.3756714,0,0.058687635,0.053631067,0.114551544,0.0,0.0,0.0,0.0,0.0,0.0
85,0.38000488,0,-0.08792331,0.002131939,-0.046477318,0.0,0.0,0.0,0.0,0.0,0.0
86,0.38433838,0,-0.052877896,0.12564516,0.019195557,0.0,0.0,0.0,0.0,0.0,0.0
87,0.38867188,0,0.12868991,0.0049841404,0.16805649,0.0,0.0,0.0,0.0,0.0,0.0
88,0.39300537,0,-0.11865451,-0.0903821,-0.10428047,0.0,0.0,0.0,0.0,0.0,0.0
89,0.39733887,0,0.023036515,0.024307966,0.06620979,0.0,0.0,0.0,0.0,0.0,0.0
90,0.40167236,0,-0.04463788,0.020114183,-0.0030527115,0.0,0.0,0.0,0.0,0.0,0.0
91,0.40600586,0,-0.021425063,-0.029417515,0.007429123,0.0,0.0,0.0,0.0,0.0,0.0
92,0.41033936,0,0.055000015,0.008593082,0.093333244,0.0,0.0,0.0,0.0,0.0,0.0
93,0.41467285,0,-0.10650926,0.008998871,-0.06813431,0.0,0.0,0.0,0.0,0.0,0.0
94,0.41900635,0,-0.059806578,-0.05863738,-0.03928852,0.0,0.0,0.0,0.0,0.0,0.0
95,0.42333984,0,-0.1225984,-0.051615715,-0.10059357,0.0,0.0,0.0,0.0,0.0,0.0
96,0.42767334,0,-0.12009268,0.06902957,-0.06780434,0.0,0.0,0.0,0.0,0.0,0.0
97,0.43200684,0,-0.07752334,0.060955048,-0.027579308,0.0,0.0,0.0,0.0,0.0,0.0
98,0.43634033,0,-0.023356432,-0.06406808,-0.0054855347,0.0,0.0,0.0,0.0,0.0,0.0
99,0.44067383,0,0.08943466,0.098679304,0.14834595,0.0,0.0,0.0,0.0,0.0,0.0
100,0.44500732,0,0.07796834,0.13705182,0.14709759,0.0,0.0,0.0,0.0,0.0,0.0
101,0.44934082,0,0.027123516,-0.07936692,0.0413208,0.0,0.0,0.0,0.0,0.0,0.0
102,0.45367432,0,-0.00215959,0.03343177,0.040747643,0.0,0.0,0.0,0.0,0.0,0.0
103,0.4580078,0,-0.049000762,0.039814234,-0.0043649673,0.0,0.0,0.0,0.0,0.0,0.0
104,0.4623413,0,-0.048765473,0.057849407,-3.9100647E-4,0.0,0.0,0.0,0.0,0.0,0.0
105,0.4666748,0,0.024963772,0.025547743,0.064845085,0.0,0.0,0.0,0.0,0.0,0.0
106,0.4710083,0,-0.028561288,0.08016586,0.024616241,0.0,0.0,0.0,0.0,0.0,0.0
107,0.4753418,0,-0.06100508,0.011058569,-0.026370049,0.0,0.0,0.0,0.0,0.0,0.0
108,0.4796753,0,-0.10344776,0.12461996,-0.03994274,0.0,0.0,0.0,0.0,0.0,0.0
109,0.4840088,0,0.0027427133,-0.02880907,0.026756287,0.0,0.0,0.0,0.0,0.0,0.0
110,0.4883423,0,-0.015481645,0.08118272,0.035969734,0.0,0.0,0.0,0.0,0.0,0.0
111,0.49267578,0,0.099957176,0.10107565,0.15640354,0.0,0.0,0.0,0.0,0.0,0.0
112,0.49700928,0,-0.021480495,0.12991762,0.042785645,0.0,0.0,0.0,0.0,0.0,0.0
113,0.5013428,0,-0.033144407,0.07567024,0.017472267,0.0,0.0,0.0,0.0,0.0,0.0
114,0.50567627,0,-0.10687312,0.014941931,-0.07193565,0.0,0.0,0.0,0.0,0.0,0.0
115,0.51000977,0,-0.10742306,-0.077738285,-0.09493542,0.0,0.0,0.0,0.0,0.0,0.0
116,0.51434326,0,0.029435283,0.09095192,0.08432484,0.0,0.0,0.0,0.0,0.0,0.0
117,0.51867676,0,-0.025112713,-0.09850764,-0.018409729,0.0,0.0,0.0,0.0,0.0,0.0
118,0.52301025,0,0.037068166,0.046877623,0.080638885,0.0,0.0,0.0,0.0,0.0,0.0
119,0.52734375,0,-0.032897912,0.014943123,0.0025959015,0.0,0.0,0.0,0.0,0.0,0.0
120,0.53167725,0,-0.05982601,0.017440796,-0.022577286,0.0,0.0,0.0,0.0,0.0,0.0
121,0.53601074,0,0.0041820165,0.01984191,0.041722298,0.0,0.0,0.0,0.0,0.0,0.0
122,0.54034424,0,0.05003927,0.072912216,0.10106468,0.0,0.0,0.0,0.0,0.0,0.0
123,0.54467773,0,0.100058384,-0.04363656,0.1214962,0.0,0.0,0.0,0.0,0.0,0.0
124,0.54901123,0,-0.11324202,-0.10704446,-0.10764694,0.0,0.0,0.0,0.0,0.0,0.0
125,0.5533447,0,0.091971286,0.084047794,0.14546204,0.0,0.0,0.0,0.0,0.0,0.0
126,0.5576782,0,0.07291109,-0.008570671,0.10330105,0.0,0.0,0.0,0.0,0.0,0.0
127,0.5620117,0,0.09825087,0.030232191,0.13870811,0.0,0.0,0.0,0.0,0.0,0.0
128,0.5663452,0,0.16734469,0.015691519,0.2043829,0.0,0.0,0.0,0.0,0.0,0.0
129,0.5706787,0,0.040524878,-0.025689125,0.067578316,0.0,0.0,0.0,0.0,0.0,0.0
130,0.5750122,0,0.10243527,0.07333636,0.15460205,0.0,0.0,0.0,0.0,0.0,0.0
131,0.5793457,0,0.065440364,0.06848335,0.1169796,0.0,0.0,0.0,0.0,0.0,0.0
132,0.5836792,0,0.07283703,0.124999285,0.13816452,0.0,0.0,0.0,0.0,0.0,0.0
133,0.5880127,0,-0.17677116,-0.049740076,-0.15679836,0.0,0.0,0.0,0.0,0.0,0.0
134,0.5923462,0,-0.08937373,0.11080837,-0.03094387,0.0,0.0,0.0,0.0,0.0,0.0
135,0.5966797,0,0.06062738,0.0329206,0.09701538,0.0,0.0,0.0,0.0,0.0,0.0
136,0.6010132,0,-0.08981379,0.011974812,-0.059505463,0.0,0.0,0.0,0.0,0.0,0.0
137,0.6053467,0,-0.05478107,0.03366947,-0.020828247,0.0,0.0,0.0,0.0,0.0,0.0
138,0.6096802,0,0.023705667,0.039134502,0.057552338,0.0,0.0,0.0,0.0,0.0,0.0
139,0.6140137,0,0.0057600792,0.08509588,0.049768448,0.0,0.0,0.0,0.0,0.0,0.0
140,0.61834717,0,0.00159893,-0.0039801598,0.02109909,0.0,0.0,0.0,0.0,0.0,0.0
141,0.62268066,0,0.14126673,-9.188652E-4,0.16066647,0.0,0.0,0.0,0.0,0.0,0.0
142,0.62701416,0,0.07725791,0.056806326,0.11197853,0.0,0.0,0.0,0.0,0.0,0.0
143,0.63134766,0,0.07058192,0.09654522,0.11576176,0.0,0.0,0.0,0.0,0.0,0.0
144,0.63568115,0,-0.023435587,0.06301522,0.013586044,0.0,0.0,0.0,0.0,0.0,0.0
145,0.64001465,0,0.003330296,0.069530964,0.04196644,0.0,0.0,0.0,0.0,0.0,0.0
146,0.64434814,0,-0.01779499,0.031574488,0.011277199,0.0,0.0,0.0,0.0,0.0,0.0
147,0.64868164,0,0.07871766,-0.004025221,0.09847355,0.0,0.0,0.0,0.0,0.0,0.0
148,0.65301514,0,-0.025464797,0.14481354,0.032637596,0.0,0.0,0.0,0.0,0.0,0.0
149,0.65734863,0,-0.07773488,0.0017559528,-0.055872917,0.0,0.0,0.0,0.0,0.0,0.0
150,0.6616821,0,-0.061647587,-0.040525913,-0.050922394,0.0,0.0,0.0,0.0,0.0,0.0
151,0.6660156,0,0.0664416,0.04304409,0.09802532,0.0,0.0,0.0,0.0,0.0,0.0
152,0.6703491,0,-0.037199043,-0.07583523,-0.035630226,0.0,0.0,0.0,0.0,0.0,0.0
153,0.6746826,0,0.10219834,0.047694683,0.13481426,0.0,0.0,0.0,0.0,0.0,0.0
154,0.6793518,0,0.0771277,0.08753753,0.12146187,0.0,0.0,0.0,0.0,0.0,0.0
155,0.684021,0,-0.1748593,0.018293142,-0.14749622,0.0,0.0,0.0,0.0,0.0,0.0
156,0.6887207,0,0.15460354,0.09738779,0.20124817,0.0,0.0,0.0,0.0,0.0,0.0
157,0.6933899,0,-0.011617685,0.017852545,0.01684761,0.0,0.0,0.0,0.0,0.0,0.0
158,0.6980896,0,0.10786409,0.18193388,0.17815399,0.0,0.0,0.0,0.0,0.0,0.0
159,0.7027588,0,-0.03222569,-0.020337582,-0.012882233,0.0,0.0,0.0,0.0,0.0,0.0
160,0.7074585,0,0.10262478,1.6713142E-4,0.12686062,0.0,0.0,0.0,0.0,0.0,0.0
161,0.7121277,0,-0.18805444,0.02294898,-0.15741158,0.0,0.0,0.0,0.0,0.0,0.0
162,0.7168274,0,0.120275386,-0.009451628,0.14170647,0.0,0.0,0.0,0.0,0.0,0.0
163,0.7214966,0,0.041938312,-0.029239893,0.05864525,0.0,0.0,0.0,0.0,0.0,0.0
164,0.7261963,0,0.09550304,0.012391329,0.122862816,0.0,0.0,0.0,0.0,0.0,0.0
165,0.7308655,0,0.04872302,-0.045659065,0.06144333,0.0,0.0,0.0,0.0,0.0,0.0
166,0.7355652,0,-0.083387755,0.027027607,-0.05178547,0.0,0.0,0.0,0.0,0.0,0.0
167,0.7402344,0,-0.05715462,0.010321379,-0.03017807,0.0,0.0,0.0,0.0,0.0,0.0
168,0.74490356,0,-0.013548875,0.1135633,0.03952694,0.0,0.0,0.0,0.0,0.0,0.0
169,0.7496033,0,-0.10456049,-0.0024688244,-0.0809021,0.0,0.0,0.0,0.0,0.0,0.0
170,0.75427246,0,0.017978614,-0.04972434,0.029039383,0.0,0.0,0.0,0.0,0.0,0.0
171,0.75897217,0,0.17685637,0.12951803,0.23343468,0.0,0.0,0.0,0.0,0.0,0.0
172,0.76364136,0,0.08603609,0.11065912,0.13871765,0.0,0.0,0.0,0.0,0.0,0.0
173,0.76797485,0,-0.06595453,0.09926295,-0.015630722,0.0,0.0,0.0,0.0,0.0,0.0
174,0.77227783,0,-0.07181796,-0.0041997433,-0.047986984,0.0,0.0,0.0,0.0,0.0,0.0
175,0.7765808,0,-0.038327985,-0.03741336,-0.023338318,0.0,0.0,0.0,0.0,0.0,0.0
176,0.7808838,0,0.03731183,-0.091799736,0.038126945,0.0,0.0,0.0,0.0,0.0,0.0
177,0.78518677,0,-0.054382376,-0.036328316,-0.039445877,0.0,0.0,0.0,0.0,0.0,0.0
178,0.78952026,0,-0.10465901,-0.06317544,-0.09693909,0.0,0.0,0.0,0.0,0.0,0.0
179,0.79382324,0,3.413614E-4,-0.040925026,0.013204575,0.0,0.0,0.0,0.0,0.0,0.0
180,0.7981262,0,-0.029140288,0.030055285,0.0016765594,0.0,0.0,0.0,0.0,0.0,0.0
181,0.8024292,0,-0.042065375,-0.0010490417,-0.019275665,0.0,0.0,0.0,0.0,0.0,0.0
182,0.8067322,0,0.1301279,-0.012526274,0.14978313,0.0,0.0,0.0,0.0,0.0,0.0
183,0.8110657,0,-0.00811916,0.017068148,0.019324303,0.0,0.0,0.0,0.0,0.0,0.0
184,0.81536865,0,-0.10296177,-0.08112669,-0.10058212,0.0,0.0,0.0,0.0,0.0,0.0
185,0.81967163,0,0.042788483,-0.011435747,0.062402725,0.0,0.0,0.0,0.0,0.0,0.0
186,0.8239746,0,-0.0056573395,-0.023806334,0.010752678,0.0,0.0,0.0,0.0,0.0,0.0
187,0.8282776,0,-0.03167694,-0.039583206,-0.019309044,0.0,0.0,0.0,0.0,0.0,0.0
188,0.8326111,0,-0.009060914,0.026187897,0.019881248,0.0,0.0,0.0,0.0,0.0,0.0
189,0.83691406,0,-0.09329607,0.004539013,-0.06977177,0.0,0.0,0.0,0.0,0.0,0.0
190,0.84121704,0,0.09557892,-0.0027470589,0.116760254,0.0,0.0,0.0,0.0,0.0,0.0
191,0.84552,0,0.00188086,0.04732275,0.036029816,0.0,0.0,0.0,0.0,0.0,0.0
192,0.849823,0,0.05768136,-0.0026397705,0.079582214,0.0,0.0,0.0,0.0,0.0,0.0
193,0.8541565,0,0.13204229,0.090375185,0.17792988,0.0,0.0,0.0,0.0,0.0,0.0
194,0.8584595,0,0.039299615,0.08968544,0.08560085,0.0,0.0,0.0,0.0,0.0,0.0
195,0.86276245,0,-0.025976384,0.0118916035,-2.7942657E-4,0.0,0.0,0.0,0.0,0.0,0.0
196,0.8670654,0,0.08818675,0.026751041,0.11657047,0.0,0.0,0.0,0.0,0.0,0.0
197,0.8713684,0,0.021867966,-0.027053595,0.036780357,0.0,0.0,0.0,0.0,0.0,0.0
198,0.8757019,0,0.051580645,0.03165388,0.08016682,0.0,0.0,0.0,0.0,0.0,0.0
199,0.8800049,0,-0.03119948,0.019289494,-0.0068330765,0.0,0.0,0.0,0.0,0.0,0.0
200,0.88430786,0,0.060807236,0.0056991577,0.08145332,0.0,0.0,0.0,0.0,0.0,0.0
201,0.88861084,0,0.13666275,0.062053442,0.1719532,0.0,0.0,0.0,0.0,0.0,0.0
202,0.89294434,0,-0.042023294,0.002556324,-0.021614075,0.0,0.0,0.0,0.0,0.0,0.0
203,0.8972473,0,0.0013294574,-0.051080465,0.007997513,0.0,0.0,0.0,0.0,0.0,0.0
204,0.9015503,0,0.021595394,-0.078053474,0.02114582,0.0,0.0,0.0,0.0,0.0,0.0
205,0.9058533,0,0.15559715,0.021226406,0.18043709,0.0,0.0,0.0,0.0,0.0,0.0
206,0.91015625,0,-0.05627232,-0.07431936,-0.05527115,0.0,0.0,0.0,0.0,0.0,0.0
207,0.91448975,0,0.07063947,-0.004774332,0.088900566,0.0,0.0,0.0,0.0,0.0,0.0
208,0.9187927,0,0.108053125,0.018747807,0.13256931,0.0,0.0,0.0,0.0,0.0,0.0
209,0.9230957,0,-0.03774985,-0.046074152,-0.029367447,0.0,0.0,0.0,0.0,0.0,0.0
210,0.9273987,0,0.011844611,0.05887699,0.04676628,0.0,0.0,0.0,0.0,0.0,0.0
211,0.93170166,0,-0.031602852,-0.007785082,-0.013554573,0.0,0.0,0.0,0.0,0.0,0.0
212,0.93603516,0,-0.11452227,-0.056723356,-0.10942268,0.0,0.0,0.0,0.0,0.0,0.0
213,0.94033813,0,-0.012592906,-0.021514654,9.794235E-4,0.0,0.0,0.0,0.0,0.0,0.0
214,0.9446411,0,-0.08281069,0.05281639,-0.05025959,0.0,0.0,0.0,0.0,0.0,0.0
215,0.9489441,0,-0.075500004,-0.08866024,-0.07939148,0.0,0.0,0.0,0.0,0.0,0.0
216,0.9532471,0,0.019953584,0.06962681,0.056007385,0.0,0.0,0.0,0.0,0.0,0.0
217,0.95758057,0,0.09514112,0.047158003,0.12549114,0.0,0.0,0.0,0.0,0.0,0.0
218,0.96188354,0,-0.16864972,-0.029566765,-0.15729523,0.0,0.0,0.0,0.0,0.0,0.0
219,0.9661865,0,-0.07116737,-0.009451628,-0.055433273,0.0,0.0,0.0,0.0,0.0,0.0
220,0.9704895,0,0.041678645,-0.017740488,0.055026054,0.0,0.0,0.0,0.0,0.0,0.0
221,0.9747925,0,0.12029887,0.085553885,0.15984344,0.0,0.0,0.0,0.0,0.0,0.0
222,0.979126,0,-0.07911452,0.06684041,-0.0436697,0.0,0.0,0.0,0.0,0.0,0.0
223,0.98342896,0,0.05186949,0.01672697,0.07435799,0.0,0.0,0.0,0.0,0.0,0.0
224,0.98773193,0,0.097913064,0.0055143833,0.11762428,0.0,0.0,0.0,0.0,0.0,0.0
225,0.9920349,0,0.18503153,0.16093373,0.24418831,0.0,0.0,0.0,0.0,0.0,0.0
226,0.9963684,0,0.049299665,0.001527071,0.068678856,0.0,0.0,0.0,0.0,0.0,0.0
227,1.0006714,0,0.085621275,0.029232264,0.11214256,0.0,0.0,0.0,0.0,0.0,0.0
228,1.0049744,0,0.075764604,-0.010149002,0.09241104,0.0,0.0,0.0,0.0,0.0,0.0
229,1.0092773,0,-0.15406129,-0.068642855,-0.1519413,0.0,0.0,0.0,0.0,0.0,0.0
230,1.013916,0,0.047957517,0.09815097,0.09205532,0.0,0.0,0.0,0.0,0.0,0.0
231,1.0185242,0,0.1290425,0.076474905,0.16670132,0.0,0.0,0.0,0.0,0.0,0.0
232,1.0231628,0,0.0076147076,0.12836695,0.059163094,0.0,0.0,0.0,0.0,0.0,0.0
233,1.0278015,0,-0.009146893,0.031276464,0.017829895,0.0,0.0,0.0,0.0,0.0,0.0
234,1.0324097,0,0.043701537,-0.0013854504,0.06222725,0.0,0.0,0.0,0.0,0.0,0.0
235,1.0370483,0,-0.08635517,-0.043854,-0.078475,0.0,0.0,0.0,0.0,0.0,0.0
236,1.041687,0,-0.005253965,0.004559517,0.014448166,0.0,0.0,0.0,0.0,0.0,0.0
237,1.0462952,0,-0.09541079,-0.037017345,-0.08618641,0.0,0.0,0.0,0.0,0.0,0.0
238,1.0509338,0,-0.106255434,-0.10932279,-0.115590096,0.0,0.0,0.0,0.0,0.0,0.0
239,1.055542,0,-0.10581105,-0.10902715,-0.115654945,0.0,0.0,0.0,0.0,0.0,0.0
240,1.0601807,0,-0.09371146,0.032523155,-0.06816292,0.0,0.0,0.0,0.0,0.0,0.0
241,1.0648193,0,-0.06789868,0.015714169,-0.04697323,0.0,0.0,0.0,0.0,0.0,0.0
242,1.0694275,0,0.052452184,-0.10136771,0.043047905,0.0,0.0,0.0,0.0,0.0,0.0
243,1.0740662,0,0.09943465,-0.019705772,0.11078644,0.0,0.0,0.0,0.0,0.0,0.0
244,1.0787048,0,0.14669096,0.029521227,0.17092991,0.0,0.0,0.0,0.0,0.0,0.0
245,1.083313,0,0.12795565,0.0111095905,0.1479311,0.0,0.0,0.0,0.0,0.0,0.0
246,1.0879517,0,0.026925063,0.026928663,0.051421165,0.0,0.0,0.0,0.0,0.0,0.0
247,1.0925598,0,-0.09677135,0.115161896,-0.04949093,0.0,0.0,0.0,0.0,0.0,0.0
248,1.0971985,0,0.06904248,-0.0044960976,0.085502625,0.0,0.0,0.0,0.0,0.0,0.0
249,1.1018372,0,-0.095916264,-0.023432255,-0.08392811,0.0,0.0,0.0,0.0,0.0,0.0
250,1.1064453,0,0.012855714,0.036495924,0.0395813,0.0,0.0,0.0,0.0,0.0,0.0
251,1.111084,0,-0.04344233,0.06346297,-0.009950638,0.0,0.0,0.0,0.0,0.0,0.0
252,1.1157227,0,0.0809745,0.03951621,0.10837555,0.0,0.0,0.0,0.0,0.0,0.0
253,1.1203308,0,-0.044288836,0.058171988,-0.011880875,0.0,0.0,0.0,0.0,0.0,0.0
254,1.1249695,0,0.06632108,-0.052241087,0.07049656,0.0,0.0,0.0,0.0,0.0,0.0
255,1.1296082,0,0.024075633,0.047442913,0.052812576,0.0,0.0,0.0,0.0,0.0,0.0
256,1.1340027,0,-0.018808717,0.02246952,0.0036878586,0.0,0.0,0.0,0.0,0.0,0.0
257,1.1383362,0,-0.010122204,-0.09996176,-0.019067764,0.0,0.0,0.0,0.0,0.0,0.0
258,1.1426697,0,-0.09472083,-0.05670762,-0.09380627,0.0,0.0,0.0,0.0,0.0,0.0
259,1.1470032,0,0.006076282,0.04752016,0.03309822,0.0,0.0,0.0,0.0,0.0,0.0
260,1.1513367,0,0.085722156,-0.0664835,0.082258224,0.0,0.0,0.0,0.0,0.0,0.0
261,1.1556702,0,-0.14497988,-0.09309602,-0.15597057,0.0,0.0,0.0,0.0,0.0,0.0
262,1.1600037,0,-0.011625195,-0.0039992332,-0.0028533936,0.0,0.0,0.0,0.0,0.0,0.0
263,1.1643372,0,-0.009019757,-0.06332111,-0.01682663,0.0,0.0,0.0,0.0,0.0,0.0
264,1.1686707,0,0.0050363,-0.060045004,-0.0031051636,0.0,0.0,0.0,0.0,0.0,0.0
265,1.1730042,0,-0.18049777,-0.05187249,-0.18652725,0.0,0.0,0.0,0.0,0.0,0.0
266,1.1773376,0,0.0035753902,-0.041977406,-9.908676E-4,0.0,0.0,0.0,0.0,0.0,0.0
267,1.1816711,0,0.09144858,-0.03365302,0.08802223,0.0,0.0,0.0,0.0,0.0,0.0
268,1.1860046,0,-0.050695352,-0.08816743,-0.067840576,0.0,0.0,0.0,0.0,0.0,0.0
269,1.1903381,0,0.13805196,0.089526415,0.16580296,0.0,0.0,0.0,0.0,0.0,0.0
270,1.1946716,0,0.091488786,-0.06087923,0.08133316,0.0,0.0,0.0,0.0,0.0,0.0
271,1.1990051,0,0.037473775,-0.0190444,0.038202286,0.0,0.0,0.0,0.0,0.0,0.0
272,1.2033386,0,0.067948975,-0.006445408,0.07191467,0.0,0.0,0.0,0.0,0.0,0.0
273,1.2076721,0,-0.060034625,0.09476638,-0.029943466,0.0,0.0,0.0,0.0,0.0,0.0
274,1.2120056,0,-0.005848432,-0.04877782,-0.012546539,0.0,0.0,0.0,0.0,0.0,0.0
275,1.2163391,0,6.2078796E-4,0.059071064,0.021377563,0.0,0.0,0.0,0.0,0.0,0.0
276,1.2206726,0,-0.15011974,-0.016669035,-0.1485014,0.0,0.0,0.0,0.0,0.0,0.0
277,1.2250061,0,-0.12854528,-0.13592339,-0.15814877,0.0,0.0,0.0,0.0,0.0,0.0
278,1.2293396,0,-0.16712089,0.034391403,-0.15386963,0.0,0.0,0.0,0.0,0.0,0.0
279,1.2336731,0,0.024848616,0.004415989,0.029898643,0.0,0.0,0.0,0.0,0.0,0.0
280,1.2380066,0,-0.0028231982,-0.06722021,-0.016169548,0.0,0.0,0.0,0.0,0.0,0.0
281,1.2423401,0,-0.02196967,-0.026008606,-0.02562046,0.0,0.0,0.0,0.0,0.0,0.0
282,1.2466736,0,-0.07328298,-0.103720665,-0.09705448,0.0,0.0,0.0,0.0,0.0,0.0
283,1.2510071,0,0.11306051,0.036278963,0.12455368,0.0,0.0,0.0,0.0,0.0,0.0
284,1.2553406,0,-0.046567522,-0.05520749,-0.057948112,0.0,0.0,0.0,0.0,0.0,0.0
285,1.2596741,0,-0.0021200124,0.053053617,0.013911247,0.0,0.0,0.0,0.0,0.0,0.0
286,1.2640076,0,0.20521626,0.06852245,0.22470379,0.0,0.0,0.0,0.0,0.0,0.0
287,1.2683411,0,-0.070547156,-0.0111346245,-0.07038975,0.0,0.0,0.0,0.0,0.0,0.0
288,1.2726746,0,-0.05439683,0.07099867,-0.03489971,0.0,0.0,0.0,0.0,0.0,0.0
289,1.277008,0,-0.12564361,-0.040055513,-0.13596058,0.0,0.0,0.0,0.0,0.0,0.0
290,1.2813416,0,0.054113932,0.08813572,0.07469463,0.0,0.0,0.0,0.0,0.0,0.0
291,1.285675,0,0.019140368,0.050764084,0.02902317,0.0,0.0,0.0,0.0,0.0,0.0
292,1.2900085,0,-0.07274961,-0.03305316,-0.08521271,0.0,0.0,0.0,0.0,0.0,0.0
293,1.294342,0,-0.1226759,-0.1433649,-0.16490555,0.0,0.0,0.0,0.0,0.0,0.0
294,1.2986755,0,0.10025669,-0.026058912,0.08706093,0.0,0.0,0.0,0.0,0.0,0.0
295,1.303009,0,-0.06370633,0.08391714,-0.05006504,0.0,0.0,0.0,0.0,0.0,0.0
296,1.3073425,0,-0.15654725,-0.013938189,-0.16914368,0.0,0.0,0.0,0.0,0.0,0.0
297,1.311676,0,0.012517428,-0.02171135,-0.0028686523,0.0,0.0,0.0,0.0,0.0,0.0
298,1.3160095,0,-0.13380183,-0.03149581,-0.15161514,0.0,0.0,0.0,0.0,0.0,0.0
299,1.320343,0,0.010721838,-0.036245823,-0.008995056,0.0,0.0,0.0,0.0,0.0,0.0
300,1.3246765,0,0.1355539,0.037338972,0.13454342,0.0,0.0,0.0,0.0,0.0,0.0
301,1.32901,0,0.2714283,0.05364132,0.27492046,0.0,0.0,0.0,0.0,0.0,0.0
302,1.3333435,0,0.031653024,0.05257535,0.036035538,0.0,0.0,0.0,0.0,0.0,0.0
303,1.337677,0,-0.10675802,-0.02907896,-0.12296867,0.0,0.0,0.0,0.0,0.0,0.0
304,1.3420105,0,-0.03628566,-0.07576823,-0.064881325,0.0,0.0,0.0,0.0,0.0,0.0
305,1.346344,0,-0.12761055,-0.06674099,-0.1540966,0.0,0.0,0.0,0.0,0.0,0.0
306,1.3506775,0,-0.035648458,-0.0664227,-0.062952995,0.0,0.0,0.0,0.0,0.0,0.0
307,1.355011,0,0.072532035,0.021409273,0.067542076,0.0,0.0,0.0,0.0,0.0,0.0
308,1.3593445,0,0.14000103,0.052451134,0.14310455,0.0,0.0,0.0,0.0,0.0,0.0
309,1.363678,0,-0.1762034,-0.023750544,-0.19189358,0.0,0.0,0.0,0.0,0.0,0.0
310,1.3680115,0,-0.089733295,-0.08030224,-0.120723724,0.0,0.0,0.0,0.0,0.0,0.0
311,1.372345,0,-0.07450395,0.006694317,-0.08369446,0.0,0.0,0.0,0.0,0.0,0.0
312,1.3766785,0,-0.055249803,-0.007140398,-0.068390846,0.0,0.0,0.0,0.0,0.0,0.0
313,1.381012,0,0.028284168,0.04643631,0.0286932,0.0,0.0,0.0,0.0,0.0,0.0
314,1.3853455,0,0.014717942,-0.08176899,-0.017392159,0.0,0.0,0.0,0.0,0.0,0.0
315,1.389679,0,0.034099646,-0.025889635,0.016087532,0.0,0.0,0.0,0.0,0.0,0.0
316,1.3940125,0,0.13366455,-0.12953258,0.08906269,0.0,0.0,0.0,0.0,0.0,0.0
317,1.398346,0,0.08376653,0.061469316,0.088139534,0.0,0.0,0.0,0.0,0.0,0.0
318,1.4026794,0,0.002749538,0.1651392,0.03400135,0.0,0.0,0.0,0.0,0.0,0.0
319,1.4070129,0,0.07486463,-0.0615983,0.04852867,0.0,0.0,0.0,0.0,0.0,0.0
320,1.4113464,0,0.019577926,-0.038478374,-7.991791E-4,0.0,0.0,0.0,0.0,0.0,0.0
321,1.4156799,0,0.018776422,0.0860703,0.030050278,0.0,0.0,0.0,0.0,0.0,0.0
322,1.4200134,0,0.056697167,0.044666052,0.057534218,0.0,0.0,0.0,0.0,0.0,0.0
323,1.4243469,0,0.0029784795,-0.024570942,-0.013504982,0.0,0.0,0.0,0.0,0.0,0.0
324,1.4286804,0,0.0265244,-0.07314253,-0.0029001236,0.0,0.0,0.0,0.0,0.0,0.0
325,1.4330139,0,0.031000083,0.07598257,0.039836884,0.0,0.0,0.0,0.0,0.0,0.0
326,1.4373474,0,0.14921659,0.10125661,0.16460323,0.0,0.0,0.0,0.0,0.0,0.0
327,1.4416809,0,-0.005882228,-0.04009366,-0.025675774,0.0,0.0,0.0,0.0,0.0,0.0
328,1.4460144,0,0.17976934,-0.034077883,0.16116428,0.0,0.0,0.0,0.0,0.0,0.0
329,1.4503479,0,-0.02086904,-0.07101154,-0.048316002,0.0,0.0,0.0,0.0,0.0,0.0
330,1.4546814,0,-0.10676921,-0.01439786,-0.119978905,0.0,0.0,0.0,0.0,0.0,0.0
331,1.4590149,0,-0.027892673,-0.008287907,-0.040093422,0.0,0.0,0.0,0.0,0.0,0.0
332,1.4633484,0,0.053874142,0.10937762,0.071564674,0.0,0.0,0.0,0.0,0.0,0.0
333,1.4676819,0,0.08318273,0.0144097805,0.0757885,0.0,0.0,0.0,0.0,0.0,0.0
334,1.4720154,0,-0.07319089,-0.05325198,-0.097429276,0.0,0.0,0.0,0.0,0.0,0.0
335,1.476532,0,-0.08827578,-0.08931279,-0.12201691,0.0,0.0,0.0,0.0,0.0,0.0
336,1.4810486,0,-0.0523554,-0.07546544,-0.08302498,0.0,0.0,0.0,0.0,0.0,0.0
337,1.4855957,0,0.014039194,0.03389263,0.010809898,0.0,0.0,0.0,0.0,0.0,0.0
338,1.4901123,0,0.045070328,-0.036744833,0.023918152,0.0,0.0,0.0,0.0,0.0,0.0
339,1.4946594,0,-0.07115167,-0.0063843727,-0.08455086,0.0,0.0,0.0,0.0,0.0,0.0
340,1.499176,0,-0.09699669,0.0145664215,-0.10526657,0.0,0.0,0.0,0.0,0.0,0.0
341,1.5037231,0,-0.026129032,-0.041373014,-0.04907322,0.0,0.0,0.0,0.0,0.0,0.0
342,1.5082397,0,0.006364351,0.0037765503,-0.005285263,0.0,0.0,0.0,0.0,0.0,0.0
343,1.5127869,0,0.07401935,0.011831522,0.06452465,0.0,0.0,0.0,0.0,0.0,0.0
344,1.5173035,0,-0.0449306,-0.055426598,-0.07137394,0.0,0.0,0.0,0.0,0.0,0.0
345,1.5218506,0,0.101962544,0.02371025,0.09531212,0.0,0.0,0.0,0.0,0.0,0.0
346,1.5263672,0,0.07226617,-0.11341095,0.030104637,0.0,0.0,0.0,0.0,0.0,0.0
347,1.5309143,0,-0.19131196,-3.7670135E-4,-0.20436001,0.0,0.0,0.0,0.0,0.0,0.0
348,1.5354309,0,0.070410974,-0.012289047,0.05336094,0.0,0.0,0.0,0.0,0.0,0.0
349,1.5399475,0,-0.055349134,0.04334569,-0.05784321,0.0,0.0,0.0,0.0,0.0,0.0
350,1.5444946,0,0.009985691,-0.02804041,-0.010995865,0.0,0.0,0.0,0.0,0.0,0.0
351,1.5490112,0,-0.09958943,0.050178528,-0.10054207,0.0,0.0,0.0,0.0,0.0,0.0
352,1.5535583,0,-4.539732E-4,0.042655468,-0.005085945,0.0,0.0,0.0,0.0,0.0,0.0
353,1.558075,0,-4.5605935E-4,0.042360306,-0.0050086975,0.0,0.0,0.0,0.0,0.0,0.0
354,1.5626221,0,-0.072593056,-0.0084962845,-0.09001732,0.0,0.0,0.0,0.0,0.0,0.0
355,1.5671387,0,-0.03331413,-0.026350737,-0.05560875,0.0,0.0,0.0,0.0,0.0,0.0
356,1.5716858,0,-0.02296334,-0.12520719,-0.0707922,0.0,0.0,0.0,0.0,0.0,0.0
357,1.5762024,0,-0.024711693,0.017721176,-0.036392212,0.0,0.0,0.0,0.0,0.0,0.0
358,1.5807495,0,-0.08131202,0.07689977,-0.07781315,0.0,0.0,0.0,0.0,0.0,0.0
359,1.5852661,0,-0.07685729,0.008305311,-0.09111786,0.0,0.0,0.0,0.0,0.0,0.0
360,1.5898132,0,-0.11057586,0.017850399,-0.12254906,0.0,0.0,0.0,0.0,0.0,0.0
361,1.5943298,0,0.0032820161,0.018904686,-0.00879097,0.0,0.0,0.0,0.0,0.0,0.0
362,1.5988464,0,0.06344748,0.10793257,0.074150085,0.0,0.0,0.0,0.0,0.0,0.0
363,1.6033936,0,-0.045333616,-0.026210546,-0.06862259,0.0,0.0,0.0,0.0,0.0,0.0
364,1.6079102,0,0.16370222,-0.05129838,0.13363838,0.0,0.0,0.0,0.0,0.0,0.0
365,1.6124573,0,0.03783644,-0.046092033,0.009572029,0.0,0.0,0.0,0.0,0.0,0.0
366,1.6169739,0,-0.047662877,0.061287403,-0.048373222,0.0,0.0,0.0,0.0,0.0,0.0
367,1.621521,0,0.13487658,0.13985515,0.154109,0.0,0.0,0.0,0.0,0.0,0.0
368,1.6260376,0,0.1998505,0.013171911,0.18733883,0.0,0.0,0.0,0.0,0.0,0.0
369,1.6305847,0,0.0032030102,-0.05067134,-0.025046349,0.0,0.0,0.0,0.0,0.0,0.0
370,1.6351013,0,-0.20742346,-0.0028808117,-0.22321129,0.0,0.0,0.0,0.0,0.0,0.0
371,1.6396484,0,-0.021506751,-0.024906158,-0.043842316,0.0,0.0,0.0,0.0,0.0,0.0
372,1.644165,0,-0.097895496,-0.19672894,-0.16426659,0.0,0.0,0.0,0.0,0.0,0.0
373,1.6487122,0,-0.013761127,0.03275776,-0.022156715,0.0,0.0,0.0,0.0,0.0,0.0
374,1.6532288,0,0.05013559,0.0027592182,0.033953667,0.0,0.0,0.0,0.0,0.0,0.0
375,1.6577454,0,-0.11598795,-0.058021545,-0.14744186,0.0,0.0,0.0,0.0,0.0,0.0
376,1.6622925,0,-0.16933084,-0.10408878,-0.2131567,0.0,0.0,0.0,0.0,0.0,0.0
377,1.6668091,0,0.0041918512,-0.059780836,-0.029220581,0.0,0.0,0.0,0.0,0.0,0.0
378,1.6713562,0,-0.08166354,0.04762745,-0.08773708,0.0,0.0,0.0,0.0,0.0,0.0
379,1.6758728,0,-0.1638062,-0.05215025,-0.19540215,0.0,0.0,0.0,0.0,0.0,0.0
380,1.6804199,0,-0.09180447,-0.020067692,-0.11611462,0.0,0.0,0.0,0.0,0.0,0.0
381,1.6849365,0,0.038607635,-7.4887276E-4,0.018763542,0.0,0.0,0.0,0.0,0.0,0.0
382,1.6894836,0,-0.036182247,-0.09377837,-0.079603195,0.0,0.0,0.0,0.0,0.0,0.0
383,1.6939392,0,0.05495069,0.01742959,0.039518356,0.0,0.0,0.0,0.0,0.0,0.0
384,1.6983032,0,-0.085366525,-0.031964064,-0.11200905,0.0,0.0,0.0,0.0,0.0,0.0
385,1.7026672,0,0.04404191,0.102422,0.051193237,0.0,0.0,0.0,0.0,0.0,0.0
386,1.7070313,0,0.0135448035,0.034298897,0.0036592484,0.0,0.0,0.0,0.0,0.0,0.0
387,1.7113953,0,0.07205976,-0.006302595,0.051865578,0.0,0.0,0.0,0.0,0.0,0.0
388,1.7157593,0,-0.07048767,-0.051799774,-0.10216141,0.0,0.0,0.0,0.0,0.0,0.0
389,1.7201233,0,-0.08080386,-0.012985706,-0.1027689,0.0,0.0,0.0,0.0,0.0,0.0
390,1.7244873,0,-0.07860511,0.047419786,-0.085427284,0.0,0.0,0.0,0.0,0.0,0.0
391,1.7288513,0,-0.06527876,0.031879187,-0.07635403,0.0,0.0,0.0,0.0,0.0,0.0
392,1.7332153,0,0.11280576,0.09092498,0.11653423,0.0,0.0,0.0,0.0,0.0,0.0
393,1.7375793,0,-0.042220287,-0.0642395,-0.07754421,0.0,0.0,0.0,0.0,0.0,0.0
394,1.7419434,0,0.0071087833,0.022254944,-0.006430626,0.0,0.0,0.0,0.0,0.0,0.0
395,1.7463074,0,-0.032000117,0.0076441765,-0.049203873,0.0,0.0,0.0,0.0,0.0,0.0
396,1.7506714,0,0.10085005,-0.06005168,0.06607437,0.0,0.0,0.0,0.0,0.0,0.0
397,1.7550354,0,0.045399763,-0.041927814,0.014199257,0.0,0.0,0.0,0.0,0.0,0.0
398,1.7593994,0,0.019198483,0.13607836,0.033519745,0.0,0.0,0.0,0.0,0.0,0.0
399,1.7637634,0,0.021328425,-0.10371399,-0.025240898,0.0,0.0,0.0,0.0,0.0,0.0
400,1.7681274,0,-0.021406317,0.028633833,-0.03420067,0.0,0.0,0.0,0.0,0.0,0.0
401,1.7724915,0,-0.117150106,-0.06072998,-0.15407085,0.0,0.0,0.0,0.0,0.0,0.0
402,1.7768555,0,0.009447461,0.022440195,-0.0074329376,0.0,0.0,0.0,0.0,0.0,0.0
403,1.7812195,0,0.06669033,-0.014433861,0.039380074,0.0,0.0,0.0,0.0,0.0,0.0
404,1.7855835,0,0.05225683,-0.054830074,0.014889717,0.0,0.0,0.0,0.0,0.0,0.0
405,1.7899475,0,0.052133568,-0.031519175,0.02075386,0.0,0.0,0.0,0.0,0.0,0.0
406,1.7943115,0,0.07780776,-0.034685135,0.045056343,0.0,0.0,0.0,0.0,0.0,0.0
407,1.7986755,0,0.021382933,-0.05798483,-0.017095566,0.0,0.0,0.0,0.0,0.0,0.0
408,1.8030396,0,-0.19568238,-0.15021539,-0.2576065,0.0,0.0,0.0,0.0,0.0,0.0
409,1.8074036,0,-0.021655226,-0.09641671,-0.070985794,0.0,0.0,0.0,0.0,0.0,0.0
410,1.8117676,0,-0.21776783,-0.104575634,-0.2680874,0.0,0.0,0.0,0.0,0.0,0.0
411,1.8161316,0,-0.21688217,-0.104427576,-0.26810074,0.0,0.0,0.0,0.0,0.0,0.0
412,1.8204956,0,0.09387142,0.0025229454,0.0687933,0.0,0.0,0.0,0.0,0.0,0.0
413,1.8248596,0,-0.23056722,-0.04345274,-0.26703548,0.0,0.0,0.0,0.0,0.0,0.0
414,1.8292236,0,-0.035599194,0.015249491,-0.058012962,0.0,0.0,0.0,0.0,0.0,0.0
415,1.8335876,0,0.022008723,-0.09947872,-0.02991867,0.0,0.0,0.0,0.0,0.0,0.0
416,1.8379517,0,-0.07380863,-0.114381075,-0.1296978,0.0,0.0,0.0,0.0,0.0,0.0
417,1.8423157,0,0.042327054,0.012460709,0.018398285,0.0,0.0,0.0,0.0,0.0,0.0
418,1.8466797,0,0.055427857,0.038840294,0.038258553,0.0,0.0,0.0,0.0,0.0,0.0
419,1.8510437,0,-0.004009271,0.10198641,-0.004763603,0.0,0.0,0.0,0.0,0.0,0.0
420,1.8554077,0,0.13820577,-0.069833755,0.09355354,0.0,0.0,0.0,0.0,0.0,0.0
421,1.8597717,0,0.037722,-0.06331897,-0.0054836273,0.0,0.0,0.0,0.0,0.0,0.0
422,1.8641357,0,0.069595315,-0.023292303,0.03562832,0.0,0.0,0.0,0.0,0.0,0.0
423,1.8684998,0,0.10265566,0.06390023,0.08972168,0.0,0.0,0.0,0.0,0.0,0.0
424,1.8728638,0,0.17309234,-0.025007963,0.13670444,0.0,0.0,0.0,0.0,0.0,0.0
425,1.8772278,0,0.11177979,-0.0034947395,0.08135319,0.0,0.0,0.0,0.0,0.0,0.0
426,1.8815918,0,-0.065781526,-0.07226133,-0.11459637,0.0,0.0,0.0,0.0,0.0,0.0
427,1.8859558,0,-0.07772391,-0.034062386,-0.118411064,0.0,0.0,0.0,0.0,0.0,0.0
428,1.8903198,0,-0.08362799,0.0012030602,-0.11578274,0.0,0.0,0.0,0.0,0.0,0.0
429,1.8946838,0,0.027926927,0.020233393,4.5490265E-4,0.0,0.0,0.0,0.0,0.0,0.0
430,1.8990479,0,0.034649797,-0.093408346,-0.021838188,0.0,0.0,0.0,0.0,0.0,0.0
431,1.9034119,0,0.104347624,-0.056928873,0.056946754,0.0,0.0,0.0,0.0,0.0,0.0
432,1.9077759,0,0.057923533,-0.07303071,0.0065755844,0.0,0.0,0.0,0.0,0.0,0.0
433,1.9121399,0,0.019597417,0.028200388,-0.0058164597,0.0,0.0,0.0,0.0,0.0,0.0
434,1.9165039,0,-0.0029203836,-0.111390114,-0.06379986,0.0,0.0,0.0,0.0,0.0,0.0
435,1.9208679,0,0.06328455,0.011861324,0.03351307,0.0,0.0,0.0,0.0,0.0,0.0
436,1.9252319,0,0.13529667,0.08573389,0.124464035,0.0,0.0,0.0,0.0,0.0,0.0
437,1.929596,0,-0.119439624,-0.05793023,-0.16606617,0.0,0.0,0.0,0.0,0.0,0.0
438,1.93396,0,-0.036734544,-0.02305746,-0.07517815,0.0,0.0,0.0,0.0,0.0,0.0
439,1.938324,0,0.053121306,-0.018686771,0.01558876,0.0,0.0,0.0,0.0,0.0,0.0
440,1.942688,0,0.1090985,-0.031952143,0.06836033,0.0,0.0,0.0,0.0,0.0,0.0
441,1.947052,0,0.09699524,-0.007049322,0.06290436,0.0,0.0,0.0,0.0,0.0,0.0
442,1.951416,0,0.02854306,-0.010569811,-0.0062532425,0.0,0.0,0.0,0.0,0.0,0.0
443,1.95578,0,0.127303,0.060846806,0.11077404,0.0,0.0,0.0,0.0,0.0,0.0
444,1.960144,0,-0.0029191915,-0.10635877,-0.061751366,0.0,0.0,0.0,0.0,0.0,0.0
445,1.964508,0,-0.0018538479,-0.008801222,-0.03709793,0.0,0.0,0.0,0.0,0.0,0.0
446,1.9688721,0,-0.09740052,-0.07939243,-0.15052605,0.0,0.0,0.0,0.0,0.0,0.0
447,1.9732361,0,0.07120592,-0.013253212,0.03440857,0.0,0.0,0.0,0.0,0.0,0.0
448,1.9776001,0,0.048449464,0.07332373,0.033988,0.0,0.0,0.0,0.0,0.0,0.0
449,1.9819641,0,0.0761672,0.09401059,0.067168236,0.0,0.0,0.0,0.0,0.0,0.0
450,1.9863281,0,-0.0805793,-0.06611109,-0.1314621,0.0,0.0,0.0,0.0,0.0,0.0
451,1.9906921,0,0.06542546,-0.06588459,0.012599945,0.0,0.0,0.0,0.0,0.0,0.0
452,1.9950562,0,-0.021774465,-0.046422005,-0.069410324,0.0,0.0,0.0,0.0,0.0,0.0
453,1.9994202,0,0.14089835,0.013345718,0.107188225,0.0,0.0,0.0,0.0,0.0,0.0
454,2.0037842,0,0.06274421,-0.034487963,0.016069412,0.0,0.0,0.0,0.0,0.0,0.0
455,2.0081482,0,0.09468863,-0.049855947,0.043123245,0.0,0.0,0.0,0.0,0.0,0.0
456,2.0125122,0,0.0025536176,-0.081783295,-0.058075905,0.0,0.0,0.0,0.0,0.0,0.0
457,2.0168762,0,-0.15740092,-0.06266141,-0.21462727,0.0,0.0,0.0,0.0,0.0,0.0
458,2.0212402,0,-0.009534771,0.053507328,-0.037938118,0.0,0.0,0.0,0.0,0.0,0.0
459,2.0256042,0,0.012376523,0.049519062,-0.017056465,0.0,0.0,0.0,0.0,0.0,0.0
460,2.0299683,0,-0.09565402,-0.13983488,-0.17306519,0.0,0.0,0.0,0.0,0.0,0.0
461,2.0343323,0,-0.122634776,-0.1464231,-0.20230007,0.0,0.0,0.0,0.0,0.0,0.0
462,2.0386963,0,-2.345983E-4,-0.013380289,-0.04671669,0.0,0.0,0.0,0.0,0.0,0.0
463,2.0430603,0,-0.028147364,-0.006836176,-0.073082924,0.0,0.0,0.0,0.0,0.0,0.0
464,2.0474243,0,-0.1910864,-0.12692118,-0.26667786,0.0,0.0,0.0,0.0,0.0,0.0
465,2.0517883,0,-0.08124865,-0.0803566,-0.14581776,0.0,0.0,0.0,0.0,0.0,0.0
466,2.0561523,0,-0.09851871,0.002812624,-0.14223385,0.0,0.0,0.0,0.0,0.0,0.0
467,2.0605164,0,0.04380227,-0.044137,-0.012318611,0.0,0.0,0.0,0.0,0.0,0.0
468,2.0648804,0,0.06266285,-0.057525396,0.0030622482,0.0,0.0,0.0,0.0,0.0,0.0
469,2.0692444,0,0.009677058,0.03130269,-0.026099205,0.0,0.0,0.0,0.0,0.0,0.0
470,2.0736084,0,-0.16099244,-0.05862069,-0.21963501,0.0,0.0,0.0,0.0,0.0,0.0
471,2.0779724,0,-0.06197516,0.0546515,-0.09131813,0.0,0.0,0.0,0.0,0.0,0.0
472,2.0823364,0,0.07009161,0.02837205,0.035349846,0.0,0.0,0.0,0.0,0.0,0.0
473,2.0867004,0,-0.075310715,0.009427786,-0.11348724,0.0,0.0,0.0,0.0,0.0,0.0
474,2.0910645,0,0.021907752,-0.0028750896,-0.019839287,0.0,0.0,0.0,0.0,0.0,0.0
475,2.0954285,0,-0.11908726,-0.14510226,-0.19685078,0.0,0.0,0.0,0.0,0.0,0.0
476,2.0997925,0,-0.18886909,-0.0796957,-0.25049877,0.0,0.0,0.0,0.0,0.0,0.0
477,2.1041565,0,0.10772184,0.014397144,0.06902027,0.0,0.0,0.0,0.0,0.0,0.0
478,2.1085205,0,0.08862028,-0.018030167,0.041975975,0.0,0.0,0.0,0.0,0.0,0.0
479,2.1128845,0,0.062124707,-0.07075381,0.0021305084,0.0,0.0,0.0,0.0,0.0,0.0
480,2.1172485,0,0.028774118,0.059046507,7.581711E-4,0.0,0.0,0.0,0.0,0.0,0.0
481,2.1216125,0,-0.03300547,-0.0124435425,-0.07898998,0.0,0.0,0.0,0.0,0.0,0.0
482,2.1259766,0,-0.046942435,0.020843506,-0.08464146,0.0,0.0,0.0,0.0,0.0,0.0
483,2.1303406,0,-0.09365965,0.004077196,-0.13565922,0.0,0.0,0.0,0.0,0.0,0.0
484,2.1347046,0,-0.1053948,-0.054592848,-0.16274452,0.0,0.0,0.0,0.0,0.0,0.0
485,2.1390686,0,-0.06787934,0.0794723,-0.09151077,0.0,0.0,0.0,0.0,0.0,0.0
486,2.1434326,0,0.007713383,-0.0031824112,-0.037184715,0.0,0.0,0.0,0.0,0.0,0.0
487,2.1477966,0,0.0139606055,-0.024734974,-0.03647709,0.0,0.0,0.0,0.0,0.0,0.0
488,2.1521606,0,-0.1148339,-0.01147604,-0.16159534,0.0,0.0,0.0,0.0,0.0,0.0
489,2.1565247,0,0.040345825,0.06479502,0.012388229,0.0,0.0,0.0,0.0,0.0,0.0
490,2.1608887,0,0.040062673,-0.08778405,-0.026620865,0.0,0.0,0.0,0.0,0.0,0.0
491,2.1652527,0,0.032320864,-0.0017645359,-0.012548447,0.0,0.0,0.0,0.0,0.0,0.0
492,2.1696167,0,0.13386664,-0.07329011,0.070114136,0.0,0.0,0.0,0.0,0.0,0.0
493,2.1739807,0,0.055837907,-0.019008875,0.006234169,0.0,0.0,0.0,0.0,0.0,0.0
494,2.1783447,0,0.0685638,0.11818051,0.054275513,0.0,0.0,0.0,0.0,0.0,0.0
495,2.1827087,0,-0.07459674,-0.052669287,-0.13208675,0.0,0.0,0.0,0.0,0.0,0.0
496,2.1870728,0,0.06947834,0.034855366,0.033942223,0.0,0.0,0.0,0.0,0.0,0.0
497,2.1914368,0,0.039762445,-0.07921839,-0.023444176,0.0,0.0,0.0,0.0,0.0,0.0
498,2.1958008,0,0.039569624,-0.046685934,-0.015299797,0.0,0.0,0.0,0.0,0.0,0.0
499,2.2001648,0,0.061159052,0.042296648,0.029899597,0.0,0.0,0.0,0.0,0.0,0.0
500,2.2045288,0,0.037424244,-0.06997681,-0.022390366,0.0,0.0,0.0,0.0,0.0,0.0
501,2.2088928,0,0.02478302,-0.045215845,-0.028538704,0.0,0.0,0.0,0.0,0.0,0.0
502,2.2132568,0,0.037309654,0.050286055,0.0082473755,0.0,0.0,0.0,0.0,0.0,0.0
503,2.2176208,0,0.032366075,-0.011157513,-0.012268066,0.0,0.0,0.0,0.0,0.0,0.0
504,2.2219849,0,0.14621931,-0.0050394535,0.10317516,0.0,0.0,0.0,0.0,0.0,0.0
505,2.2263489,0,0.0071331915,-0.02191472,-0.039608955,0.0,0.0,0.0,0.0,0.0,0.0
506,2.230713,0,0.0051176604,-0.03173256,-0.044317245,0.0,0.0,0.0,0.0,0.0,0.0
507,2.235077,0,0.13240081,-0.0406096,0.0805006,0.0,0.0,0.0,0.0,0.0,0.0
508,2.239441,0,0.07754622,-0.15117621,-0.0021429062,0.0,0.0,0.0,0.0,0.0,0.0
509,2.243805,0,0.031759746,-0.07931137,-0.029634476,0.0,0.0,0.0,0.0,0.0,0.0
510,2.248169,0,0.017129457,-0.045843124,-0.03577614,0.0,0.0,0.0,0.0,0.0,0.0
511,2.252533,0,0.08989728,-0.009026766,0.045796394,0.0,0.0,0.0,0.0,0.0,0.0
512,2.256897,0,0.0477039,0.10950065,0.03421402,0.0,0.0,0.0,0.0,0.0,0.0
513,2.261261,0,-0.07814228,-0.052164316,-0.13261223,0.0,0.0,0.0,0.0,0.0,0.0
514,2.265625,0,-0.10947027,-0.06487012,-0.1675129,0.0,0.0,0.0,0.0,0.0,0.0
515,2.269989,0,0.11106137,0.009889126,0.07148361,0.0,0.0,0.0,0.0,0.0,0.0
516,2.2745667,0,-0.06954195,-0.013045788,-0.1146431,0.0,0.0,0.0,0.0,0.0,0.0
517,2.2791443,0,0.061142452,-0.007483244,0.017292976,0.0,0.0,0.0,0.0,0.0,0.0
518,2.2837524,0,-0.038469516,0.01323843,-0.0768795,0.0,0.0,0.0,0.0,0.0,0.0
519,2.28833,0,0.072606005,0.013660669,0.034169197,0.0,0.0,0.0,0.0,0.0,0.0
520,2.2929382,0,-0.007899458,-0.048395395,-0.06185341,0.0,0.0,0.0,0.0,0.0,0.0
521,2.2975159,0,-0.12509738,-0.022940636,-0.17266273,0.0,0.0,0.0,0.0,0.0,0.0
522,2.302124,0,-0.065275215,0.05674553,-0.0930624,0.0,0.0,0.0,0.0,0.0,0.0
523,2.3067017,0,0.05920566,4.8828125E-4,0.016762733,0.0,0.0,0.0,0.0,0.0,0.0
524,2.3113098,0,-0.024104947,-0.030020237,-0.07403278,0.0,0.0,0.0,0.0,0.0,0.0
525,2.3158875,0,0.0064541753,0.04691553,-0.023970604,0.0,0.0,0.0,0.0,0.0,0.0
526,2.3204956,0,0.042824693,-0.0039741993,-4.6920776E-4,0.0,0.0,0.0,0.0,0.0,0.0
527,2.3250732,0,-0.06264972,0.03423047,-0.09495926,0.0,0.0,0.0,0.0,0.0,0.0
528,2.3296814,0,-0.038941972,-0.038401604,-0.089009285,0.0,0.0,0.0,0.0,0.0,0.0
529,2.334259,0,-0.07620879,0.007837534,-0.11308384,0.0,0.0,0.0,0.0,0.0,0.0
530,2.3388367,0,-0.012002969,0.015072584,-0.04538536,0.0,0.0,0.0,0.0,0.0,0.0
531,2.3434448,0,0.014002329,0.008436203,-0.02012825,0.0,0.0,0.0,0.0,0.0,0.0
532,2.3480225,0,-0.096737914,0.04081011,-0.12091255,0.0,0.0,0.0,0.0,0.0,0.0
533,2.3526306,0,0.13656527,0.05868578,0.11733055,0.0,0.0,0.0,0.0,0.0,0.0
534,2.3572083,0,0.15756804,-0.018853188,0.12033558,0.0,0.0,0.0,0.0,0.0,0.0
535,2.3618164,0,-0.06780749,-0.029414415,-0.106225014,0.0,0.0,0.0,0.0,0.0,0.0
536,2.366394,0,-0.08335412,0.021770477,-0.10895443,0.0,0.0,0.0,0.0,0.0,0.0
537,2.3710022,0,0.034120657,0.051560402,0.015875816,0.0,0.0,0.0,0.0,0.0,0.0
538,2.3755798,0,-0.017357105,-0.06793094,-0.06597233,0.0,0.0,0.0,0.0,0.0,0.0
539,2.380188,0,-0.0027811173,0.014350891,-0.030639648,0.0,0.0,0.0,0.0,0.0,0.0
540,2.3847656,0,0.016410923,0.08377528,0.006249428,0.0,0.0,0.0,0.0,0.0,0.0
541,2.3893738,0,-0.054144196,0.019155264,-0.08043766,0.0,0.0,0.0,0.0,0.0,0.0
542,2.3939514,0,0.05800063,-0.09077811,0.0033187866,0.0,0.0,0.0,0.0,0.0,0.0
543,2.398529,0,0.023983901,0.06701064,0.009519577,0.0,0.0,0.0,0.0,0.0,0.0
544,2.4031372,0,0.09023345,-0.01793003,0.054239273,0.0,0.0,0.0,0.0,0.0,0.0
545,2.4077148,0,-0.019386286,-0.041100502,-0.06103134,0.0,0.0,0.0,0.0,0.0,0.0
546,2.412323,0,-0.026114786,-0.05211878,-0.070614815,0.0,0.0,0.0,0.0,0.0,0.0
547,2.4169006,0,0.02105946,-0.11840773,-0.040676117,0.0,0.0,0.0,0.0,0.0,0.0
548,2.4213867,0,0.02001742,0.0017285347,-0.011187553,0.0,0.0,0.0,0.0,0.0,0.0
549,2.4258118,0,-0.00651359,0.017984152,-0.033468246,0.0,0.0,0.0,0.0,0.0,0.0
550,2.4302063,0,0.02316553,-0.030014515,-0.016124725,0.0,0.0,0.0,0.0,0.0,0.0
551,2.4346008,0,0.046192057,0.07743025,0.034261703,0.0,0.0,0.0,0.0,0.0,0.0
552,2.4389954,0,-0.030811632,-0.13627839,-0.097019196,0.0,0.0,0.0,0.0,0.0,0.0
553,2.44339,0,0.029730415,0.0318408,0.0060625076,0.0,0.0,0.0,0.0,0.0,0.0
554,2.4477844,0,-0.044120632,-0.051698923,-0.08897591,0.0,0.0,0.0,0.0,0.0,0.0
555,2.452179,0,-0.05207991,-0.039915085,-0.094244,0.0,0.0,0.0,0.0,0.0,0.0
556,2.4565735,0,-0.16756676,-0.06945658,-0.21728992,0.0,0.0,0.0,0.0,0.0,0.0
557,2.460968,0,-0.065181725,-0.089496136,-0.12091255,0.0,0.0,0.0,0.0,0.0,0.0
558,2.4653625,0,0.14711204,-0.01150322,0.111564636,0.0,0.0,0.0,0.0,0.0,0.0
559,2.469757,0,0.047200657,-0.0091404915,0.0126514435,0.0,0.0,0.0,0.0,0.0,0.0
560,2.4741516,0,-0.01831689,-0.025815487,-0.05687046,0.0,0.0,0.0,0.0,0.0,0.0
561,2.4785461,0,0.048761643,-0.036387205,0.0071668625,0.0,0.0,0.0,0.0,0.0,0.0
562,2.4829407,0,-0.030476743,-0.08873153,-0.08522797,0.0,0.0,0.0,0.0,0.0,0.0
563,2.4873352,0,0.23965874,0.072779655,0.22591782,0.0,0.0,0.0,0.0,0.0,0.0
564,2.4917297,0,-0.055464588,-0.007228613,-0.0886879,0.0,0.0,0.0,0.0,0.0,0.0
565,2.4961243,0,0.03982798,-0.07990265,-0.012230873,0.0,0.0,0.0,0.0,0.0,0.0
566,2.5005188,0,0.050906844,0.11703253,0.049116135,0.0,0.0,0.0,0.0,0.0,0.0
567,2.5049133,0,0.22297195,0.08216667,0.21254349,0.0,0.0,0.0,0.0,0.0,0.0
568,2.5093079,0,0.12058947,0.0237751,0.09609032,0.0,0.0,0.0,0.0,0.0,0.0
569,2.5137024,0,-0.122109346,0.04019046,-0.14166546,0.0,0.0,0.0,0.0,0.0,0.0
570,2.518097,0,0.015986836,0.033510685,-0.0057401657,0.0,0.0,0.0,0.0,0.0,0.0
571,2.5224915,0,0.004391974,-0.057270527,-0.040489197,0.0,0.0,0.0,0.0,0.0,0.0
572,2.526886,0,0.0638038,0.022709608,0.039203644,0.0,0.0,0.0,0.0,0.0,0.0
573,2.5312805,0,0.03822816,0.0023109913,0.008464813,0.0,0.0,0.0,0.0,0.0,0.0
574,2.535675,0,-0.052546136,0.075987816,-0.06314659,0.0,0.0,0.0,0.0,0.0,0.0
575,2.5400696,0,-0.025478804,-0.0606246,-0.07118511,0.0,0.0,0.0,0.0,0.0,0.0
576,2.544464,0,-0.11678394,0.012936592,-0.14382935,0.0,0.0,0.0,0.0,0.0,0.0
577,2.5488586,0,-0.11689042,-0.028884888,-0.1549778,0.0,0.0,0.0,0.0,0.0,0.0
578,2.5532532,0,-0.061853193,-0.024206161,-0.09932232,0.0,0.0,0.0,0.0,0.0,0.0
579,2.5576477,0,0.04753212,-0.019488811,0.010954857,0.0,0.0,0.0,0.0,0.0,0.0
580,2.5620422,0,0.015624499,0.046198368,-0.0040454865,0.0,0.0,0.0,0.0,0.0,0.0
581,2.5664368,0,-0.100193255,0.048741102,-0.11896992,0.0,0.0,0.0,0.0,0.0,0.0
582,2.5708313,0,-0.098252945,-0.0066063404,-0.13148022,0.0,0.0,0.0,0.0,0.0,0.0
583,2.5752258,0,-0.08346107,-0.06299639,-0.13158417,0.0,0.0,0.0,0.0,0.0,0.0
584,2.5796204,0,0.09519691,0.047223568,0.07476711,0.0,0.0,0.0,0.0,0.0,0.0
585,2.584015,0,-0.062517725,-0.0023784637,-0.09510708,0.0,0.0,0.0,0.0,0.0,0.0
586,2.5884094,0,-0.02577662,-0.016224623,-0.06227112,0.0,0.0,0.0,0.0,0.0,0.0
587,2.592804,0,-0.09317351,0.058694124,-0.11054134,0.0,0.0,0.0,0.0,0.0,0.0
588,2.5971985,0,0.035524793,0.082336664,0.024971962,0.0,0.0,0.0,0.0,0.0,0.0
589,2.601593,0,0.029477244,-0.07188249,-0.020378113,0.0,0.0,0.0,0.0,0.0,0.0
590,2.6059875,0,-0.0105133895,-0.054156303,-0.05586052,0.0,0.0,0.0,0.0,0.0,0.0
591,2.610382,0,-0.13750657,0.010318041,-0.16644192,0.0,0.0,0.0,0.0,0.0,0.0
592,2.6147766,0,0.09745381,0.11622524,0.094846725,0.0,0.0,0.0,0.0,0.0,0.0
593,2.6191711,0,-0.0665208,-0.06899285,-0.11579037,0.0,0.0,0.0,0.0,0.0,0.0
594,2.6235657,0,-0.05458357,-0.09364867,-0.11042881,0.0,0.0,0.0,0.0,0.0,0.0
595,2.6279602,0,0.06548918,-0.012106419,0.030099869,0.0,0.0,0.0,0.0,0.0,0.0
596,2.6323547,0,0.0673214,0.020807505,0.040369987,0.0,0.0,0.0,0.0,0.0,0.0
597,2.6367493,0,-0.022161776,0.067183495,-0.037008286,0.0,0.0,0.0,0.0,0.0,0.0
598,2.6411438,0,-0.10638187,-0.037864923,-0.14779949,0.0,0.0,0.0,0.0,0.0,0.0
599,2.6455383,0,0.07107494,-0.14954877,4.014969E-4,0.0,0.0,0.0,0.0,0.0,0.0
600,2.6499329,0,0.124977864,-0.010522127,0.08967209,0.0,0.0,0.0,0.0,0.0,0.0
601,2.6543274,0,0.047745503,-0.034628153,0.006587982,0.0,0.0,0.0,0.0,0.0,0.0
602,2.658722,0,0.08124364,-0.012135267,0.046082497,0.0,0.0,0.0,0.0,0.0,0.0
603,2.6631165,0,-0.02805149,-0.044461966,-0.071208954,0.0,0.0,0.0,0.0,0.0,0.0
604,2.667511,0,0.072034664,-4.2915344E-4,0.039794922,0.0,0.0,0.0,0.0,0.0,0.0
605,2.6719055,0,-0.060816847,0.011832714,-0.089634895,0.0,0.0,0.0,0.0,0.0,0.0
606,2.6763,0,0.05255524,-0.07489395,0.0013599396,0.0,0.0,0.0,0.0,0.0,0.0
607,2.6806946,0,-0.103034146,-0.035886288,-0.14417839,0.0,0.0,0.0,0.0,0.0,0.0
608,2.685089,0,-0.04885366,-0.0082809925,-0.0833931,0.0,0.0,0.0,0.0,0.0,0.0
609,2.6894836,0,0.058245517,-0.05525422,0.012633324,0.0,0.0,0.0,0.0,0.0,0.0
610,2.6938782,0,0.09068594,-0.018982172,0.054385185,0.0,0.0,0.0,0.0,0.0,0.0
611,2.6982727,0,0.1620703,0.05933547,0.14585781,0.0,0.0,0.0,0.0,0.0,0.0
612,2.7026672,0,-0.014107699,-0.09170318,-0.067970276,0.0,0.0,0.0,0.0,0.0,0.0
613,2.7070618,0,-0.02607652,-0.15412068,-0.094979286,0.0,0.0,0.0,0.0,0.0,0.0
614,2.7114563,0,-0.094436295,-0.074180126,-0.14194107,0.0,0.0,0.0,0.0,0.0,0.0
615,2.7158508,0,0.1346845,-0.10290623,0.08005524,0.0,0.0,0.0,0.0,0.0,0.0
616,2.7202454,0,0.022810375,0.017154217,4.339218E-4,0.0,0.0,0.0,0.0,0.0,0.0
617,2.72464,0,0.003173029,-0.001253128,-0.022585869,0.0,0.0,0.0,0.0,0.0,0.0
618,2.7290344,0,0.036347665,0.026364803,0.019209862,0.0,0.0,0.0,0.0,0.0,0.0
619,2.733429,0,0.08898116,0.049694777,0.07894707,0.0,0.0,0.0,0.0,0.0,0.0
620,2.7378235,0,0.12246684,0.002762556,0.100795746,0.0,0.0,0.0,0.0,0.0,0.0
621,2.742218,0,-8.5526146E-4,-0.07005763,-0.040682793,0.0,0.0,0.0,0.0,0.0,0.0
622,2.7466125,0,0.054183878,-0.07887459,0.011809349,0.0,0.0,0.0,0.0,0.0,0.0
623,2.751007,0,-0.05269345,-0.059841156,-0.090171814,0.0,0.0,0.0,0.0,0.0,0.0
624,2.7554016,0,0.086470015,-0.0056777,0.062360764,0.0,0.0,0.0,0.0,0.0,0.0
625,2.7597961,0,0.022341287,-0.06352854,-0.016207695,0.0,0.0,0.0,0.0,0.0,0.0
626,2.7641907,0,-0.06698828,-0.07230568,-0.10779667,0.0,0.0,0.0,0.0,0.0,0.0
627,2.7685852,0,-0.043649398,-0.11228585,-0.095047,0.0,0.0,0.0,0.0,0.0,0.0
628,2.7729797,0,0.041469373,-0.10423064,-0.008354187,0.0,0.0,0.0,0.0,0.0,0.0
629,2.7773743,0,0.15704119,0.12882495,0.16658115,0.0,0.0,0.0,0.0,0.0,0.0
630,2.7817688,0,0.08261398,0.007699728,0.06066513,0.0,0.0,0.0,0.0,0.0,0.0
631,2.7861633,0,-0.030345941,0.14026642,-0.018133163,0.0,0.0,0.0,0.0,0.0,0.0
632,2.7905579,0,0.082622774,-0.13181448,0.02428627,0.0,0.0,0.0,0.0,0.0,0.0
633,2.7949524,0,-0.11212892,-0.029233456,-0.14568043,0.0,0.0,0.0,0.0,0.0,0.0
634,2.799347,0,-0.13141555,-0.011227608,-0.1605177,0.0,0.0,0.0,0.0,0.0,0.0
635,2.8037415,0,-0.025760526,-0.10913229,-0.08045578,0.0,0.0,0.0,0.0,0.0,0.0
636,2.808136,0,-0.040473484,-0.05263114,-0.08125973,0.0,0.0,0.0,0.0,0.0,0.0
637,2.8125305,0,-0.16233784,-0.028498411,-0.19811153,0.0,0.0,0.0,0.0,0.0,0.0
638,2.816925,0,-0.059822313,0.029632568,-0.08144188,0.0,0.0,0.0,0.0,0.0,0.0
639,2.8213196,0,-0.021312142,0.06690502,-0.03363228,0.0,0.0,0.0,0.0,0.0,0.0
640,2.825714,0,-0.003785098,-0.025916338,-0.039836884,0.0,0.0,0.0,0.0,0.0,0.0
641,2.8301086,0,0.06900687,0.043470383,0.050601006,0.0,0.0,0.0,0.0,0.0,0.0
642,2.8345032,0,0.03568212,0.09941125,0.03183365,0.0,0.0,0.0,0.0,0.0,0.0
643,2.8388977,0,0.0438715,0.041172504,0.025465012,0.0,0.0,0.0,0.0,0.0,0.0
644,2.8432922,1,-0.07877057,0.02807045,-0.100320816,0.0,0.0,0.0,0.0,0.0,0.0
645,2.8476868,1,-0.18455552,-0.10050559,-0.23808002,0.0,0.0,0.0,0.0,0.0,0.0
646,2.8520813,1,0.023036575,-0.037674665,-0.014422417,0.0,0.0,0.0,0.0,0.0,0.0
647,2.8564758,1,-0.122067176,-0.110988855,-0.17673874,0.0,0.0,0.0,0.0,0.0,0.0
648,2.8608704,1,0.021883642,0.041277885,0.0051937103,0.0,0.0,0.0,0.0,0.0,0.0
649,2.865265,1,-0.050686948,-0.032830477,-0.086135864,0.0,0.0,0.0,0.0,0.0,0.0
650,2.8696594,1,0.089301534,0.0029091835,0.062722206,0.0,0.0,0.0,0.0,0.0,0.0
651,2.874054,1,-0.043874763,-0.08649683,-0.092983246,0.0,0.0,0.0,0.0,0.0,0.0
652,2.8784485,1,0.09035597,-0.019684792,0.05785179,0.0,0.0,0.0,0.0,0.0,0.0
653,2.882843,1,0.1330244,-0.022464752,0.100008965,0.0,0.0,0.0,0.0,0.0,0.0
654,2.8872375,1,0.057077356,0.10600543,0.057323456,0.0,0.0,0.0,0.0,0.0,0.0
655,2.891632,1,0.09823594,0.12078929,0.10277271,0.0,0.0,0.0,0.0,0.0,0.0
656,2.8960266,1,0.028356617,0.010378838,0.005101204,0.0,0.0,0.0,0.0,0.0,0.0
657,2.9004211,1,0.1318275,0.0505805,0.118891716,0.0,0.0,0.0,0.0,0.0,0.0
658,2.9048157,1,-0.059364222,-0.058204412,-0.09947586,0.0,0.0,0.0,0.0,0.0,0.0
659,2.9092102,1,0.19595376,0.11314201,0.19894123,0.0,0.0,0.0,0.0,0.0,0.0
660,2.9136047,1,0.041536905,-0.014105797,0.01318264,0.0,0.0,0.0,0.0,0.0,0.0
661,2.9179993,1,-0.036881976,-0.020201206,-0.06668568,0.0,0.0,0.0,0.0,0.0,0.0
662,2.9223938,1,-0.074302725,-0.029841185,-0.106853485,0.0,0.0,0.0,0.0,0.0,0.0
663,2.9267883,1,-0.069047175,-0.116288185,-0.12400341,0.0,0.0,0.0,0.0,0.0,0.0
664,2.9311829,1,-0.08799831,-0.060840845,-0.12916183,0.0,0.0,0.0,0.0,0.0,0.0
665,2.9355774,1,0.0022794362,0.017529964,-0.01941967,0.0,0.0,0.0,0.0,0.0,0.0
666,2.939972,1,0.017362868,-0.0664897,-0.025817871,0.0,0.0,0.0,0.0,0.0,0.0
667,2.9443665,1,-0.010197068,0.014353752,-0.032705307,0.0,0.0,0.0,0.0,0.0,0.0
668,2.948761,1,0.044737227,-0.07789683,-0.0014915466,0.0,0.0,0.0,0.0,0.0,0.0
669,2.9531555,1,0.00317139,-0.028128624,-0.030371666,0.0,0.0,0.0,0.0,0.0,0.0
670,2.95755,1,0.023264026,-0.04139018,-0.013834,0.0,0.0,0.0,0.0,0.0,0.0
671,2.9619446,1,4.4993125E-4,0.072761774,-0.007376671,0.0,0.0,0.0,0.0,0.0,0.0
672,2.966339,1,-0.15574516,-0.10121131,-0.20799446,0.0,0.0,0.0,0.0,0.0,0.0
673,2.9707336,1,-0.08267032,5.0640106E-4,-0.1096344,0.0,0.0,0.0,0.0,0.0,0.0
674,2.9751282,1,0.19595897,0.07146025,0.18659592,0.0,0.0,0.0,0.0,0.0,0.0
675,2.9795227,1,0.045708008,-0.09609866,-0.0055217743,0.0,0.0,0.0,0.0,0.0,0.0
676,2.9839172,1,0.008686131,0.05626297,-0.0035963058,0.0,0.0,0.0,0.0,0.0,0.0
677,2.9883118,1,0.082345404,0.06568313,0.072574615,0.0,0.0,0.0,0.0,0.0,0.0
678,2.9927063,1,-0.08118131,0.009768963,-0.104842186,0.0,0.0,0.0,0.0,0.0,0.0
679,2.9971008,1,-0.122952454,-0.0011591911,-0.14959335,0.0,0.0,0.0,0.0,0.0,0.0
680,3.0014954,1,0.0062092002,0.06380105,-0.004603386,0.0,0.0,0.0,0.0,0.0,0.0
681,3.00589,1,-0.020332986,0.029086113,-0.03984642,0.0,0.0,0.0,0.0,0.0,0.0
682,3.0102844,1,0.01928923,-0.11319065,-0.036623955,0.0,0.0,0.0,0.0,0.0,0.0
683,3.014679,1,-0.09204779,-0.0766592,-0.13869476,0.0,0.0,0.0,0.0,0.0,0.0
684,3.0190735,1,-0.047856174,0.049852848,-0.062644005,0.0,0.0,0.0,0.0,0.0,0.0
685,3.023468,1,-0.012286449,0.035579443,-0.030840874,0.0,0.0,0.0,0.0,0.0,0.0
686,3.0278625,1,-0.037603103,-0.007962942,-0.06734753,0.0,0.0,0.0,0.0,0.0,0.0
687,3.032257,1,0.030700391,1.859665E-5,0.0027389526,0.0,0.0,0.0,0.0,0.0,0.0
688,3.0366516,1,0.09077502,-0.07232499,0.04440117,0.0,0.0,0.0,0.0,0.0,0.0
689,3.0410461,1,-0.009131545,0.045672894,-0.02508545,0.0,0.0,0.0,0.0,0.0,0.0
690,3.0454407,1,0.05402223,0.001594305,0.02671814,0.0,0.0,0.0,0.0,0.0,0.0
691,3.0498352,1,-9.2315115E-4,-0.0124230385,-0.03161812,0.0,0.0,0.0,0.0,0.0,0.0
692,3.0542297,1,0.013811534,-0.050233603,-0.026622772,0.0,0.0,0.0,0.0,0.0,0.0
693,3.0586243,1,0.046050914,0.054968834,0.032359123,0.0,0.0,0.0,0.0,0.0,0.0
694,3.0630188,1,-0.17908709,-0.07660651,-0.22593784,0.0,0.0,0.0,0.0,0.0,0.0
695,3.0674133,1,0.15506697,0.06400967,0.14319706,0.0,0.0,0.0,0.0,0.0,0.0
696,3.0718079,1,-0.08239808,-0.06584883,-0.1268053,0.0,0.0,0.0,0.0,0.0,0.0
697,3.0762024,1,-0.04446038,0.017711401,-0.0677309,0.0,0.0,0.0,0.0,0.0,0.0
698,3.080597,1,-0.08777993,-0.0720005,-0.13412666,0.0,0.0,0.0,0.0,0.0,0.0
699,3.0849915,1,-0.011502737,0.04432082,-0.028759003,0.0,0.0,0.0,0.0,0.0,0.0
700,3.089386,1,0.024624651,-0.04358077,-0.015110016,0.0,0.0,0.0,0.0,0.0,0.0
701,3.0937805,1,-0.028423125,-0.020061016,-0.06209755,0.0,0.0,0.0,0.0,0.0,0.0
702,3.098175,1,0.07405401,-0.016913414,0.040905,0.0,0.0,0.0,0.0,0.0,0.0
703,3.1025696,1,0.024044877,-0.08507323,-0.026213646,0.0,0.0,0.0,0.0,0.0,0.0
704,3.106964,1,0.022783464,-0.006659031,-0.007666588,0.0,0.0,0.0,0.0,0.0,0.0
705,3.1113586,1,0.017187452,0.079601526,0.008974075,0.0,0.0,0.0,0.0,0.0,0.0
706,3.1157532,1,0.0798896,-0.0153512955,0.04736805,0.0,0.0,0.0,0.0,0.0,0.0
707,3.1201477,1,6.485544E-5,-0.09563899,-0.052700996,0.0,0.0,0.0,0.0,0.0,0.0
708,3.1245422,1,0.077131696,-0.061917305,0.03278637,0.0,0.0,0.0,0.0,0.0,0.0
709,3.1289368,1,-0.12806395,-0.07244992,-0.17488384,0.0,0.0,0.0,0.0,0.0,0.0
710,3.1333313,1,0.02197448,-0.06654358,-0.024094582,0.0,0.0,0.0,0.0,0.0,0.0
711,3.1377258,1,-0.0489273,-0.08432984,-0.09940052,0.0,0.0,0.0,0.0,0.0,0.0
712,3.1421204,1,0.18393162,0.08145118,0.17513084,0.0,0.0,0.0,0.0,0.0,0.0
713,3.146515,1,0.15429878,-0.00929594,0.1231699,0.0,0.0,0.0,0.0,0.0,0.0
714,3.1509094,1,0.12822989,-0.048000336,0.0875721,0.0,0.0,0.0,0.0,0.0,0.0
715,3.155304,1,-0.045675687,-0.0873642,-0.0958395,0.0,0.0,0.0,0.0,0.0,0.0
716,3.1596985,1,0.16188642,0.122603655,0.16474724,0.0,0.0,0.0,0.0,0.0,0.0
717,3.164093,1,-0.061620586,6.9975853E-4,-0.0888834,0.0,0.0,0.0,0.0,0.0,0.0
718,3.1684875,1,0.021604842,0.007979393,-0.0040712357,0.0,0.0,0.0,0.0,0.0,0.0
719,3.172882,1,-0.10542502,-0.04297018,-0.14398575,0.0,0.0,0.0,0.0,0.0,0.0
720,3.1772766,1,-0.11581988,-0.07340884,-0.1626749,0.0,0.0,0.0,0.0,0.0,0.0
721,3.1816711,1,-0.12820567,-0.035161972,-0.1657095,0.0,0.0,0.0,0.0,0.0,0.0
722,3.1860657,1,-0.1466652,-0.04928851,-0.18839931,0.0,0.0,0.0,0.0,0.0,0.0
723,3.1904602,1,-0.093365215,-0.118888855,-0.15342522,0.0,0.0,0.0,0.0,0.0,0.0
724,3.1948547,1,-0.029325688,0.03612089,-0.05057335,0.0,0.0,0.0,0.0,0.0,0.0
725,3.1992493,1,-0.08249315,-0.10740924,-0.14121056,0.0,0.0,0.0,0.0,0.0,0.0
726,3.2036438,1,-0.025915945,-0.0050685406,-0.058994293,0.0,0.0,0.0,0.0,0.0,0.0
727,3.2080383,1,-0.028523916,0.04947543,-0.047941208,0.0,0.0,0.0,0.0,0.0,0.0
728,3.2124329,1,-0.26280582,-0.06614423,-0.31151676,0.0,0.0,0.0,0.0,0.0,0.0
729,3.2168274,1,0.031250246,-0.02814889,-0.008892059,0.0,0.0,0.0,0.0,0.0,0.0
730,3.221222,1,-0.021156067,0.018510342,-0.04944992,0.0,0.0,0.0,0.0,0.0,0.0
731,3.2256165,1,-0.08523107,-0.034937143,-0.12718678,0.0,0.0,0.0,0.0,0.0,0.0
732,3.230011,1,0.012421196,0.03128314,-0.013031006,0.0,0.0,0.0,0.0,0.0,0.0
733,3.2344055,1,-0.027714157,0.0071434975,-0.059217453,0.0,0.0,0.0,0.0,0.0,0.0
734,3.2388,1,0.05179543,0.068641424,0.037136078,0.0,0.0,0.0,0.0,0.0,0.0
735,3.2431946,1,-0.10438868,0.04238367,-0.12539864,0.0,0.0,0.0,0.0,0.0,0.0
736,3.247589,1,0.09864665,-0.0077438354,0.064435005,0.0,0.0,0.0,0.0,0.0,0.0
737,3.2519836,1,0.041223772,0.06533551,0.025815964,0.0,0.0,0.0,0.0,0.0,0.0
738,3.2563782,1,-0.12487126,-0.07878089,-0.17658138,0.0,0.0,0.0,0.0,0.0,0.0
739,3.2607727,1,-0.041577928,-0.094421625,-0.0980854,0.0,0.0,0.0,0.0,0.0,0.0
740,3.2651672,1,-0.071674414,0.004208088,-0.10318947,0.0,0.0,0.0,0.0,0.0,0.0
741,3.2695618,1,0.062540926,-0.12324786,-0.0019721985,0.0,0.0,0.0,0.0,0.0,0.0
742,3.2739563,1,-0.09809356,-0.0622015,-0.1469965,0.0,0.0,0.0,0.0,0.0,0.0
743,3.2783508,1,0.024647212,0.015222073,-0.0048561096,0.0,0.0,0.0,0.0,0.0,0.0
744,3.2827454,1,-0.028685981,-0.09533548,-0.08629608,0.0,0.0,0.0,0.0,0.0,0.0
745,3.28714,1,0.024277931,0.01987505,-0.0042390823,0.0,0.0,0.0,0.0,0.0,0.0
746,3.2915344,1,0.021147048,0.005174637,-0.011136055,0.0,0.0,0.0,0.0,0.0,0.0
747,3.295929,1,0.032715,-0.111988544,-0.029569626,0.0,0.0,0.0,0.0,0.0,0.0
748,3.3003235,1,0.030770993,0.09103012,0.020368576,0.0,0.0,0.0,0.0,0.0,0.0
749,3.304718,1,-0.012934292,-0.08670807,-0.06845951,0.0,0.0,0.0,0.0,0.0,0.0
750,3.3091125,1,0.07217909,0.13368487,0.072636604,0.0,0.0,0.0,0.0,0.0,0.0
751,3.313507,1,0.038945295,-0.04126215,-0.004668236,0.0,0.0,0.0,0.0,0.0,0.0
752,3.3179016,1,0.03879381,-0.04111457,-0.004712105,0.0,0.0,0.0,0.0,0.0,0.0
753,3.3222961,1,0.022485888,-0.054370165,-0.024336815,0.0,0.0,0.0,0.0,0.0,0.0
754,3.3266907,1,0.120498426,-0.0060117245,0.08581543,0.0,0.0,0.0,0.0,0.0,0.0
755,3.3310852,1,-0.18839023,-0.12626624,-0.25337124,0.0,0.0,0.0,0.0,0.0,0.0
756,3.3354797,1,0.018985366,0.032742977,-0.006392479,0.0,0.0,0.0,0.0,0.0,0.0
757,3.3398743,1,0.08430684,-0.05215335,0.037296295,0.0,0.0,0.0,0.0,0.0,0.0
758,3.3442688,1,-0.0030978266,0.036470175,-0.02706623,0.0,0.0,0.0,0.0,0.0,0.0
759,3.3486633,1,-0.14750609,-0.009847641,-0.1830883,0.0,0.0,0.0,0.0,0.0,0.0
760,3.3530579,1,-0.11765502,-0.11788869,-0.18152428,0.0,0.0,0.0,0.0,0.0,0.0
761,3.3574524,1,-0.07497252,0.07782459,-0.0883255,0.0,0.0,0.0,0.0,0.0,0.0
762,3.361847,1,0.16219431,-0.02826929,0.12132454,0.0,0.0,0.0,0.0,0.0,0.0
763,3.3662415,1,0.13484576,0.011341572,0.1044426,0.0,0.0,0.0,0.0,0.0,0.0
764,3.370636,1,-0.041992567,-0.061486244,-0.090146065,0.0,0.0,0.0,0.0,0.0,0.0
765,3.3750305,1,-0.043488316,-0.034011126,-0.08525753,0.0,0.0,0.0,0.0,0.0,0.0
766,3.379425,1,-0.006973589,-0.13081503,-0.07350159,0.0,0.0,0.0,0.0,0.0,0.0
767,3.3838196,1,0.09597025,0.034250498,0.071208,0.0,0.0,0.0,0.0,0.0,0.0
768,3.388214,1,0.08200792,0.012248278,0.051979065,0.0,0.0,0.0,0.0,0.0,0.0
769,3.3926086,1,0.115647055,0.10381603,0.109228134,0.0,0.0,0.0,0.0,0.0,0.0
770,3.3970032,1,0.049821563,0.026753902,0.024300575,0.0,0.0,0.0,0.0,0.0,0.0
771,3.4013977,1,0.094122894,0.014947653,0.0657959,0.0,0.0,0.0,0.0,0.0,0.0
772,3.4057922,1,-0.0053094868,-0.070302725,-0.055191994,0.0,0.0,0.0,0.0,0.0,0.0
773,3.4101868,1,-0.022221142,-0.06524205,-0.07101154,0.0,0.0,0.0,0.0,0.0,0.0
774,3.4145813,1,-0.14713024,-0.115575075,-0.20881462,0.0,0.0,0.0,0.0,0.0,0.0
775,3.4189758,1,-0.009385521,-0.057214975,-0.05687523,0.0,0.0,0.0,0.0,0.0,0.0
776,3.4233704,1,0.12339199,-0.01393199,0.0864439,0.0,0.0,0.0,0.0,0.0,0.0
777,3.427765,1,0.13338086,0.0626657,0.116454124,0.0,0.0,0.0,0.0,0.0,0.0
778,3.4321594,1,-0.043548606,-0.093250275,-0.09960556,0.0,0.0,0.0,0.0,0.0,0.0
779,3.436554,1,-0.04337447,0.022203445,-0.07026291,0.0,0.0,0.0,0.0,0.0,0.0
780,3.4409485,1,-0.08159854,0.11371684,-0.08508396,0.0,0.0,0.0,0.0,0.0,0.0
781,3.445343,1,0.12635452,0.17081523,0.13716602,0.0,0.0,0.0,0.0,0.0,0.0
782,3.4497375,1,-0.010205144,0.029346228,-0.034867287,0.0,0.0,0.0,0.0,0.0,0.0
783,3.454132,1,0.025645738,0.038324118,0.0032615662,0.0,0.0,0.0,0.0,0.0,0.0
784,3.4585266,1,-0.08160251,-0.039978743,-0.12364769,0.0,0.0,0.0,0.0,0.0,0.0
785,3.4629211,1,-0.090198226,0.0129926205,-0.11904907,0.0,0.0,0.0,0.0,0.0,0.0
786,3.4673157,1,0.04965178,-0.04847479,0.0046510696,0.0,0.0,0.0,0.0,0.0,0.0
787,3.4717102,1,-0.014154548,-0.10136819,-0.07264519,0.0,0.0,0.0,0.0,0.0,0.0
788,3.4761047,1,-0.04712557,0.03805971,-0.070233345,0.0,0.0,0.0,0.0,0.0,0.0
789,3.4804993,1,-0.1002756,-0.06815028,-0.15038109,0.0,0.0,0.0,0.0,0.0,0.0
790,3.4848938,1,-0.09513789,0.026174068,-0.12107086,0.0,0.0,0.0,0.0,0.0,0.0
791,3.4892883,1,-0.08606527,-0.02720952,-0.12598705,0.0,0.0,0.0,0.0,0.0,0.0
792,3.4936829,1,-0.056825124,-0.006051779,-0.09157753,0.0,0.0,0.0,0.0,0.0,0.0
793,3.4980774,1,-0.044169955,-0.012178421,-0.080905914,0.0,0.0,0.0,0.0,0.0,0.0
794,3.502472,1,-0.019281382,-0.07054949,-0.07103348,0.0,0.0,0.0,0.0,0.0,0.0
795,3.5068665,1,0.07397247,0.054987192,0.05398178,0.0,0.0,0.0,0.0,0.0,0.0
796,3.511261,1,-0.09320099,-0.0017204285,-0.12724018,0.0,0.0,0.0,0.0,0.0,0.0
797,3.5156555,1,0.036236264,0.021820068,0.007706642,0.0,0.0,0.0,0.0,0.0,0.0
798,3.52005,1,0.18766904,0.074290514,0.17265797,0.0,0.0,0.0,0.0,0.0,0.0
799,3.5244446,1,0.097031124,-0.013235569,0.059016228,0.0,0.0,0.0,0.0,0.0,0.0
800,3.528839,1,0.120943405,0.05300045,0.1001358,0.0,0.0,0.0,0.0,0.0,0.0
801,3.5332336,1,0.061379798,0.033097267,0.035909653,0.0,0.0,0.0,0.0,0.0,0.0
802,3.5376282,1,-0.020052606,-0.07534742,-0.07300758,0.0,0.0,0.0,0.0,0.0,0.0
803,3.5420227,1,-0.003784174,-0.057184935,-0.052181244,0.0,0.0,0.0,0.0,0.0,0.0
804,3.5464172,1,-0.033862732,-1.7476082E-4,-0.06782246,0.0,0.0,0.0,0.0,0.0,0.0
805,3.5508118,1,0.08417515,-0.06706309,0.032774925,0.0,0.0,0.0,0.0,0.0,0.0
806,3.5552063,1,0.018843776,0.031931162,-0.0069875717,0.0,0.0,0.0,0.0,0.0,0.0
807,3.5596008,1,0.09435404,0.16181111,0.101656914,0.0,0.0,0.0,0.0,0.0,0.0
808,3.5639954,1,0.03087083,0.0065944195,-7.0667267E-4,0.0,0.0,0.0,0.0,0.0,0.0
809,3.56839,1,-0.1458116,0.012291908,-0.17570877,0.0,0.0,0.0,0.0,0.0,0.0
810,3.5727844,1,0.007111883,-0.004555702,-0.027755737,0.0,0.0,0.0,0.0,0.0,0.0
811,3.577179,1,-0.20470765,-0.16503954,-0.2803049,0.0,0.0,0.0,0.0,0.0,0.0
812,3.5815735,1,-0.07574592,-0.04421115,-0.121697426,0.0,0.0,0.0,0.0,0.0,0.0
813,3.585968,1,-0.04688313,7.390976E-6,-0.08180809,0.0,0.0,0.0,0.0,0.0,0.0
814,3.5903625,1,-0.014872575,-0.04281473,-0.061024666,0.0,0.0,0.0,0.0,0.0,0.0
815,3.594757,1,0.029417193,-0.03141117,-0.014128685,0.0,0.0,0.0,0.0,0.0,0.0
816,3.5991516,1,-0.082302235,-0.02752471,-0.12463665,0.0,0.0,0.0,0.0,0.0,0.0
817,3.6035461,1,-0.043786965,-0.06858468,-0.097073555,0.0,0.0,0.0,0.0,0.0,0.0
818,3.6079407,1,0.15483066,0.04216957,0.1294136,0.0,0.0,0.0,0.0,0.0,0.0
819,3.6123352,1,-0.19052188,0.02787304,-0.21880817,0.0,0.0,0.0,0.0,0.0,0.0
820,3.6167297,1,-0.019290352,-0.025830984,-0.062033653,0.0,0.0,0.0,0.0,0.0,0.0
821,3.6211243,1,0.056608655,0.016556978,0.024692535,0.0,0.0,0.0,0.0,0.0,0.0
822,3.6255188,1,0.17560771,0.019217491,0.14445019,0.0,0.0,0.0,0.0,0.0,0.0
823,3.6299133,1,-0.003199095,0.024455786,-0.032439232,0.0,0.0,0.0,0.0,0.0,0.0
824,3.6343079,1,-0.024173105,-0.013344526,-0.06301117,0.0,0.0,0.0,0.0,0.0,0.0
825,3.6387024,1,0.13175824,-0.06122446,0.08045101,0.0,0.0,0.0,0.0,0.0,0.0
826,3.643097,1,0.041832216,0.0038998127,0.0075302124,0.0,0.0,0.0,0.0,0.0,0.0
827,3.6474915,1,-0.09397534,0.04288411,-0.11808777,0.0,0.0,0.0,0.0,0.0,0.0
828,3.651886,1,0.022605037,-0.05680418,-0.027362823,0.0,0.0,0.0,0.0,0.0,0.0
829,3.6562805,1,0.092058845,-0.052807808,0.0429554,0.0,0.0,0.0,0.0,0.0,0.0
830,3.660675,1,0.023814863,-0.005249977,-0.013744354,0.0,0.0,0.0,0.0,0.0,0.0
831,3.6650696,1,-0.023953283,-0.041148424,-0.07141209,0.0,0.0,0.0,0.0,0.0,0.0
832,3.669464,1,-0.030836457,0.021602154,-0.06226635,0.0,0.0,0.0,0.0,0.0,0.0
833,3.6738586,1,0.03725908,0.03375244,0.007634163,0.0,0.0,0.0,0.0,0.0,0.0
834,3.6782532,1,0.031277277,-3.027916E-4,-0.0067129135,0.0,0.0,0.0,0.0,0.0,0.0
835,3.6826477,1,-0.042177163,0.082736015,-0.060079575,0.0,0.0,0.0,0.0,0.0,0.0
836,3.6870422,1,0.113524325,-0.053955317,0.059718132,0.0,0.0,0.0,0.0,0.0,0.0
837,3.6914368,1,-0.073234566,-0.022840261,-0.11864948,0.0,0.0,0.0,0.0,0.0,0.0
838,3.6958313,1,-0.23554459,-0.077474594,-0.29650307,0.0,0.0,0.0,0.0,0.0,0.0
839,3.7002258,1,-0.055647545,-0.050303698,-0.11068535,0.0,0.0,0.0,0.0,0.0,0.0
840,3.7046204,1,-0.11287885,0.055154324,-0.1411829,0.0,0.0,0.0,0.0,0.0,0.0
841,3.709015,1,-0.06785407,-0.053917885,-0.124378204,0.0,0.0,0.0,0.0,0.0,0.0
842,3.7134094,1,0.06751201,-0.05632615,0.009840012,0.0,0.0,0.0,0.0,0.0,0.0
843,3.717804,1,-0.018058116,0.060485363,-0.04572773,0.0,0.0,0.0,0.0,0.0,0.0
844,3.7221985,1,0.014872706,-0.051386833,-0.041392326,0.0,0.0,0.0,0.0,0.0,0.0
845,3.726593,1,-0.008419955,-0.10338664,-0.07809639,0.0,0.0,0.0,0.0,0.0,0.0
846,3.7309875,1,-0.06551299,-0.07153034,-0.12722492,0.0,0.0,0.0,0.0,0.0,0.0
847,3.735382,1,0.10487548,-0.064802885,0.04447937,0.0,0.0,0.0,0.0,0.0,0.0
848,3.7397766,1,-0.07954619,0.008401871,-0.120996475,0.0,0.0,0.0,0.0,0.0,0.0
849,3.7441711,1,0.04962284,-0.041899204,-0.0050792694,0.0,0.0,0.0,0.0,0.0,0.0
850,3.7485657,1,-0.10694166,-0.026438713,-0.15744686,0.0,0.0,0.0,0.0,0.0,0.0
851,3.7529602,1,-0.0655333,-0.057297707,-0.123147964,0.0,0.0,0.0,0.0,0.0,0.0
852,3.7573547,1,-0.09631691,0.03629732,-0.13040161,0.0,0.0,0.0,0.0,0.0,0.0
853,3.7617493,1,0.0587335,-0.007900715,0.014791489,0.0,0.0,0.0,0.0,0.0,0.0
854,3.7661438,1,-0.11531558,-0.066212416,-0.17383957,0.0,0.0,0.0,0.0,0.0,0.0
855,3.7705383,1,0.14036083,0.06830692,0.11548519,0.0,0.0,0.0,0.0,0.0,0.0
856,3.7749329,1,0.10734258,0.041335344,0.07625008,0.0,0.0,0.0,0.0,0.0,0.0
857,3.7793274,1,0.047689773,-0.038517475,-0.003437996,0.0,0.0,0.0,0.0,0.0,0.0
858,3.783722,1,0.22103584,0.010593176,0.18239975,0.0,0.0,0.0,0.0,0.0,0.0
859,3.7881165,1,0.13788006,0.0865078,0.11947346,0.0,0.0,0.0,0.0,0.0,0.0
860,3.792511,1,0.11811543,-0.0018014908,0.07767773,0.0,0.0,0.0,0.0,0.0,0.0
861,3.7969055,1,0.16623542,-0.021666765,0.12102795,0.0,0.0,0.0,0.0,0.0,0.0
862,3.8013,1,-0.003145421,0.036943436,-0.032639503,0.0,0.0,0.0,0.0,0.0,0.0
863,3.8056946,1,0.05896417,-0.07658553,3.938675E-4,0.0,0.0,0.0,0.0,0.0,0.0
864,3.810089,1,-0.024835432,-0.01474309,-0.06750202,0.0,0.0,0.0,0.0,0.0,0.0
865,3.8144836,1,0.033872165,0.064899445,0.011219025,0.0,0.0,0.0,0.0,0.0,0.0
866,3.8188782,1,0.03387008,0.06460428,0.011296272,0.0,0.0,0.0,0.0,0.0,0.0
867,3.8232727,1,-0.044741653,-0.07573223,-0.10291767,0.0,0.0,0.0,0.0,0.0,0.0
868,3.8276672,1,-0.06419944,0.043982983,-0.092012405,0.0,0.0,0.0,0.0,0.0,0.0
869,3.8320618,1,0.04432962,-0.06730509,-0.0132808685,0.0,0.0,0.0,0.0,0.0,0.0
870,3.8364563,1,-0.09235761,-0.15282273,-0.17160988,0.0,0.0,0.0,0.0,0.0,0.0
871,3.8408508,1,0.03346897,-0.09721732,-0.032455444,0.0,0.0,0.0,0.0,0.0,0.0
872,3.8452454,1,0.049067862,-0.009837866,0.0053653717,0.0,0.0,0.0,0.0,0.0,0.0
873,3.84964,1,-0.024353886,0.06362176,-0.04897499,0.0,0.0,0.0,0.0,0.0,0.0
874,3.8540344,1,-0.09206141,-0.09699869,-0.15771484,0.0,0.0,0.0,0.0,0.0,0.0
875,3.858429,1,-0.1765183,-0.15544748,-0.25756168,0.0,0.0,0.0,0.0,0.0,0.0
876,3.8628235,1,-0.061824493,-0.015190601,-0.108161926,0.0,0.0,0.0,0.0,0.0,0.0
877,3.867218,1,0.056736477,-0.0034852028,0.013051987,0.0,0.0,0.0,0.0,0.0,0.0
878,3.8716125,1,-0.10223361,-0.02105999,-0.15002632,0.0,0.0,0.0,0.0,0.0,0.0
879,3.876007,1,-0.2677254,-0.04974222,-0.32308292,0.0,0.0,0.0,0.0,0.0,0.0
880,3.8804016,1,-0.001683468,-0.046708822,-0.05753517,0.0,0.0,0.0,0.0,0.0,0.0
881,3.8847961,1,-0.11306708,-0.06595492,-0.17400074,0.0,0.0,0.0,0.0,0.0,0.0
882,3.8891907,1,0.018383985,-0.07392144,-0.045340538,0.0,0.0,0.0,0.0,0.0,0.0
883,3.8935852,1,0.017939573,-0.07421684,-0.04527664,0.0,0.0,0.0,0.0,0.0,0.0
884,3.8979797,1,0.017178005,-0.07406974,-0.045336723,0.0,0.0,0.0,0.0,0.0,0.0
885,3.9023743,1,0.016887164,-0.07421756,-0.04530716,0.0,0.0,0.0,0.0,0.0,0.0
886,3.9068604,1,0.016888207,-0.07406998,-0.045345306,0.0,0.0,0.0,0.0,0.0,0.0
887,3.9113464,1,0.13139099,-0.030723095,0.08018875,0.0,0.0,0.0,0.0,0.0,0.0
888,3.915863,1,0.018861955,-0.10062623,-0.0497694,0.0,0.0,0.0,0.0,0.0,0.0
889,3.9203491,1,-0.050697558,-0.03507614,-0.102892876,0.0,0.0,0.0,0.0,0.0,0.0
890,3.9248657,1,-0.022463227,-0.041831493,-0.076621056,0.0,0.0,0.0,0.0,0.0,0.0
891,3.9293518,1,0.072719075,0.042523146,0.039958954,0.0,0.0,0.0,0.0,0.0,0.0
892,3.9338684,1,0.09049464,0.010117054,0.04988861,0.0,0.0,0.0,0.0,0.0,0.0
893,3.9383545,1,0.010515874,-0.042648315,-0.043192863,0.0,0.0,0.0,0.0,0.0,0.0
894,3.942871,1,0.016297286,0.04201722,-0.01589489,0.0,0.0,0.0,0.0,0.0,0.0
895,3.9473572,1,0.07974175,0.035001993,0.04483509,0.0,0.0,0.0,0.0,0.0,0.0
896,3.9518738,1,-0.023511106,-0.037463427,-0.076524734,0.0,0.0,0.0,0.0,0.0,0.0
897,3.9563599,1,-0.06425039,0.011999607,-0.10472298,0.0,0.0,0.0,0.0,0.0,0.0
898,3.9608765,1,-0.044249915,-0.03855419,-0.09794998,0.0,0.0,0.0,0.0,0.0,0.0
899,3.9653625,1,-0.089663826,-0.06396723,-0.15006447,0.0,0.0,0.0,0.0,0.0,0.0
900,3.9698486,1,0.015498793,-0.018681288,-0.033839226,0.0,0.0,0.0,0.0,0.0,0.0
901,3.9743652,1,0.054439552,0.018893003,0.014540672,0.0,0.0,0.0,0.0,0.0,0.0
902,3.9788513,1,0.0705438,-0.05999136,0.010772705,0.0,0.0,0.0,0.0,0.0,0.0
903,3.983368,1,-0.054391675,-0.013289452,-0.10198212,0.0,0.0,0.0,0.0,0.0,0.0
904,3.987854,1,-0.062292196,-0.029262304,-0.11422634,0.0,0.0,0.0,0.0,0.0,0.0
905,3.9923706,1,-0.033862226,-0.008177519,-0.080696106,0.0,0.0,0.0,0.0,0.0,0.0
906,3.9968567,1,-0.112752564,-0.010032415,-0.16028214,0.0,0.0,0.0,0.0,0.0,0.0
907,4.0013733,1,0.072218485,0.009193897,0.029191017,0.0,0.0,0.0,0.0,0.0,0.0
908,4.0058594,1,0.027518844,-0.039077997,-0.027598381,0.0,0.0,0.0,0.0,0.0,0.0
909,4.010376,1,-0.0862586,-0.12270188,-0.16170025,0.0,0.0,0.0,0.0,0.0,0.0
910,4.014862,1,0.030043935,-0.046377182,-0.02563858,0.0,0.0,0.0,0.0,0.0,0.0
911,4.0193787,1,0.028846418,0.013371706,-0.011551857,0.0,0.0,0.0,0.0,0.0,0.0
912,4.0238647,1,-8.005444E-4,0.014945507,-0.040719032,0.0,0.0,0.0,0.0,0.0,0.0
913,4.028351,1,-0.12310382,-0.07174873,-0.18507099,0.0,0.0,0.0,0.0,0.0,0.0
914,4.0328674,1,-0.0040610675,0.0090174675,-0.045288086,0.0,0.0,0.0,0.0,0.0,0.0
915,4.0373535,1,-0.03102612,-0.057937622,-0.08940792,0.0,0.0,0.0,0.0,0.0,0.0
916,4.04187,1,-0.031391315,-0.071805954,-0.093486786,0.0,0.0,0.0,0.0,0.0,0.0
917,4.046356,1,0.06991584,0.04230237,0.03583145,0.0,0.0,0.0,0.0,0.0,0.0
918,4.050873,1,0.010326123,0.064492226,-0.017474174,0.0,0.0,0.0,0.0,0.0,0.0
919,4.055359,1,-0.062435515,-0.055829763,-0.12079716,0.0,0.0,0.0,0.0,0.0,0.0
920,4.0598755,1,0.051375575,-0.003673315,0.0059404373,0.0,0.0,0.0,0.0,0.0,0.0
921,4.0643616,1,0.016664451,-0.031765223,-0.035344124,0.0,0.0,0.0,0.0,0.0,0.0
922,4.068878,1,-0.112615384,-9.1552734E-5,-0.15638351,0.0,0.0,0.0,0.0,0.0,0.0
923,4.0733643,1,-0.051441632,-0.07702422,-0.11518192,0.0,0.0,0.0,0.0,0.0,0.0
924,4.077881,1,-0.051135562,-0.0768764,-0.11521244,0.0,0.0,0.0,0.0,0.0,0.0
925,4.082367,1,-0.09004653,-0.035923004,-0.14395809,0.0,0.0,0.0,0.0,0.0,0.0
926,4.086853,1,0.063151665,0.011610985,0.01991272,0.0,0.0,0.0,0.0,0.0,0.0
927,4.0913696,1,0.091333725,0.0049877167,0.046598434,0.0,0.0,0.0,0.0,0.0,0.0
928,4.0958557,1,-0.1403345,0.0104186535,-0.18308353,0.0,0.0,0.0,0.0,0.0,0.0
929,4.1003723,1,0.018047338,-0.041751146,-0.038684845,0.0,0.0,0.0,0.0,0.0,0.0
930,4.1048584,1,-0.062050395,-0.02068305,-0.11335564,0.0,0.0,0.0,0.0,0.0,0.0
931,4.109375,1,-0.22438683,-0.11302543,-0.2993822,0.0,0.0,0.0,0.0,0.0,0.0
932,4.113861,1,0.011258936,-0.029750586,-0.043686867,0.0,0.0,0.0,0.0,0.0,0.0
933,4.1183777,1,0.04776553,-0.05268526,-0.013175964,0.0,0.0,0.0,0.0,0.0,0.0
934,4.122864,1,0.024058944,-0.035559893,-0.03230381,0.0,0.0,0.0,0.0,0.0,0.0
935,4.1273804,1,-0.0059484784,0.039959908,-0.04304409,0.0,0.0,0.0,0.0,0.0,0.0
936,4.1318665,1,-0.067009725,0.014812231,-0.11039543,0.0,0.0,0.0,0.0,0.0,0.0
937,4.136383,1,0.07236854,-5.750656E-4,0.02475357,0.0,0.0,0.0,0.0,0.0,0.0
938,4.140869,1,-0.045875393,0.0154082775,-0.089178085,0.0,0.0,0.0,0.0,0.0,0.0
939,4.145355,1,0.1795961,0.017374992,0.13639927,0.0,0.0,0.0,0.0,0.0,0.0
940,4.1497803,1,-0.004459465,0.0074310303,-0.0492754,0.0,0.0,0.0,0.0,0.0,0.0
941,4.154175,1,0.02910409,0.006704569,-0.016037941,0.0,0.0,0.0,0.0,0.0,0.0
942,4.1585693,1,-0.014081413,-0.022832155,-0.06668186,0.0,0.0,0.0,0.0,0.0,0.0
943,4.162964,1,0.0436408,-0.11883807,-0.033658028,0.0,0.0,0.0,0.0,0.0,0.0
944,4.1673584,1,0.09857351,0.14472461,0.08845711,0.0,0.0,0.0,0.0,0.0,0.0
945,4.171753,1,-0.04341071,-0.035000324,-0.09859562,0.0,0.0,0.0,0.0,0.0,0.0
946,4.1761475,1,0.014262741,-0.0064496994,-0.03392124,0.0,0.0,0.0,0.0,0.0,0.0
947,4.180542,1,0.0049760994,-0.027359009,-0.04862976,0.0,0.0,0.0,0.0,0.0,0.0
948,4.1849365,1,-0.05867713,0.062447786,-0.08937931,0.0,0.0,0.0,0.0,0.0,0.0
949,4.189331,1,-0.14685327,-0.04355359,-0.20473862,0.0,0.0,0.0,0.0,0.0,0.0
950,4.1937256,1,0.08167953,-0.01768446,0.029873848,0.0,0.0,0.0,0.0,0.0,0.0
951,4.19812,1,-0.14916524,-0.10875797,-0.22395897,0.0,0.0,0.0,0.0,0.0,0.0
952,4.2025146,1,0.115164615,-0.018253326,0.06250191,0.0,0.0,0.0,0.0,0.0,0.0
953,4.206909,1,0.21336266,-0.05280757,0.15205956,0.0,0.0,0.0,0.0,0.0,0.0
954,4.2113037,1,0.1583465,0.12278557,0.14270401,0.0,0.0,0.0,0.0,0.0,0.0
955,4.2156982,1,-0.06970001,-0.041839838,-0.1265049,0.0,0.0,0.0,0.0,0.0,0.0
956,4.220093,1,0.047178484,0.070984125,0.01875496,0.0,0.0,0.0,0.0,0.0,0.0
957,4.2244873,1,0.014840459,0.094721556,-0.0072250366,0.0,0.0,0.0,0.0,0.0,0.0
958,4.228882,1,-0.07594264,0.03376198,-0.11430168,0.0,0.0,0.0,0.0,0.0,0.0
959,4.2332764,1,0.04474611,0.041211605,0.007966042,0.0,0.0,0.0,0.0,0.0,0.0
960,4.237671,1,-0.09535716,-0.059393167,-0.15760899,0.0,0.0,0.0,0.0,0.0,0.0
961,4.2420654,1,0.054282315,-0.039644003,-0.0034093857,0.0,0.0,0.0,0.0,0.0,0.0
962,4.24646,1,0.08087928,-0.037290096,0.023791313,0.0,0.0,0.0,0.0,0.0,0.0
963,4.2508545,1,0.0727014,-0.05757284,0.010594368,0.0,0.0,0.0,0.0,0.0,0.0
964,4.255249,1,0.03440202,0.06655598,0.004187584,0.0,0.0,0.0,0.0,0.0,0.0
965,4.2596436,1,-0.008615041,-0.032235384,-0.06380749,0.0,0.0,0.0,0.0,0.0,0.0
966,4.264038,1,-0.03403317,-0.07102227,-0.099282265,0.0,0.0,0.0,0.0,0.0,0.0
967,4.2684326,1,-0.017347151,-0.034388065,-0.07343769,0.0,0.0,0.0,0.0,0.0,0.0
968,4.272827,1,0.02892617,-0.017976522,-0.023144722,0.0,0.0,0.0,0.0,0.0,0.0
969,4.2772217,1,-0.08485954,-0.0055339336,-0.13380623,0.0,0.0,0.0,0.0,0.0,0.0
970,4.281616,1,-0.011869425,-0.074784756,-0.07867241,0.0,0.0,0.0,0.0,0.0,0.0
971,4.2860107,1,0.017485952,-0.034771442,-0.03936863,0.0,0.0,0.0,0.0,0.0,0.0
972,4.2904053,1,-0.02200585,0.01983881,-0.06501293,0.0,0.0,0.0,0.0,0.0,0.0
973,4.2948,1,-0.05788485,0.0058529377,-0.10429382,0.0,0.0,0.0,0.0,0.0,0.0
974,4.2991943,1,-0.053254507,-0.06284261,-0.11624241,0.0,0.0,0.0,0.0,0.0,0.0
975,4.303589,1,-0.0062781814,-0.05542946,-0.06790447,0.0,0.0,0.0,0.0,0.0,0.0
976,4.3079834,1,-0.09330461,0.079339266,-0.120539665,0.0,0.0,0.0,0.0,0.0,0.0
977,4.312378,1,-0.06809055,0.015903711,-0.11168766,0.0,0.0,0.0,0.0,0.0,0.0
978,4.3167725,1,0.040311523,-0.021140814,-0.013025284,0.0,0.0,0.0,0.0,0.0,0.0
979,4.321167,1,0.091273434,0.057361603,0.056534767,0.0,0.0,0.0,0.0,0.0,0.0
980,4.3255615,1,0.09096629,0.05706644,0.05660343,0.0,0.0,0.0,0.0,0.0,0.0
981,4.329956,1,0.087220944,0.16214585,0.08024311,0.0,0.0,0.0,0.0,0.0,0.0
982,4.3343506,1,0.13426402,0.07203984,0.10467148,0.0,0.0,0.0,0.0,0.0,0.0
983,4.338745,1,0.14589593,0.0011768341,0.098698616,0.0,0.0,0.0,0.0,0.0,0.0
984,4.3431396,1,-0.036715947,-0.036067724,-0.09273052,0.0,0.0,0.0,0.0,0.0,0.0
985,4.347534,1,-0.008383954,0.05395317,-0.04249382,0.0,0.0,0.0,0.0,0.0,0.0
986,4.3519287,1,-0.09298945,-0.09722853,-0.16565514,0.0,0.0,0.0,0.0,0.0,0.0
987,4.3563232,1,-0.0129801575,0.061736107,-0.0457201,0.0,0.0,0.0,0.0,0.0,0.0
988,4.360718,1,0.07504255,-0.040674686,0.01621914,0.0,0.0,0.0,0.0,0.0,0.0
989,4.3651123,1,0.031182116,-0.06559205,-0.033831596,0.0,0.0,0.0,0.0,0.0,0.0
990,4.369507,1,0.0053045508,0.098740816,-0.017745018,0.0,0.0,0.0,0.0,0.0,0.0
991,4.3739014,1,-0.07064881,-0.06407285,-0.13507843,0.0,0.0,0.0,0.0,0.0,0.0
992,4.378296,1,0.07850564,0.0017037392,0.030412674,0.0,0.0,0.0,0.0,0.0,0.0
993,4.3826904,1,0.053160705,-0.0047137737,0.0035743713,0.0,0.0,0.0,0.0,0.0,0.0
994,4.387085,1,0.051154144,-0.019072533,-0.0018663406,0.0,0.0,0.0,0.0,0.0,0.0
995,4.3914795,1,0.070451654,0.032066345,0.03068924,0.0,0.0,0.0,0.0,0.0,0.0
996,4.395874,1,-0.017915213,0.009389639,-0.06320667,0.0,0.0,0.0,0.0,0.0,0.0
997,4.4002686,1,-0.020805323,0.017738104,-0.06394768,0.0,0.0,0.0,0.0,0.0,0.0
998,4.404663,1,-0.09425733,-0.07964444,-0.16239738,0.0,0.0,0.0,0.0,0.0,0.0
999,4.4090576,1,-0.07769891,0.04910183,-0.113212585,0.0,0.0,0.0,0.0,0.0,0.0
1000,4.413452,1,0.029479688,-0.0023596287,-0.019597054,0.0,0.0,0.0,0.0,0.0,0.0
1001,4.4178467,1,0.009627795,0.06639695,-0.021739006,0.0,0.0,0.0,0.0,0.0,0.0
1002,4.422241,1,-7.8978576E-4,-0.09807706,-0.07413578,0.0,0.0,0.0,0.0,0.0,0.0
1003,4.4266357,1,-0.009327883,-0.06769347,-0.07503414,0.0,0.0,0.0,0.0,0.0,0.0
1004,4.4310303,1,-0.15232317,-0.14567375,-0.23809433,0.0,0.0,0.0,0.0,0.0,0.0
1005,4.435425,1,0.21646151,0.11022377,0.19509888,0.0,0.0,0.0,0.0,0.0,0.0
1006,4.4398193,1,0.08919988,-0.07005024,0.022684097,0.0,0.0,0.0,0.0,0.0,0.0
1007,4.444214,1,0.070749976,0.17553139,0.06796551,0.0,0.0,0.0,0.0,0.0,0.0
1008,4.4486084,1,0.118017234,0.04458928,0.082790375,0.0,0.0,0.0,0.0,0.0,0.0
1009,4.453003,1,-0.05604375,-0.004566908,-0.10318375,0.0,0.0,0.0,0.0,0.0,0.0
1010,4.4573975,1,-0.023594344,-0.070287466,-0.08774185,0.0,0.0,0.0,0.0,0.0,0.0
1011,4.461792,1,0.0136016365,-0.0744164,-0.052009583,0.0,0.0,0.0,0.0,0.0,0.0
1012,4.4661865,1,-0.11750888,-0.07537651,-0.18339252,0.0,0.0,0.0,0.0,0.0,0.0
1013,4.470581,1,0.07575456,0.03394103,0.03726101,0.0,0.0,0.0,0.0,0.0,0.0
1014,4.4749756,1,-0.015350724,-0.08176422,-0.08318424,0.0,0.0,0.0,0.0,0.0,0.0
1015,4.47937,1,0.22121999,0.038834333,0.18379688,0.0,0.0,0.0,0.0,0.0,0.0
1016,4.4837646,1,0.0025904234,-0.085981846,-0.06580639,0.0,0.0,0.0,0.0,0.0,0.0
1017,4.488159,1,-0.054189898,-0.031041384,-0.10871029,0.0,0.0,0.0,0.0,0.0,0.0
1018,4.4925537,1,-0.010504896,-0.05700016,-0.07180405,0.0,0.0,0.0,0.0,0.0,0.0
1019,4.4969482,1,0.043793447,0.0077819824,-0.0013446808,0.0,0.0,0.0,0.0,0.0,0.0
1020,4.501343,1,0.084594615,0.04588747,0.04938984,0.0,0.0,0.0,0.0,0.0,0.0
1021,4.5057373,1,-0.06466805,-0.08463955,-0.13272381,0.0,0.0,0.0,0.0,0.0,0.0
1022,4.510132,1,0.06037838,0.035051823,0.022388458,0.0,0.0,0.0,0.0,0.0,0.0
1023,4.5145264,1,-0.017050141,0.08434987,-0.042098045,0.0,0.0,0.0,0.0,0.0,0.0
1024,4.518921,1,0.1023866,0.08673859,0.07789612,0.0,0.0,0.0,0.0,0.0,0.0
1025,4.5233154,1,0.04236097,-0.06263924,-0.019659042,0.0,0.0,0.0,0.0,0.0,0.0
1026,4.52771,1,0.04615576,-0.038333178,-0.009754181,0.0,0.0,0.0,0.0,0.0,0.0
1027,4.5321045,1,0.13364744,0.076402664,0.10731125,0.0,0.0,0.0,0.0,0.0,0.0
1028,4.536499,1,0.044687398,-0.011058569,-0.0035381317,0.0,0.0,0.0,0.0,0.0,0.0
1029,4.5408936,1,-0.10163849,0.0069925785,-0.14507198,0.0,0.0,0.0,0.0,0.0,0.0
1030,4.545288,1,0.14455324,-0.036550283,0.08960247,0.0,0.0,0.0,0.0,0.0,0.0
1031,4.5496826,1,0.037709154,0.024087667,-0.001282692,0.0,0.0,0.0,0.0,0.0,0.0
1032,4.554077,1,0.112955876,-0.13204455,0.03402424,0.0,0.0,0.0,0.0,0.0,0.0
1033,4.5584717,1,0.06356523,-0.03328061,0.010026932,0.0,0.0,0.0,0.0,0.0,0.0
1034,4.562866,1,0.009344911,-0.1162529,-0.06513882,0.0,0.0,0.0,0.0,0.0,0.0
1035,4.5672607,1,-0.13398492,-0.009471178,-0.18125534,0.0,0.0,0.0,0.0,0.0,0.0
1036,4.5716553,1,-0.06721204,-0.011076927,-0.11544609,0.0,0.0,0.0,0.0,0.0,0.0
1037,4.57605,1,-0.052210234,-0.035108566,-0.106897354,0.0,0.0,0.0,0.0,0.0,0.0
1038,4.5804443,1,0.09266416,0.034082413,0.055250168,0.0,0.0,0.0,0.0,0.0,0.0
1039,4.584839,1,0.0887425,0.06530619,0.059678078,0.0,0.0,0.0,0.0,0.0,0.0
1040,4.5892334,1,0.031589963,-0.023327589,-0.01974392,0.0,0.0,0.0,0.0,0.0,0.0
1041,4.593628,1,0.14973348,0.08546662,0.12620449,0.0,0.0,0.0,0.0,0.0,0.0
1042,4.5980225,1,-0.04908537,-0.08534956,-0.1156435,0.0,0.0,0.0,0.0,0.0,0.0
1043,4.602417,1,-0.0026518945,-0.13799477,-0.08323097,0.0,0.0,0.0,0.0,0.0,0.0
1044,4.6068115,1,0.15304518,0.06836271,0.124902725,0.0,0.0,0.0,0.0,0.0,0.0
1045,4.611206,1,0.044015832,0.040505648,0.009444237,0.0,0.0,0.0,0.0,0.0,0.0
1046,4.6156006,1,-0.09376188,-0.008710623,-0.14064312,0.0,0.0,0.0,0.0,0.0,0.0
1047,4.619995,1,0.105364,0.064906836,0.07683754,0.0,0.0,0.0,0.0,0.0,0.0
1048,4.6243896,1,-0.072415106,0.051715374,-0.103663445,0.0,0.0,0.0,0.0,0.0,0.0
1049,4.628784,1,0.13478208,-0.0942812,0.0658474,0.0,0.0,0.0,0.0,0.0,0.0
1050,4.6331787,1,0.034107514,-0.008755684,-0.012694359,0.0,0.0,0.0,0.0,0.0,0.0
1051,4.6375732,1,0.035967328,0.047174215,0.0035219193,0.0,0.0,0.0,0.0,0.0,0.0
1052,4.641968,1,0.18248007,-0.007847071,0.13613224,0.0,0.0,0.0,0.0,0.0,0.0
1053,4.6463623,1,-0.10199057,0.067401886,-0.12833786,0.0,0.0,0.0,0.0,0.0,0.0
1054,4.650757,1,0.047065742,-0.065840006,-0.013670921,0.0,0.0,0.0,0.0,0.0,0.0
1055,4.6551514,1,-0.042674683,-0.08382678,-0.10820389,0.0,0.0,0.0,0.0,0.0,0.0
1056,4.659546,1,-0.059685625,0.008717775,-0.10170746,0.0,0.0,0.0,0.0,0.0,0.0
1057,4.6639404,1,0.042756833,0.05321932,0.011902809,0.0,0.0,0.0,0.0,0.0,0.0
1058,4.668335,1,-0.102609046,-0.06261635,-0.16277981,0.0,0.0,0.0,0.0,0.0,0.0
1059,4.6727295,1,0.11314122,0.05246091,0.08178139,0.0,0.0,0.0,0.0,0.0,0.0
1060,4.677124,1,0.009784734,-0.015558958,-0.03847313,0.0,0.0,0.0,0.0,0.0,0.0
1061,4.6815186,1,-0.07453265,-0.050983667,-0.13177109,0.0,0.0,0.0,0.0,0.0,0.0
1062,4.685913,1,-0.13817856,-0.12263274,-0.21400452,0.0,0.0,0.0,0.0,0.0,0.0
1063,4.6903076,1,-0.08322438,-0.034672976,-0.1374321,0.0,0.0,0.0,0.0,0.0,0.0
1064,4.694702,1,0.08951298,0.07397103,0.06271553,0.0,0.0,0.0,0.0,0.0,0.0
1065,4.6990967,1,0.011014586,-0.047775745,-0.04652691,0.0,0.0,0.0,0.0,0.0,0.0
1066,4.703491,1,-0.08863539,-0.050094128,-0.1467905,0.0,0.0,0.0,0.0,0.0,0.0
1067,4.7078857,1,-0.14162439,0.01469779,-0.18350601,0.0,0.0,0.0,0.0,0.0,0.0
1068,4.7122803,1,0.0032697376,-0.05483198,-0.057120323,0.0,0.0,0.0,0.0,0.0,0.0
1069,4.716675,1,0.08325095,-0.015880346,0.03272724,0.0,0.0,0.0,0.0,0.0,0.0
1070,4.7210693,1,-0.042241536,-0.1584251,-0.12882805,0.0,0.0,0.0,0.0,0.0,0.0
1071,4.725464,1,0.070774205,0.05531144,0.038172722,0.0,0.0,0.0,0.0,0.0,0.0
1072,4.7298584,1,0.15549442,0.016842365,0.113389015,0.0,0.0,0.0,0.0,0.0,0.0
1073,4.734253,1,-0.04876303,-0.049121857,-0.107094765,0.0,0.0,0.0,0.0,0.0,0.0
1074,4.7386475,1,-0.153041,-0.061906576,-0.21463394,0.0,0.0,0.0,0.0,0.0,0.0
1075,4.743042,1,0.17028254,0.039035797,0.13345146,0.0,0.0,0.0,0.0,0.0,0.0
1076,4.7474365,1,0.15660569,0.0032963753,0.1112957,0.0,0.0,0.0,0.0,0.0,0.0
1077,4.751831,1,-0.037221454,-0.018329859,-0.0874176,0.0,0.0,0.0,0.0,0.0,0.0
1078,4.7562256,1,0.062851585,-0.01592803,0.013133049,0.0,0.0,0.0,0.0,0.0,0.0
1079,4.76062,1,0.056685068,0.019585848,0.016190529,0.0,0.0,0.0,0.0,0.0,0.0
1080,4.7650146,1,-0.04995235,-0.040038347,-0.105511665,0.0,0.0,0.0,0.0,0.0,0.0
1081,4.769409,1,0.06354029,0.062689304,0.033903122,0.0,0.0,0.0,0.0,0.0,0.0
1082,4.7738037,1,-0.017366702,0.069594145,-0.04477501,0.0,0.0,0.0,0.0,0.0,0.0
1083,4.7781982,1,0.011334753,0.016501427,-0.02972126,0.0,0.0,0.0,0.0,0.0,0.0
1084,4.782593,1,0.14507887,-2.4175644E-4,0.099782944,0.0,0.0,0.0,0.0,0.0,0.0
1085,4.7869873,1,0.015333062,-0.010120392,-0.03191662,0.0,0.0,0.0,0.0,0.0,0.0
1086,4.791382,1,0.055299737,-0.0046896935,0.008151054,0.0,0.0,0.0,0.0,0.0,0.0
1087,4.7957764,1,0.07680992,0.07926726,0.051243782,0.0,0.0,0.0,0.0,0.0,0.0
1088,4.800171,1,-0.14037116,-0.017983198,-0.19028854,0.0,0.0,0.0,0.0,0.0,0.0
1089,4.8045654,1,-0.12719123,-0.05640793,-0.18731213,0.0,0.0,0.0,0.0,0.0,0.0
1090,4.80896,1,-0.06934325,-0.1016984,-0.14164734,0.0,0.0,0.0,0.0,0.0,0.0
1091,4.8133545,1,-0.014164472,-0.055266857,-0.07511234,0.0,0.0,0.0,0.0,0.0,0.0
1092,4.817749,1,0.16096058,0.021825552,0.11932564,0.0,0.0,0.0,0.0,0.0,0.0
1093,4.8221436,1,-0.0016197506,0.0037910938,-0.047094345,0.0,0.0,0.0,0.0,0.0,0.0
1094,4.826538,1,0.10186765,-0.01147151,0.052427292,0.0,0.0,0.0,0.0,0.0,0.0
1095,4.8309326,1,0.11668614,0.0063142776,0.07210064,0.0,0.0,0.0,0.0,0.0,0.0
1096,4.835327,1,0.081906326,0.01137495,0.03892994,0.0,0.0,0.0,0.0,0.0,0.0
1097,4.8397217,1,-4.6088733E-4,-0.018840313,-0.050736427,0.0,0.0,0.0,0.0,0.0,0.0
1098,4.844116,1,-0.032604836,0.07434988,-0.059331894,0.0,0.0,0.0,0.0,0.0,0.0
1099,4.8485107,1,0.07930098,-0.026598454,0.026779175,0.0,0.0,0.0,0.0,0.0,0.0
1100,4.8529053,1,-0.087307446,-0.041340828,-0.14333534,0.0,0.0,0.0,0.0,0.0,0.0
1101,4.8573,1,0.17734829,0.035351276,0.14070702,0.0,0.0,0.0,0.0,0.0,0.0
1102,4.8616943,1,0.011024719,0.029897928,-0.026396751,0.0,0.0,0.0,0.0,0.0,0.0
1103,4.866089,1,-0.009823019,-0.026378393,-0.061535835,0.0,0.0,0.0,0.0,0.0,0.0
1104,4.8704834,1,-0.042207263,-0.071609735,-0.10566139,0.0,0.0,0.0,0.0,0.0,0.0
1105,4.874878,1,-0.088999234,-0.03266406,-0.14269066,0.0,0.0,0.0,0.0,0.0,0.0
1106,4.8792725,1,-0.027991885,0.102627516,-0.047668457,0.0,0.0,0.0,0.0,0.0,0.0
1107,4.883667,1,0.060522087,-0.004440069,0.013641357,0.0,0.0,0.0,0.0,0.0,0.0
1108,4.8880615,1,0.07883785,-0.07818198,0.01318264,0.0,0.0,0.0,0.0,0.0,0.0
1109,4.892456,1,-0.016163701,-0.13438153,-0.0960865,0.0,0.0,0.0,0.0,0.0,0.0
1110,4.8968506,1,0.010569042,-0.007176161,-0.03711605,0.0,0.0,0.0,0.0,0.0,0.0
1111,4.901245,1,0.117374875,0.010867119,0.07421112,0.0,0.0,0.0,0.0,0.0,0.0
1112,4.9056396,1,-0.023628885,0.025581837,-0.06239605,0.0,0.0,0.0,0.0,0.0,0.0
1113,4.910034,1,0.0013971683,-0.028126717,-0.051359177,0.0,0.0,0.0,0.0,0.0,0.0
1114,4.9144287,1,-0.057861306,-0.10331583,-0.12976456,0.0,0.0,0.0,0.0,0.0,0.0
1115,4.9188232,1,0.15640971,-0.03448248,0.10154247,0.0,0.0,0.0,0.0,0.0,0.0
1116,4.923218,1,0.019775873,-0.06910968,-0.043453217,0.0,0.0,0.0,0.0,0.0,0.0
1117,4.9276123,1,0.20680723,-0.053411245,0.1474638,0.0,0.0,0.0,0.0,0.0,0.0
1118,4.932007,1,-0.02374884,-0.037890434,-0.078383446,0.0,0.0,0.0,0.0,0.0,0.0
1119,4.9364014,1,-0.093167715,0.04578066,-0.12653446,0.0,0.0,0.0,0.0,0.0,0.0
1120,4.940796,1,-0.015868897,-0.08248353,-0.0824337,0.0,0.0,0.0,0.0,0.0,0.0
1121,4.9451904,1,0.028099125,-0.029613256,-0.02511406,0.0,0.0,0.0,0.0,0.0,0.0
1122,4.949585,1,0.008197462,0.05765009,-0.022745132,0.0,0.0,0.0,0.0,0.0,0.0
1123,4.9539742,1,-0.019093687,-0.08334112,-0.08591175,0.0,0.0,0.0,0.0,0.0,0.0
1124,4.958369,1,-0.12137816,-0.07248068,-0.18565941,0.0,0.0,0.0,0.0,0.0,0.0
1125,4.9627633,1,-0.080859326,-0.04834175,-0.13939285,0.0,0.0,0.0,0.0,0.0,0.0
1126,4.967158,1,0.015959656,-0.051362753,-0.04398346,0.0,0.0,0.0,0.0,0.0,0.0
1127,4.9715524,1,0.04522551,0.043931484,0.009543419,0.0,0.0,0.0,0.0,0.0,0.0
1128,4.975947,1,-0.015993202,-0.096404314,-0.08722019,0.0,0.0,0.0,0.0,0.0,0.0
1129,4.9803414,1,-0.023842687,0.0079238415,-0.06867027,0.0,0.0,0.0,0.0,0.0,0.0
1130,4.984736,1,0.027568614,-0.020654917,-0.024691582,0.0,0.0,0.0,0.0,0.0,0.0
1131,4.9891305,1,0.066367276,-0.10755968,-0.008216858,0.0,0.0,0.0,0.0,0.0,0.0
1132,4.993525,1,-0.0877473,-0.11416888,-0.16377449,0.0,0.0,0.0,0.0,0.0,0.0
1133,4.9979196,1,0.0067181345,0.016215324,-0.036642075,0.0,0.0,0.0,0.0,0.0,0.0
1134,5.002314,1,-0.06602671,0.08966446,-0.09037495,0.0,0.0,0.0,0.0,0.0,0.0
1135,5.0067086,1,0.1035331,0.040132046,0.06618881,0.0,0.0,0.0,0.0,0.0,0.0
1136,5.011103,1,0.100424774,-0.029862642,0.045776367,0.0,0.0,0.0,0.0,0.0,0.0
1137,5.0154977,1,0.04662309,-0.0065131187,-0.0019798279,0.0,0.0,0.0,0.0,0.0,0.0
1138,5.019892,1,-0.053957365,0.032405138,-0.0922575,0.0,0.0,0.0,0.0,0.0,0.0
1139,5.0242867,1,-0.015643233,-0.013463497,-0.06589031,0.0,0.0,0.0,0.0,0.0,0.0
1140,5.0286813,1,-0.030251974,-0.1325593,-0.111029625,0.0,0.0,0.0,0.0,0.0,0.0
1141,5.033076,1,0.015178179,0.04080057,-0.02170372,0.0,0.0,0.0,0.0,0.0,0.0
1142,5.0374703,1,-0.07386052,-0.014379978,-0.12471008,0.0,0.0,0.0,0.0,0.0,0.0
1143,5.041865,1,0.011999583,-0.04346323,-0.046720505,0.0,0.0,0.0,0.0,0.0,0.0
1144,5.0462594,1,-0.07668217,-0.04758668,-0.13629341,0.0,0.0,0.0,0.0,0.0,0.0
1145,5.050654,1,0.07792861,-0.07738662,0.010204315,0.0,0.0,0.0,0.0,0.0,0.0
1146,5.0550485,1,-0.06261452,0.030179977,-0.10273361,0.0,0.0,0.0,0.0,0.0,0.0
1147,5.059443,1,-0.056480862,-0.07481933,-0.12460613,0.0,0.0,0.0,0.0,0.0,0.0
1148,5.0638375,1,0.037818022,-0.028263569,-0.019940376,0.0,0.0,0.0,0.0,0.0,0.0
1149,5.068232,1,-0.008596921,0.04759574,-0.04694271,0.0,0.0,0.0,0.0,0.0,0.0
1150,5.0726266,1,-0.03016224,-0.032245636,-0.08910656,0.0,0.0,0.0,0.0,0.0,0.0
1151,5.077021,1,-0.03002497,-0.032245636,-0.089102745,0.0,0.0,0.0,0.0,0.0,0.0
1152,5.0814157,1,0.07394654,0.007979155,0.02503109,0.0,0.0,0.0,0.0,0.0,0.0
1153,5.08581,1,0.016017443,-0.048282385,-0.047141075,0.0,0.0,0.0,0.0,0.0,0.0
1154,5.0902047,1,-0.04391878,0.14409757,-0.057810783,0.0,0.0,0.0,0.0,0.0,0.0
1155,5.0945992,1,0.077162035,-0.033295155,0.017887115,0.0,0.0,0.0,0.0,0.0,0.0
1156,5.098994,1,-0.014908696,0.0032744408,-0.06467724,0.0,0.0,0.0,0.0,0.0,0.0
1157,5.1033883,1,-0.23593307,-0.05320382,-0.29993916,0.0,0.0,0.0,0.0,0.0,0.0
1158,5.107783,1,-0.018301094,-0.053405046,-0.08333206,0.0,0.0,0.0,0.0,0.0,0.0
1159,5.1121774,1,-0.1276159,-0.09946489,-0.2034254,0.0,0.0,0.0,0.0,0.0,0.0
1160,5.116572,1,0.019814646,-0.034008265,-0.040180206,0.0,0.0,0.0,0.0,0.0,0.0
1161,5.1209664,1,-0.058331348,-0.016234636,-0.112968445,0.0,0.0,0.0,0.0,0.0,0.0
1162,5.125361,1,-0.1174039,-0.040686846,-0.17851257,0.0,0.0,0.0,0.0,0.0,0.0
1163,5.1297555,1,-0.086521186,-0.014300346,-0.14034843,0.0,0.0,0.0,0.0,0.0,0.0
1164,5.13415,1,0.060946383,0.023157835,0.016264915,0.0,0.0,0.0,0.0,0.0,0.0
1165,5.1385446,1,0.11180542,0.03604722,0.07059288,0.0,0.0,0.0,0.0,0.0,0.0
1166,5.142939,1,0.007006621,0.078564644,-0.022837639,0.0,0.0,0.0,0.0,0.0,0.0
1167,5.1473336,1,-0.11270804,-0.04484439,-0.17387486,0.0,0.0,0.0,0.0,0.0,0.0
1168,5.151728,1,0.050590254,0.0013873577,6.0749054E-4,0.0,0.0,0.0,0.0,0.0,0.0
1169,5.1561227,1,0.042653,-0.014467955,-0.011226654,0.0,0.0,0.0,0.0,0.0,0.0
1170,5.160517,1,-0.04831495,-0.18995953,-0.14681149,0.0,0.0,0.0,0.0,0.0,0.0
1171,5.1649117,1,0.04514409,-0.05484271,-0.019449234,0.0,0.0,0.0,0.0,0.0,0.0
1172,5.1693063,1,0.06286148,0.037549496,0.02190876,0.0,0.0,0.0,0.0,0.0,0.0
1173,5.173701,1,-0.051792122,0.03584194,-0.092702866,0.0,0.0,0.0,0.0,0.0,0.0
1174,5.1780953,1,0.019227302,-0.06620669,-0.0481472,0.0,0.0,0.0,0.0,0.0,0.0
1175,5.18249,1,0.011587476,-0.012598038,-0.042064667,0.0,0.0,0.0,0.0,0.0,0.0
1176,5.1868844,1,0.024053162,0.027354479,-0.019306183,0.0,0.0,0.0,0.0,0.0,0.0
1177,5.191279,1,-0.026880497,-0.03194523,-0.0852747,0.0,0.0,0.0,0.0,0.0,0.0
1178,5.1956735,1,0.29691815,0.07854438,0.2664032,0.0,0.0,0.0,0.0,0.0,0.0
1179,5.200068,1,-0.07913873,-0.15115142,-0.16709614,0.0,0.0,0.0,0.0,0.0,0.0
1180,5.2044625,1,0.07510746,-0.051460505,0.011978149,0.0,0.0,0.0,0.0,0.0,0.0
1181,5.208857,1,0.13744682,0.06623745,0.10443783,0.0,0.0,0.0,0.0,0.0,0.0
1182,5.2132516,1,0.01466996,-0.04371524,-0.045648575,0.0,0.0,0.0,0.0,0.0,0.0
1183,5.217646,1,-0.088979684,0.1374588,-0.102975845,0.0,0.0,0.0,0.0,0.0,0.0
1184,5.2220407,1,-0.014119649,-0.051771164,-0.07663345,0.0,0.0,0.0,0.0,0.0,0.0
1185,5.226435,1,0.18194905,0.039981365,0.14261818,0.0,0.0,0.0,0.0,0.0,0.0
1186,5.2308297,1,-0.023752684,-0.054068327,-0.08623505,0.0,0.0,0.0,0.0,0.0,0.0
1187,5.2352242,1,-0.09493438,-0.06753349,-0.1610632,0.0,0.0,0.0,0.0,0.0,0.0
1188,5.239619,1,-0.16843985,-0.06331539,-0.23412418,0.0,0.0,0.0,0.0,0.0,0.0
1189,5.2440133,1,-0.04207223,-0.11426854,-0.12142372,0.0,0.0,0.0,0.0,0.0,0.0
1190,5.248408,1,0.10623831,-0.02535224,0.049053192,0.0,0.0,0.0,0.0,0.0,0.0
1191,5.2528024,1,0.15847671,0.052805662,0.12170315,0.0,0.0,0.0,0.0,0.0,0.0
1192,5.257197,1,-0.014731253,-0.023723602,-0.070329666,0.0,0.0,0.0,0.0,0.0,0.0
1193,5.2615914,1,-0.008161867,0.03779316,-0.048345566,0.0,0.0,0.0,0.0,0.0,0.0
1194,5.265986,1,-0.066537105,-0.018818378,-0.121108055,0.0,0.0,0.0,0.0,0.0,0.0
1195,5.2703805,1,0.06224949,-0.027681828,0.005048752,0.0,0.0,0.0,0.0,0.0,0.0
1196,5.274775,1,-0.031656884,-0.08375049,-0.1030426,0.0,0.0,0.0,0.0,0.0,0.0
1197,5.2791696,1,-0.0872977,-0.060983896,-0.15315437,0.0,0.0,0.0,0.0,0.0,0.0
1198,5.283564,1,-0.10949967,-0.075853825,-0.17958069,0.0,0.0,0.0,0.0,0.0,0.0
1199,5.2879586,1,0.16048878,0.07607269,0.12863827,0.0,0.0,0.0,0.0,0.0,0.0
1200,5.292353,1,0.015861845,-0.02092266,-0.04011917,0.0,0.0,0.0,0.0,0.0,0.0
1201,5.2967477,1,0.055122264,-0.03391385,-0.004134178,0.0,0.0,0.0,0.0,0.0,0.0
1202,5.301142,1,0.0125877615,0.033688545,-0.029200554,0.0,0.0,0.0,0.0,0.0,0.0
1203,5.3055367,1,0.1557031,0.028589249,0.11261082,0.0,0.0,0.0,0.0,0.0,0.0
1204,5.3099313,1,0.23349762,0.011732101,0.18665886,0.0,0.0,0.0,0.0,0.0,0.0
1205,5.314326,1,0.030930137,-0.0582273,-0.032989502,0.0,0.0,0.0,0.0,0.0,0.0
1206,5.3187203,1,-0.036072306,0.0032756329,-0.084160805,0.0,0.0,0.0,0.0,0.0,0.0
1207,5.323115,1,-0.12122678,0.07000089,-0.15178394,0.0,0.0,0.0,0.0,0.0,0.0
1208,5.3275094,1,-0.12063495,0.0695734,-0.15165329,0.0,0.0,0.0,0.0,0.0,0.0
1209,5.331904,1,-4.4297613E-4,0.07193208,-0.031007767,0.0,0.0,0.0,0.0,0.0,0.0
1210,5.3362985,1,-0.118377455,-0.064599514,-0.18379498,0.0,0.0,0.0,0.0,0.0,0.0
1211,5.340693,1,-0.1519434,0.09743643,-0.17650223,0.0,0.0,0.0,0.0,0.0,0.0
1212,5.3450875,1,-0.016306007,0.015840292,-0.062176704,0.0,0.0,0.0,0.0,0.0,0.0
1213,5.349482,1,0.06975544,-0.10529494,-0.0071640015,0.0,0.0,0.0,0.0,0.0,0.0
1214,5.3538766,1,-0.0542017,0.08029866,-0.083563805,0.0,0.0,0.0,0.0,0.0,0.0
1215,5.358271,1,-0.10693439,-0.0074694157,-0.15869999,0.0,0.0,0.0,0.0,0.0,0.0
1216,5.3626657,1,0.012878543,0.03665805,-0.027254105,0.0,0.0,0.0,0.0,0.0,0.0
1217,5.36706,1,0.058173873,-0.025862217,0.002199173,0.0,0.0,0.0,0.0,0.0,0.0
1218,5.3714547,1,-0.0041255895,-0.03712201,-0.06283951,0.0,0.0,0.0,0.0,0.0,0.0
1219,5.3758492,1,-0.017274315,0.014911413,-0.062828064,0.0,0.0,0.0,0.0,0.0,0.0
1220,5.380244,1,0.050947465,0.013789415,0.004934311,0.0,0.0,0.0,0.0,0.0,0.0
1221,5.3846383,1,0.0690879,0.032200813,0.027915,0.0,0.0,0.0,0.0,0.0,0.0
1222,5.389033,1,0.08529622,0.091555834,0.05957985,0.0,0.0,0.0,0.0,0.0,0.0
1223,5.3934274,1,-0.041830145,-0.014938116,-0.094117165,0.0,0.0,0.0,0.0,0.0,0.0
1224,5.397822,1,0.061014183,-0.08567405,-0.009595871,0.0,0.0,0.0,0.0,0.0,0.0
1225,5.4022164,1,0.08812327,-0.046120644,0.027692795,0.0,0.0,0.0,0.0,0.0,0.0
1226,5.406611,1,0.0016942676,-0.072494745,-0.06535435,0.0,0.0,0.0,0.0,0.0,0.0
1227,5.4110055,1,-0.12996101,-0.11063862,-0.20670795,0.0,0.0,0.0,0.0,0.0,0.0
1228,5.4154,1,0.027588343,-0.070394754,-0.039663315,0.0,0.0,0.0,0.0,0.0,0.0
1229,5.4197946,1,0.14233387,0.03304553,0.10128403,0.0,0.0,0.0,0.0,0.0,0.0
1230,5.424189,1,0.07919378,0.063072205,0.04649639,0.0,0.0,0.0,0.0,0.0,0.0
1231,5.4285836,1,-0.07375241,-0.026911497,-0.12907696,0.0,0.0,0.0,0.0,0.0,0.0
1232,5.432978,1,-0.057727553,-0.07376003,-0.1242857,0.0,0.0,0.0,0.0,0.0,0.0
1233,5.4373727,1,0.07401965,-0.053783894,0.012039185,0.0,0.0,0.0,0.0,0.0,0.0
1234,5.441767,1,0.09529037,0.0072534084,0.0489254,0.0,0.0,0.0,0.0,0.0,0.0
1235,5.4461617,1,-0.05147449,-0.0532794,-0.112784386,0.0,0.0,0.0,0.0,0.0,0.0
1236,5.4505563,1,-0.029329116,-0.052164078,-0.09060192,0.0,0.0,0.0,0.0,0.0,0.0
1237,5.454951,1,0.14333186,-0.08655262,0.07286835,0.0,0.0,0.0,0.0,0.0,0.0
1238,5.4593453,1,0.10894526,0.034295797,0.069683075,0.0,0.0,0.0,0.0,0.0,0.0
1239,5.46374,1,0.058233626,0.08597803,0.032528877,0.0,0.0,0.0,0.0,0.0,0.0
1240,5.4681344,1,0.10734738,0.0937233,0.0848608,0.0,0.0,0.0,0.0,0.0,0.0
1241,5.472529,1,0.17726451,0.051451206,0.14423084,0.0,0.0,0.0,0.0,0.0,0.0
1242,5.4769235,1,-0.020443255,-0.054454803,-0.079639435,0.0,0.0,0.0,0.0,0.0,0.0
1243,5.481318,1,-0.02601909,-0.041757345,-0.08110237,0.0,0.0,0.0,0.0,0.0,0.0
1244,5.4857125,1,0.12250725,0.06080675,0.09319401,0.0,0.0,0.0,0.0,0.0,0.0
1245,5.490107,1,0.16274333,0.098734856,0.14382744,0.0,0.0,0.0,0.0,0.0,0.0
1246,5.4945016,1,0.06320513,-0.111367464,-0.008740425,0.0,0.0,0.0,0.0,0.0,0.0
1247,5.498896,1,0.02310664,-0.015058756,-0.02417183,0.0,0.0,0.0,0.0,0.0,0.0
1248,5.5032907,1,-0.030394996,0.08663845,-0.05166912,0.0,0.0,0.0,0.0,0.0,0.0
1249,5.507685,1,0.056546457,-0.071662664,-0.005091667,0.0,0.0,0.0,0.0,0.0,0.0
1250,5.5120797,1,-0.022951001,-0.07775211,-0.08614826,0.0,0.0,0.0,0.0,0.0,0.0
1251,5.5164742,1,0.022639548,-0.07528663,-0.040263176,0.0,0.0,0.0,0.0,0.0,0.0
1252,5.520869,1,-0.05000656,0.012567282,-0.09035492,0.0,0.0,0.0,0.0,0.0,0.0
1253,5.5252633,1,0.0025129076,-0.052695036,-0.054829597,0.0,0.0,0.0,0.0,0.0,0.0
1254,5.529658,1,0.015123194,0.029105186,-0.021386147,0.0,0.0,0.0,0.0,0.0,0.0
1255,5.5340524,1,0.03664548,0.0020651817,-0.0065345764,0.0,0.0,0.0,0.0,0.0,0.0
1256,5.538447,1,0.14485419,-0.048738718,0.0885334,0.0,0.0,0.0,0.0,0.0,0.0
1257,5.5428414,1,-0.03956198,0.12602234,-0.05066967,0.0,0.0,0.0,0.0,0.0,0.0
1258,5.547236,1,-0.021374399,-0.04536891,-0.076179504,0.0,0.0,0.0,0.0,0.0,0.0
1259,5.5516305,1,0.055116005,0.0019123554,0.012140274,0.0,0.0,0.0,0.0,0.0,0.0
1260,5.556025,1,-0.1288634,-0.16039944,-0.21299648,0.0,0.0,0.0,0.0,0.0,0.0
1261,5.5604196,1,0.032263674,0.08398557,0.009757042,0.0,0.0,0.0,0.0,0.0,0.0
1262,5.564814,1,0.0071764644,-0.018796206,-0.04108143,0.0,0.0,0.0,0.0,0.0,0.0
1263,5.5692086,1,-0.052487634,0.007474184,-0.09397316,0.0,0.0,0.0,0.0,0.0,0.0
1264,5.573603,1,0.021587258,0.08164072,-0.0013055801,0.0,0.0,0.0,0.0,0.0,0.0
1265,5.5779977,1,-0.20578852,-0.004539013,-0.25023174,0.0,0.0,0.0,0.0,0.0,0.0
1266,5.582392,1,0.031754054,-0.01355505,-0.016052246,0.0,0.0,0.0,0.0,0.0,0.0
1267,5.5867867,1,0.02530334,-0.061361074,-0.034640312,0.0,0.0,0.0,0.0,0.0,0.0
1268,5.5911813,1,0.085438915,0.009627819,0.04375267,0.0,0.0,0.0,0.0,0.0,0.0
1269,5.595576,1,-0.0225774,0.00506711,-0.06523991,0.0,0.0,0.0,0.0,0.0,0.0
1270,5.5999703,1,0.07694871,-0.051966667,0.020674706,0.0,0.0,0.0,0.0,0.0,0.0
1271,5.604365,1,0.02643085,0.04604268,-0.004675865,0.0,0.0,0.0,0.0,0.0,0.0
1272,5.6087594,1,0.13825426,-0.06404233,0.07910061,0.0,0.0,0.0,0.0,0.0,0.0
1273,5.613154,1,-0.12767921,-0.053151846,-0.18358135,0.0,0.0,0.0,0.0,0.0,0.0
1274,5.6175485,1,0.0776316,-0.009928942,0.032072067,0.0,0.0,0.0,0.0,0.0,0.0
1275,5.621943,1,0.2258825,0.09716439,0.20774269,0.0,0.0,0.0,0.0,0.0,0.0
1276,5.6263375,1,0.012477761,-0.10505676,-0.056173325,0.0,0.0,0.0,0.0,0.0,0.0
1277,5.630732,1,-0.104094826,-0.088382244,-0.16862392,0.0,0.0,0.0,0.0,0.0,0.0
1278,5.6351266,1,0.1093706,-0.038383245,0.05783081,0.0,0.0,0.0,0.0,0.0,0.0
1279,5.639521,1,0.009241587,-0.13290524,-0.065971375,0.0,0.0,0.0,0.0,0.0,0.0
1280,5.6439157,1,0.10268525,-0.016240835,0.05696392,0.0,0.0,0.0,0.0,0.0,0.0
1281,5.64831,1,0.039245106,0.0045113564,-8.325577E-4,0.0,0.0,0.0,0.0,0.0,0.0
1282,5.6527047,1,0.08943448,0.026628733,0.05498123,0.0,0.0,0.0,0.0,0.0,0.0
1283,5.6570992,1,0.13442996,0.028789997,0.100767136,0.0,0.0,0.0,0.0,0.0,0.0
1284,5.661494,1,0.087730356,0.06314993,0.06345272,0.0,0.0,0.0,0.0,0.0,0.0
1285,5.6658883,1,-0.040742896,-0.011452913,-0.083794594,0.0,0.0,0.0,0.0,0.0,0.0
1286,5.670283,1,0.113491096,0.083244085,0.094670296,0.0,0.0,0.0,0.0,0.0,0.0
1287,5.6746774,1,0.026029563,-0.008497715,-0.015678406,0.0,0.0,0.0,0.0,0.0,0.0
1288,5.679072,1,0.06818909,-0.07152653,0.010308266,0.0,0.0,0.0,0.0,0.0,0.0
1289,5.6834664,1,-0.0030120555,0.016097069,-0.039405823,0.0,0.0,0.0,0.0,0.0,0.0
1290,5.687861,1,0.0744049,0.06338692,0.050102234,0.0,0.0,0.0,0.0,0.0,0.0
1291,5.6922555,1,0.05526439,-0.015390396,0.011096001,0.0,0.0,0.0,0.0,0.0,0.0
1292,5.69665,1,0.01322726,-0.13683629,-0.061701775,0.0,0.0,0.0,0.0,0.0,0.0
1293,5.7010446,1,-0.14116774,-0.0052149296,-0.18255901,0.0,0.0,0.0,0.0,0.0,0.0
1294,5.705439,1,-0.0103799645,-0.04129052,-0.061730385,0.0,0.0,0.0,0.0,0.0,0.0
1295,5.7098336,1,0.07328684,-0.042927504,0.021454811,0.0,0.0,0.0,0.0,0.0,0.0
1296,5.714228,1,0.007287478,-0.013465643,-0.036964417,0.0,0.0,0.0,0.0,0.0,0.0
1297,5.7186227,1,-0.044070266,0.0010674,-0.08452225,0.0,0.0,0.0,0.0,0.0,0.0
1298,5.723017,1,-0.003430212,0.034394264,-0.035733223,0.0,0.0,0.0,0.0,0.0,0.0
1299,5.7274117,1,-0.028590018,-0.050765514,-0.082499504,0.0,0.0,0.0,0.0,0.0,0.0
1300,5.7318063,2,0.06618691,-0.021470785,0.01953888,0.0,0.0,0.0,0.0,0.0,0.0
1301,5.736201,2,0.019486343,-0.019415379,-0.02633667,0.0,0.0,0.0,0.0,0.0,0.0
1302,5.7405953,2,-0.040984176,-0.06715822,-0.09894943,0.0,0.0,0.0,0.0,0.0,0.0
1303,5.74499,2,0.026518589,-0.017554522,-0.01914978,0.0,0.0,0.0,0.0,0.0,0.0
1304,5.7493844,2,-0.11272899,-0.12230849,-0.18496037,0.0,0.0,0.0,0.0,0.0,0.0
1305,5.753779,2,-0.10655414,-0.046750546,-0.16009998,0.0,0.0,0.0,0.0,0.0,0.0
1306,5.7581735,2,0.07002015,-0.015661478,0.02379036,0.0,0.0,0.0,0.0,0.0,0.0
1307,5.762568,2,0.024371063,0.09736633,0.0073251724,0.0,0.0,0.0,0.0,0.0,0.0
1308,5.7669625,2,-0.014829302,-0.023795605,-0.06258583,0.0,0.0,0.0,0.0,0.0,0.0
1309,5.771357,2,0.07926596,0.046353817,0.0490551,0.0,0.0,0.0,0.0,0.0,0.0
1310,5.7757516,2,-0.009541297,-0.064089775,-0.06741905,0.0,0.0,0.0,0.0,0.0,0.0
1311,5.780146,2,0.070322104,-0.025203228,0.022170067,0.0,0.0,0.0,0.0,0.0,0.0
1312,5.7845407,2,-0.049526267,-0.009469032,-0.09346676,0.0,0.0,0.0,0.0,0.0,0.0
1313,5.788935,2,0.06905422,0.020262241,0.031656265,0.0,0.0,0.0,0.0,0.0,0.0
1314,5.7933297,2,-0.056091376,-0.039439917,-0.1083889,0.0,0.0,0.0,0.0,0.0,0.0
1315,5.7977242,2,0.0651618,0.0098314285,0.025032997,0.0,0.0,0.0,0.0,0.0,0.0
1316,5.802119,2,0.06305481,-0.07370305,0.0019311905,0.0,0.0,0.0,0.0,0.0,0.0
1317,5.8065133,2,-0.115722455,-0.05913639,-0.1729145,0.0,0.0,0.0,0.0,0.0,0.0
1318,5.810908,2,0.062406637,-0.036738634,0.010324478,0.0,0.0,0.0,0.0,0.0,0.0
1319,5.8153024,2,-0.11921438,0.023106098,-0.15576267,0.0,0.0,0.0,0.0,0.0,0.0
1320,5.819697,2,0.18952262,0.078528166,0.16645718,0.0,0.0,0.0,0.0,0.0,0.0
1321,5.8240914,2,-0.0012864713,-0.09015393,-0.066542625,0.0,0.0,0.0,0.0,0.0,0.0
1322,5.828547,2,-0.074741386,0.025100231,-0.11065197,0.0,0.0,0.0,0.0,0.0,0.0
1323,5.8330026,2,-0.044614695,0.018654108,-0.08254433,0.0,0.0,0.0,0.0,0.0,0.0
1324,5.8374887,2,0.13035154,-0.07999587,0.0669899,0.0,0.0,0.0,0.0,0.0,0.0
1325,5.841944,2,0.18536133,0.05906272,0.15778255,0.0,0.0,0.0,0.0,0.0,0.0
1326,5.8464303,2,0.029039985,0.08865619,0.01042366,0.0,0.0,0.0,0.0,0.0,0.0
1327,5.850886,2,0.0321298,-0.017019749,-0.013147354,0.0,0.0,0.0,0.0,0.0,0.0
1328,5.855372,2,-0.04535564,0.0047035217,-0.0849638,0.0,0.0,0.0,0.0,0.0,0.0
1329,5.8598275,2,0.09239835,-0.09866238,0.025918007,0.0,0.0,0.0,0.0,0.0,0.0
1330,5.8643136,2,0.22211927,0.04567957,0.19258022,0.0,0.0,0.0,0.0,0.0,0.0
1331,5.868769,2,0.15478987,-0.026738405,0.107645035,0.0,0.0,0.0,0.0,0.0,0.0
1332,5.8732553,2,0.07795737,0.055399895,0.05241394,0.0,0.0,0.0,0.0,0.0,0.0
1333,5.877711,2,-0.059374817,-0.035232544,-0.10768509,0.0,0.0,0.0,0.0,0.0,0.0
1334,5.882197,2,0.009264981,-0.07306576,-0.049120903,0.0,0.0,0.0,0.0,0.0,0.0
1335,5.8866525,2,-0.0019191746,-0.04812336,-0.054018974,0.0,0.0,0.0,0.0,0.0,0.0
1336,5.891108,2,0.18860778,0.0698781,0.16646576,0.0,0.0,0.0,0.0,0.0,0.0
1337,5.895594,2,0.14218092,0.08060026,0.12243652,0.0,0.0,0.0,0.0,0.0,0.0
1338,5.9000497,2,0.01725546,0.07630277,-0.0028924942,0.0,0.0,0.0,0.0,0.0,0.0
1339,5.904536,2,0.14118642,-0.10928416,0.072348595,0.0,0.0,0.0,0.0,0.0,0.0
1340,5.9089913,2,-0.034705333,-0.15829492,-0.115654945,0.0,0.0,0.0,0.0,0.0,0.0
1341,5.9134774,2,0.18732005,0.092716694,0.16974735,0.0,0.0,0.0,0.0,0.0,0.0
1342,5.917933,2,-0.087478675,-0.051282167,-0.14218235,0.0,0.0,0.0,0.0,0.0,0.0
1343,5.922419,2,0.06667931,-0.0027570724,0.023766518,0.0,0.0,0.0,0.0,0.0,0.0
1344,5.9268746,2,3.195163E-4,-0.024132967,-0.04783249,0.0,0.0,0.0,0.0,0.0,0.0
1345,5.9313607,2,-0.06833392,-0.046311855,-0.1220541,0.0,0.0,0.0,0.0,0.0,0.0
1346,5.9358163,2,-0.012502635,0.0140218735,-0.051304817,0.0,0.0,0.0,0.0,0.0,0.0
1347,5.9403024,2,0.045758314,0.024108648,0.009610176,0.0,0.0,0.0,0.0,0.0,0.0
1348,5.944758,2,-0.09550323,-0.081269026,-0.15852737,0.0,0.0,0.0,0.0,0.0,0.0
1349,5.9492135,2,-0.062988974,-0.09145379,-0.1289072,0.0,0.0,0.0,0.0,0.0,0.0
1350,5.9536996,2,-0.011101419,-0.05498314,-0.068175316,0.0,0.0,0.0,0.0,0.0,0.0
1351,5.958155,2,0.026240384,0.12118244,0.01474762,0.0,0.0,0.0,0.0,0.0,0.0
1352,5.9626412,2,-0.022570277,-0.057861567,-0.07963371,0.0,0.0,0.0,0.0,0.0,0.0
1353,5.967097,2,0.06575937,-0.021306276,0.01775074,0.0,0.0,0.0,0.0,0.0,0.0
1354,5.971583,2,0.14006773,0.025346994,0.10415077,0.0,0.0,0.0,0.0,0.0,0.0
1355,5.9760385,2,0.025989985,-0.1004889,-0.04164982,0.0,0.0,0.0,0.0,0.0,0.0
1356,5.9805245,2,-0.022986436,-0.015897036,-0.06912327,0.0,0.0,0.0,0.0,0.0,0.0
1357,5.98498,2,0.089960255,-0.083890915,0.026212692,0.0,0.0,0.0,0.0,0.0,0.0
1358,5.989466,2,0.17951864,-0.037643194,0.1276598,0.0,0.0,0.0,0.0,0.0,0.0
1359,5.9939218,2,0.16528198,-0.036186695,0.11425209,0.0,0.0,0.0,0.0,0.0,0.0
1360,5.998408,2,-0.07528066,-0.06505799,-0.13287544,0.0,0.0,0.0,0.0,0.0,0.0
1361,6.0028634,2,0.0417308,0.020310402,0.0054016113,0.0,0.0,0.0,0.0,0.0,0.0
1362,6.007319,2,-0.053404503,-0.059530497,-0.10990906,0.0,0.0,0.0,0.0,0.0,0.0
1363,6.011805,2,0.018477863,0.0096952915,-0.020755768,0.0,0.0,0.0,0.0,0.0,0.0
1364,6.0162606,2,-0.105235316,-0.040590048,-0.15709305,0.0,0.0,0.0,0.0,0.0,0.0
1365,6.0207467,2,-0.07710112,-0.10270119,-0.14539433,0.0,0.0,0.0,0.0,0.0,0.0
1366,6.0252023,2,0.09042496,-0.09198594,0.024216652,0.0,0.0,0.0,0.0,0.0,0.0
1367,6.0296884,2,0.09371952,0.00618577,0.052734375,0.0,0.0,0.0,0.0,0.0,0.0
1368,6.034144,2,0.20390034,0.0020062923,0.16209412,0.0,0.0,0.0,0.0,0.0,0.0
1369,6.03863,2,-0.055503033,-0.08694625,-0.11920929,0.0,0.0,0.0,0.0,0.0,0.0
1370,6.0430856,2,-0.029788548,0.016655684,-0.06742096,0.0,0.0,0.0,0.0,0.0,0.0
1371,6.0475717,2,0.102365114,0.022429228,0.06606579,0.0,0.0,0.0,0.0,0.0,0.0
1372,6.052027,2,-0.046891116,-0.06637931,-0.10530758,0.0,0.0,0.0,0.0,0.0,0.0
1373,6.0565133,2,0.13280472,-0.029657364,0.0832243,0.0,0.0,0.0,0.0,0.0,0.0
1374,6.060969,2,0.0030256566,0.029753685,-0.030983925,0.0,0.0,0.0,0.0,0.0,0.0
1375,6.0654244,2,-0.0017625038,-0.050040245,-0.05608368,0.0,0.0,0.0,0.0,0.0,0.0
1376,6.0699105,2,-0.06760367,-0.07635069,-0.12998009,0.0,0.0,0.0,0.0,0.0,0.0
1377,6.074366,2,-0.014490658,-0.016535997,-0.061917305,0.0,0.0,0.0,0.0,0.0,0.0
1378,6.078852,2,0.010685718,-0.0059223175,-0.033963203,0.0,0.0,0.0,0.0,0.0,0.0
1379,6.0833077,2,0.010684675,-0.0060698986,-0.033924103,0.0,0.0,0.0,0.0,0.0,0.0
1380,6.087794,2,0.11168895,0.07514644,0.0876255,0.0,0.0,0.0,0.0,0.0,0.0
1381,6.0922494,2,0.0022206362,-0.045321226,-0.051847458,0.0,0.0,0.0,0.0,0.0,0.0
1382,6.0967355,2,-0.033130907,0.10725474,-0.04846859,0.0,0.0,0.0,0.0,0.0,0.0
1383,6.101191,2,-0.17834875,-0.01351881,-0.22409725,0.0,0.0,0.0,0.0,0.0,0.0
1384,6.105677,2,-0.096045606,-0.057358027,-0.15378284,0.0,0.0,0.0,0.0,0.0,0.0
1385,6.1101327,2,-0.07523031,0.0031087399,-0.11803532,0.0,0.0,0.0,0.0,0.0,0.0
1386,6.114619,2,0.083267845,0.0895412,0.06216812,0.0,0.0,0.0,0.0,0.0,0.0
1387,6.1190743,2,-0.043821238,0.05222869,-0.07391548,0.0,0.0,0.0,0.0,0.0,0.0
1388,6.1235604,2,-0.012675906,-0.009351015,-0.058605194,0.0,0.0,0.0,0.0,0.0,0.0
1389,6.128016,2,-0.018437678,-0.0063529015,-0.063752174,0.0,0.0,0.0,0.0,0.0,0.0
1390,6.1324716,2,0.041405,-0.04188609,-0.013050079,0.0,0.0,0.0,0.0,0.0,0.0
1391,6.1369576,2,0.023251241,0.027451515,-0.013346672,0.0,0.0,0.0,0.0,0.0,0.0
1392,6.141413,2,0.0078705605,0.04176259,-0.024986267,0.0,0.0,0.0,0.0,0.0,0.0
1393,6.1458993,2,-0.02480119,-0.13750815,-0.10340595,0.0,0.0,0.0,0.0,0.0,0.0
1394,6.150355,2,0.1855872,-0.055725574,0.12741661,0.0,0.0,0.0,0.0,0.0,0.0
1395,6.154841,2,0.075824566,0.07816291,0.05238533,0.0,0.0,0.0,0.0,0.0,0.0
1396,6.1592965,2,-0.07062193,-0.033289194,-0.122086525,0.0,0.0,0.0,0.0,0.0,0.0
1397,6.1637826,2,0.144707,-0.0015175343,0.100829124,0.0,0.0,0.0,0.0,0.0,0.0
1398,6.168238,2,0.23023239,0.1728754,0.23135376,0.0,0.0,0.0,0.0,0.0,0.0
1399,6.1727242,2,0.08912409,-0.011149406,0.04447174,0.0,0.0,0.0,0.0,0.0,0.0
1400,6.17718,2,-0.054145508,-0.084438324,-0.117256165,0.0,0.0,0.0,0.0,0.0,0.0
1401,6.181666,2,0.13053548,0.119680166,0.11905098,0.0,0.0,0.0,0.0,0.0,0.0
1402,6.1861215,2,-4.0080585E-4,-0.0064532757,-0.04337597,0.0,0.0,0.0,0.0,0.0,0.0
1403,6.190577,2,0.11384518,0.055027008,0.086504936,0.0,0.0,0.0,0.0,0.0,0.0
1404,6.195063,2,-0.005252892,0.024545193,-0.039925575,0.0,0.0,0.0,0.0,0.0,0.0
1405,6.1995187,2,0.0694261,-0.04886341,0.016079903,0.0,0.0,0.0,0.0,0.0,0.0
1406,6.204005,2,-0.10592613,-0.14025998,-0.18348217,0.0,0.0,0.0,0.0,0.0,0.0
1407,6.2084603,2,0.11789266,0.040823698,0.084944725,0.0,0.0,0.0,0.0,0.0,0.0
1408,6.2129464,2,0.15337983,-0.033527136,0.10071373,0.0,0.0,0.0,0.0,0.0,0.0
1409,6.217402,2,-0.053095706,-0.07752228,-0.11758804,0.0,0.0,0.0,0.0,0.0,0.0
1410,6.221888,2,0.03700436,3.402233E-4,-0.009178162,0.0,0.0,0.0,0.0,0.0,0.0
1411,6.2263436,2,0.01635254,-0.056189537,-0.04544735,0.0,0.0,0.0,0.0,0.0,0.0
1412,6.2308297,2,0.041766085,0.010318279,-0.004507065,0.0,0.0,0.0,0.0,0.0,0.0
1413,6.2352853,2,-0.0768658,-0.08000159,-0.14582634,0.0,0.0,0.0,0.0,0.0,0.0
1414,6.2397103,2,-0.044699453,-0.062451124,-0.10963726,0.0,0.0,0.0,0.0,0.0,0.0
1415,6.2441354,2,0.024693316,0.121494055,0.0063152313,0.0,0.0,0.0,0.0,0.0,0.0
1416,6.2485604,2,0.08972857,-0.042348385,0.029740334,0.0,0.0,0.0,0.0,0.0,0.0
1417,6.2529855,2,0.080534555,0.029290915,0.038980484,0.0,0.0,0.0,0.0,0.0,0.0
1418,6.2573495,2,-0.080509685,-0.07180858,-0.14733219,0.0,0.0,0.0,0.0,0.0,0.0
1419,6.2617135,2,0.11197368,0.01413703,0.06650162,0.0,0.0,0.0,0.0,0.0,0.0
1420,6.2660775,2,-0.016226524,-0.02778244,-0.07198048,0.0,0.0,0.0,0.0,0.0,0.0
1421,6.2704415,2,-0.07475952,0.00803256,-0.12134075,0.0,0.0,0.0,0.0,0.0,0.0
1422,6.2748055,2,-0.04584112,-0.03557825,-0.10376167,0.0,0.0,0.0,0.0,0.0,0.0
1423,6.2791696,2,-0.05002994,-0.1289053,-0.13215828,0.0,0.0,0.0,0.0,0.0,0.0
1424,6.2835336,2,-0.03642278,-0.042108774,-0.0966959,0.0,0.0,0.0,0.0,0.0,0.0
1425,6.2878976,2,-0.018039161,0.1101346,-0.039679527,0.0,0.0,0.0,0.0,0.0,0.0
1426,6.2922616,2,0.08696879,-0.006660223,0.0355196,0.0,0.0,0.0,0.0,0.0,0.0
1427,6.2966256,2,-0.022219473,-0.062127113,-0.08752632,0.0,0.0,0.0,0.0,0.0,0.0
1428,6.3009896,2,0.12246633,0.021104574,0.07806778,0.0,0.0,0.0,0.0,0.0,0.0
1429,6.3053536,2,0.04333047,0.0015659332,-0.0046482086,0.0,0.0,0.0,0.0,0.0,0.0
1430,6.3097177,2,0.03528098,-0.051228285,-0.026043892,0.0,0.0,0.0,0.0,0.0,0.0
1431,6.3140817,2,0.09305132,0.051376104,0.05786991,0.0,0.0,0.0,0.0,0.0,0.0
1432,6.3184457,2,0.04989121,-0.08432436,-0.019558907,0.0,0.0,0.0,0.0,0.0,0.0
1433,6.3228097,2,0.05159364,-0.046641827,-0.008003235,0.0,0.0,0.0,0.0,0.0,0.0
1434,6.3271737,2,-0.03804215,-0.032452106,-0.09398556,0.0,0.0,0.0,0.0,0.0,0.0
1435,6.3315377,2,-0.029379899,-0.011949539,-0.08033657,0.0,0.0,0.0,0.0,0.0,0.0
1436,6.3359017,2,0.05207575,-0.06500554,-0.0121946335,0.0,0.0,0.0,0.0,0.0,0.0
1437,6.3402658,2,0.051939525,-0.06485796,-0.012236595,0.0,0.0,0.0,0.0,0.0,0.0
1438,6.34463,2,0.15512612,0.0031957626,0.10814762,0.0,0.0,0.0,0.0,0.0,0.0
1439,6.348994,2,-0.037536316,0.08800149,-0.0620718,0.0,0.0,0.0,0.0,0.0,0.0
1440,6.353358,2,-0.084989496,-0.06299281,-0.14815235,0.0,0.0,0.0,0.0,0.0,0.0
1441,6.357722,2,0.04390151,-0.02088666,-0.008970261,0.0,0.0,0.0,0.0,0.0,0.0
1442,6.362086,2,0.028300589,-0.02949047,-0.026654243,0.0,0.0,0.0,0.0,0.0,0.0
1443,6.36645,2,0.061460324,0.05757475,0.028552055,0.0,0.0,0.0,0.0,0.0,0.0
1444,6.370814,2,0.0796446,0.025074244,0.038802147,0.0,0.0,0.0,0.0,0.0,0.0
1445,6.375178,2,-0.107634045,0.009576321,-0.15182686,0.0,0.0,0.0,0.0,0.0,0.0
1446,6.379542,2,0.025302654,0.06668234,-0.0039901733,0.0,0.0,0.0,0.0,0.0,0.0
1447,6.383906,2,0.056751914,-0.05941558,-0.004555702,0.0,0.0,0.0,0.0,0.0,0.0
1448,6.38827,2,-0.044035725,-0.04342866,-0.10114002,0.0,0.0,0.0,0.0,0.0,0.0
1449,6.392634,2,-0.047123097,0.038769245,-0.083530426,0.0,0.0,0.0,0.0,0.0,0.0
1450,6.396998,2,0.008646017,-0.034466267,-0.04570198,0.0,0.0,0.0,0.0,0.0,0.0
1451,6.401362,2,0.1572594,0.008254766,0.11374569,0.0,0.0,0.0,0.0,0.0,0.0
1452,6.405726,2,0.121680714,0.017677069,0.081274986,0.0,0.0,0.0,0.0,0.0,0.0
1453,6.41009,2,-0.14664862,0.05100417,-0.1766901,0.0,0.0,0.0,0.0,0.0,0.0
1454,6.414454,2,-0.04650446,0.0021674633,-0.08954334,0.0,0.0,0.0,0.0,0.0,0.0
1455,6.418818,2,-0.08398042,0.08515358,-0.10433102,0.0,0.0,0.0,0.0,0.0,0.0
1456,6.423182,2,0.08289338,0.021527529,0.047261238,0.0,0.0,0.0,0.0,0.0,0.0
1457,6.427546,2,0.08722354,0.08263183,0.068660736,0.0,0.0,0.0,0.0,0.0,0.0
1458,6.43191,2,0.20291579,0.084326506,0.1850586,0.0,0.0,0.0,0.0,0.0,0.0
1459,6.436274,2,0.09565709,0.024389744,0.062104225,0.0,0.0,0.0,0.0,0.0,0.0
1460,6.440638,2,0.07930011,0.02422738,0.044719696,0.0,0.0,0.0,0.0,0.0,0.0
1461,6.445002,2,0.016637003,0.002902031,-0.025886536,0.0,0.0,0.0,0.0,0.0,0.0
1462,6.449366,2,0.098991044,-0.036707878,0.043367386,0.0,0.0,0.0,0.0,0.0,0.0
1463,6.45373,2,-0.039163105,-0.039946556,-0.09815407,0.0,0.0,0.0,0.0,0.0,0.0
1464,6.458094,2,-0.14873666,0.032880306,-0.19186306,0.0,0.0,0.0,0.0,0.0,0.0
1465,6.462458,2,0.024433231,-0.03945732,-0.03956127,0.0,0.0,0.0,0.0,0.0,0.0
1466,6.466822,2,-0.16516763,-0.083134174,-0.24028683,0.0,0.0,0.0,0.0,0.0,0.0
1467,6.471186,2,-0.06599458,-0.048968315,-0.13421154,0.0,0.0,0.0,0.0,0.0,0.0
1468,6.47555,2,-0.09296385,-0.005185604,-0.15049171,0.0,0.0,0.0,0.0,0.0,0.0
1469,6.479914,2,0.03885127,-0.07319641,-0.03643036,0.0,0.0,0.0,0.0,0.0,0.0
1470,6.484278,2,-0.031485192,-0.07714105,-0.10788059,0.0,0.0,0.0,0.0,0.0,0.0
1471,6.488642,2,-0.05964639,-0.08887267,-0.13928127,0.0,0.0,0.0,0.0,0.0,0.0
1472,6.493006,2,0.09691239,0.015881538,0.04340458,0.0,0.0,0.0,0.0,0.0,0.0
1473,6.4973702,2,0.17003456,-0.0069947243,0.11121559,0.0,0.0,0.0,0.0,0.0,0.0
1474,6.5017343,2,0.14377528,-0.027266264,0.08046818,0.0,0.0,0.0,0.0,0.0,0.0
1475,6.5060983,2,-0.14312738,-0.012604952,-0.2020092,0.0,0.0,0.0,0.0,0.0,0.0
1476,6.5104623,2,-0.13285464,-0.033104897,-0.19622517,0.0,0.0,0.0,0.0,0.0,0.0
1477,6.5148263,2,-0.06272199,-0.029209852,-0.12434769,0.0,0.0,0.0,0.0,0.0,0.0
1478,6.5191903,2,0.01632685,0.027673483,-0.030974388,0.0,0.0,0.0,0.0,0.0,0.0
1479,6.5235543,2,0.045612343,-0.13112116,-0.04221821,0.0,0.0,0.0,0.0,0.0,0.0
1480,6.5279183,2,0.1342695,0.049649954,0.09354496,0.0,0.0,0.0,0.0,0.0,0.0
1481,6.5322824,2,-0.05951933,-0.096651316,-0.13567638,0.0,0.0,0.0,0.0,0.0,0.0
1482,6.5366464,2,0.028798943,-0.10086298,-0.047694206,0.0,0.0,0.0,0.0,0.0,0.0
1483,6.5410104,2,0.12774271,-0.0799191,0.05648327,0.0,0.0,0.0,0.0,0.0,0.0
1484,6.5453744,2,-0.034403764,-0.06090021,-0.10054302,0.0,0.0,0.0,0.0,0.0,0.0
1485,6.5497384,2,-0.09966979,0.010205269,-0.14787579,0.0,0.0,0.0,0.0,0.0,0.0
1486,6.5541024,2,0.09507785,0.11963034,0.07437897,0.0,0.0,0.0,0.0,0.0,0.0
1487,6.5584664,2,0.15149617,0.018347979,0.1054554,0.0,0.0,0.0,0.0,0.0,0.0
1488,6.5628304,2,0.00815258,-0.12433386,-0.07353401,0.0,0.0,0.0,0.0,0.0,0.0
1489,6.5671945,2,-0.0076241735,-0.1325965,-0.09180832,0.0,0.0,0.0,0.0,0.0,0.0
1490,6.5715585,2,-0.028559322,-0.022198439,-0.084861755,0.0,0.0,0.0,0.0,0.0,0.0
1491,6.5759225,2,0.14052713,0.048591137,0.10207558,0.0,0.0,0.0,0.0,0.0,0.0
1492,6.5802865,2,0.05480931,-0.07993984,-0.015491486,0.0,0.0,0.0,0.0,0.0,0.0
1493,6.5846505,2,0.05465875,-0.07965946,-0.015570641,0.0,0.0,0.0,0.0,0.0,0.0
1494,6.5890145,2,-0.01991197,0.03071189,-0.061867714,0.0,0.0,0.0,0.0,0.0,0.0
1495,6.5933785,2,-0.030498082,-0.059863806,-0.09558582,0.0,0.0,0.0,0.0,0.0,0.0
1496,6.5977426,2,0.04641501,-0.06367397,-0.020813942,0.0,0.0,0.0,0.0,0.0,0.0
1497,6.6021066,2,0.096453704,0.050342083,0.056926727,0.0,0.0,0.0,0.0,0.0,0.0
1498,6.6064706,2,-0.048415117,-0.028245926,-0.107533455,0.0,0.0,0.0,0.0,0.0,0.0
1499,6.6108346,2,0.13929966,0.015011072,0.090919495,0.0,0.0,0.0,0.0,0.0,0.0
1500,6.6151986,2,-0.04675167,-0.027929544,-0.105485916,0.0,0.0,0.0,0.0,0.0,0.0
1501,6.6195626,2,-0.0807861,0.03714013,-0.12297726,0.0,0.0,0.0,0.0,0.0,0.0
1502,6.6239266,2,-0.09352412,-0.04960704,-0.15827179,0.0,0.0,0.0,0.0,0.0,0.0
1503,6.6282907,2,-0.100240745,-0.07444286,-0.17185497,0.0,0.0,0.0,0.0,0.0,0.0
1504,6.6326547,2,-0.020567948,-0.0080349445,-0.075657845,0.0,0.0,0.0,0.0,0.0,0.0
1505,6.6370187,2,0.04822222,0.014125347,-0.0014514923,0.0,0.0,0.0,0.0,0.0,0.0
1506,6.6413827,2,0.043210156,0.022024393,-0.0042181015,0.0,0.0,0.0,0.0,0.0,0.0
1507,6.6457467,2,0.008418089,-9.031296E-4,-0.044713974,0.0,0.0,0.0,0.0,0.0,0.0
1508,6.6501107,2,0.03638465,-0.021522522,-0.021933556,0.0,0.0,0.0,0.0,0.0,0.0
1509,6.6544747,2,0.0888092,0.07957864,0.056384087,0.0,0.0,0.0,0.0,0.0,0.0
1510,6.6588387,2,0.013055151,-0.013804197,-0.042783737,0.0,0.0,0.0,0.0,0.0,0.0
1511,6.663203,2,-0.11098031,-0.16548109,-0.20560741,0.0,0.0,0.0,0.0,0.0,0.0
1512,6.667567,2,0.025981223,-0.028695107,-0.034309387,0.0,0.0,0.0,0.0,0.0,0.0
1513,6.671931,2,-0.063321225,-0.014467478,-0.11994839,0.0,0.0,0.0,0.0,0.0,0.0
1514,6.676295,2,-0.092125155,-0.022061348,-0.15091038,0.0,0.0,0.0,0.0,0.0,0.0
1515,6.680659,2,0.118698336,0.03152299,0.072995186,0.0,0.0,0.0,0.0,0.0,0.0
1516,6.685023,2,0.03653381,-0.0631423,-0.032845497,0.0,0.0,0.0,0.0,0.0,0.0
1517,6.689387,2,0.017479127,0.06138277,-0.020059586,0.0,0.0,0.0,0.0,0.0,0.0
1518,6.693751,2,0.046441622,-0.028452396,-0.013885498,0.0,0.0,0.0,0.0,0.0,0.0
1519,6.698115,2,0.06773356,-0.013728857,0.011260986,0.0,0.0,0.0,0.0,0.0,0.0
1520,6.702479,2,-0.03029778,-0.0893662,-0.105918884,0.0,0.0,0.0,0.0,0.0,0.0
1521,6.706843,2,0.040478654,-0.06193185,-0.028383255,0.0,0.0,0.0,0.0,0.0,0.0
1522,6.711207,2,-0.020843292,0.010284662,-0.071204185,0.0,0.0,0.0,0.0,0.0,0.0
1523,6.715571,2,0.1317192,0.0075457096,0.080462456,0.0,0.0,0.0,0.0,0.0,0.0
1524,6.719935,2,0.0768177,0.05435753,0.03870392,0.0,0.0,0.0,0.0,0.0,0.0
1525,6.724299,2,-0.05001969,0.031119823,-0.09378338,0.0,0.0,0.0,0.0,0.0,0.0
1526,6.728663,2,0.07207302,0.0020558834,0.020778656,0.0,0.0,0.0,0.0,0.0,0.0
1527,6.733027,2,-0.032619976,-0.0939343,-0.10808468,0.0,0.0,0.0,0.0,0.0,0.0
1528,6.737452,2,0.053775676,0.002180338,0.0024871826,0.0,0.0,0.0,0.0,0.0,0.0
1529,6.741877,2,0.07968298,0.004176855,0.028879166,0.0,0.0,0.0,0.0,0.0,0.0
1530,6.7463326,2,0.20286196,-0.033857346,0.14156532,0.0,0.0,0.0,0.0,0.0,0.0
1531,6.7507577,2,0.04884679,0.019448042,0.0019664764,0.0,0.0,0.0,0.0,0.0,0.0
1532,6.7552133,2,-0.08573874,0.0726974,-0.11858845,0.0,0.0,0.0,0.0,0.0,0.0
1533,6.7596383,2,-0.20447296,-0.032035112,-0.2643366,0.0,0.0,0.0,0.0,0.0,0.0
1534,6.764094,2,0.026698088,-9.934902E-4,-0.026288033,0.0,0.0,0.0,0.0,0.0,0.0
1535,6.768519,2,-0.06708222,-0.04807377,-0.13181877,0.0,0.0,0.0,0.0,0.0,0.0
1536,6.7729745,2,-0.060829766,-0.014312744,-0.117274284,0.0,0.0,0.0,0.0,0.0,0.0
1537,6.7773995,2,-0.08022932,-0.06084323,-0.14875984,0.0,0.0,0.0,0.0,0.0,0.0
1538,6.781855,2,0.01067782,-0.005444765,-0.04409027,0.0,0.0,0.0,0.0,0.0,0.0
1539,6.78628,2,0.07035918,-0.031749725,0.008666992,0.0,0.0,0.0,0.0,0.0,0.0
1540,6.7907357,2,-0.08445864,0.025738716,-0.13112259,0.0,0.0,0.0,0.0,0.0,0.0
1541,6.795161,2,-0.017403865,-0.0589633,-0.085930824,0.0,0.0,0.0,0.0,0.0,0.0
1542,6.799586,2,0.056626655,-0.007689953,8.8596344E-4,0.0,0.0,0.0,0.0,0.0,0.0
1543,6.8040414,2,-0.105806775,-0.12757325,-0.19189644,0.0,0.0,0.0,0.0,0.0,0.0
1544,6.8084664,2,0.011836832,-0.023567438,-0.04842472,0.0,0.0,0.0,0.0,0.0,0.0
1545,6.812922,2,-0.008816952,0.035714388,-0.05388546,0.0,0.0,0.0,0.0,0.0,0.0
1546,6.817347,2,-0.09711077,-0.028545618,-0.15847778,0.0,0.0,0.0,0.0,0.0,0.0
1547,6.8218026,2,0.028310603,0.00784564,-0.024290085,0.0,0.0,0.0,0.0,0.0,0.0
1548,6.8262277,2,0.21082145,0.06825638,0.17368793,0.0,0.0,0.0,0.0,0.0,0.0
1549,6.830683,2,-0.117267676,-0.038511515,-0.18061733,0.0,0.0,0.0,0.0,0.0,0.0
1550,6.8351083,2,0.09954379,0.011957884,0.04841137,0.0,0.0,0.0,0.0,0.0,0.0
1551,6.839564,2,0.035885997,-0.036504984,-0.027318954,0.0,0.0,0.0,0.0,0.0,0.0
1552,6.843989,2,0.107131965,0.06480551,0.06994724,0.0,0.0,0.0,0.0,0.0,0.0
1553,6.8484445,2,0.18925524,-0.02961564,0.12814331,0.0,0.0,0.0,0.0,0.0,0.0
1554,6.8528695,2,0.12858662,0.047518015,0.08775234,0.0,0.0,0.0,0.0,0.0,0.0
1555,6.8572946,2,-0.010083968,0.021149635,-0.05688858,0.0,0.0,0.0,0.0,0.0,0.0
1556,6.86175,2,0.076745935,-0.06751299,0.007185936,0.0,0.0,0.0,0.0,0.0,0.0
1557,6.866175,2,0.055919833,0.0059461594,0.0051469803,0.0,0.0,0.0,0.0,0.0,0.0
1558,6.8706307,2,0.018259501,-0.017538786,-0.03819847,0.0,0.0,0.0,0.0,0.0,0.0
1559,6.875056,2,0.11501206,-0.07124543,0.04475689,0.0,0.0,0.0,0.0,0.0,0.0
1560,6.8795114,2,0.001795983,0.057120085,-0.035305023,0.0,0.0,0.0,0.0,0.0,0.0
1561,6.8839364,2,0.103447475,0.008815289,0.054117203,0.0,0.0,0.0,0.0,0.0,0.0
1562,6.888392,2,0.2179397,-0.0725646,0.14782333,0.0,0.0,0.0,0.0,0.0,0.0
1563,6.892817,2,0.03812615,0.01586914,-0.0085020065,0.0,0.0,0.0,0.0,0.0,0.0
1564,6.8972726,2,-0.015076185,-0.020865202,-0.07093525,0.0,0.0,0.0,0.0,0.0,0.0
1565,6.9016976,2,0.023238664,-0.038357496,-0.03829956,0.0,0.0,0.0,0.0,0.0,0.0
1566,6.906153,2,0.02420271,0.021940231,-0.0219841,0.0,0.0,0.0,0.0,0.0,0.0
1567,6.9105783,2,-0.11640384,-0.018774986,-0.17289352,0.0,0.0,0.0,0.0,0.0,0.0
1568,6.9150033,2,0.06463311,-0.08813405,-0.010202408,0.0,0.0,0.0,0.0,0.0,0.0
1569,6.919459,2,-0.01090532,-0.019421816,-0.06815815,0.0,0.0,0.0,0.0,0.0,0.0
1570,6.923884,2,0.04557652,-0.023515224,-0.012778282,0.0,0.0,0.0,0.0,0.0,0.0
1571,6.9283395,2,-0.032669537,-0.07112455,-0.102950096,0.0,0.0,0.0,0.0,0.0,0.0
1572,6.9327645,2,-0.08583724,0.026095867,-0.13148594,0.0,0.0,0.0,0.0,0.0,0.0
