Serial,Time,Imid,ax,ay,az,vx,vy,vz,dx,dy,dz,0.0840971,0.10746048,0.07712537
0,0.0,0,0.2154571,-0.2954836,-0.27162933,0.0,0.0,0.0,0.0,0.0,0.0
1,0.004425049,0,0.14224131,-0.16172051,-0.19573402,0.0,0.0,0.0,0.0,0.0,0.0
2,0.008850098,0,0.09322487,-0.21057701,-0.15314674,0.0,0.0,0.0,0.0,0.0,0.0
3,0.013275146,0,0.14565395,-0.25291395,-0.20860577,0.0,0.0,0.0,0.0,0.0,0.0
4,0.017700195,0,0.22935183,-0.26841426,-0.29009724,0.0,0.0,0.0,0.0,0.0,0.0
5,0.022125244,0,0.040270045,-0.16815376,-0.10745716,0.0,0.0,0.0,0.0,0.0,0.0
6,0.026519775,0,-0.012188582,-0.11739802,-0.057946205,0.0,0.0,0.0,0.0,0.0,0.0
7,0.030944824,0,-0.08201131,-0.057534456,0.008933067,0.0,0.0,0.0,0.0,0.0,0.0
8,0.035369873,0,-0.03169313,-0.03765011,-0.041713715,0.0,0.0,0.0,0.0,0.0,0.0
9,0.039794922,0,-0.16039515,-0.042521477,0.07849407,0.0,0.0,0.0,0.0,0.0,0.0
10,0.04421997,0,-0.16234836,0.013281107,0.08065605,0.0,0.0,0.0,0.0,0.0,0.0
11,0.04864502,0,-0.29572147,0.11720705,0.20906639,0.0,0.0,0.0,0.0,0.0,0.0
12,0.05307007,0,-0.2770338,0.014590025,0.1854372,0.0,0.0,0.0,0.0,0.0,0.0
13,0.057495117,0,-0.4118846,0.05853319,0.31431007,0.0,0.0,0.0,0.0,0.0,0.0
14,0.061920166,0,-0.3788241,0.18410206,0.28556252,0.0,0.0,0.0,0.0,0.0,0.0
15,0.066345215,0,-0.23634462,0.14979482,0.1511383,0.0,0.0,0.0,0.0,0.0,0.0
16,0.07229614,0,-0.19203287,0.17021155,0.10755539,0.0,0.0,0.0,0.0,0.0,0.0
17,0.07824707,0,-0.19288069,0.16947865,0.11001301,0.0,0.0,0.0,0.0,0.0,0.0
18,0.084198,0,-0.06590013,0.019214153,-0.014920235,0.0,0.0,0.0,0.0,0.0,0.0
19,0.09017944,0,-0.09494077,-0.037447453,0.011776924,0.0,0.0,0.0,0.0,0.0,0.0
20,0.09613037,0,-0.045676097,-0.068817854,-0.03450489,0.0,0.0,0.0,0.0,0.0,0.0
21,0.099823,0,-0.045781195,-0.06752038,-0.03069973,0.0,0.0,0.0,0.0,0.0,0.0
22,0.10348511,0,0.026391627,8.72612E-5,-0.09317398,0.0,0.0,0.0,0.0,0.0,0.0
23,0.107177734,0,0.026512088,0.0014574528,-0.090091705,0.0,0.0,0.0,0.0,0.0,0.0
24,0.110839844,0,0.060506687,-0.06126356,-0.11949253,0.0,0.0,0.0,0.0,0.0,0.0
25,0.11453247,0,0.09897131,0.014745474,-0.15176582,0.0,0.0,0.0,0.0,0.0,0.0
26,0.11819458,0,-0.026178135,-0.24770284,-0.041135788,0.0,0.0,0.0,0.0,0.0,0.0
27,0.12188721,0,0.045182407,-0.14940858,-0.10036945,0.0,0.0,0.0,0.0,0.0,0.0
28,0.12554932,0,-0.11920662,-0.07676196,0.060539246,0.0,0.0,0.0,0.0,0.0,0.0
29,0.12924194,0,-0.044088602,-0.32336688,-0.018556595,0.0,0.0,0.0,0.0,0.0,0.0
30,0.13293457,0,-0.114347756,-0.24463439,0.056105614,0.0,0.0,0.0,0.0,0.0,0.0
31,0.13726807,0,-0.041342854,-0.2633381,-0.011551857,0.0,0.0,0.0,0.0,0.0,0.0
32,0.14163208,0,-0.025575174,-0.013143778,-0.012607574,0.0,0.0,0.0,0.0,0.0,0.0
33,0.1459961,0,-0.1200158,-0.3968389,0.064356804,0.0,0.0,0.0,0.0,0.0,0.0
34,0.1503601,0,-0.094190285,-0.1592226,0.051130295,0.0,0.0,0.0,0.0,0.0,0.0
35,0.15472412,0,-0.048524633,-0.2400465,0.006418228,0.0,0.0,0.0,0.0,0.0,0.0
36,0.15908813,0,-0.06404644,-0.07069898,0.03207779,0.0,0.0,0.0,0.0,0.0,0.0
37,0.16345215,0,-0.19862305,-0.20564151,0.15624619,0.0,0.0,0.0,0.0,0.0,0.0
38,0.1687622,0,-0.13923313,-0.12492919,0.10440254,0.0,0.0,0.0,0.0,0.0,0.0
39,0.17407227,0,-0.08229154,-0.10995126,0.05167961,0.0,0.0,0.0,0.0,0.0,0.0
40,0.17941284,0,-0.045939863,-0.10457206,0.017875671,0.0,0.0,0.0,0.0,0.0,0.0
41,0.1847229,0,-0.049937174,-0.14409971,0.021282196,0.0,0.0,0.0,0.0,0.0,0.0
42,0.19003296,0,0.08154975,-0.21501899,-0.1046772,0.0,0.0,0.0,0.0,0.0,0.0
43,0.19534302,0,0.081903115,-0.21422935,-0.10431957,0.0,0.0,0.0,0.0,0.0,0.0
44,0.20019531,0,-0.070506394,-0.1420629,0.041646957,0.0,0.0,0.0,0.0,0.0,0.0
45,0.20462036,0,-0.02958907,-0.07861829,0.006573677,0.0,0.0,0.0,0.0,0.0,0.0
46,0.20904541,0,0.027580174,-0.06399369,-0.044963837,0.0,0.0,0.0,0.0,0.0,0.0
47,0.21343994,0,0.09743309,-0.18200374,-0.11426258,0.0,0.0,0.0,0.0,0.0,0.0
48,0.21783447,0,0.08178307,0.042286634,-0.09227848,0.0,0.0,0.0,0.0,0.0,0.0
49,0.22219849,0,-5.4694526E-4,-0.10364628,-0.018210411,0.0,0.0,0.0,0.0,0.0,0.0
50,0.2265625,0,0.042515814,-0.12724686,-0.060359955,0.0,0.0,0.0,0.0,0.0,0.0
51,0.23092651,0,0.1570232,-0.013761044,-0.16359425,0.0,0.0,0.0,0.0,0.0,0.0
52,0.23529053,0,-0.024248345,-0.010740995,0.008280754,0.0,0.0,0.0,0.0,0.0,0.0
53,0.23965454,0,0.0328106,-0.14770651,-0.05093193,0.0,0.0,0.0,0.0,0.0,0.0
54,0.24401855,0,-0.030760808,0.06820178,0.017971992,0.0,0.0,0.0,0.0,0.0,0.0
55,0.24838257,0,0.07832435,0.04446578,-0.08512497,0.0,0.0,0.0,0.0,0.0,0.0
56,0.25274658,0,0.048673883,0.09528041,-0.056171417,0.0,0.0,0.0,0.0,0.0,0.0
57,0.2571106,0,-0.09643659,-0.11994171,0.07285786,0.0,0.0,0.0,0.0,0.0,0.0
58,0.2614746,0,0.14615212,0.019356966,-0.14982605,0.0,0.0,0.0,0.0,0.0,0.0
59,0.26583862,0,-0.04620011,-0.014069557,0.032419205,0.0,0.0,0.0,0.0,0.0,0.0
60,0.27020264,0,-0.0498956,0.05311513,0.039061546,0.0,0.0,0.0,0.0,0.0,0.0
61,0.27456665,0,0.008202912,0.09964299,-0.01667881,0.0,0.0,0.0,0.0,0.0,0.0
62,0.27893066,0,-0.045494735,-0.1196959,0.025988579,0.0,0.0,0.0,0.0,0.0,0.0
63,0.28329468,0,-0.06795792,-0.020201921,0.05114746,0.0,0.0,0.0,0.0,0.0,0.0
64,0.2876587,0,-0.087314874,-0.038566828,0.06833935,0.0,0.0,0.0,0.0,0.0,0.0
65,0.2920227,0,-0.0802422,0.13642097,0.06877518,0.0,0.0,0.0,0.0,0.0,0.0
66,0.29638672,0,0.026638107,-0.03250003,-0.04000187,0.0,0.0,0.0,0.0,0.0,0.0
67,0.30075073,0,0.003516199,-0.06179762,-0.019125938,0.0,0.0,0.0,0.0,0.0,0.0
68,0.30511475,0,0.035707474,0.018591166,-0.044296265,0.0,0.0,0.0,0.0,0.0,0.0
69,0.30947876,0,-0.09831001,0.009570837,0.081552505,0.0,0.0,0.0,0.0,0.0,0.0
70,0.31384277,0,-0.025242744,-0.096101046,0.008047104,0.0,0.0,0.0,0.0,0.0,0.0
71,0.3182068,0,0.0085930545,-0.13645291,-0.027032852,0.0,0.0,0.0,0.0,0.0,0.0
72,0.3225708,0,-0.03821805,0.035755396,0.025281906,0.0,0.0,0.0,0.0,0.0,0.0
73,0.3269348,0,0.026178585,-0.06946993,-0.039004326,0.0,0.0,0.0,0.0,0.0,0.0
74,0.33129883,0,0.026721152,-0.081837654,-0.039961815,0.0,0.0,0.0,0.0,0.0,0.0
75,0.33566284,0,-0.06652458,-0.09582162,0.049057007,0.0,0.0,0.0,0.0,0.0,0.0
76,0.34002686,0,0.005748065,0.07721591,-0.013368607,0.0,0.0,0.0,0.0,0.0,0.0
77,0.34439087,0,-0.015710635,-0.14254165,-0.0025968552,0.0,0.0,0.0,0.0,0.0,0.0
78,0.34875488,0,0.028908702,0.04825616,-0.035063744,0.0,0.0,0.0,0.0,0.0,0.0
79,0.3531189,0,0.09941289,0.009462595,-0.103102684,0.0,0.0,0.0,0.0,0.0,0.0
80,0.3574829,0,-0.006343646,0.066592455,-0.0024785995,0.0,0.0,0.0,0.0,0.0,0.0
81,0.36184692,0,0.090224534,0.095128536,-0.09315586,0.0,0.0,0.0,0.0,0.0,0.0
82,0.36621094,0,-0.10659546,-0.12211871,0.084153175,0.0,0.0,0.0,0.0,0.0,0.0
83,0.37057495,0,0.050488964,0.023818254,-0.058110237,0.0,0.0,0.0,0.0,0.0,0.0
84,0.37493896,0,-0.04007195,-0.33612943,0.008728981,0.0,0.0,0.0,0.0,0.0,0.0
85,0.37930298,0,0.05454427,-0.064544916,-0.06919193,0.0,0.0,0.0,0.0,0.0,0.0
86,0.383667,0,-0.08644317,-0.1562221,0.059182167,0.0,0.0,0.0,0.0,0.0,0.0
87,0.388031,0,-0.050364494,-0.14361668,0.02436924,0.0,0.0,0.0,0.0,0.0,0.0
88,0.39239502,0,0.010181965,0.014134169,-0.030890465,0.0,0.0,0.0,0.0,0.0,0.0
89,0.39675903,0,-0.06467427,-0.06949806,0.03468895,0.0,0.0,0.0,0.0,0.0,0.0
90,0.40112305,0,-0.11208865,-0.25431824,0.0715456,0.0,0.0,0.0,0.0,0.0,0.0
91,0.40548706,0,0.018732758,-0.07018232,-0.04599762,0.0,0.0,0.0,0.0,0.0,0.0
92,0.40985107,0,0.031806633,-0.13144279,-0.06273556,0.0,0.0,0.0,0.0,0.0,0.0
93,0.4142151,0,-0.08334896,-0.11203575,0.046235085,0.0,0.0,0.0,0.0,0.0,0.0
94,0.4185791,0,0.15423186,-0.057919264,-0.17780876,0.0,0.0,0.0,0.0,0.0,0.0
95,0.42294312,0,-0.087853014,0.067080736,0.055315018,0.0,0.0,0.0,0.0,0.0,0.0
96,0.42730713,0,-0.0025282186,-0.17157531,-0.037381172,0.0,0.0,0.0,0.0,0.0,0.0
97,0.43167114,0,-0.007123841,-0.12726307,-0.03298664,0.0,0.0,0.0,0.0,0.0,0.0
98,0.43603516,0,0.10930996,0.12471628,-0.13567924,0.0,0.0,0.0,0.0,0.0,0.0
99,0.44039917,0,-0.04491107,0.008321285,0.004500389,0.0,0.0,0.0,0.0,0.0,0.0
100,0.44476318,0,-0.045850307,0.00637722,0.004418373,0.0,0.0,0.0,0.0,0.0,0.0
101,0.4491272,0,0.09475689,-0.009473085,-0.12970257,0.0,0.0,0.0,0.0,0.0,0.0
102,0.4534912,0,0.025263997,-0.026410818,-0.06583214,0.0,0.0,0.0,0.0,0.0,0.0
103,0.45785522,0,-0.03591329,-0.007901907,-0.009612083,0.0,0.0,0.0,0.0,0.0,0.0
104,0.46221924,0,-0.10267605,-0.0065410137,0.055749893,0.0,0.0,0.0,0.0,0.0,0.0
105,0.46658325,0,-0.14336778,0.07478738,0.09835625,0.0,0.0,0.0,0.0,0.0,0.0
106,0.47094727,0,-0.10936923,0.01290822,0.06392956,0.0,0.0,0.0,0.0,0.0,0.0
107,0.47531128,0,-0.19294111,-0.04446864,0.14123535,0.0,0.0,0.0,0.0,0.0,0.0
108,0.4796753,0,-0.13049515,0.050956964,0.08336353,0.0,0.0,0.0,0.0,0.0,0.0
109,0.4840393,0,-0.13649975,0.07083464,0.09089184,0.0,0.0,0.0,0.0,0.0,0.0
110,0.48840332,0,-0.11901027,-0.045843363,0.06880474,0.0,0.0,0.0,0.0,0.0,0.0
111,0.49276733,0,-0.06540328,0.099178076,0.027078629,0.0,0.0,0.0,0.0,0.0,0.0
112,0.49713135,0,0.021634357,0.18731523,-0.052215576,0.0,0.0,0.0,0.0,0.0,0.0
113,0.50149536,0,-0.08154862,0.08193755,0.042538643,0.0,0.0,0.0,0.0,0.0,0.0
114,0.5058594,0,-0.030065132,0.10943484,-0.004961014,0.0,0.0,0.0,0.0,0.0,0.0
115,0.5102234,0,0.03801143,0.07187796,-0.06995106,0.0,0.0,0.0,0.0,0.0,0.0
116,0.5145874,0,0.018891023,-0.02277875,-0.05626011,0.0,0.0,0.0,0.0,0.0,0.0
117,0.5189514,0,0.09566487,0.10508537,-0.12043953,0.0,0.0,0.0,0.0,0.0,0.0
118,0.5233154,0,-0.013860671,-0.12646031,-0.025434494,0.0,0.0,0.0,0.0,0.0,0.0
119,0.52767944,0,-0.020606486,-0.013636351,-0.012365341,0.0,0.0,0.0,0.0,0.0,0.0
120,0.53204346,0,0.035180286,0.0893209,-0.057955742,0.0,0.0,0.0,0.0,0.0,0.0
121,0.5364075,0,-0.034784585,-0.09835601,-0.0024108887,0.0,0.0,0.0,0.0,0.0,0.0
122,0.5407715,0,0.03228967,0.105391026,-0.055568695,0.0,0.0,0.0,0.0,0.0,0.0
123,0.5451355,0,-0.062311858,0.014917374,0.030065536,0.0,0.0,0.0,0.0,0.0,0.0
124,0.5494995,0,0.02264464,-0.017592907,-0.05063629,0.0,0.0,0.0,0.0,0.0,0.0
125,0.5538635,0,0.041414946,-0.15978432,-0.072870255,0.0,0.0,0.0,0.0,0.0,0.0
126,0.55822754,0,-0.013667999,-0.10997486,-0.016928673,0.0,0.0,0.0,0.0,0.0,0.0
127,0.56259155,0,-0.060588688,-0.10133195,0.027273178,0.0,0.0,0.0,0.0,0.0,0.0
128,0.56695557,0,0.12530448,-0.13460994,-0.14780998,0.0,0.0,0.0,0.0,0.0,0.0
129,0.5713196,0,-0.094834596,-0.17449689,0.05706215,0.0,0.0,0.0,0.0,0.0,0.0
130,0.5756836,0,0.02262603,-0.13022041,-0.051797867,0.0,0.0,0.0,0.0,0.0,0.0
131,0.5800476,0,-0.03961532,-0.17846465,0.0037298203,0.0,0.0,0.0,0.0,0.0,0.0
132,0.5844116,0,-0.03047016,-0.1323514,4.5967102E-4,0.0,0.0,0.0,0.0,0.0,0.0
133,0.58877563,0,-0.02808757,0.0053493977,0.0065612793,0.0,0.0,0.0,0.0,0.0,0.0
134,0.59313965,0,0.16016242,0.18657947,-0.16604614,0.0,0.0,0.0,0.0,0.0,0.0
135,0.59750366,0,0.09994942,-0.015514612,-0.11426258,0.0,0.0,0.0,0.0,0.0,0.0
136,0.6018677,0,0.07784161,-0.08769393,-0.097418785,0.0,0.0,0.0,0.0,0.0,0.0
137,0.6062317,0,0.0020986665,-0.055205107,-0.025201797,0.0,0.0,0.0,0.0,0.0,0.0
138,0.6105957,0,0.04545057,-0.077399254,-0.06679344,0.0,0.0,0.0,0.0,0.0,0.0
139,0.6149597,0,0.01832998,0.036459684,-0.03542137,0.0,0.0,0.0,0.0,0.0,0.0
140,0.61932373,0,0.08574757,0.032327175,-0.09790325,0.0,0.0,0.0,0.0,0.0,0.0
141,0.62368774,0,-0.06973247,-0.17122173,0.03834629,0.0,0.0,0.0,0.0,0.0,0.0
142,0.62805176,0,0.07035181,0.022007704,-0.086725235,0.0,0.0,0.0,0.0,0.0,0.0
143,0.6324158,0,0.07418446,-0.025496244,-0.09290981,0.0,0.0,0.0,0.0,0.0,0.0
144,0.6367798,0,0.04279615,0.065397024,-0.062018394,0.0,0.0,0.0,0.0,0.0,0.0
145,0.6411438,0,-0.018167181,-0.12168455,-0.014945984,0.0,0.0,0.0,0.0,0.0,0.0
146,0.6455078,0,0.0058045555,-0.08825898,-0.03573227,0.0,0.0,0.0,0.0,0.0,0.0
147,0.6498718,0,0.008950697,0.016494036,-0.036346436,0.0,0.0,0.0,0.0,0.0,0.0
148,0.65423584,0,-0.021305783,0.00862813,-0.0090065,0.0,0.0,0.0,0.0,0.0,0.0
149,0.65859985,0,-0.014757229,-0.07352853,-0.019273758,0.0,0.0,0.0,0.0,0.0,0.0
150,0.66296387,0,-0.010396225,0.103266,-0.017857552,0.0,0.0,0.0,0.0,0.0,0.0
151,0.6673279,0,0.046752572,0.19343877,-0.07102299,0.0,0.0,0.0,0.0,0.0,0.0
152,0.6716919,0,-0.076197475,0.16819835,0.042580605,0.0,0.0,0.0,0.0,0.0,0.0
153,0.6760559,0,-0.09256032,0.20958686,0.057761192,0.0,0.0,0.0,0.0,0.0,0.0
154,0.6804199,0,-0.11545271,0.17746782,0.07730293,0.0,0.0,0.0,0.0,0.0,0.0
155,0.68478394,0,-0.20338428,0.105413675,0.15573406,0.0,0.0,0.0,0.0,0.0,0.0
156,0.68914795,0,-0.03896667,0.11811447,8.69751E-4,0.0,0.0,0.0,0.0,0.0,0.0
157,0.69351196,0,-0.12389362,0.031799078,0.079945564,0.0,0.0,0.0,0.0,0.0,0.0
158,0.697876,0,-0.12318787,0.033554792,0.08071327,0.0,0.0,0.0,0.0,0.0,0.0
159,0.7034302,0,-0.05661553,0.07151675,0.017917633,0.0,0.0,0.0,0.0,0.0,0.0
160,0.7089844,0,-0.056171924,0.073302984,0.019593239,0.0,0.0,0.0,0.0,0.0,0.0
161,0.7145691,0,-0.10757926,0.039891005,0.069200516,0.0,0.0,0.0,0.0,0.0,0.0
162,0.7201233,0,0.015081795,0.032016754,-0.044491768,0.0,0.0,0.0,0.0,0.0,0.0
163,0.72494507,0,-0.012678785,0.07054019,-0.015945435,0.0,0.0,0.0,0.0,0.0,0.0
164,0.72924805,0,0.07786672,-0.04261279,-0.10017586,0.0,0.0,0.0,0.0,0.0,0.0
165,0.733551,0,0.055098444,0.028613329,-0.07425594,0.0,0.0,0.0,0.0,0.0,0.0
166,0.737854,0,0.04010412,-0.102924585,-0.06594658,0.0,0.0,0.0,0.0,0.0,0.0
167,0.742157,0,-0.0098784845,0.00294137,-0.011400223,0.0,0.0,0.0,0.0,0.0,0.0
168,0.74645996,0,0.102850914,0.08370948,-0.11304188,0.0,0.0,0.0,0.0,0.0,0.0
169,0.75076294,0,0.019409345,0.034374,-0.03701687,0.0,0.0,0.0,0.0,0.0,0.0
170,0.7550659,0,0.10527699,-0.025595903,-0.118798256,0.0,0.0,0.0,0.0,0.0,0.0
171,0.7593689,0,0.09320538,0.056682825,-0.10381031,0.0,0.0,0.0,0.0,0.0,0.0
172,0.7636719,0,0.043410152,-0.08503556,-0.06258488,0.0,0.0,0.0,0.0,0.0,0.0
173,0.76797485,0,-0.052676797,-0.110547304,0.026602745,0.0,0.0,0.0,0.0,0.0,0.0
174,0.77227783,0,0.032141298,-0.12073207,-0.052742004,0.0,0.0,0.0,0.0,0.0,0.0
175,0.7765808,0,0.04837525,-0.09455609,-0.065216064,0.0,0.0,0.0,0.0,0.0,0.0
176,0.7808838,0,0.07809964,-0.2060492,-0.09671974,0.0,0.0,0.0,0.0,0.0,0.0
177,0.78518677,0,0.04511395,-0.09052372,-0.060884476,0.0,0.0,0.0,0.0,0.0,0.0
178,0.78948975,0,0.08514477,-0.06026435,-0.09720993,0.0,0.0,0.0,0.0,0.0,0.0
179,0.7937927,0,0.038980603,-0.065172434,-0.05279541,0.0,0.0,0.0,0.0,0.0,0.0
180,0.7980957,0,0.0034753103,0.045160532,-0.015845299,0.0,0.0,0.0,0.0,0.0,0.0
181,0.8023987,0,0.04699555,-0.07090974,-0.06263733,0.0,0.0,0.0,0.0,0.0,0.0
182,0.80670166,0,-0.021524994,0.05623722,0.0072193146,0.0,0.0,0.0,0.0,0.0,0.0
183,0.81100464,0,-0.0045255255,0.160285,-0.00370121,0.0,0.0,0.0,0.0,0.0,0.0
184,0.8153076,0,0.07030144,0.12691855,-0.07673168,0.0,0.0,0.0,0.0,0.0,0.0
185,0.8196106,0,0.058789983,0.09182429,-0.066841125,0.0,0.0,0.0,0.0,0.0,0.0
186,0.8239136,0,-0.023766695,0.03858304,0.010286331,0.0,0.0,0.0,0.0,0.0,0.0
187,0.82821655,0,0.025242122,-0.15473866,-0.042963028,0.0,0.0,0.0,0.0,0.0,0.0
188,0.83251953,0,-0.005634723,-0.07106328,-0.009925842,0.0,0.0,0.0,0.0,0.0,0.0
189,0.8368225,0,0.063611224,0.059639692,-0.07056904,0.0,0.0,0.0,0.0,0.0,0.0
190,0.8411255,0,-0.05860527,0.14720964,0.0484581,0.0,0.0,0.0,0.0,0.0,0.0
191,0.84542847,0,-0.024536265,0.16173148,0.016968727,0.0,0.0,0.0,0.0,0.0,0.0
192,0.84973145,0,0.03225471,0.1271832,-0.0397501,0.0,0.0,0.0,0.0,0.0,0.0
193,0.8540344,0,0.030879172,-0.009431124,-0.044335365,0.0,0.0,0.0,0.0,0.0,0.0
194,0.8583374,0,0.10596779,-0.04747796,-0.11664772,0.0,0.0,0.0,0.0,0.0,0.0
195,0.8626404,0,0.07556397,-0.012972593,-0.086271286,0.0,0.0,0.0,0.0,0.0,0.0
196,0.86694336,0,0.050134286,-0.03788638,-0.06343365,0.0,0.0,0.0,0.0,0.0,0.0
197,0.87124634,0,0.14028455,-0.11539912,-0.15310287,0.0,0.0,0.0,0.0,0.0,0.0
198,0.8755493,0,0.045097306,-0.13962674,-0.06282234,0.0,0.0,0.0,0.0,0.0,0.0
199,0.8798523,0,0.12507024,0.104790926,-0.12720013,0.0,0.0,0.0,0.0,0.0,0.0
200,0.8841553,0,-0.028469129,-0.04344058,0.011382103,0.0,0.0,0.0,0.0,0.0,0.0
201,0.88845825,0,-0.11660765,0.07452369,0.09887314,0.0,0.0,0.0,0.0,0.0,0.0
202,0.89276123,0,-0.14472966,-0.043153524,0.12068558,0.0,0.0,0.0,0.0,0.0,0.0
203,0.8970642,0,-0.12969784,-0.06640768,0.10593128,0.0,0.0,0.0,0.0,0.0,0.0
204,0.9013672,0,-0.111170754,-0.014217377,0.0927887,0.0,0.0,0.0,0.0,0.0,0.0
205,0.90567017,0,-0.08298463,-0.10845542,0.059693336,0.0,0.0,0.0,0.0,0.0,0.0
206,0.90997314,0,0.0622364,0.19398952,-0.06446552,0.0,0.0,0.0,0.0,0.0,0.0
207,0.9142761,0,-0.0192461,-0.02798891,0.0029993057,0.0,0.0,0.0,0.0,0.0,0.0
208,0.9185791,0,-0.06267665,0.014434099,0.0463295,0.0,0.0,0.0,0.0,0.0,0.0
209,0.9228821,0,0.037689418,0.02376771,-0.04442215,0.0,0.0,0.0,0.0,0.0,0.0
210,0.92718506,0,-0.020812897,0.25849938,0.02153778,0.0,0.0,0.0,0.0,0.0,0.0
211,0.93148804,0,-0.074233815,-0.04830718,0.05838108,0.0,0.0,0.0,0.0,0.0,0.0
212,0.935791,0,-0.010824574,0.03477931,0.003540039,0.0,0.0,0.0,0.0,0.0,0.0
213,0.940094,0,-0.007631747,0.19421506,0.0062589645,0.0,0.0,0.0,0.0,0.0,0.0
214,0.944397,0,-0.08822289,0.094162226,0.080934525,0.0,0.0,0.0,0.0,0.0,0.0
215,0.94869995,0,-0.088388324,0.094653845,0.08233166,0.0,0.0,0.0,0.0,0.0,0.0
216,0.9530029,0,0.018111663,0.020663738,-0.020215034,0.0,0.0,0.0,0.0,0.0,0.0
217,0.9573059,0,-0.034245342,-0.08943772,0.023785591,0.0,0.0,0.0,0.0,0.0,0.0
218,0.9616089,0,0.017628865,0.030822039,-0.01768589,0.0,0.0,0.0,0.0,0.0,0.0
219,0.9677124,0,-0.0959795,-0.07893777,0.083911896,0.0,0.0,0.0,0.0,0.0,0.0
220,0.9738159,0,-0.095864326,-0.07858205,0.0842247,0.0,0.0,0.0,0.0,0.0,0.0
221,0.97994995,0,-0.0067619216,0.006580591,0.0046520233,0.0,0.0,0.0,0.0,0.0,0.0
222,0.98513794,0,0.034390345,-0.032794714,-0.037631035,0.0,0.0,0.0,0.0,0.0,0.0
223,0.9893799,0,-0.0051664244,0.11681104,0.006893158,0.0,0.0,0.0,0.0,0.0,0.0
224,0.9936218,0,-0.02592769,0.108709574,0.026940346,0.0,0.0,0.0,0.0,0.0,0.0
225,0.99786377,0,0.07455529,-0.14017987,-0.07996273,0.0,0.0,0.0,0.0,0.0,0.0
226,1.0021057,0,-0.002527682,-0.010773897,-0.0011320114,0.0,0.0,0.0,0.0,0.0,0.0
227,1.0063477,0,-0.039565414,-0.13318706,0.029500008,0.0,0.0,0.0,0.0,0.0,0.0
228,1.0105896,0,-0.15004505,-0.17255473,0.13302326,0.0,0.0,0.0,0.0,0.0,0.0
229,1.0148315,0,-0.018924369,0.0046818256,0.018696785,0.0,0.0,0.0,0.0,0.0,0.0
230,1.0190735,0,-0.08812511,-0.061023712,0.08095455,0.0,0.0,0.0,0.0,0.0,0.0
231,1.0233154,0,-0.08306144,-0.001768589,0.076272964,0.0,0.0,0.0,0.0,0.0,0.0
232,1.0275574,0,-0.001031829,-0.04786229,-0.0028209686,0.0,0.0,0.0,0.0,0.0,0.0
233,1.0317993,0,0.019058542,-0.027187824,-0.01936245,0.0,0.0,0.0,0.0,0.0,0.0
234,1.0360413,0,0.057402477,-0.094338655,-0.057948112,0.0,0.0,0.0,0.0,0.0,0.0
235,1.0402832,0,0.049552158,-0.04804635,-0.046284676,0.0,0.0,0.0,0.0,0.0,0.0
236,1.0445251,0,-0.00805415,-0.026711226,0.008922577,0.0,0.0,0.0,0.0,0.0,0.0
237,1.0487671,0,0.021381618,0.1324029,-0.010857582,0.0,0.0,0.0,0.0,0.0,0.0
238,1.053009,0,0.099030435,0.013431311,-0.08792019,0.0,0.0,0.0,0.0,0.0,0.0
239,1.057251,0,0.18623409,-0.025393248,-0.17308807,0.0,0.0,0.0,0.0,0.0,0.0
240,1.0614929,0,0.083278045,0.18120456,-0.06493759,0.0,0.0,0.0,0.0,0.0,0.0
241,1.0657349,0,0.1398605,0.14987874,-0.120010376,0.0,0.0,0.0,0.0,0.0,0.0
242,1.0699768,0,0.14543095,-0.023212194,-0.13046932,0.0,0.0,0.0,0.0,0.0,0.0
243,1.0742188,0,0.09502484,0.09422374,-0.07868576,0.0,0.0,0.0,0.0,0.0,0.0
244,1.0784607,0,-0.012893287,-0.0013289452,0.022491455,0.0,0.0,0.0,0.0,0.0,0.0
245,1.0827026,0,0.045780793,0.12913346,-0.02902031,0.0,0.0,0.0,0.0,0.0,0.0
246,1.0869446,0,0.055192724,-0.044565916,-0.04507065,0.0,0.0,0.0,0.0,0.0,0.0
247,1.0911865,0,-0.025216786,0.076933146,0.036912918,0.0,0.0,0.0,0.0,0.0,0.0
248,1.0954285,0,-0.021928174,0.097390175,0.03518486,0.0,0.0,0.0,0.0,0.0,0.0
249,1.1002502,0,-0.10342571,0.015262842,0.10744095,0.0,0.0,0.0,0.0,0.0,0.0
250,1.105072,0,-0.10336803,0.015434742,0.10734463,0.0,0.0,0.0,0.0,0.0,0.0
251,1.1099243,0,-0.037919223,-0.15972066,0.03967762,0.0,0.0,0.0,0.0,0.0,0.0
252,1.1147461,0,-0.1608882,-0.18871093,0.15569305,0.0,0.0,0.0,0.0,0.0,0.0
253,1.1195984,0,-0.08020611,-0.027455568,0.08493042,0.0,0.0,0.0,0.0,0.0,0.0
254,1.1244202,0,0.010993766,0.027140856,0.0014390945,0.0,0.0,0.0,0.0,0.0,0.0
255,1.1292725,0,-0.038594723,0.112226486,0.050653458,0.0,0.0,0.0,0.0,0.0,0.0
256,1.1340942,0,-0.05920738,0.077932596,0.0677824,0.0,0.0,0.0,0.0,0.0,0.0
257,1.1389465,0,0.0073639024,-0.16436052,-0.003042221,0.0,0.0,0.0,0.0,0.0,0.0
258,1.1437683,0,0.10895024,0.013449669,-0.09171772,0.0,0.0,0.0,0.0,0.0,0.0
259,1.1485901,0,-0.02459064,-0.076126814,0.030069351,0.0,0.0,0.0,0.0,0.0,0.0
260,1.1524963,0,0.053975016,-0.006906748,-0.042355537,0.0,0.0,0.0,0.0,0.0,0.0
261,1.1564026,0,-0.06639853,-0.018594265,0.07006359,0.0,0.0,0.0,0.0,0.0,0.0
262,1.1603088,0,-0.073753044,-0.13880897,0.070715904,0.0,0.0,0.0,0.0,0.0,0.0
263,1.1642151,0,-0.019791989,0.20238757,0.032248497,0.0,0.0,0.0,0.0,0.0,0.0
264,1.1681213,0,-0.109077215,0.04089284,0.106972694,0.0,0.0,0.0,0.0,0.0,0.0
265,1.1720276,0,-0.0022975933,0.078897,0.007836342,0.0,0.0,0.0,0.0,0.0,0.0
266,1.1759338,0,-0.0012358706,-0.030509233,0.0019569397,0.0,0.0,0.0,0.0,0.0,0.0
267,1.1798401,0,-0.0630835,-0.2778747,0.048975945,0.0,0.0,0.0,0.0,0.0,0.0
268,1.1837463,0,0.036732137,-0.07004118,-0.03591919,0.0,0.0,0.0,0.0,0.0,0.0
269,1.1876526,0,0.098622784,-3.941059E-4,-0.0934248,0.0,0.0,0.0,0.0,0.0,0.0
270,1.1915588,0,0.06650601,-0.03687358,-0.062726974,0.0,0.0,0.0,0.0,0.0,0.0
271,1.1954651,0,0.12902878,-0.07635379,-0.1251316,0.0,0.0,0.0,0.0,0.0,0.0
272,1.199585,0,0.12895356,-0.07616186,-0.12476444,0.0,0.0,0.0,0.0,0.0,0.0
273,1.2043152,0,0.006514402,0.18993402,0.0022888184,0.0,0.0,0.0,0.0,0.0,0.0
274,1.2090149,0,0.11940174,0.2359631,-0.1019907,0.0,0.0,0.0,0.0,0.0,0.0
275,1.2137451,0,0.19002865,0.09873295,-0.17423916,0.0,0.0,0.0,0.0,0.0,0.0
276,1.2184448,0,0.039893046,0.16824865,-0.028556824,0.0,0.0,0.0,0.0,0.0,0.0
277,1.223175,0,0.028323906,-0.08774066,-0.027478218,0.0,0.0,0.0,0.0,0.0,0.0
278,1.2278748,0,0.0021045376,0.032387495,0.0041151047,0.0,0.0,0.0,0.0,0.0,0.0
279,1.232605,0,0.03150685,-0.0425117,-0.026593208,0.0,0.0,0.0,0.0,0.0,0.0
280,1.2373047,0,0.03161855,-0.04215789,-0.02676773,0.0,0.0,0.0,0.0,0.0,0.0
281,1.2420349,0,0.06843127,0.10599446,-0.055602074,0.0,0.0,0.0,0.0,0.0,0.0
282,1.2467346,0,-0.008594705,-0.13501334,0.0053310394,0.0,0.0,0.0,0.0,0.0,0.0
283,1.2514648,0,0.08064553,-0.07020831,-0.0753603,0.0,0.0,0.0,0.0,0.0,0.0
284,1.2561646,0,0.084158406,0.05094552,-0.07258415,0.0,0.0,0.0,0.0,0.0,0.0
285,1.2608948,0,-0.085596114,0.006640196,0.08533859,0.0,0.0,0.0,0.0,0.0,0.0
286,1.2655945,0,-0.034852058,0.072524786,0.038721085,0.0,0.0,0.0,0.0,0.0,0.0
287,1.2703247,0,-0.09601501,0.045469046,0.097296715,0.0,0.0,0.0,0.0,0.0,0.0
288,1.2750549,0,-0.10125613,-0.008509874,0.097112656,0.0,0.0,0.0,0.0,0.0,0.0
289,1.2797546,0,-0.024985073,0.009175777,0.027967453,0.0,0.0,0.0,0.0,0.0,0.0
290,1.2844849,0,-0.07899676,0.045400143,0.082297325,0.0,0.0,0.0,0.0,0.0,0.0
291,1.2891846,0,0.002278613,0.015985012,0.0042848587,0.0,0.0,0.0,0.0,0.0,0.0
292,1.2935791,0,0.056352332,0.016347647,-0.045609474,0.0,0.0,0.0,0.0,0.0,0.0
293,1.2979431,0,-0.10895185,-0.03360772,0.10786533,0.0,0.0,0.0,0.0,0.0,0.0
294,1.3023071,0,-0.013438566,-0.07515216,0.015428543,0.0,0.0,0.0,0.0,0.0,0.0
295,1.3066711,0,0.04380153,0.0569551,-0.031638145,0.0,0.0,0.0,0.0,0.0,0.0
296,1.3110657,0,-0.024267478,0.09980893,0.03166294,0.0,0.0,0.0,0.0,0.0,0.0
297,1.3154297,0,0.0031006206,0.06963372,0.0075216293,0.0,0.0,0.0,0.0,0.0,0.0
298,1.3197937,0,0.037396654,0.02809,-0.026967049,0.0,0.0,0.0,0.0,0.0,0.0
299,1.3241882,0,-0.044677407,0.19144845,0.056643486,0.0,0.0,0.0,0.0,0.0,0.0
300,1.3285522,0,-0.12286545,0.11210418,0.12605762,0.0,0.0,0.0,0.0,0.0,0.0
301,1.3329163,0,-0.04727274,0.15925908,0.057003975,0.0,0.0,0.0,0.0,0.0,0.0
302,1.3373108,0,-0.013124792,0.107414484,0.023760796,0.0,0.0,0.0,0.0,0.0,0.0
303,1.3416748,0,0.07415995,0.11265993,-0.059401512,0.0,0.0,0.0,0.0,0.0,0.0
304,1.3460388,0,-0.103999615,0.14066625,0.11108875,0.0,0.0,0.0,0.0,0.0,0.0
305,1.3504333,0,0.10471082,0.060774326,-0.08940029,0.0,0.0,0.0,0.0,0.0,0.0
306,1.3547974,0,0.061840445,0.111074686,-0.0450058,0.0,0.0,0.0,0.0,0.0,0.0
307,1.3591614,0,0.016526641,0.12652588,-0.0019769669,0.0,0.0,0.0,0.0,0.0,0.0
308,1.3635559,0,0.09475,0.20591521,-0.068556786,0.0,0.0,0.0,0.0,0.0,0.0
309,1.3679199,0,-0.010955719,0.03130746,0.023077965,0.0,0.0,0.0,0.0,0.0,0.0
310,1.3722839,0,0.08823548,0.11023831,-0.06646633,0.0,0.0,0.0,0.0,0.0,0.0
311,1.3766785,0,0.102067664,0.07743859,-0.081768036,0.0,0.0,0.0,0.0,0.0,0.0
312,1.3810425,0,0.1277638,0.07205367,-0.10387802,0.0,0.0,0.0,0.0,0.0,0.0
313,1.3854065,0,-0.056159005,-0.091034174,0.063840866,0.0,0.0,0.0,0.0,0.0,0.0
314,1.389801,0,-0.022396235,0.018192053,0.0364666,0.0,0.0,0.0,0.0,0.0,0.0
315,1.394165,0,0.03007211,-0.16721559,-0.019577026,0.0,0.0,0.0,0.0,0.0,0.0
316,1.398529,0,0.097596675,-0.02637887,-0.07729435,0.0,0.0,0.0,0.0,0.0,0.0
317,1.4029236,0,0.0118576605,-0.027763605,0.0030107498,0.0,0.0,0.0,0.0,0.0,0.0
318,1.4072876,0,-0.04945986,-0.064977884,0.059448242,0.0,0.0,0.0,0.0,0.0,0.0
319,1.4116516,0,-0.031145154,-0.065820456,0.044639587,0.0,0.0,0.0,0.0,0.0,0.0
320,1.4160461,0,-0.028528003,-0.023991108,0.043115616,0.0,0.0,0.0,0.0,0.0,0.0
321,1.4204102,0,-0.02791719,0.045173883,0.045707703,0.0,0.0,0.0,0.0,0.0,0.0
322,1.4247742,0,0.06453289,-0.07768369,-0.04599476,0.0,0.0,0.0,0.0,0.0,0.0
323,1.4291687,0,-0.009556113,0.09069085,0.033431053,0.0,0.0,0.0,0.0,0.0,0.0
324,1.4335327,0,-0.08530711,-0.13478184,0.095887184,0.0,0.0,0.0,0.0,0.0,0.0
325,1.4378967,0,0.16326597,0.1095078,-0.12743187,0.0,0.0,0.0,0.0,0.0,0.0
326,1.4422913,0,-0.005190281,-0.061110258,0.026175499,0.0,0.0,0.0,0.0,0.0,0.0
327,1.4466553,0,0.0891958,-0.008719683,-0.058012962,0.0,0.0,0.0,0.0,0.0,0.0
328,1.4510193,0,0.100317046,0.022451162,-0.06610298,0.0,0.0,0.0,0.0,0.0,0.0
329,1.4554138,0,0.10013051,0.022667885,-0.06479454,0.0,0.0,0.0,0.0,0.0,0.0
330,1.4597778,0,0.034125343,-0.046681643,-0.0064668655,0.0,0.0,0.0,0.0,0.0,0.0
331,1.4641418,0,0.013921188,0.09448457,0.020334244,0.0,0.0,0.0,0.0,0.0,0.0
332,1.4685364,0,-0.03823705,-0.03422737,0.06279278,0.0,0.0,0.0,0.0,0.0,0.0
333,1.4729004,0,0.081702635,0.103432894,-0.04357338,0.0,0.0,0.0,0.0,0.0,0.0
334,1.4772644,0,0.116837904,0.050657034,-0.07857132,0.0,0.0,0.0,0.0,0.0,0.0
335,1.4816589,0,-0.07693906,-0.029483557,0.09988117,0.0,0.0,0.0,0.0,0.0,0.0
336,1.486023,0,-0.017942352,0.07391381,0.049654007,0.0,0.0,0.0,0.0,0.0,0.0
337,1.490387,0,0.089075565,0.18828559,-0.047451973,0.0,0.0,0.0,0.0,0.0,0.0
338,1.4947815,0,0.03251566,-0.032815218,-0.0021104813,0.0,0.0,0.0,0.0,0.0,0.0
339,1.4991455,0,0.025727706,-0.06926322,0.0022411346,0.0,0.0,0.0,0.0,0.0,0.0
340,1.5035095,0,-0.08488555,-0.12705326,0.10307884,0.0,0.0,0.0,0.0,0.0,0.0
341,1.507904,0,-0.05237867,-0.08099079,0.07406235,0.0,0.0,0.0,0.0,0.0,0.0
342,1.5122681,0,0.037281543,0.016276121,-0.008379936,0.0,0.0,0.0,0.0,0.0,0.0
343,1.5166321,0,0.020794393,0.00905776,0.003452301,0.0,0.0,0.0,0.0,0.0,0.0
344,1.5210266,0,-0.040688857,-0.060226202,0.055952072,0.0,0.0,0.0,0.0,0.0,0.0
345,1.5253906,0,-0.028643442,0.03962636,0.048166275,0.0,0.0,0.0,0.0,0.0,0.0
346,1.5297546,0,-0.052128613,0.044643402,0.06943035,0.0,0.0,0.0,0.0,0.0,0.0
347,1.5341492,0,0.09070714,0.11396861,-0.064650536,0.0,0.0,0.0,0.0,0.0,0.0
348,1.5385132,0,0.12416911,-0.0047152042,-0.101584435,0.0,0.0,0.0,0.0,0.0,0.0
349,1.5428772,0,4.2309053E-4,-0.05423069,0.010576248,0.0,0.0,0.0,0.0,0.0,0.0
350,1.5472717,0,0.044606417,0.10866451,-0.024487495,0.0,0.0,0.0,0.0,0.0,0.0
351,1.5516357,0,0.077539384,-0.045557737,-0.061267853,0.0,0.0,0.0,0.0,0.0,0.0
352,1.5559998,0,-0.09031622,0.034894228,0.09999657,0.0,0.0,0.0,0.0,0.0,0.0
353,1.5603943,0,0.011017473,0.15477967,0.008019447,0.0,0.0,0.0,0.0,0.0,0.0
354,1.5647583,0,-0.036046475,0.09568715,0.051916122,0.0,0.0,0.0,0.0,0.0,0.0
355,1.5691223,0,-0.0075773876,0.062562704,0.021873474,0.0,0.0,0.0,0.0,0.0,0.0
356,1.5735168,0,-0.017471714,0.06414032,0.032878876,0.0,0.0,0.0,0.0,0.0,0.0
357,1.5778809,0,0.11730929,0.16846609,-0.090218544,0.0,0.0,0.0,0.0,0.0,0.0
358,1.5822449,0,-0.09803066,0.094867945,0.111516,0.0,0.0,0.0,0.0,0.0,0.0
359,1.5866394,0,-0.10909006,0.059072733,0.1232481,0.0,0.0,0.0,0.0,0.0,0.0
360,1.5910034,0,0.043662876,-0.021697044,-0.023118973,0.0,0.0,0.0,0.0,0.0,0.0
361,1.5953674,0,-0.13397257,0.026103258,0.1478138,0.0,0.0,0.0,0.0,0.0,0.0
362,1.599762,0,-0.047449067,0.10467267,0.06982231,0.0,0.0,0.0,0.0,0.0,0.0
363,1.604126,0,0.04841134,0.01995945,-0.0229702,0.0,0.0,0.0,0.0,0.0,0.0
364,1.60849,0,0.1472833,0.06945777,-0.11559963,0.0,0.0,0.0,0.0,0.0,0.0
365,1.6128845,0,-0.0063737016,0.21486211,0.03617382,0.0,0.0,0.0,0.0,0.0,0.0
366,1.6172485,0,-0.0034308862,-0.07850742,0.019771576,0.0,0.0,0.0,0.0,0.0,0.0
367,1.6216125,0,0.052823335,0.06281352,-0.028496742,0.0,0.0,0.0,0.0,0.0,0.0
368,1.6260071,0,0.018691959,-0.014623404,8.8119507E-4,0.0,0.0,0.0,0.0,0.0,0.0
369,1.6303711,0,0.08317976,-0.14736843,-0.06687641,0.0,0.0,0.0,0.0,0.0,0.0
370,1.6347351,0,-0.046326518,-0.11925101,0.05699253,0.0,0.0,0.0,0.0,0.0,0.0
371,1.6391296,0,0.047225013,-0.010561705,-0.027840614,0.0,0.0,0.0,0.0,0.0,0.0
372,1.6434937,0,-0.008875875,-0.047032595,0.020581245,0.0,0.0,0.0,0.0,0.0,0.0
373,1.6478577,0,0.019517334,-0.05050373,-0.0066452026,0.0,0.0,0.0,0.0,0.0,0.0
374,1.6522522,0,-0.04372649,-0.0023479462,0.055674553,0.0,0.0,0.0,0.0,0.0,0.0
375,1.6566162,0,-0.086516365,-0.110198736,0.0914669,0.0,0.0,0.0,0.0,0.0,0.0
376,1.6609802,0,0.016035827,0.11659026,0.007183075,0.0,0.0,0.0,0.0,0.0,0.0
377,1.6653748,0,-0.03072877,-0.080177546,0.041542053,0.0,0.0,0.0,0.0,0.0,0.0
378,1.6697388,0,0.032327592,-0.046857595,-0.014451981,0.0,0.0,0.0,0.0,0.0,0.0
379,1.6741028,0,-0.090192184,0.08405995,0.10824299,0.0,0.0,0.0,0.0,0.0,0.0
380,1.6784973,0,0.07920012,0.10706544,-0.051241875,0.0,0.0,0.0,0.0,0.0,0.0
381,1.6828613,0,-0.03484182,0.07211995,0.053287506,0.0,0.0,0.0,0.0,0.0,0.0
382,1.6872253,0,0.068194106,0.027620554,-0.04570961,0.0,0.0,0.0,0.0,0.0,0.0
383,1.6915894,0,0.04639916,0.035417795,-0.023759842,0.0,0.0,0.0,0.0,0.0,0.0
384,1.6959839,0,0.054177597,0.06406498,-0.02910328,0.0,0.0,0.0,0.0,0.0,0.0
385,1.7003479,0,0.0377274,0.10098839,-0.011318207,0.0,0.0,0.0,0.0,0.0,0.0
386,1.7047119,0,0.037609026,0.10077953,-0.01158905,0.0,0.0,0.0,0.0,0.0,0.0
387,1.7091064,0,0.048387498,0.0020046234,-0.025590897,0.0,0.0,0.0,0.0,0.0,0.0
388,1.7134705,0,0.04032895,0.043112993,-0.017721176,0.0,0.0,0.0,0.0,0.0,0.0
389,1.7178345,0,0.14844842,-0.03407979,-0.122327805,0.0,0.0,0.0,0.0,0.0,0.0
390,1.722229,0,-0.019865556,0.055772543,0.041231155,0.0,0.0,0.0,0.0,0.0,0.0
391,1.726593,0,0.023722636,0.031548977,-0.0031023026,0.0,0.0,0.0,0.0,0.0,0.0
392,1.730957,0,0.0037981588,0.021310568,0.017107964,0.0,0.0,0.0,0.0,0.0,0.0
393,1.7353516,0,0.013962315,-0.115092754,4.2438507E-4,0.0,0.0,0.0,0.0,0.0,0.0
394,1.7397156,0,-0.02094893,0.02886653,0.038157463,0.0,0.0,0.0,0.0,0.0,0.0
395,1.7440796,0,-0.11425659,0.02063775,0.12329483,0.0,0.0,0.0,0.0,0.0,0.0
396,1.7484741,0,-0.058445036,0.023077726,0.07239151,0.0,0.0,0.0,0.0,0.0,0.0
397,1.7528381,0,-0.073051825,-0.009080172,0.08502388,0.0,0.0,0.0,0.0,0.0,0.0
398,1.7572021,0,-0.027094377,-0.05386281,0.039250374,0.0,0.0,0.0,0.0,0.0,0.0
399,1.7615967,0,-0.13703209,0.04339671,0.14707279,0.0,0.0,0.0,0.0,0.0,0.0
400,1.7659607,0,-0.13062851,-0.0026021004,0.14078236,0.0,0.0,0.0,0.0,0.0,0.0
401,1.7703247,0,-0.008402405,0.07083869,0.027980804,0.0,0.0,0.0,0.0,0.0,0.0
402,1.7747192,0,-0.06931162,0.13987517,0.08735561,0.0,0.0,0.0,0.0,0.0,0.0
403,1.7790833,0,-0.01736289,0.13223195,0.038085938,0.0,0.0,0.0,0.0,0.0,0.0
404,1.7834473,0,0.09825261,0.002016306,-0.078009605,0.0,0.0,0.0,0.0,0.0,0.0
405,1.7878418,0,0.0043189544,0.18849373,0.018500328,0.0,0.0,0.0,0.0,0.0,0.0
406,1.7922058,0,-0.021193786,0.23114753,0.04371643,0.0,0.0,0.0,0.0,0.0,0.0
407,1.7965698,0,-0.06379263,0.16120744,0.08099651,0.0,0.0,0.0,0.0,0.0,0.0
408,1.8009644,0,-0.017191602,0.081015825,0.033821106,0.0,0.0,0.0,0.0,0.0,0.0
409,1.8053284,0,0.030745449,0.010722876,-0.016379356,0.0,0.0,0.0,0.0,0.0,0.0
410,1.8096924,0,0.06398043,0.06986451,-0.043182373,0.0,0.0,0.0,0.0,0.0,0.0
411,1.8140869,0,-0.059173316,0.108472586,0.07523155,0.0,0.0,0.0,0.0,0.0,0.0
412,1.8184509,0,0.107247666,0.14941955,-0.07882595,0.0,0.0,0.0,0.0,0.0,0.0
413,1.822815,0,0.031587005,0.07526469,-0.0092897415,0.0,0.0,0.0,0.0,0.0,0.0
414,1.8272095,0,0.037223056,-0.11321831,-0.021156311,0.0,0.0,0.0,0.0,0.0,0.0
415,1.8315735,0,0.15751667,0.069592714,-0.12914371,0.0,0.0,0.0,0.0,0.0,0.0
416,1.8359375,0,0.12110673,-0.12393117,-0.100338936,0.0,0.0,0.0,0.0,0.0,0.0
417,1.840332,0,0.0906574,-0.08011794,-0.07033062,0.0,0.0,0.0,0.0,0.0,0.0
418,1.844696,0,0.007231878,-0.15033746,0.006579399,0.0,0.0,0.0,0.0,0.0,0.0
419,1.84906,0,0.23785394,-0.09824872,-0.21090412,0.0,0.0,0.0,0.0,0.0,0.0
420,1.8534546,0,0.004117297,-0.12841058,0.0115356445,0.0,0.0,0.0,0.0,0.0,0.0
421,1.8578186,0,0.19432802,-0.039904833,-0.1663475,0.0,0.0,0.0,0.0,0.0,0.0
422,1.8621826,0,0.06356047,-0.14578986,-0.046901703,0.0,0.0,0.0,0.0,0.0,0.0
423,1.8665771,0,0.12726656,-0.013172865,-0.10117912,0.0,0.0,0.0,0.0,0.0,0.0
424,1.8709412,0,-0.04487373,0.048410416,0.063632965,0.0,0.0,0.0,0.0,0.0,0.0
425,1.8753052,0,0.041754857,-0.003518343,-0.022162437,0.0,0.0,0.0,0.0,0.0,0.0
426,1.8796997,0,0.009050848,0.16082835,0.019005775,0.0,0.0,0.0,0.0,0.0,0.0
427,1.8840637,0,-0.08118525,0.097108126,0.100081444,0.0,0.0,0.0,0.0,0.0,0.0
428,1.8884277,0,0.012202086,0.14618659,0.012595177,0.0,0.0,0.0,0.0,0.0,0.0
429,1.8928223,0,-0.06255561,0.02442336,0.07888222,0.0,0.0,0.0,0.0,0.0,0.0
430,1.8971863,0,-0.1299797,0.10317922,0.1458273,0.0,0.0,0.0,0.0,0.0,0.0
431,1.9015503,0,-0.04486534,0.14078307,0.06659794,0.0,0.0,0.0,0.0,0.0,0.0
432,1.9059448,0,-0.15181701,0.110575914,0.16713428,0.0,0.0,0.0,0.0,0.0,0.0
433,1.9103088,0,0.034370467,0.09098673,-0.008979797,0.0,0.0,0.0,0.0,0.0,0.0
434,1.9146729,0,-0.07825729,0.1743617,0.09928703,0.0,0.0,0.0,0.0,0.0,0.0
435,1.9190674,0,0.036321923,0.2021954,-0.0063552856,0.0,0.0,0.0,0.0,0.0,0.0
436,1.9234314,0,-0.2138742,0.040662527,0.22500324,0.0,0.0,0.0,0.0,0.0,0.0
437,1.9277954,0,-0.056968465,0.073623896,0.07630253,0.0,0.0,0.0,0.0,0.0,0.0
438,1.93219,0,-0.06602137,0.1767695,0.090509415,0.0,0.0,0.0,0.0,0.0,0.0
439,1.936554,0,-0.024046345,0.16958833,0.05071354,0.0,0.0,0.0,0.0,0.0,0.0
440,1.940918,0,-0.121998236,0.11591172,0.14328098,0.0,0.0,0.0,0.0,0.0,0.0
441,1.9453125,0,0.076079085,0.19179153,-0.042601585,0.0,0.0,0.0,0.0,0.0,0.0
442,1.9496765,0,0.070016295,0.124985695,-0.04055214,0.0,0.0,0.0,0.0,0.0,0.0
443,1.9540405,0,0.06993486,0.12581849,-0.038687706,0.0,0.0,0.0,0.0,0.0,0.0
444,1.958435,0,0.11462785,0.05133295,-0.08470249,0.0,0.0,0.0,0.0,0.0,0.0
445,1.9627991,0,0.12105858,0.041936636,-0.08797932,0.0,0.0,0.0,0.0,0.0,0.0
446,1.9672546,0,0.103475854,0.046363592,-0.07049751,0.0,0.0,0.0,0.0,0.0,0.0
447,1.9716797,0,-0.028974263,0.07730794,0.05561161,0.0,0.0,0.0,0.0,0.0,0.0
448,1.9761353,0,-0.07117903,0.021153688,0.09435749,0.0,0.0,0.0,0.0,0.0,0.0
449,1.9805908,0,0.027121173,-0.0019102097,0.0023889542,0.0,0.0,0.0,0.0,0.0,0.0
450,1.9850159,0,-0.10363552,-0.0031497478,0.1275425,0.0,0.0,0.0,0.0,0.0,0.0
451,1.9894714,0,0.09694204,-0.062088728,-0.06558132,0.0,0.0,0.0,0.0,0.0,0.0
452,1.993927,0,0.022790091,0.07485318,0.0111551285,0.0,0.0,0.0,0.0,0.0,0.0
453,1.9983826,0,-0.030643,0.048705816,0.06149006,0.0,0.0,0.0,0.0,0.0,0.0
454,2.0028076,0,-0.08586031,0.061825514,0.11451435,0.0,0.0,0.0,0.0,0.0,0.0
455,2.0072632,0,0.086117,0.115713835,-0.046769142,0.0,0.0,0.0,0.0,0.0,0.0
456,2.0117188,0,-0.042058572,0.05442357,0.07272816,0.0,0.0,0.0,0.0,0.0,0.0
457,2.0161438,0,-0.058671862,-0.0014879704,0.08750057,0.0,0.0,0.0,0.0,0.0,0.0
458,2.0205994,0,-0.032809466,0.04270339,0.064043045,0.0,0.0,0.0,0.0,0.0,0.0
459,2.025055,0,0.060941815,-0.034311533,-0.02735424,0.0,0.0,0.0,0.0,0.0,0.0
460,2.02948,0,0.021418856,0.14914489,0.018826485,0.0,0.0,0.0,0.0,0.0,0.0
461,2.0339355,0,-0.03130068,0.07815623,0.06592083,0.0,0.0,0.0,0.0,0.0,0.0
462,2.038391,0,0.061895296,0.18640685,-0.018979073,0.0,0.0,0.0,0.0,0.0,0.0
463,2.0428162,0,-0.017869977,0.17697263,0.05718708,0.0,0.0,0.0,0.0,0.0,0.0
464,2.0472717,0,-0.058852226,0.035685062,0.09204388,0.0,0.0,0.0,0.0,0.0,0.0
465,2.0517273,0,-0.0321161,-0.041114807,0.06317139,0.0,0.0,0.0,0.0,0.0,0.0
466,2.0561829,0,-0.05071333,0.12864304,0.0897007,0.0,0.0,0.0,0.0,0.0,0.0
467,2.060608,0,0.05209191,0.08446884,-0.008712769,0.0,0.0,0.0,0.0,0.0,0.0
468,2.0650635,0,0.0066510607,0.24426293,0.041819572,0.0,0.0,0.0,0.0,0.0,0.0
469,2.069519,0,-0.027742056,-0.21710825,0.057434082,0.0,0.0,0.0,0.0,0.0,0.0
470,2.073944,0,-0.14674646,-0.02172923,0.18278408,0.0,0.0,0.0,0.0,0.0,0.0
471,2.0783997,0,-0.08969943,-0.16057754,0.12473202,0.0,0.0,0.0,0.0,0.0,0.0
472,2.0828552,0,0.11743383,-0.14684272,-0.06641197,0.0,0.0,0.0,0.0,0.0,0.0
473,2.0872803,0,0.045864686,0.14863944,0.01386261,0.0,0.0,0.0,0.0,0.0,0.0
474,2.0917358,0,0.09515016,-0.102748156,-0.04040432,0.0,0.0,0.0,0.0,0.0,0.0
475,2.0961914,0,0.069684565,0.021126509,-0.0069942474,0.0,0.0,0.0,0.0,0.0,0.0
476,2.100647,0,0.06687899,-0.09734893,-0.00917244,0.0,0.0,0.0,0.0,0.0,0.0
477,2.105072,0,0.087478116,-0.15790391,-0.031259537,0.0,0.0,0.0,0.0,0.0,0.0
478,2.1095276,0,-0.011991246,-0.14346457,0.06427574,0.0,0.0,0.0,0.0,0.0,0.0
479,2.1139832,0,0.07313983,-0.14998484,-0.014917374,0.0,0.0,0.0,0.0,0.0,0.0
480,2.1184082,0,0.19622698,0.0526433,-0.121331215,0.0,0.0,0.0,0.0,0.0,0.0
481,2.1228638,0,0.10779007,-0.2669797,-0.05114937,0.0,0.0,0.0,0.0,0.0,0.0
482,2.1273193,0,0.01795237,-0.2468884,0.03705883,0.0,0.0,0.0,0.0,0.0,0.0
483,2.1317444,0,-0.019197403,0.0017437935,0.081401825,0.0,0.0,0.0,0.0,0.0,0.0
484,2.1362,0,-0.0046852957,0.032091618,0.06900406,0.0,0.0,0.0,0.0,0.0,0.0
485,2.1406555,0,0.1351987,-0.004131794,-0.06433296,0.0,0.0,0.0,0.0,0.0,0.0
486,2.1450806,0,-0.03525886,-0.042515993,0.095638275,0.0,0.0,0.0,0.0,0.0,0.0
487,2.1495361,0,0.007187279,0.0151638985,0.05589485,0.0,0.0,0.0,0.0,0.0,0.0
488,2.1539917,0,0.08071852,0.033583403,-0.011408806,0.0,0.0,0.0,0.0,0.0,0.0
489,2.1584473,0,0.15093099,-0.03886795,-0.07910538,0.0,0.0,0.0,0.0,0.0,0.0
490,2.1628723,0,-0.029635368,0.051098585,0.09576607,0.0,0.0,0.0,0.0,0.0,0.0
491,2.167328,0,0.085214436,0.020244837,-0.013349533,0.0,0.0,0.0,0.0,0.0,0.0
492,2.1717834,0,0.05413939,-0.053694725,0.01576233,0.0,0.0,0.0,0.0,0.0,0.0
493,2.1762085,0,0.07026982,0.05468774,0.005651474,0.0,0.0,0.0,0.0,0.0,0.0
494,2.180664,0,0.09589358,-0.017426014,-0.022986412,0.0,0.0,0.0,0.0,0.0,0.0
495,2.1851196,0,0.084171355,0.12326217,-0.00605011,0.0,0.0,0.0,0.0,0.0,0.0
496,2.1895447,0,0.031095909,0.04823661,0.042349815,0.0,0.0,0.0,0.0,0.0,0.0
497,2.1940002,0,0.11897336,0.036027193,-0.041934013,0.0,0.0,0.0,0.0,0.0,0.0
498,2.1984558,0,-0.006327031,0.033072233,0.07269764,0.0,0.0,0.0,0.0,0.0,0.0
499,2.2029114,0,0.05079162,0.019786835,0.01673603,0.0,0.0,0.0,0.0,0.0,0.0
500,2.2073364,0,0.049952745,0.017687798,0.015670776,0.0,0.0,0.0,0.0,0.0,0.0
501,2.211792,0,0.11257166,0.12053943,-0.041366577,0.0,0.0,0.0,0.0,0.0,0.0
502,2.2162476,0,0.026910888,-0.22126985,0.023992538,0.0,0.0,0.0,0.0,0.0,0.0
503,2.2206726,0,0.08996102,0.019433737,-0.026080132,0.0,0.0,0.0,0.0,0.0,0.0
504,2.2251282,0,0.12282415,-0.07328868,-0.06350708,0.0,0.0,0.0,0.0,0.0,0.0
505,2.2295837,0,-0.04520662,0.0273602,0.09760475,0.0,0.0,0.0,0.0,0.0,0.0
506,2.2340088,0,0.013599979,-0.011641741,0.04007721,0.0,0.0,0.0,0.0,0.0,0.0
507,2.2384644,0,-0.08109802,-0.03507185,0.12727737,0.0,0.0,0.0,0.0,0.0,0.0
508,2.24292,0,-0.06032464,-0.09283614,0.10370636,0.0,0.0,0.0,0.0,0.0,0.0
509,2.2473755,1,-0.049662605,0.040363073,0.10018444,0.0,0.0,0.0,0.0,0.0,0.0
510,2.2518005,1,-0.046599567,0.1055572,0.09876728,0.0,0.0,0.0,0.0,0.0,0.0
511,2.256256,1,-0.15060167,0.18723655,0.20095348,0.0,0.0,0.0,0.0,0.0,0.0
512,2.2607117,1,-0.062397555,0.13417768,0.11313248,0.0,0.0,0.0,0.0,0.0,0.0
513,2.2651367,1,-0.09914172,0.13444638,0.14814472,0.0,0.0,0.0,0.0,0.0,0.0
514,2.2695923,1,-0.1396736,0.19454265,0.18834686,0.0,0.0,0.0,0.0,0.0,0.0
515,2.2740479,1,-0.13826087,0.07602763,0.18123817,0.0,0.0,0.0,0.0,0.0,0.0
516,2.278473,1,-0.0359513,0.08428359,0.08428097,0.0,0.0,0.0,0.0,0.0,0.0
517,2.2829285,1,0.031004028,0.11224985,0.023410797,0.0,0.0,0.0,0.0,0.0,0.0
518,2.287384,1,-0.06997831,0.11192489,0.120479584,0.0,0.0,0.0,0.0,0.0,0.0
519,2.291809,1,0.041877925,0.15436673,0.014881134,0.0,0.0,0.0,0.0,0.0,0.0
520,2.2962646,1,-0.038229436,0.04903531,0.08593273,0.0,0.0,0.0,0.0,0.0,0.0
521,2.3007202,1,-0.08150591,0.097934484,0.13197517,0.0,0.0,0.0,0.0,0.0,0.0
522,2.3051758,1,0.095571205,0.118891954,-0.033890724,0.0,0.0,0.0,0.0,0.0,0.0
523,2.3096008,1,0.041697577,0.13529968,0.018403053,0.0,0.0,0.0,0.0,0.0,0.0
524,2.3140564,1,0.03220503,-0.043596268,0.019276619,0.0,0.0,0.0,0.0,0.0,0.0
525,2.318512,1,0.03755267,0.06565642,0.02037716,0.0,0.0,0.0,0.0,0.0,0.0
526,2.322937,1,0.016696768,0.101019144,0.04027462,0.0,0.0,0.0,0.0,0.0,0.0
527,2.3273926,1,-0.008018104,0.035722494,0.061375618,0.0,0.0,0.0,0.0,0.0,0.0
528,2.3318481,1,-0.06623696,-0.03126192,0.11561775,0.0,0.0,0.0,0.0,0.0,0.0
529,2.3362732,1,0.04695998,0.183954,0.017315865,0.0,0.0,0.0,0.0,0.0,0.0
530,2.3407288,1,0.12124713,0.02479291,-0.060619354,0.0,0.0,0.0,0.0,0.0,0.0
531,2.3451843,1,-0.14681238,-0.075166464,0.18865585,0.0,0.0,0.0,0.0,0.0,0.0
532,2.34964,1,-0.032014832,0.056137323,0.08696747,0.0,0.0,0.0,0.0,0.0,0.0
533,2.354065,1,-0.039206535,0.115651846,0.09680748,0.0,0.0,0.0,0.0,0.0,0.0
534,2.3585205,1,-0.06320228,-0.016320944,0.112976074,0.0,0.0,0.0,0.0,0.0,0.0
535,2.362976,1,-0.027598305,-5.555153E-5,0.08098507,0.0,0.0,0.0,0.0,0.0,0.0
536,2.3674011,1,0.010714607,0.055487394,0.047319412,0.0,0.0,0.0,0.0,0.0,0.0
537,2.3718567,1,0.13987516,0.12862754,-0.07224274,0.0,0.0,0.0,0.0,0.0,0.0
538,2.3763123,1,0.041091636,0.031891108,0.018270493,0.0,0.0,0.0,0.0,0.0,0.0
539,2.3807373,1,0.054020762,0.042058468,0.00801754,0.0,0.0,0.0,0.0,0.0,0.0
540,2.3851929,1,0.14811285,0.1101954,-0.07645035,0.0,0.0,0.0,0.0,0.0,0.0
541,2.3896484,1,0.12017207,0.13108063,-0.048606873,0.0,0.0,0.0,0.0,0.0,0.0
542,2.3940735,1,0.105756834,0.004501581,-0.040462494,0.0,0.0,0.0,0.0,0.0,0.0
543,2.398529,1,0.03906633,0.16193748,0.031222343,0.0,0.0,0.0,0.0,0.0,0.0
544,2.4029846,1,0.0143612195,-0.007980108,0.047540665,0.0,0.0,0.0,0.0,0.0,0.0
545,2.4074402,1,0.0024011154,0.12855959,0.06509304,0.0,0.0,0.0,0.0,0.0,0.0
546,2.4118652,1,-0.02101983,0.058611155,0.0836277,0.0,0.0,0.0,0.0,0.0,0.0
547,2.4163208,1,-0.005306987,-4.377365E-4,0.06800747,0.0,0.0,0.0,0.0,0.0,0.0
548,2.4207764,1,0.0063926894,0.029913664,0.059084892,0.0,0.0,0.0,0.0,0.0,0.0
549,2.4252014,1,-0.031644568,0.18707299,0.100958824,0.0,0.0,0.0,0.0,0.0,0.0
550,2.429657,1,0.09446047,0.13035321,-0.020580292,0.0,0.0,0.0,0.0,0.0,0.0
551,2.4341125,1,-0.050397635,-0.05692935,0.107551575,0.0,0.0,0.0,0.0,0.0,0.0
552,2.4385376,1,0.075748175,-0.005188465,-0.0068416595,0.0,0.0,0.0,0.0,0.0,0.0
553,2.4429932,1,-0.004210798,-0.10325503,0.06279659,0.0,0.0,0.0,0.0,0.0,0.0
554,2.4474487,1,-0.028730107,-0.016633987,0.09079075,0.0,0.0,0.0,0.0,0.0,0.0
555,2.4519043,1,0.0066049416,-9.925365E-4,0.057411194,0.0,0.0,0.0,0.0,0.0,0.0
556,2.4563293,1,0.049895912,0.040599346,0.01807785,0.0,0.0,0.0,0.0,0.0,0.0
557,2.460785,1,0.04980436,0.040520668,0.018342018,0.0,0.0,0.0,0.0,0.0,0.0
558,2.4652405,1,-0.120026186,-0.045327425,0.17522335,0.0,0.0,0.0,0.0,0.0,0.0
559,2.4696655,1,-0.014325349,0.057569265,0.08123779,0.0,0.0,0.0,0.0,0.0,0.0
560,2.474121,1,-0.07046789,-0.057121515,0.13030434,0.0,0.0,0.0,0.0,0.0,0.0
561,2.4785767,1,0.04202029,-0.16144514,0.02047348,0.0,0.0,0.0,0.0,0.0,0.0
562,2.4830017,1,-0.09247579,0.009692669,0.15305519,0.0,0.0,0.0,0.0,0.0,0.0
563,2.4874573,1,-0.0061812233,-0.14328551,0.06590748,0.0,0.0,0.0,0.0,0.0,0.0
564,2.4919128,1,-0.03566374,-0.03896022,0.09872818,0.0,0.0,0.0,0.0,0.0,0.0
565,2.496338,1,-0.08295263,0.055209875,0.14679146,0.0,0.0,0.0,0.0,0.0,0.0
566,2.5007935,1,-0.077552274,-0.013135433,0.13982296,0.0,0.0,0.0,0.0,0.0,0.0
567,2.505249,1,0.066973925,-0.1254394,-5.9604645E-4,0.0,0.0,0.0,0.0,0.0,0.0
568,2.5097046,1,-0.054627746,0.021925688,0.122787476,0.0,0.0,0.0,0.0,0.0,0.0
569,2.5141296,1,-0.042571962,-0.020758867,0.11128616,0.0,0.0,0.0,0.0,0.0,0.0
570,2.5185852,1,0.14152601,0.048438787,-0.060415268,0.0,0.0,0.0,0.0,0.0,0.0
571,2.5230408,1,0.11009447,0.0032606125,-0.03513241,0.0,0.0,0.0,0.0,0.0,0.0
572,2.5274658,1,0.06366804,0.031424522,0.01237011,0.0,0.0,0.0,0.0,0.0,0.0
573,2.5319214,1,0.15096228,-0.036758184,-0.074212074,0.0,0.0,0.0,0.0,0.0,0.0
574,2.536377,1,0.067811295,0.102755785,0.0122823715,0.0,0.0,0.0,0.0,0.0,0.0
575,2.540802,1,-0.00256796,0.04854083,0.075081825,0.0,0.0,0.0,0.0,0.0,0.0
576,2.5452576,1,0.1823902,0.24985504,-0.0937376,0.0,0.0,0.0,0.0,0.0,0.0
577,2.5497131,1,0.049143776,0.03249812,0.023190498,0.0,0.0,0.0,0.0,0.0,0.0
578,2.5541687,1,-0.0959667,-0.024992943,0.1580286,0.0,0.0,0.0,0.0,0.0,0.0
579,2.5585938,1,0.100155696,-0.01761365,-0.028730392,0.0,0.0,0.0,0.0,0.0,0.0
580,2.5630493,1,0.01864745,-0.10253453,0.044836044,0.0,0.0,0.0,0.0,0.0,0.0
581,2.567505,1,-0.06404947,0.024382353,0.13060188,0.0,0.0,0.0,0.0,0.0,0.0
582,2.57193,1,0.031427294,-0.0038375854,0.03987789,0.0,0.0,0.0,0.0,0.0,0.0
583,2.5763855,1,0.054034248,-0.08830309,0.016293526,0.0,0.0,0.0,0.0,0.0,0.0
584,2.580841,1,0.028214218,0.082731485,0.048187256,0.0,0.0,0.0,0.0,0.0,0.0
585,2.585266,1,0.08496149,0.17243314,-0.0011482239,0.0,0.0,0.0,0.0,0.0,0.0
586,2.5897217,1,0.008648561,0.044276476,0.066752434,0.0,0.0,0.0,0.0,0.0,0.0
587,2.5941772,1,0.025518375,-0.074457645,0.046347618,0.0,0.0,0.0,0.0,0.0,0.0
588,2.5986328,1,0.03886123,0.023771286,0.037875175,0.0,0.0,0.0,0.0,0.0,0.0
589,2.6030579,1,-0.08796477,-0.05678296,0.1551199,0.0,0.0,0.0,0.0,0.0,0.0
590,2.6074524,1,0.041347116,0.081340075,0.037644386,0.0,0.0,0.0,0.0,0.0,0.0
591,2.6118164,1,-0.15765828,0.1392963,0.22878933,0.0,0.0,0.0,0.0,0.0,0.0
592,2.6161804,1,-0.0295815,0.14147043,0.10538864,0.0,0.0,0.0,0.0,0.0,0.0
593,2.6205444,1,-0.0055958163,0.002493143,0.07814884,0.0,0.0,0.0,0.0,0.0,0.0
594,2.624939,1,0.03041582,0.23714519,0.056157112,0.0,0.0,0.0,0.0,0.0,0.0
595,2.629303,1,0.026067065,0.114135265,0.05333805,0.0,0.0,0.0,0.0,0.0,0.0
596,2.633667,1,-0.015746666,0.015858889,0.090125084,0.0,0.0,0.0,0.0,0.0,0.0
597,2.6380615,1,-0.06542924,-0.009026766,0.13731194,0.0,0.0,0.0,0.0,0.0,0.0
598,2.6424255,1,0.05816634,0.08360028,0.024243355,0.0,0.0,0.0,0.0,0.0,0.0
599,2.6467896,1,0.0038217027,0.08336663,0.07523918,0.0,0.0,0.0,0.0,0.0,0.0
600,2.651184,1,0.09383017,0.10624218,-0.008538246,0.0,0.0,0.0,0.0,0.0,0.0
601,2.655548,1,0.090551436,0.021188736,-0.0082941055,0.0,0.0,0.0,0.0,0.0,0.0
602,2.659912,1,0.15381247,0.013060331,-0.06916523,0.0,0.0,0.0,0.0,0.0,0.0
603,2.6643066,1,0.049410164,0.26029134,0.039445877,0.0,0.0,0.0,0.0,0.0,0.0
604,2.6686707,1,0.11979662,0.16513896,-0.03193283,0.0,0.0,0.0,0.0,0.0,0.0
605,2.6730347,1,-0.017283676,0.14100242,0.09526634,0.0,0.0,0.0,0.0,0.0,0.0
606,2.6773987,1,0.05060172,0.044645786,0.027921677,0.0,0.0,0.0,0.0,0.0,0.0
607,2.6817932,1,0.004868569,-0.0070660114,0.06989384,0.0,0.0,0.0,0.0,0.0,0.0
608,2.6861572,1,-0.004550604,-0.044041872,0.075819016,0.0,0.0,0.0,0.0,0.0,0.0
609,2.6905212,1,-0.03087358,0.07744384,0.10712433,0.0,0.0,0.0,0.0,0.0,0.0
610,2.6949158,1,0.03152229,-0.04349971,0.04474926,0.0,0.0,0.0,0.0,0.0,0.0
611,2.6992798,1,0.035276294,0.081795454,0.043435097,0.0,0.0,0.0,0.0,0.0,0.0
612,2.7036438,1,-0.037723675,0.07621312,0.11366081,0.0,0.0,0.0,0.0,0.0,0.0
613,2.7080383,1,-0.07687695,0.076515436,0.15298462,0.0,0.0,0.0,0.0,0.0,0.0
614,2.7124023,1,-0.07580903,0.07897663,0.15293026,0.0,0.0,0.0,0.0,0.0,0.0
615,2.7167664,1,-0.016892282,0.26206613,0.105306625,0.0,0.0,0.0,0.0,0.0,0.0
616,2.721161,1,0.08803141,0.083672285,-0.0011644363,0.0,0.0,0.0,0.0,0.0,0.0
617,2.725525,1,-0.042996794,0.04363084,0.12264919,0.0,0.0,0.0,0.0,0.0,0.0
618,2.729889,1,0.013002114,-0.070402384,0.06503391,0.0,0.0,0.0,0.0,0.0,0.0
619,2.7342834,1,-0.061888635,0.06777334,0.1417799,0.0,0.0,0.0,0.0,0.0,0.0
620,2.7386475,1,-0.063309,-0.061993837,0.13900852,0.0,0.0,0.0,0.0,0.0,0.0
621,2.7430115,1,-0.019155173,0.0106527805,0.09921837,0.0,0.0,0.0,0.0,0.0,0.0
622,2.7473755,1,0.049476117,0.07232165,0.036522865,0.0,0.0,0.0,0.0,0.0,0.0
623,2.75177,1,0.04347548,0.14780545,0.043273926,0.0,0.0,0.0,0.0,0.0,0.0
624,2.756134,1,-0.0139553975,0.04195738,0.09445953,0.0,0.0,0.0,0.0,0.0,0.0
625,2.760498,1,0.10659577,0.11974144,-0.013866425,0.0,0.0,0.0,0.0,0.0,0.0
626,2.7648926,1,-0.003668053,0.045948744,0.08353233,0.0,0.0,0.0,0.0,0.0,0.0
627,2.7692566,1,0.05979,-0.105858564,0.017466545,0.0,0.0,0.0,0.0,0.0,0.0
628,2.7736206,1,0.099285856,-0.11989045,-0.019760132,0.0,0.0,0.0,0.0,0.0,0.0
629,2.7780151,1,0.1447096,0.12730932,-0.05192089,0.0,0.0,0.0,0.0,0.0,0.0
630,2.7823792,1,0.12764159,-0.0140349865,-0.04269886,0.0,0.0,0.0,0.0,0.0,0.0
631,2.7867432,1,-0.027911542,-0.16031432,0.099069595,0.0,0.0,0.0,0.0,0.0,0.0
632,2.7911377,1,0.032315686,0.010377169,0.047117233,0.0,0.0,0.0,0.0,0.0,0.0
633,2.7955017,1,0.044802487,0.05746007,0.037394524,0.0,0.0,0.0,0.0,0.0,0.0
634,2.7998657,1,-0.07750553,-0.09978461,0.14704227,0.0,0.0,0.0,0.0,0.0,0.0
635,2.8042603,1,-0.07979502,-0.047063112,0.15096283,0.0,0.0,0.0,0.0,0.0,0.0
636,2.8086243,1,-0.05242075,0.054835796,0.13017845,0.0,0.0,0.0,0.0,0.0,0.0
637,2.8129883,1,-0.119084224,-0.17775202,0.18342113,0.0,0.0,0.0,0.0,0.0,0.0
638,2.8173523,1,0.042862535,-0.0019347668,0.03874111,0.0,0.0,0.0,0.0,0.0,0.0
639,2.8217468,1,-0.03646764,-0.0841558,0.11035538,0.0,0.0,0.0,0.0,0.0,0.0
640,2.8261108,1,0.09905486,-0.016614676,-0.018021584,0.0,0.0,0.0,0.0,0.0,0.0
641,2.8304749,1,0.03979747,-0.044420958,0.03701496,0.0,0.0,0.0,0.0,0.0,0.0
642,2.8348694,1,0.061546504,0.081531286,0.023413658,0.0,0.0,0.0,0.0,0.0,0.0
643,2.8392334,1,-0.002375422,0.05464959,0.08192253,0.0,0.0,0.0,0.0,0.0,0.0
644,2.8435974,1,0.07253806,-0.027666569,0.008950233,0.0,0.0,0.0,0.0,0.0,0.0
645,2.847992,1,0.05511689,-0.15884757,0.018813133,0.0,0.0,0.0,0.0,0.0,0.0
646,2.852356,1,0.003415795,-8.523464E-4,0.07675743,0.0,0.0,0.0,0.0,0.0,0.0
647,2.85672,1,0.014869647,-0.1496532,0.05997181,0.0,0.0,0.0,0.0,0.0,0.0
648,2.8611145,1,0.08016352,-0.052339792,9.021759E-4,0.0,0.0,0.0,0.0,0.0,0.0
649,2.8654785,1,0.026613103,0.06879735,0.05791664,0.0,0.0,0.0,0.0,0.0,0.0
650,2.8698425,1,0.050208136,-0.041503668,0.02758789,0.0,0.0,0.0,0.0,0.0,0.0
651,2.8742065,1,-0.0020236354,-0.070165396,0.07502842,0.0,0.0,0.0,0.0,0.0,0.0
652,2.878601,1,-0.09531525,0.043263674,0.16883373,0.0,0.0,0.0,0.0,0.0,0.0
653,2.882965,1,-0.049759686,0.097736835,0.12797928,0.0,0.0,0.0,0.0,0.0,0.0
654,2.887329,1,-0.009161739,0.045334816,0.08714771,0.0,0.0,0.0,0.0,0.0,0.0
655,2.8917236,1,-0.027917368,-0.059709787,0.10038853,0.0,0.0,0.0,0.0,0.0,0.0
656,2.8960876,1,-0.026633544,0.11367965,0.10744572,0.0,0.0,0.0,0.0,0.0,0.0
657,2.9004517,1,-0.04746306,0.11259675,0.1247282,0.0,0.0,0.0,0.0,0.0,0.0
658,2.9048462,1,-0.0019987207,-0.056610823,0.07532692,0.0,0.0,0.0,0.0,0.0,0.0
659,2.9092102,1,8.1272796E-5,0.12624502,0.07936764,0.0,0.0,0.0,0.0,0.0,0.0
660,2.9135742,1,-0.00539024,-0.005218506,0.079891205,0.0,0.0,0.0,0.0,0.0,0.0
661,2.9179688,1,-0.078338414,0.081409216,0.15384388,0.0,0.0,0.0,0.0,0.0,0.0
662,2.9223328,1,0.10386157,0.20219827,-0.013768196,0.0,0.0,0.0,0.0,0.0,0.0
663,2.9266968,1,0.1897721,0.10226631,-0.101052284,0.0,0.0,0.0,0.0,0.0,0.0
664,2.9310913,1,0.01281962,0.113767624,0.06821442,0.0,0.0,0.0,0.0,0.0,0.0
665,2.9354553,1,-0.006148277,0.10469651,0.08492756,0.0,0.0,0.0,0.0,0.0,0.0
666,2.9398193,1,-0.011376319,0.017688513,0.08601284,0.0,0.0,0.0,0.0,0.0,0.0
667,2.9441833,1,0.08120014,0.088201284,0.0024471283,0.0,0.0,0.0,0.0,0.0,0.0
668,2.948578,1,-0.0238315,0.10643363,0.10517502,0.0,0.0,0.0,0.0,0.0,0.0
669,2.952942,1,-0.0444362,0.16673493,0.12653732,0.0,0.0,0.0,0.0,0.0,0.0
670,2.957306,1,0.02934991,0.3353045,0.061810493,0.0,0.0,0.0,0.0,0.0,0.0
671,2.9617004,1,0.029290156,0.33526754,0.061442375,0.0,0.0,0.0,0.0,0.0,0.0
672,2.9660645,1,-0.04342337,0.037356615,0.11817837,0.0,0.0,0.0,0.0,0.0,0.0
673,2.9704285,1,0.05682245,0.034460783,0.023082733,0.0,0.0,0.0,0.0,0.0,0.0
674,2.974823,1,0.028717058,0.032099962,0.050445557,0.0,0.0,0.0,0.0,0.0,0.0
675,2.979187,1,0.004103111,-0.13139749,0.06582737,0.0,0.0,0.0,0.0,0.0,0.0
676,2.983551,1,0.056303427,0.025591135,0.023522377,0.0,0.0,0.0,0.0,0.0,0.0
677,2.9879456,1,0.091717675,0.017303705,-0.010864258,0.0,0.0,0.0,0.0,0.0,0.0
678,2.9923096,1,0.08280581,0.061071157,-0.0026779175,0.0,0.0,0.0,0.0,0.0,0.0
679,2.9966736,1,0.08193636,0.07768035,-0.0030431747,0.0,0.0,0.0,0.0,0.0,0.0
680,3.001068,1,0.073711604,0.1227355,0.008105278,0.0,0.0,0.0,0.0,0.0,0.0
681,3.0054321,1,0.09627929,0.08040261,-0.014824867,0.0,0.0,0.0,0.0,0.0,0.0
682,3.0097961,1,-0.04559025,0.070663214,0.118356705,0.0,0.0,0.0,0.0,0.0,0.0
683,3.0141602,1,-0.013951419,0.19232821,0.094059944,0.0,0.0,0.0,0.0,0.0,0.0
684,3.0185547,1,-0.018229095,0.1250081,0.097322464,0.0,0.0,0.0,0.0,0.0,0.0
685,3.0229187,1,-0.033735126,0.107081175,0.10932255,0.0,0.0,0.0,0.0,0.0,0.0
686,3.0272827,1,-0.15669061,0.043330908,0.22412205,0.0,0.0,0.0,0.0,0.0,0.0
687,3.0316772,1,-0.035876974,0.13242078,0.11509323,0.0,0.0,0.0,0.0,0.0,0.0
688,3.0360413,1,0.033822075,-6.8473816E-4,0.044672012,0.0,0.0,0.0,0.0,0.0,0.0
689,3.0404053,1,-0.035343066,0.07748103,0.114105225,0.0,0.0,0.0,0.0,0.0,0.0
690,3.0447998,1,0.028090568,0.1755445,0.059895515,0.0,0.0,0.0,0.0,0.0,0.0
691,3.0491638,1,0.033784434,0.1318748,0.053689957,0.0,0.0,0.0,0.0,0.0,0.0
692,3.0535278,1,-0.090906814,0.17400575,0.1762352,0.0,0.0,0.0,0.0,0.0,0.0
693,3.0579224,1,0.049414724,0.051490545,0.037768364,0.0,0.0,0.0,0.0,0.0,0.0
694,3.0622864,1,0.053975746,-0.019525051,0.032691002,0.0,0.0,0.0,0.0,0.0,0.0
695,3.0666504,1,0.0687335,0.1840589,0.026221275,0.0,0.0,0.0,0.0,0.0,0.0
696,3.071045,1,0.05722499,0.011732817,0.02990055,0.0,0.0,0.0,0.0,0.0,0.0
697,3.075409,1,0.09793246,-0.019169569,-0.0069847107,0.0,0.0,0.0,0.0,0.0,0.0
698,3.079773,1,-0.030250935,0.04846883,0.11692524,0.0,0.0,0.0,0.0,0.0,0.0
699,3.084137,1,0.061450407,0.025399446,0.030586243,0.0,0.0,0.0,0.0,0.0,0.0
700,3.0885315,1,0.099177465,-0.056856394,-0.008322716,0.0,0.0,0.0,0.0,0.0,0.0
701,3.0928955,1,0.16893397,0.014680862,-0.07086277,0.0,0.0,0.0,0.0,0.0,0.0
702,3.0972595,1,0.020642312,-0.13594031,0.064909935,0.0,0.0,0.0,0.0,0.0,0.0
703,3.101654,1,0.03901109,-0.17660737,0.046712875,0.0,0.0,0.0,0.0,0.0,0.0
704,3.106018,1,0.013090001,-0.108694315,0.071204185,0.0,0.0,0.0,0.0,0.0,0.0
705,3.110382,1,0.012539776,-0.17875433,0.06986427,0.0,0.0,0.0,0.0,0.0,0.0
706,3.1147766,1,-0.012841044,-0.065752745,0.10025787,0.0,0.0,0.0,0.0,0.0,0.0
707,3.1191406,1,-0.05611871,-0.152498,0.13534641,0.0,0.0,0.0,0.0,0.0,0.0
708,3.1235046,1,0.09925896,-0.09908223,-0.008342743,0.0,0.0,0.0,0.0,0.0,0.0
709,3.1278992,1,-0.019910319,-0.07628322,0.10621357,0.0,0.0,0.0,0.0,0.0,0.0
710,3.1322632,1,0.013819637,-0.0745666,0.07204437,0.0,0.0,0.0,0.0,0.0,0.0
711,3.1366272,1,0.08293074,-0.05450511,0.007698059,0.0,0.0,0.0,0.0,0.0,0.0
712,3.1409912,1,0.03919746,-0.013872385,0.046235085,0.0,0.0,0.0,0.0,0.0,0.0
713,3.1453857,1,-0.093391076,0.17674994,0.17964363,0.0,0.0,0.0,0.0,0.0,0.0
714,3.1497498,1,-0.092158794,0.13218474,0.17722607,0.0,0.0,0.0,0.0,0.0,0.0
715,3.1541138,1,-0.17827792,0.1353786,0.25677967,0.0,0.0,0.0,0.0,0.0,0.0
716,3.1585083,1,0.034071714,0.29963732,0.06276035,0.0,0.0,0.0,0.0,0.0,0.0
717,3.1628723,1,-0.04316266,0.1815679,0.12949848,0.0,0.0,0.0,0.0,0.0,0.0
718,3.1672363,1,0.0016691107,0.1621511,0.08712959,0.0,0.0,0.0,0.0,0.0,0.0
719,3.1716309,1,-0.014947323,0.115566015,0.10280228,0.0,0.0,0.0,0.0,0.0,0.0
720,3.1759949,1,-0.02916172,0.22769237,0.122195244,0.0,0.0,0.0,0.0,0.0,0.0
721,3.180359,1,0.16194277,0.23447084,-0.059638977,0.0,0.0,0.0,0.0,0.0,0.0
722,3.1847534,1,0.124463186,0.15101099,-0.02583313,0.0,0.0,0.0,0.0,0.0,0.0
723,3.1891174,1,0.105568066,-0.0071332455,-0.01252079,0.0,0.0,0.0,0.0,0.0,0.0
724,3.1934814,1,0.10689999,0.029972315,-0.01113987,0.0,0.0,0.0,0.0,0.0,0.0
725,3.197876,1,-0.01064573,-0.03297925,0.09965992,0.0,0.0,0.0,0.0,0.0,0.0
726,3.20224,1,0.06916356,0.09031606,0.029624939,0.0,0.0,0.0,0.0,0.0,0.0
727,3.206604,1,0.024719642,-0.09192252,0.06557274,0.0,0.0,0.0,0.0,0.0,0.0
728,3.210968,1,0.025156053,-0.09064245,0.065935135,0.0,0.0,0.0,0.0,0.0,0.0
729,3.2153625,1,0.07327375,0.064261675,0.028639793,0.0,0.0,0.0,0.0,0.0,0.0
730,3.2197266,1,0.004440503,-0.051452875,0.088225365,0.0,0.0,0.0,0.0,0.0,0.0
731,3.2240906,1,0.078758836,-0.18190789,0.013256073,0.0,0.0,0.0,0.0,0.0,0.0
732,3.2286987,1,0.10391444,-0.116265535,-0.009385109,0.0,0.0,0.0,0.0,0.0,0.0
733,3.2332764,1,0.036325753,-0.25528836,0.0507164,0.0,0.0,0.0,0.0,0.0,0.0
734,3.237854,1,-0.029527752,-0.12994266,0.11613178,0.0,0.0,0.0,0.0,0.0,0.0
735,3.2424316,1,0.020167844,-0.009820223,0.07374191,0.0,0.0,0.0,0.0,0.0,0.0
736,3.2470398,1,-0.123386055,-0.08070636,0.20536995,0.0,0.0,0.0,0.0,0.0,0.0
737,3.2516174,1,0.004773142,-0.066972494,0.08368969,0.0,0.0,0.0,0.0,0.0,0.0
738,3.256195,1,-0.025360806,0.016065598,0.11443329,0.0,0.0,0.0,0.0,0.0,0.0
739,3.2607727,1,-0.06410645,-0.019901037,0.14921665,0.0,0.0,0.0,0.0,0.0,0.0
740,3.2653809,1,-0.03140703,0.07215476,0.12179661,0.0,0.0,0.0,0.0,0.0,0.0
741,3.2699585,1,-0.0032204222,0.19611001,0.098706245,0.0,0.0,0.0,0.0,0.0,0.0
742,3.2745361,1,0.0078359265,0.014746904,0.07795429,0.0,0.0,0.0,0.0,0.0,0.0
743,3.2791138,1,-0.0026342105,0.17173886,0.09539795,0.0,0.0,0.0,0.0,0.0,0.0
744,3.2836914,1,-0.10746226,0.094524145,0.19044018,0.0,0.0,0.0,0.0,0.0,0.0
745,3.2882996,1,-0.007658271,0.1291945,0.09674168,0.0,0.0,0.0,0.0,0.0,0.0
746,3.2928772,1,0.046400025,0.14620614,0.046809196,0.0,0.0,0.0,0.0,0.0,0.0
747,3.2974548,1,0.054518983,0.16379166,0.03856659,0.0,0.0,0.0,0.0,0.0,0.0
748,3.3020325,1,0.114010304,0.15447497,-0.015820503,0.0,0.0,0.0,0.0,0.0,0.0
749,3.3066406,1,-0.07929854,0.17127085,0.1684351,0.0,0.0,0.0,0.0,0.0,0.0
750,3.3112183,1,0.088615105,0.1175158,0.007660866,0.0,0.0,0.0,0.0,0.0,0.0
751,3.315796,1,0.043724507,0.079933405,0.052615166,0.0,0.0,0.0,0.0,0.0,0.0
752,3.3203735,1,0.035790354,0.07848239,0.05997753,0.0,0.0,0.0,0.0,0.0,0.0
753,3.3249817,1,0.111922935,0.0059993267,-0.013262749,0.0,0.0,0.0,0.0,0.0,0.0
754,3.3295593,1,0.14409299,0.06880784,-0.03903866,0.0,0.0,0.0,0.0,0.0,0.0
755,3.334137,1,0.06696372,-0.059490442,0.028352737,0.0,0.0,0.0,0.0,0.0,0.0
756,3.3387146,1,0.01485719,0.0017812252,0.0802145,0.0,0.0,0.0,0.0,0.0,0.0
757,3.3433228,1,0.08244482,-0.15120721,0.0128479,0.0,0.0,0.0,0.0,0.0,0.0
758,3.3479004,1,0.100679785,-0.06623626,-0.002175331,0.0,0.0,0.0,0.0,0.0,0.0
759,3.352478,1,-0.02110554,-0.07061839,0.11141205,0.0,0.0,0.0,0.0,0.0,0.0
760,3.3570251,1,-0.043047264,-0.15550447,0.12614918,0.0,0.0,0.0,0.0,0.0,0.0
761,3.3615417,1,-0.005625857,-0.10340476,0.09389973,0.0,0.0,0.0,0.0,0.0,0.0
762,3.3660583,1,0.019622298,0.0051238537,0.07123661,0.0,0.0,0.0,0.0,0.0,0.0
763,3.3702393,1,0.109365985,0.08975005,-0.011557579,0.0,0.0,0.0,0.0,0.0,0.0
764,3.3744202,1,-0.048416376,-0.03307557,0.13134956,0.0,0.0,0.0,0.0,0.0,0.0
765,3.378601,1,0.022375287,0.135741,0.070150375,0.0,0.0,0.0,0.0,0.0,0.0
766,3.382782,1,0.068073705,0.012709141,0.019595146,0.0,0.0,0.0,0.0,0.0,0.0
767,3.386963,1,0.044042125,0.14976692,0.0486269,0.0,0.0,0.0,0.0,0.0,0.0
768,3.3911438,1,0.007999467,0.09311938,0.079465866,0.0,0.0,0.0,0.0,0.0,0.0
769,3.3953247,1,-0.062582925,0.039516687,0.14260483,0.0,0.0,0.0,0.0,0.0,0.0
770,3.3995056,1,0.024940597,0.10914016,0.06653023,0.0,0.0,0.0,0.0,0.0,0.0
771,3.4036865,1,0.1331314,-0.08353615,-0.04460907,0.0,0.0,0.0,0.0,0.0,0.0
772,3.4078674,1,-0.077705964,0.025464773,0.15813732,0.0,0.0,0.0,0.0,0.0,0.0
773,3.4120483,1,-0.013308419,0.124165535,0.10132599,0.0,0.0,0.0,0.0,0.0,0.0
774,3.4162292,1,0.06828609,0.10189462,0.02251625,0.0,0.0,0.0,0.0,0.0,0.0
775,3.4204102,1,0.010649266,0.114881754,0.07828808,0.0,0.0,0.0,0.0,0.0,0.0
776,3.424591,1,0.14214435,0.19254518,-0.042676926,0.0,0.0,0.0,0.0,0.0,0.0
777,3.428772,1,0.03378214,-0.018817186,0.052682877,0.0,0.0,0.0,0.0,0.0,0.0
778,3.432953,1,-0.003900839,0.13386321,0.09565735,0.0,0.0,0.0,0.0,0.0,0.0
779,3.4371338,1,0.01938844,0.13980556,0.07474613,0.0,0.0,0.0,0.0,0.0,0.0
780,3.4413147,1,0.14075948,0.15972137,-0.03937912,0.0,0.0,0.0,0.0,0.0,0.0
781,3.4454956,1,-0.02174051,0.15991187,0.116256714,0.0,0.0,0.0,0.0,0.0,0.0
782,3.4496765,1,-0.054003045,-0.09141898,0.13578415,0.0,0.0,0.0,0.0,0.0,0.0
783,3.4538574,1,0.026683481,0.07352996,0.06446266,0.0,0.0,0.0,0.0,0.0,0.0
784,3.4580383,1,-0.004627494,0.14057422,0.09606075,0.0,0.0,0.0,0.0,0.0,0.0
785,3.4622192,1,-0.004752813,0.14007354,0.095700264,0.0,0.0,0.0,0.0,0.0,0.0
786,3.4664001,1,0.010829227,0.029942274,0.0761776,0.0,0.0,0.0,0.0,0.0,0.0
787,3.470581,1,0.061477482,0.24991775,0.036827087,0.0,0.0,0.0,0.0,0.0,0.0
788,3.474762,1,0.026478188,0.0515697,0.060027122,0.0,0.0,0.0,0.0,0.0,0.0
789,3.4789429,1,-0.03881769,0.041697264,0.121349335,0.0,0.0,0.0,0.0,0.0,0.0
790,3.4831238,1,-0.059140757,0.044999838,0.1415987,0.0,0.0,0.0,0.0,0.0,0.0
791,3.4874573,1,-0.16089651,0.03055787,0.236866,0.0,0.0,0.0,0.0,0.0,0.0
792,3.4917908,1,-0.056662157,-0.033848286,0.13504314,0.0,0.0,0.0,0.0,0.0,0.0
793,3.4977417,1,-0.017582266,0.16470575,0.10726261,0.0,0.0,0.0,0.0,0.0,0.0
794,3.503662,1,-0.02444042,0.11259556,0.11157036,0.0,0.0,0.0,0.0,0.0,0.0
795,3.5095825,1,0.0015009213,0.08507872,0.08533192,0.0,0.0,0.0,0.0,0.0,0.0
796,3.515503,1,0.021935286,0.07724929,0.06549454,0.0,0.0,0.0,0.0,0.0,0.0
797,3.520111,1,0.037285715,0.027024508,0.05228138,0.0,0.0,0.0,0.0,0.0,0.0
798,3.5245667,1,0.047108337,0.065611124,0.04371357,0.0,0.0,0.0,0.0,0.0,0.0
799,3.5290222,1,0.08148603,-0.02883029,0.010458946,0.0,0.0,0.0,0.0,0.0,0.0
800,3.5333557,1,0.11123893,0.045899868,-0.014351845,0.0,0.0,0.0,0.0,0.0,0.0
801,3.5376892,1,0.07042833,0.06998801,0.027420044,0.0,0.0,0.0,0.0,0.0,0.0
802,3.5420227,1,-0.054176033,0.049833536,0.14386559,0.0,0.0,0.0,0.0,0.0,0.0
803,3.5463562,1,0.025878893,-0.15949178,0.059109688,0.0,0.0,0.0,0.0,0.0,0.0
804,3.5506897,1,-0.0023983996,0.06490779,0.09911537,0.0,0.0,0.0,0.0,0.0,0.0
805,3.5550232,1,0.017342867,-0.083789825,0.07701683,0.0,0.0,0.0,0.0,0.0,0.0
806,3.5593567,1,-0.04357125,0.14362335,0.14317608,0.0,0.0,0.0,0.0,0.0,0.0
807,3.5636902,1,0.020352932,0.034056425,0.07833958,0.0,0.0,0.0,0.0,0.0,0.0
808,3.5680237,1,0.043799117,-0.09012079,0.05027008,0.0,0.0,0.0,0.0,0.0,0.0
809,3.5723572,1,-0.08013974,-0.20032024,0.1620493,0.0,0.0,0.0,0.0,0.0,0.0
810,3.5766907,1,0.0075747985,0.08791566,0.09207249,0.0,0.0,0.0,0.0,0.0,0.0
811,3.5810242,1,0.06910621,0.081564665,0.032011032,0.0,0.0,0.0,0.0,0.0,0.0
812,3.5853577,1,-0.038646206,-0.028007746,0.13189507,0.0,0.0,0.0,0.0,0.0,0.0
813,3.5896912,1,-0.04539004,-0.0710156,0.13841915,0.0,0.0,0.0,0.0,0.0,0.0
814,3.5940247,1,-0.004938258,0.018333912,0.10220337,0.0,0.0,0.0,0.0,0.0,0.0
815,3.5983582,1,0.022546636,0.066418886,0.078912735,0.0,0.0,0.0,0.0,0.0,0.0
816,3.6026917,1,-0.082635626,-0.16035724,0.1690321,0.0,0.0,0.0,0.0,0.0,0.0
817,3.6070251,1,0.0429423,0.054838896,0.059924126,0.0,0.0,0.0,0.0,0.0,0.0
818,3.6113586,1,0.025333928,-0.037406206,0.072369576,0.0,0.0,0.0,0.0,0.0,0.0
819,3.6156921,1,-0.025698481,-0.038796663,0.12084484,0.0,0.0,0.0,0.0,0.0,0.0
820,3.6200256,1,-0.011317907,-0.015719175,0.10644722,0.0,0.0,0.0,0.0,0.0,0.0
821,3.6243591,1,0.021604838,-0.030641794,0.07752991,0.0,0.0,0.0,0.0,0.0,0.0
822,3.6286926,1,-0.011457486,-0.026401281,0.10816479,0.0,0.0,0.0,0.0,0.0,0.0
823,3.6330261,1,0.08732566,-0.0060191154,0.01583767,0.0,0.0,0.0,0.0,0.0,0.0
824,3.6373596,1,-0.05327481,0.0771687,0.15542793,0.0,0.0,0.0,0.0,0.0,0.0
825,3.641693,1,-0.062970206,-0.006099224,0.15930653,0.0,0.0,0.0,0.0,0.0,0.0
826,3.6460266,1,0.035596117,-0.06500411,0.062597275,0.0,0.0,0.0,0.0,0.0,0.0
827,3.65036,1,-0.056784406,0.013237953,0.15440369,0.0,0.0,0.0,0.0,0.0,0.0
828,3.6546936,1,0.002044903,0.0063307285,0.09697437,0.0,0.0,0.0,0.0,0.0,0.0
829,3.659027,1,0.046834216,0.04170537,0.056714058,0.0,0.0,0.0,0.0,0.0,0.0
830,3.6633606,1,-0.087265626,-0.070276976,0.17899227,0.0,0.0,0.0,0.0,0.0,0.0
831,3.667694,1,-0.07915217,-0.12361312,0.16920948,0.0,0.0,0.0,0.0,0.0,0.0
832,3.6720276,1,0.06807165,0.063951015,0.037672997,0.0,0.0,0.0,0.0,0.0,0.0
833,3.676361,1,9.132344E-4,0.24673796,0.1089201,0.0,0.0,0.0,0.0,0.0,0.0
834,3.6806946,1,0.0443476,0.060354233,0.05996704,0.0,0.0,0.0,0.0,0.0,0.0
835,3.685028,1,0.057988003,-0.013945341,0.043136597,0.0,0.0,0.0,0.0,0.0,0.0
836,3.6893616,1,-0.022861911,-0.04931903,0.117321014,0.0,0.0,0.0,0.0,0.0,0.0
837,3.693695,1,-0.04044862,0.037662745,0.13716316,0.0,0.0,0.0,0.0,0.0,0.0
838,3.6980286,1,-0.05280149,0.12936401,0.15334034,0.0,0.0,0.0,0.0,0.0,0.0
839,3.702362,1,-0.046325207,0.10140777,0.14471436,0.0,0.0,0.0,0.0,0.0,0.0
840,3.7066956,1,0.01666409,0.18827844,0.08805084,0.0,0.0,0.0,0.0,0.0,0.0
841,3.711029,1,0.09360653,0.09518647,0.011474609,0.0,0.0,0.0,0.0,0.0,0.0
842,3.7153625,1,0.09335083,0.094857454,0.011606216,0.0,0.0,0.0,0.0,0.0,0.0
843,3.719696,1,0.026947172,0.15248084,0.07686901,0.0,0.0,0.0,0.0,0.0,0.0
844,3.7240295,1,0.07877101,0.14922237,0.027472496,0.0,0.0,0.0,0.0,0.0,0.0
845,3.728363,1,0.08835253,0.33953404,0.02748394,0.0,0.0,0.0,0.0,0.0,0.0
846,3.7326965,1,0.09644996,0.08829665,0.009444237,0.0,0.0,0.0,0.0,0.0,0.0
847,3.73703,1,0.094608456,-0.0069625378,0.0062065125,0.0,0.0,0.0,0.0,0.0,0.0
848,3.7413635,1,0.059264377,0.21285176,0.050265312,0.0,0.0,0.0,0.0,0.0,0.0
849,3.745697,1,0.03527823,0.003387928,0.06606293,0.0,0.0,0.0,0.0,0.0,0.0
850,3.7500305,1,-7.629823E-4,0.053447008,0.10319805,0.0,0.0,0.0,0.0,0.0,0.0
851,3.754364,1,-0.008612348,0.087869406,0.112101555,0.0,0.0,0.0,0.0,0.0,0.0
852,3.7586975,1,-0.053591922,0.09882951,0.15622807,0.0,0.0,0.0,0.0,0.0,0.0
853,3.763031,1,0.044831425,0.05300927,0.061450005,0.0,0.0,0.0,0.0,0.0,0.0
854,3.7673645,1,4.225094E-4,0.09614396,0.10582161,0.0,0.0,0.0,0.0,0.0,0.0
855,3.771698,1,0.058242947,0.21189141,0.0530138,0.0,0.0,0.0,0.0,0.0,0.0
856,3.7760315,1,0.08807382,0.12502313,0.026964188,0.0,0.0,0.0,0.0,0.0,0.0
857,3.780365,1,-0.073394686,0.042041063,0.17343235,0.0,0.0,0.0,0.0,0.0,0.0
858,3.7846985,1,-0.010894014,0.084287405,0.11494541,0.0,0.0,0.0,0.0,0.0,0.0
859,3.789032,1,-0.023371277,0.017400026,0.12450981,0.0,0.0,0.0,0.0,0.0,0.0
860,3.7933655,1,0.06354399,0.12295675,0.04764557,0.0,0.0,0.0,0.0,0.0,0.0
861,3.797699,1,0.0023053605,-0.018244028,0.10001087,0.0,0.0,0.0,0.0,0.0,0.0
862,3.8020325,1,0.055309013,0.07992482,0.052520752,0.0,0.0,0.0,0.0,0.0,0.0
863,3.806366,1,-0.1441173,0.10082173,0.24149895,0.0,0.0,0.0,0.0,0.0,0.0
864,3.8106995,1,-0.014987661,0.049127102,0.11777401,0.0,0.0,0.0,0.0,0.0,0.0
865,3.815033,1,0.04564628,0.17653155,0.06627178,0.0,0.0,0.0,0.0,0.0,0.0
866,3.8193665,1,0.007749783,-0.0053579807,0.09405708,0.0,0.0,0.0,0.0,0.0,0.0
867,3.8237,1,-0.06198272,-0.14953685,0.15531445,0.0,0.0,0.0,0.0,0.0,0.0
868,3.8280334,1,0.06558615,0.075716496,0.042682648,0.0,0.0,0.0,0.0,0.0,0.0
869,3.832367,1,-0.021598829,-0.13109612,0.11628342,0.0,0.0,0.0,0.0,0.0,0.0
870,3.8367004,1,-0.032464996,0.029019117,0.13163567,0.0,0.0,0.0,0.0,0.0,0.0
871,3.841034,1,-0.03395109,0.0077791214,0.13509941,0.0,0.0,0.0,0.0,0.0,0.0
872,3.8453674,1,-0.06070794,-0.041718483,0.15579796,0.0,0.0,0.0,0.0,0.0,0.0
873,3.849701,1,-0.046124354,0.017494917,0.14597797,0.0,0.0,0.0,0.0,0.0,0.0
874,3.8540344,1,-0.02436353,0.06488252,0.12690735,0.0,0.0,0.0,0.0,0.0,0.0
875,3.858368,1,0.010262432,0.044858694,0.09247303,0.0,0.0,0.0,0.0,0.0,0.0
876,3.8627014,1,-0.11710481,-0.06724477,0.208004,0.0,0.0,0.0,0.0,0.0,0.0
877,3.867035,1,-0.15601698,0.015017271,0.24718761,0.0,0.0,0.0,0.0,0.0,0.0
878,3.8713684,1,-0.015486328,0.12100792,0.11783314,0.0,0.0,0.0,0.0,0.0,0.0
879,3.875702,1,0.062390044,-0.032874346,0.037096024,0.0,0.0,0.0,0.0,0.0,0.0
880,3.8800354,1,0.07081805,-0.02655387,0.0314188,0.0,0.0,0.0,0.0,0.0,0.0
881,3.884369,1,0.07534008,-0.09534955,0.027012825,0.0,0.0,0.0,0.0,0.0,0.0
882,3.8887024,1,0.105011076,-0.04247451,-4.7302246E-4,0.0,0.0,0.0,0.0,0.0,0.0
883,3.893036,1,0.044593275,-0.02707982,0.05790615,0.0,0.0,0.0,0.0,0.0,0.0
884,3.8983154,1,0.054708272,-0.03816867,0.05023384,0.0,0.0,0.0,0.0,0.0,0.0
885,3.903595,1,0.07309939,0.05388713,0.036427498,0.0,0.0,0.0,0.0,0.0,0.0
886,3.908905,1,-0.012572033,0.030249834,0.11660862,0.0,0.0,0.0,0.0,0.0,0.0
887,3.9141846,1,0.0939997,0.0697577,0.015935898,0.0,0.0,0.0,0.0,0.0,0.0
888,3.9194946,1,-0.048469886,-0.06305957,0.14867783,0.0,0.0,0.0,0.0,0.0,0.0
889,3.9247742,1,-0.07642163,-0.035327196,0.17666626,0.0,0.0,0.0,0.0,0.0,0.0
890,3.9300842,1,0.14976521,-0.060869694,-0.03696823,0.0,0.0,0.0,0.0,0.0,0.0
891,3.9345703,1,0.04063496,-0.027183294,0.06945038,0.0,0.0,0.0,0.0,0.0,0.0
892,3.9390259,1,-4.4701807E-4,-0.0073111057,0.10808468,0.0,0.0,0.0,0.0,0.0,0.0
893,3.9433594,1,0.011246206,0.12024093,0.104224205,0.0,0.0,0.0,0.0,0.0,0.0
894,3.9476624,1,0.031185629,0.008981228,0.080140114,0.0,0.0,0.0,0.0,0.0,0.0
895,3.9519653,1,-0.08432172,-0.06755781,0.18492222,0.0,0.0,0.0,0.0,0.0,0.0
896,3.9562683,1,-0.029616503,0.17742658,0.14458561,0.0,0.0,0.0,0.0,0.0,0.0
897,3.9605713,1,-0.098606646,-0.07458663,0.1972208,0.0,0.0,0.0,0.0,0.0,0.0
898,3.9649048,1,-0.05447282,-0.04988599,0.15590477,0.0,0.0,0.0,0.0,0.0,0.0
899,3.9692078,1,-0.05426088,-0.049960136,0.15464687,0.0,0.0,0.0,0.0,0.0,0.0
900,3.9735107,1,-0.12068558,-0.015433073,0.2175951,0.0,0.0,0.0,0.0,0.0,0.0
901,3.9778137,1,-0.03702745,0.14596677,0.14341831,0.0,0.0,0.0,0.0,0.0,0.0
902,3.9821472,1,0.020198913,0.031607866,0.08339119,0.0,0.0,0.0,0.0,0.0,0.0
903,3.9864502,1,-0.045829445,0.012721539,0.14396763,0.0,0.0,0.0,0.0,0.0,0.0
904,3.9907532,1,-0.11922456,-0.012079954,0.21322823,0.0,0.0,0.0,0.0,0.0,0.0
905,3.9950562,1,0.009408342,-0.033542633,0.09072971,0.0,0.0,0.0,0.0,0.0,0.0
906,3.9993896,1,0.05243577,0.039941072,0.05310917,0.0,0.0,0.0,0.0,0.0,0.0
907,4.0036926,1,0.048655123,0.06371236,0.0559721,0.0,0.0,0.0,0.0,0.0,0.0
908,4.0079956,1,0.0038785506,-0.037165403,0.095412254,0.0,0.0,0.0,0.0,0.0,0.0
909,4.0122986,1,-0.041178748,-0.13420272,0.13445187,0.0,0.0,0.0,0.0,0.0,0.0
910,4.016632,1,0.10671005,0.118070364,0.0045137405,0.0,0.0,0.0,0.0,0.0,0.0
911,4.020935,1,0.04219848,0.082885504,0.064766884,0.0,0.0,0.0,0.0,0.0,0.0
912,4.025238,1,0.031808764,0.24744725,0.083086014,0.0,0.0,0.0,0.0,0.0,0.0
913,4.029541,1,-0.013769237,0.1670506,0.12232399,0.0,0.0,0.0,0.0,0.0,0.0
914,4.0338745,1,-0.039946333,0.035081625,0.14284992,0.0,0.0,0.0,0.0,0.0,0.0
915,4.0381775,1,0.052135408,0.12628913,0.059693336,0.0,0.0,0.0,0.0,0.0,0.0
916,4.0424805,1,0.014327245,-0.06121993,0.08842373,0.0,0.0,0.0,0.0,0.0,0.0
917,4.0467834,1,0.07135807,0.08363676,0.044068336,0.0,0.0,0.0,0.0,0.0,0.0
918,4.0510864,1,-0.07312547,0.1208117,0.18470573,0.0,0.0,0.0,0.0,0.0,0.0
919,4.05542,1,0.034232885,0.24420571,0.08936405,0.0,0.0,0.0,0.0,0.0,0.0
920,4.059723,1,0.07537393,0.025182724,0.04237175,0.0,0.0,0.0,0.0,0.0,0.0
921,4.064026,1,0.085311264,0.23691583,0.041147232,0.0,0.0,0.0,0.0,0.0,0.0
922,4.068329,1,0.04948406,0.014153004,0.066140175,0.0,0.0,0.0,0.0,0.0,0.0
923,4.0726624,1,0.13656321,-0.04917407,-0.01796341,0.0,0.0,0.0,0.0,0.0,0.0
924,4.0769653,1,0.04191485,0.028070688,0.07290268,0.0,0.0,0.0,0.0,0.0,0.0
925,4.0812683,1,0.12933083,0.010601521,-0.010554314,0.0,0.0,0.0,0.0,0.0,0.0
926,4.0855713,1,0.06613846,0.035415888,0.04922867,0.0,0.0,0.0,0.0,0.0,0.0
927,4.089905,1,0.080835104,-0.17091584,0.027060509,0.0,0.0,0.0,0.0,0.0,0.0
928,4.094208,1,0.01725735,-0.047446966,0.092796326,0.0,0.0,0.0,0.0,0.0,0.0
929,4.0985107,1,0.07734126,-0.036021948,0.0333519,0.0,0.0,0.0,0.0,0.0,0.0
930,4.1028137,1,-0.004506318,-0.16281462,0.10427761,0.0,0.0,0.0,0.0,0.0,0.0
931,4.107147,1,-0.10369545,-0.10163665,0.20043659,0.0,0.0,0.0,0.0,0.0,0.0
932,4.11145,1,-0.024509324,0.06831765,0.13479137,0.0,0.0,0.0,0.0,0.0,0.0
933,4.115753,1,0.024847703,0.034017324,0.08586025,0.0,0.0,0.0,0.0,0.0,0.0
934,4.120056,1,0.042898625,-0.097769976,0.062275887,0.0,0.0,0.0,0.0,0.0,0.0
935,4.1243896,1,-0.043768212,0.118689775,0.15433407,0.0,0.0,0.0,0.0,0.0,0.0
936,4.1286926,1,0.037034184,-0.1260941,0.069171906,0.0,0.0,0.0,0.0,0.0,0.0
937,4.1329956,1,0.008972319,0.01274395,0.09912014,0.0,0.0,0.0,0.0,0.0,0.0
938,4.1372986,1,-0.07452446,-0.01682496,0.17637348,0.0,0.0,0.0,0.0,0.0,0.0
939,4.141632,1,0.08162254,0.051195145,0.032027245,0.0,0.0,0.0,0.0,0.0,0.0
940,4.145935,1,-0.09387104,-0.004014015,0.19822311,0.0,0.0,0.0,0.0,0.0,0.0
941,4.150238,1,0.09291808,0.1481874,0.028430939,0.0,0.0,0.0,0.0,0.0,0.0
942,4.154541,1,0.036661595,0.21814656,0.08435726,0.0,0.0,0.0,0.0,0.0,0.0
943,4.158844,1,-0.033232704,0.04492116,0.14284039,0.0,0.0,0.0,0.0,0.0,0.0
944,4.1631775,1,-0.024929387,0.13649869,0.1379919,0.0,0.0,0.0,0.0,0.0,0.0
945,4.1674805,1,-0.029643787,-0.0855813,0.13250732,0.0,0.0,0.0,0.0,0.0,0.0
946,4.1717834,1,-0.11528599,-0.014351845,0.21703434,0.0,0.0,0.0,0.0,0.0,0.0
947,4.1760864,1,-0.15102738,0.052994013,0.2522297,0.0,0.0,0.0,0.0,0.0,0.0
948,4.18042,1,-0.049994558,0.041630983,0.15546703,0.0,0.0,0.0,0.0,0.0,0.0
949,4.184723,1,-0.060654387,0.08422208,0.16635513,0.0,0.0,0.0,0.0,0.0,0.0
950,4.189026,1,-0.008794872,0.049696922,0.116812706,0.0,0.0,0.0,0.0,0.0,0.0
951,4.193329,1,0.069171205,0.073385954,0.04369831,0.0,0.0,0.0,0.0,0.0,0.0
952,4.1976624,1,-0.07915567,0.094411135,0.18469524,0.0,0.0,0.0,0.0,0.0,0.0
953,4.2019653,1,-0.008194057,0.058893442,0.11682987,0.0,0.0,0.0,0.0,0.0,0.0
954,4.2062683,1,-0.05015871,0.2390883,0.16364384,0.0,0.0,0.0,0.0,0.0,0.0
955,4.2105713,1,0.046109334,-0.007093191,0.060323715,0.0,0.0,0.0,0.0,0.0,0.0
956,4.214966,1,0.046025068,-0.0070312023,0.060647964,0.0,0.0,0.0,0.0,0.0,0.0
957,4.21933,1,0.10896033,-0.14656281,-0.004333496,0.0,0.0,0.0,0.0,0.0,0.0
958,4.223694,1,0.19485435,0.019877434,-0.077812195,0.0,0.0,0.0,0.0,0.0,0.0
959,4.229828,1,0.10774982,-0.08111167,3.7193298E-4,0.0,0.0,0.0,0.0,0.0,0.0
960,4.2359314,1,0.18212245,0.030840158,-0.06434059,0.0,0.0,0.0,0.0,0.0,0.0
961,4.242035,1,-0.015917493,-0.1478002,0.114769936,0.0,0.0,0.0,0.0,0.0,0.0
962,4.247589,1,-0.07194513,-0.08452296,0.17220497,0.0,0.0,0.0,0.0,0.0,0.0
963,4.252075,1,-0.0058124196,0.14105844,0.119194984,0.0,0.0,0.0,0.0,0.0,0.0
964,4.2564087,1,0.010467755,0.0348022,0.09991646,0.0,0.0,0.0,0.0,0.0,0.0
965,4.260742,1,0.016447203,0.15116477,0.096328735,0.0,0.0,0.0,0.0,0.0,0.0
966,4.2650757,1,0.012379171,0.059020996,0.09621811,0.0,0.0,0.0,0.0,0.0,0.0
967,4.269409,1,-0.111031055,0.019125223,0.21352863,0.0,0.0,0.0,0.0,0.0,0.0
968,4.2737427,1,0.07965349,0.12873816,0.037132263,0.0,0.0,0.0,0.0,0.0,0.0
969,4.278076,1,-0.0073352437,0.07487035,0.118938446,0.0,0.0,0.0,0.0,0.0,0.0
970,4.2824097,1,-0.12541436,0.17050481,0.23169231,0.0,0.0,0.0,0.0,0.0,0.0
971,4.286743,1,0.036991537,0.24815726,0.08328819,0.0,0.0,0.0,0.0,0.0,0.0
972,4.2910767,1,-0.006668238,0.20300102,0.12267113,0.0,0.0,0.0,0.0,0.0,0.0
973,4.29541,1,0.017513113,0.129601,0.09552479,0.0,0.0,0.0,0.0,0.0,0.0
974,4.2997437,1,0.08335815,0.25164127,0.03823948,0.0,0.0,0.0,0.0,0.0,0.0
975,4.304077,1,0.021484705,0.17251658,0.09509754,0.0,0.0,0.0,0.0,0.0,0.0
976,4.3084106,1,0.018759148,0.12413049,0.09403515,0.0,0.0,0.0,0.0,0.0,0.0
977,4.312744,1,0.11740227,0.13672018,0.0060548782,0.0,0.0,0.0,0.0,0.0,0.0
978,4.3170776,1,0.1477539,0.15290928,-0.02480793,0.0,0.0,0.0,0.0,0.0,0.0
979,4.321411,1,-0.013190879,0.12066674,0.12708378,0.0,0.0,0.0,0.0,0.0,0.0
980,4.3257446,1,-0.03835523,0.050779104,0.14989376,0.0,0.0,0.0,0.0,0.0,0.0
981,4.330078,1,0.13048764,-0.03600955,-0.013557434,0.0,0.0,0.0,0.0,0.0,0.0
982,4.3344116,1,0.08919144,-0.07309866,0.02495575,0.0,0.0,0.0,0.0,0.0,0.0
983,4.338745,1,0.021276237,-0.12535095,0.08774376,0.0,0.0,0.0,0.0,0.0,0.0
984,4.3430786,1,0.059540942,-0.017931461,0.057024002,0.0,0.0,0.0,0.0,0.0,0.0
985,4.347412,1,0.051952884,-0.023740053,0.06523228,0.0,0.0,0.0,0.0,0.0,0.0
986,4.3517456,1,-0.0134560745,-0.23525214,0.118953705,0.0,0.0,0.0,0.0,0.0,0.0
987,4.356079,1,-0.0010493379,-0.13462734,0.112766266,0.0,0.0,0.0,0.0,0.0,0.0
988,4.3604126,1,-0.045514002,-0.1301248,0.15555286,0.0,0.0,0.0,0.0,0.0,0.0
989,4.364746,1,0.03733538,0.09228253,0.087563515,0.0,0.0,0.0,0.0,0.0,0.0
990,4.3690796,1,0.044778466,-0.051014185,0.07491875,0.0,0.0,0.0,0.0,0.0,0.0
991,4.373413,1,-0.040900588,0.046590567,0.15966606,0.0,0.0,0.0,0.0,0.0,0.0
992,4.3777466,1,-0.106101274,-0.07746601,0.2181015,0.0,0.0,0.0,0.0,0.0,0.0
993,4.38208,1,-0.03365323,-0.06529355,0.14890957,0.0,0.0,0.0,0.0,0.0,0.0
994,4.3864136,1,-0.046005487,0.107634306,0.16776276,0.0,0.0,0.0,0.0,0.0,0.0
995,4.390747,1,-0.089730844,-0.03174281,0.20205879,0.0,0.0,0.0,0.0,0.0,0.0
996,4.3950806,1,-0.011229707,-0.14894676,0.12386227,0.0,0.0,0.0,0.0,0.0,0.0
997,4.399414,1,-0.061368868,-0.06362939,0.17544174,0.0,0.0,0.0,0.0,0.0,0.0
998,4.4037476,1,-0.08861336,0.13939095,0.20824623,0.0,0.0,0.0,0.0,0.0,0.0
999,4.408081,1,0.027951883,0.05444932,0.09474182,0.0,0.0,0.0,0.0,0.0,0.0
1000,4.4124146,1,0.06700866,0.03015256,0.05448532,0.0,0.0,0.0,0.0,0.0,0.0
1001,4.416748,1,0.10163753,0.049093008,0.02378273,0.0,0.0,0.0,0.0,0.0,0.0
1002,4.4210815,1,0.071374044,0.14416528,0.056860924,0.0,0.0,0.0,0.0,0.0,0.0
1003,4.425415,1,-0.036067545,0.03686309,0.15552807,0.0,0.0,0.0,0.0,0.0,0.0
1004,4.4297485,1,0.036998197,-0.0022609234,0.08324242,0.0,0.0,0.0,0.0,0.0,0.0
1005,4.434082,1,-0.019408999,0.13760519,0.14299583,0.0,0.0,0.0,0.0,0.0,0.0
1006,4.4384155,1,0.0909328,0.09484124,0.035690308,0.0,0.0,0.0,0.0,0.0,0.0
1007,4.442749,1,0.1205838,-0.05461216,0.0022411346,0.0,0.0,0.0,0.0,0.0,0.0
1008,4.4470825,1,0.066930756,-0.046202183,0.054947853,0.0,0.0,0.0,0.0,0.0,0.0
1009,4.451416,1,0.08963813,-0.090268135,0.03184986,0.0,0.0,0.0,0.0,0.0,0.0
1010,4.4557495,1,0.1383705,0.19193912,-0.004224777,0.0,0.0,0.0,0.0,0.0,0.0
1011,4.460083,1,-0.0357472,0.06344223,0.15598106,0.0,0.0,0.0,0.0,0.0,0.0
1012,4.4644165,1,0.089344114,0.034836054,0.039993286,0.0,0.0,0.0,0.0,0.0,0.0
1013,4.46875,1,0.089755654,0.03507018,0.038729668,0.0,0.0,0.0,0.0,0.0,0.0
1014,4.4730835,1,0.008681284,0.0803535,0.114066124,0.0,0.0,0.0,0.0,0.0,0.0
1015,4.477417,1,0.020506503,-0.042002678,0.09743595,0.0,0.0,0.0,0.0,0.0,0.0
1016,4.4817505,1,-0.09823918,-0.05375552,0.21023846,0.0,0.0,0.0,0.0,0.0,0.0
1017,4.486084,1,-0.07305585,-0.042366743,0.18712616,0.0,0.0,0.0,0.0,0.0,0.0
1018,4.4904175,1,-0.06898148,-0.042386293,0.18214798,0.0,0.0,0.0,0.0,0.0,0.0
1019,4.494751,1,-0.044299096,0.038207054,0.16348457,0.0,0.0,0.0,0.0,0.0,0.0
1020,4.4990845,1,0.028129952,0.077279806,0.09408283,0.0,0.0,0.0,0.0,0.0,0.0
1021,4.503418,1,0.06289199,0.14399505,0.06531048,0.0,0.0,0.0,0.0,0.0,0.0
1022,4.5077515,1,0.025106074,0.20614219,0.10268116,0.0,0.0,0.0,0.0,0.0,0.0
1023,4.512085,1,0.11784546,0.24599051,0.01672554,0.0,0.0,0.0,0.0,0.0,0.0
1024,4.5164185,1,0.13853893,0.29076457,-0.0020208359,0.0,0.0,0.0,0.0,0.0,0.0
1025,4.520752,1,0.14944571,0.1711042,-0.016098976,0.0,0.0,0.0,0.0,0.0,0.0
1026,4.5250854,1,0.043260366,0.19169521,0.081954,0.0,0.0,0.0,0.0,0.0,0.0
1027,4.529419,1,-0.005866928,-0.019251585,0.11997223,0.0,0.0,0.0,0.0,0.0,0.0
1028,4.5337524,1,0.15545124,0.04841876,-0.027844429,0.0,0.0,0.0,0.0,0.0,0.0
1029,4.538086,1,0.036547422,-0.05065036,0.07913113,0.0,0.0,0.0,0.0,0.0,0.0
1030,4.5424194,1,0.032362983,-0.06693077,0.08221722,0.0,0.0,0.0,0.0,0.0,0.0
1031,4.546753,1,-0.018651394,0.03656006,0.13383198,0.0,0.0,0.0,0.0,0.0,0.0
1032,4.5510864,1,0.020368712,0.030773878,0.09670067,0.0,0.0,0.0,0.0,0.0,0.0
1033,4.55542,1,0.04745491,-0.07532048,0.06411266,0.0,0.0,0.0,0.0,0.0,0.0
1034,4.559784,1,-0.10345513,-0.05725503,0.20753288,0.0,0.0,0.0,0.0,0.0,0.0
1035,4.564148,1,-0.07647546,0.16769314,0.19095612,0.0,0.0,0.0,0.0,0.0,0.0
1036,4.5685425,1,0.0059288014,0.058083773,0.10960102,0.0,0.0,0.0,0.0,0.0,0.0
1037,4.5729065,1,-0.14055783,-0.011986017,0.2472992,0.0,0.0,0.0,0.0,0.0,0.0
1038,4.577301,1,0.055587575,0.04864192,0.063518524,0.0,0.0,0.0,0.0,0.0,0.0
1039,4.581665,1,0.10901202,0.16552806,0.016953468,0.0,0.0,0.0,0.0,0.0,0.0
1040,4.5860596,1,-0.047158092,-0.12334609,0.1525135,0.0,0.0,0.0,0.0,0.0,0.0
1041,4.5904236,1,-0.09831005,-0.03964281,0.20269871,0.0,0.0,0.0,0.0,0.0,0.0
1042,4.594818,1,0.011441039,0.06292939,0.10364151,0.0,0.0,0.0,0.0,0.0,0.0
1043,4.599182,1,-0.047180027,0.070795774,0.15764618,0.0,0.0,0.0,0.0,0.0,0.0
1044,4.6035767,1,0.011751207,0.10134721,0.102965355,0.0,0.0,0.0,0.0,0.0,0.0
1045,4.6079407,1,-0.05659604,0.10090041,0.1692791,0.0,0.0,0.0,0.0,0.0,0.0
1046,4.612335,1,0.083461136,0.16877818,0.040047646,0.0,0.0,0.0,0.0,0.0,0.0
1047,4.616699,1,0.11030543,-0.067605734,0.0036087036,0.0,0.0,0.0,0.0,0.0,0.0
1048,4.621063,1,0.033441693,0.06623626,0.085315704,0.0,0.0,0.0,0.0,0.0,0.0
1049,4.625458,1,0.018591003,0.026503325,0.09451866,0.0,0.0,0.0,0.0,0.0,0.0
1050,4.6307373,1,-0.057432935,-0.05191183,0.16371727,0.0,0.0,0.0,0.0,0.0,0.0
1051,4.6359863,1,-0.00980459,0.12028766,0.12368584,0.0,0.0,0.0,0.0,0.0,0.0
1052,4.641266,1,0.037008464,-0.03278947,0.07709217,0.0,0.0,0.0,0.0,0.0,0.0
1053,4.646515,1,-0.014603047,-0.13383675,0.120474815,0.0,0.0,0.0,0.0,0.0,0.0
1054,4.6517944,1,-0.031810537,-0.0020377636,0.14260769,0.0,0.0,0.0,0.0,0.0,0.0
1055,4.6570435,1,-0.01313412,-0.006806612,0.12441254,0.0,0.0,0.0,0.0,0.0,0.0
1056,4.6620483,1,0.04162933,-0.027128935,0.07443333,0.0,0.0,0.0,0.0,0.0,0.0
1057,4.666443,1,-0.05601284,-0.12030721,0.16439247,0.0,0.0,0.0,0.0,0.0,0.0
1058,4.6708374,1,-0.034310296,0.05853176,0.15036297,0.0,0.0,0.0,0.0,0.0,0.0
1059,4.675232,1,-0.079806,-0.057154894,0.19002533,0.0,0.0,0.0,0.0,0.0,0.0
1060,4.6796265,1,-0.04125601,0.014068842,0.1563139,0.0,0.0,0.0,0.0,0.0,0.0
1061,4.684021,1,-0.087318376,-0.06380057,0.19638348,0.0,0.0,0.0,0.0,0.0,0.0
1062,4.6884155,1,-0.09987575,-0.057174444,0.20893097,0.0,0.0,0.0,0.0,0.0,0.0
1063,4.69281,1,-0.11379725,0.005541086,0.22288418,0.0,0.0,0.0,0.0,0.0,0.0
1064,4.6972046,1,-0.06097704,-0.009326935,0.17551327,0.0,0.0,0.0,0.0,0.0,0.0
1065,4.701599,1,-0.13118774,-0.092463255,0.23485756,0.0,0.0,0.0,0.0,0.0,0.0
1066,4.7059937,1,0.13954419,0.20851779,-0.009435654,0.0,0.0,0.0,0.0,0.0,0.0
1067,4.710388,1,0.13867961,0.09053993,-0.012177467,0.0,0.0,0.0,0.0,0.0,0.0
1068,4.7147827,1,0.0845436,0.1272316,0.04010296,0.0,0.0,0.0,0.0,0.0,0.0
1069,4.7191772,1,0.04917407,0.11630106,0.07202721,0.0,0.0,0.0,0.0,0.0,0.0
1070,4.723572,1,0.049514234,0.11710787,0.07238579,0.0,0.0,0.0,0.0,0.0,0.0
1071,4.7279663,1,0.12522683,0.22786117,0.005867958,0.0,0.0,0.0,0.0,0.0,0.0
1072,4.732361,1,0.117960885,0.06422162,0.0078048706,0.0,0.0,0.0,0.0,0.0,0.0
1073,4.7367554,1,0.15398338,0.2897861,-0.017041206,0.0,0.0,0.0,0.0,0.0,0.0
1074,4.74115,1,0.08646552,0.05873418,0.039717674,0.0,0.0,0.0,0.0,0.0,0.0
1075,4.7455444,1,0.11831963,0.14398575,0.013786316,0.0,0.0,0.0,0.0,0.0,0.0
1076,4.749939,1,0.09932041,0.14952397,0.03315735,0.0,0.0,0.0,0.0,0.0,0.0
1077,4.7543335,1,-3.716331E-4,-0.12595153,0.11723137,0.0,0.0,0.0,0.0,0.0,0.0
1078,4.758728,1,0.041910067,0.06971502,0.08816624,0.0,0.0,0.0,0.0,0.0,0.0
1079,4.7631226,1,0.043978184,0.06620145,0.08536148,0.0,0.0,0.0,0.0,0.0,0.0
1080,4.767517,1,0.059007913,-0.014532328,0.06908703,0.0,0.0,0.0,0.0,0.0,0.0
1081,4.7719116,1,0.08303478,0.054579496,0.051444054,0.0,0.0,0.0,0.0,0.0,0.0
1082,4.776306,1,0.10200119,0.035887957,0.0319767,0.0,0.0,0.0,0.0,0.0,0.0
1083,4.7807007,1,0.12521411,0.06461167,0.011709213,0.0,0.0,0.0,0.0,0.0,0.0
1084,4.785095,1,-0.025743945,-0.002047062,0.15006256,0.0,0.0,0.0,0.0,0.0,0.0
1085,4.7894897,1,-0.10323255,-0.061279297,0.22096157,0.0,0.0,0.0,0.0,0.0,0.0
1086,4.7938843,1,-0.054103002,-0.17564392,0.16786098,0.0,0.0,0.0,0.0,0.0,0.0
1087,4.798279,1,-0.05879648,-0.15654111,0.17263031,0.0,0.0,0.0,0.0,0.0,0.0
1088,4.8026733,1,-0.033353463,-0.07494569,0.15541649,0.0,0.0,0.0,0.0,0.0,0.0
1089,4.807068,1,0.042500585,0.04177475,0.08781242,0.0,0.0,0.0,0.0,0.0,0.0
1090,4.8114624,1,0.064237595,0.10402155,0.067154884,0.0,0.0,0.0,0.0,0.0,0.0
1091,4.815857,1,0.04733351,0.04671216,0.078798294,0.0,0.0,0.0,0.0,0.0,0.0
1092,4.8202515,1,0.11681092,0.024790049,0.014117241,0.0,0.0,0.0,0.0,0.0,0.0
1093,4.824646,1,0.082593605,0.08370781,0.04539776,0.0,0.0,0.0,0.0,0.0,0.0
1094,4.8290405,1,0.05049698,0.07446885,0.07553387,0.0,0.0,0.0,0.0,0.0,0.0
1095,4.833435,1,-0.059571043,-0.029015303,0.17406082,0.0,0.0,0.0,0.0,0.0,0.0
1096,4.8378296,1,-0.016263394,0.07714367,0.13618755,0.0,0.0,0.0,0.0,0.0,0.0
1097,4.842224,1,0.077668995,0.15070558,0.05084324,0.0,0.0,0.0,0.0,0.0,0.0
1098,4.8466187,1,0.061829716,0.26313043,0.07007027,0.0,0.0,0.0,0.0,0.0,0.0
1099,4.851013,1,0.023649858,0.058966875,0.096738815,0.0,0.0,0.0,0.0,0.0,0.0
1100,4.8554077,1,0.09789565,0.07176137,0.027173996,0.0,0.0,0.0,0.0,0.0,0.0
1101,4.8598022,1,0.07080592,0.15379095,0.055550575,0.0,0.0,0.0,0.0,0.0,0.0
1102,4.864197,1,0.044783697,0.17766905,0.08214283,0.0,0.0,0.0,0.0,0.0,0.0
1103,4.8685913,1,0.048316985,0.1799941,0.07807732,0.0,0.0,0.0,0.0,0.0,0.0
1104,4.872986,1,0.025516542,0.078581095,0.09449196,0.0,0.0,0.0,0.0,0.0,0.0
1105,4.8773804,1,0.12854137,0.20828152,0.002453804,0.0,0.0,0.0,0.0,0.0,0.0
1106,4.881775,1,-0.059383973,0.061382055,0.17272663,0.0,0.0,0.0,0.0,0.0,0.0
1107,4.8861694,1,-0.08568558,-0.005707979,0.19354248,0.0,0.0,0.0,0.0,0.0,0.0
1108,4.890564,1,-0.067631915,-2.6369095E-4,0.18004322,0.0,0.0,0.0,0.0,0.0,0.0
1109,4.8949585,1,-0.05196877,0.018204689,0.16778088,0.0,0.0,0.0,0.0,0.0,0.0
1110,4.899353,1,-0.0013011228,0.076244116,0.121427536,0.0,0.0,0.0,0.0,0.0,0.0
1111,4.9037476,1,-0.11339943,-0.11432433,0.21794415,0.0,0.0,0.0,0.0,0.0,0.0
1112,4.908142,1,-0.13794129,0.031307936,0.24829483,0.0,0.0,0.0,0.0,0.0,0.0
1113,4.9125366,1,-0.030190675,0.10214877,0.15236378,0.0,0.0,0.0,0.0,0.0,0.0
1114,4.916931,1,-0.07404046,0.06854272,0.19153786,0.0,0.0,0.0,0.0,0.0,0.0
1115,4.9213257,1,0.020898135,0.0309093,0.10219383,0.0,0.0,0.0,0.0,0.0,0.0
1116,4.92572,1,0.03014821,0.1587236,0.09910202,0.0,0.0,0.0,0.0,0.0,0.0
1117,4.9301147,1,0.08987273,0.16703367,0.042378426,0.0,0.0,0.0,0.0,0.0,0.0
1118,4.9345093,1,0.18917787,0.17697215,-0.05053425,0.0,0.0,0.0,0.0,0.0,0.0
1119,4.938904,1,0.13685362,0.05052805,-0.003692627,0.0,0.0,0.0,0.0,0.0,0.0
1120,4.9432983,1,0.05226478,-0.015214682,0.073862076,0.0,0.0,0.0,0.0,0.0,0.0
1121,4.947693,1,0.07300843,0.22509551,0.06404495,0.0,0.0,0.0,0.0,0.0,0.0
1122,4.9520874,1,0.10890238,0.09830737,0.022709846,0.0,0.0,0.0,0.0,0.0,0.0
1123,4.956482,1,0.0017148275,0.08057952,0.12513542,0.0,0.0,0.0,0.0,0.0,0.0
1124,4.9608765,1,0.0059212167,0.11391187,0.12358189,0.0,0.0,0.0,0.0,0.0,0.0
1125,4.965271,1,-0.059886187,-0.050783396,0.17675972,0.0,0.0,0.0,0.0,0.0,0.0
1126,4.9696655,1,0.012660386,-0.034436703,0.11148071,0.0,0.0,0.0,0.0,0.0,0.0
1127,4.97406,1,0.012863012,-0.034290075,0.11142731,0.0,0.0,0.0,0.0,0.0,0.0
1128,4.9784546,1,0.1076152,0.109812975,0.02716446,0.0,0.0,0.0,0.0,0.0,0.0
1129,4.982849,1,-0.09795204,-0.03640294,0.21530056,0.0,0.0,0.0,0.0,0.0,0.0
1130,4.9872437,1,-0.04737775,-0.005095482,0.1687088,0.0,0.0,0.0,0.0,0.0,0.0
1131,4.991638,1,-0.039105803,-0.041011095,0.15933418,0.0,0.0,0.0,0.0,0.0,0.0
1132,4.9960327,1,-0.0077123623,0.13622642,0.1361227,0.0,0.0,0.0,0.0,0.0,0.0
1133,5.0004272,1,0.052297235,0.16317868,0.0823431,0.0,0.0,0.0,0.0,0.0,0.0
1134,5.004822,1,0.029675173,0.18133235,0.10647106,0.0,0.0,0.0,0.0,0.0,0.0
1135,5.0092163,1,0.031724483,0.036776066,0.09874344,0.0,0.0,0.0,0.0,0.0,0.0
1136,5.013611,1,0.011424111,0.23546314,0.126894,0.0,0.0,0.0,0.0,0.0,0.0
1137,5.0180054,1,-0.014601363,0.13967538,0.14792538,0.0,0.0,0.0,0.0,0.0,0.0
1138,5.0224,1,0.058930606,0.10964513,0.07890034,0.0,0.0,0.0,0.0,0.0,0.0
1139,5.0267944,1,-0.023397906,-0.07034612,0.14877892,0.0,0.0,0.0,0.0,0.0,0.0
1140,5.031189,1,-0.0525209,0.13790298,0.18978214,0.0,0.0,0.0,0.0,0.0,0.0
1141,5.0355835,1,0.058656886,0.17386222,0.08734608,0.0,0.0,0.0,0.0,0.0,0.0
1142,5.039978,1,0.0135927815,0.044097185,0.1258707,0.0,0.0,0.0,0.0,0.0,0.0
1143,5.0443726,1,-0.04977925,0.021104097,0.18711185,0.0,0.0,0.0,0.0,0.0,0.0
1144,5.048767,1,0.07981831,-0.037991762,0.064017296,0.0,0.0,0.0,0.0,0.0,0.0
1145,5.0531616,1,0.08759835,0.019178152,0.060614586,0.0,0.0,0.0,0.0,0.0,0.0
1146,5.057556,1,0.01981351,-0.038520575,0.124464035,0.0,0.0,0.0,0.0,0.0,0.0
1147,5.0619507,1,0.117410436,-0.1400764,0.029453278,0.0,0.0,0.0,0.0,0.0,0.0
1148,5.066345,1,0.028719785,-0.06257796,0.11906338,0.0,0.0,0.0,0.0,0.0,0.0
1149,5.0707397,1,0.0830833,-0.016526699,0.066254616,0.0,0.0,0.0,0.0,0.0,0.0
1150,5.0751343,1,0.03642395,-0.069134474,0.110569954,0.0,0.0,0.0,0.0,0.0,0.0
1151,5.079529,1,-0.042321056,-0.10637164,0.18476582,0.0,0.0,0.0,0.0,0.0,0.0
1152,5.0839233,1,0.075935856,-0.21812773,0.067251205,0.0,0.0,0.0,0.0,0.0,0.0
1153,5.088318,1,0.024394246,-0.2004044,0.11664295,0.0,0.0,0.0,0.0,0.0,0.0
1154,5.0927124,1,-0.12557888,-0.16245961,0.26010323,0.0,0.0,0.0,0.0,0.0,0.0
1155,5.097107,1,-0.08722499,-0.12747121,0.225523,0.0,0.0,0.0,0.0,0.0,0.0
1156,5.1015015,1,0.037325457,-0.04507184,0.10905743,0.0,0.0,0.0,0.0,0.0,0.0
1157,5.105896,1,-0.017875595,-0.073218584,0.16012192,0.0,0.0,0.0,0.0,0.0,0.0
1158,5.1102905,1,0.057001263,0.040469408,0.09391403,0.0,0.0,0.0,0.0,0.0,0.0
1159,5.114685,1,-0.0035686474,-0.011737585,0.14734364,0.0,0.0,0.0,0.0,0.0,0.0
1160,5.1190796,1,-0.04649204,0.024345398,0.18958378,0.0,0.0,0.0,0.0,0.0,0.0
1161,5.123474,1,0.04663855,-0.031404972,0.09705925,0.0,0.0,0.0,0.0,0.0,0.0
1162,5.1278687,1,0.0241161,0.1648016,0.12571716,0.0,0.0,0.0,0.0,0.0,0.0
1163,5.132263,1,0.026397543,0.05261302,0.11715889,0.0,0.0,0.0,0.0,0.0,0.0
1164,5.1366577,1,0.07804778,0.16924977,0.07464695,0.0,0.0,0.0,0.0,0.0,0.0
1165,5.1410522,1,-0.068024024,0.13617611,0.21010208,0.0,0.0,0.0,0.0,0.0,0.0
1166,5.145447,1,0.06809129,0.17180705,0.08128452,0.0,0.0,0.0,0.0,0.0,0.0
1167,5.1498413,1,0.14899425,0.13669562,0.003200531,0.0,0.0,0.0,0.0,0.0,0.0
1168,5.154236,1,0.03252834,-0.0108606815,0.10636616,0.0,0.0,0.0,0.0,0.0,0.0
1169,5.1586304,1,0.14459877,0.073334455,0.0035114288,0.0,0.0,0.0,0.0,0.0,0.0
1170,5.163025,1,0.06506854,0.1263268,0.08114052,0.0,0.0,0.0,0.0,0.0,0.0
1171,5.1674194,1,0.04210098,0.13204408,0.103339195,0.0,0.0,0.0,0.0,0.0,0.0
1172,5.171814,1,0.119866714,0.1812346,0.03180504,0.0,0.0,0.0,0.0,0.0,0.0
1173,5.1762085,1,0.05371487,0.18454814,0.09512329,0.0,0.0,0.0,0.0,0.0,0.0
1174,5.180603,1,0.024232807,0.054453135,0.11840153,0.0,0.0,0.0,0.0,0.0,0.0
1175,5.1849976,1,-0.09694268,0.16427588,0.23724079,0.0,0.0,0.0,0.0,0.0,0.0
1176,5.189392,1,-0.13166688,-0.054388285,0.2612095,0.0,0.0,0.0,0.0,0.0,0.0
1177,5.1937866,1,-0.0049069654,0.03774309,0.14391518,0.0,0.0,0.0,0.0,0.0,0.0
1178,5.198181,1,-0.14559448,0.16196275,0.2837143,0.0,0.0,0.0,0.0,0.0,0.0
1179,5.2025757,1,-0.07660058,0.029144049,0.2138853,0.0,0.0,0.0,0.0,0.0,0.0
1180,5.20697,1,-0.13485573,0.07270694,0.2699871,0.0,0.0,0.0,0.0,0.0,0.0
1181,5.2113647,1,-0.17533782,-0.06343293,0.3041458,0.0,0.0,0.0,0.0,0.0,0.0
1182,5.2157593,1,-0.053461343,0.12490964,0.19734383,0.0,0.0,0.0,0.0,0.0,0.0
1183,5.220154,1,0.1124987,0.14398623,0.04067993,0.0,0.0,0.0,0.0,0.0,0.0
1184,5.2245483,1,0.112148926,0.14342713,0.041047096,0.0,0.0,0.0,0.0,0.0,0.0
1185,5.228943,1,-0.05166024,0.076103926,0.1947279,0.0,0.0,0.0,0.0,0.0,0.0
1186,5.2333374,1,-0.023960365,0.14061046,0.16914749,0.0,0.0,0.0,0.0,0.0,0.0
1187,5.237732,1,0.09238118,0.28288603,0.065133095,0.0,0.0,0.0,0.0,0.0,0.0
1188,5.2421265,1,-0.03075759,0.11821771,0.17396164,0.0,0.0,0.0,0.0,0.0,0.0
1189,5.246521,1,-0.0199877,-0.045992613,0.15728092,0.0,0.0,0.0,0.0,0.0,0.0
1190,5.2509155,1,-0.025324179,-0.011981249,0.16582489,0.0,0.0,0.0,0.0,0.0,0.0
1191,5.25531,1,0.092430875,0.06563544,0.058685303,0.0,0.0,0.0,0.0,0.0,0.0
1192,5.2597046,1,0.2151112,0.0868485,-0.055047035,0.0,0.0,0.0,0.0,0.0,0.0
1193,5.264099,1,0.08661759,0.08342075,0.06828976,0.0,0.0,0.0,0.0,0.0,0.0
1194,5.2684937,1,0.071370915,0.086152315,0.08256245,0.0,0.0,0.0,0.0,0.0,0.0
1195,5.272888,1,0.05236119,-0.11594629,0.09468269,0.0,0.0,0.0,0.0,0.0,0.0
1196,5.2772827,1,0.005005868,0.04937148,0.1476984,0.0,0.0,0.0,0.0,0.0,0.0
1197,5.2816772,1,0.12078674,0.067861795,0.040895462,0.0,0.0,0.0,0.0,0.0,0.0
1198,5.286072,1,0.03624192,-0.030290365,0.11775684,0.0,0.0,0.0,0.0,0.0,0.0
1199,5.2904663,1,-0.03879088,-0.09574962,0.18287277,0.0,0.0,0.0,0.0,0.0,0.0
1200,5.294861,1,-0.0067486,-0.017205954,0.15716553,0.0,0.0,0.0,0.0,0.0,0.0
1201,5.2992554,1,-0.025401799,-0.11675,0.17116737,0.0,0.0,0.0,0.0,0.0,0.0
1202,5.30365,1,0.19225842,-0.022702932,-0.032092094,0.0,0.0,0.0,0.0,0.0,0.0
1203,5.3080444,1,0.053320855,-0.019269466,0.102353096,0.0,0.0,0.0,0.0,0.0,0.0
1204,5.312439,1,0.005467342,0.0023725033,0.1475048,0.0,0.0,0.0,0.0,0.0,0.0
1205,5.3168335,1,0.065507084,-0.10973477,0.083610535,0.0,0.0,0.0,0.0,0.0,0.0
1206,5.321228,1,0.07646385,0.08248234,0.0831337,0.0,0.0,0.0,0.0,0.0,0.0
1207,5.3256226,1,-0.020719929,-0.014922142,0.16956425,0.0,0.0,0.0,0.0,0.0,0.0
1208,5.330017,1,0.088678464,0.06716895,0.069241524,0.0,0.0,0.0,0.0,0.0,0.0
1209,5.3344116,1,-0.0069066267,-0.1086154,0.15226269,0.0,0.0,0.0,0.0,0.0,0.0
1210,5.338806,1,0.016622605,0.026131868,0.13515663,0.0,0.0,0.0,0.0,0.0,0.0
1211,5.3432007,1,0.06570664,0.09148884,0.08993149,0.0,0.0,0.0,0.0,0.0,0.0
1212,5.347595,1,0.03942333,0.20189452,0.119565964,0.0,0.0,0.0,0.0,0.0,0.0
1213,5.3519897,1,0.054656103,0.10496187,0.101317406,0.0,0.0,0.0,0.0,0.0,0.0
1214,5.3563843,1,0.020947875,0.037493944,0.13015652,0.0,0.0,0.0,0.0,0.0,0.0
1215,5.360779,1,0.010722505,-0.075408936,0.13460255,0.0,0.0,0.0,0.0,0.0,0.0
1216,5.3651733,1,0.017749177,-0.0024383068,0.13168144,0.0,0.0,0.0,0.0,0.0,0.0
1217,5.369568,1,0.13372013,0.07152796,0.024760246,0.0,0.0,0.0,0.0,0.0,0.0
1218,5.3739624,1,-0.032012478,0.101878405,0.18255806,0.0,0.0,0.0,0.0,0.0,0.0
1219,5.378357,1,0.06666672,-0.024034977,0.085271835,0.0,0.0,0.0,0.0,0.0,0.0
1220,5.3827515,1,-0.07979347,0.049462557,0.2288065,0.0,0.0,0.0,0.0,0.0,0.0
1221,5.387146,1,0.0018133838,0.058782816,0.15133095,0.0,0.0,0.0,0.0,0.0,0.0
1222,5.3915405,1,-0.003927676,0.103064775,0.15853405,0.0,0.0,0.0,0.0,0.0,0.0
1223,5.395935,1,-0.05825211,0.06417441,0.2106638,0.0,0.0,0.0,0.0,0.0,0.0
1224,5.4003296,1,-0.04292214,-0.011812925,0.19270325,0.0,0.0,0.0,0.0,0.0,0.0
1225,5.404724,1,-0.05896698,-0.11034036,0.20391655,0.0,0.0,0.0,0.0,0.0,0.0
1226,5.4091187,1,-0.13259289,-0.03426075,0.27607822,0.0,0.0,0.0,0.0,0.0,0.0
1227,5.413513,1,-0.14175972,0.10475898,0.28966522,0.0,0.0,0.0,0.0,0.0,0.0
1228,5.4179077,1,-0.062283367,0.027575493,0.21071243,0.0,0.0,0.0,0.0,0.0,0.0
1229,5.4223022,1,-0.17966053,-0.0382998,0.31847382,0.0,0.0,0.0,0.0,0.0,0.0
1230,5.426697,1,0.028985174,0.06480765,0.12608719,0.0,0.0,0.0,0.0,0.0,0.0
1231,5.4310913,1,-0.029388113,0.08775568,0.18331814,0.0,0.0,0.0,0.0,0.0,0.0
1232,5.435486,1,0.081140816,-0.039533854,0.075466156,0.0,0.0,0.0,0.0,0.0,0.0
1233,5.4398804,1,-0.14252599,0.08930659,0.29066658,0.0,0.0,0.0,0.0,0.0,0.0
1234,5.444275,1,0.019216048,-0.09933758,0.13246918,0.0,0.0,0.0,0.0,0.0,0.0
1235,5.4486694,1,0.055638358,0.044255495,0.10192013,0.0,0.0,0.0,0.0,0.0,0.0
1236,5.453064,1,0.079768285,0.059262276,0.0829134,0.0,0.0,0.0,0.0,0.0,0.0
1237,5.4574585,1,0.036875263,0.10504556,0.12613392,0.0,0.0,0.0,0.0,0.0,0.0
1238,5.461853,1,0.07560903,0.26526523,0.095936775,0.0,0.0,0.0,0.0,0.0,0.0
1239,5.4662476,1,0.11934094,0.14182448,0.047564507,0.0,0.0,0.0,0.0,0.0,0.0
1240,5.470642,1,0.056103826,0.1350298,0.10817528,0.0,0.0,0.0,0.0,0.0,0.0
1241,5.4750366,1,0.13464966,-0.07022333,0.024967194,0.0,0.0,0.0,0.0,0.0,0.0
1242,5.479431,1,0.017330678,-0.08098674,0.13669872,0.0,0.0,0.0,0.0,0.0,0.0
1243,5.4838257,1,0.08863583,0.089946985,0.07713127,0.0,0.0,0.0,0.0,0.0,0.0
1244,5.48822,1,-0.0034365337,-0.08132529,0.1572485,0.0,0.0,0.0,0.0,0.0,0.0
1245,5.4926147,1,0.045388266,0.069410086,0.11786461,0.0,0.0,0.0,0.0,0.0,0.0
1246,5.4970093,1,0.010815667,-0.07599425,0.14369297,0.0,0.0,0.0,0.0,0.0,0.0
1247,5.501404,1,0.054363668,0.17791796,0.1100378,0.0,0.0,0.0,0.0,0.0,0.0
1248,5.5057983,1,-0.004808007,0.015754461,0.16168308,0.0,0.0,0.0,0.0,0.0,0.0
1249,5.510193,1,-0.0221021,0.080014706,0.18037128,0.0,0.0,0.0,0.0,0.0,0.0
1250,5.5145874,1,0.0022207368,-0.114910126,0.14841461,0.0,0.0,0.0,0.0,0.0,0.0
1251,5.518982,1,0.038947716,0.042400837,0.11883736,0.0,0.0,0.0,0.0,0.0,0.0
1252,5.5233765,1,0.12912098,0.033059835,0.032086372,0.0,0.0,0.0,0.0,0.0,0.0
1253,5.527771,1,0.11921416,-0.160429,0.033852577,0.0,0.0,0.0,0.0,0.0,0.0
1254,5.5321655,1,0.08668533,-0.1783464,0.06465244,0.0,0.0,0.0,0.0,0.0,0.0
1255,5.53656,1,0.03352411,0.1334269,0.1274805,0.0,0.0,0.0,0.0,0.0,0.0
1256,5.5409546,1,0.048505783,0.08608508,0.10958576,0.0,0.0,0.0,0.0,0.0,0.0
1257,5.545349,1,-5.7531707E-4,0.09587431,0.15620708,0.0,0.0,0.0,0.0,0.0,0.0
1258,5.5497437,1,-0.01132278,-0.042536497,0.15958786,0.0,0.0,0.0,0.0,0.0,0.0
1259,5.554138,1,0.035847887,-0.047670603,0.114198685,0.0,0.0,0.0,0.0,0.0,0.0
1260,5.5585327,1,0.086396664,0.10932708,0.0728693,0.0,0.0,0.0,0.0,0.0,0.0
1261,5.5629272,1,0.117641136,0.21947122,0.045737267,0.0,0.0,0.0,0.0,0.0,0.0
1262,5.567322,1,0.068288386,0.2080481,0.09114456,0.0,0.0,0.0,0.0,0.0,0.0
1263,5.5717163,1,0.030051338,0.031585455,0.12037659,0.0,0.0,0.0,0.0,0.0,0.0
1264,5.576111,1,0.018370407,0.05210471,0.12871742,0.0,0.0,0.0,0.0,0.0,0.0
1265,5.5805054,1,0.11920577,0.21507812,0.039979935,0.0,0.0,0.0,0.0,0.0,0.0
1266,5.5849,1,-0.04260251,0.06500888,0.18669128,0.0,0.0,0.0,0.0,0.0,0.0
1267,5.5892944,1,0.02045803,0.009852648,0.12239647,0.0,0.0,0.0,0.0,0.0,0.0
1268,5.593689,1,0.039355874,0.14594483,0.108901024,0.0,0.0,0.0,0.0,0.0,0.0
1269,5.5980835,1,-0.0028102826,0.046399355,0.1456337,0.0,0.0,0.0,0.0,0.0,0.0
1270,5.602478,1,0.0030352045,0.04991722,0.14066029,0.0,0.0,0.0,0.0,0.0,0.0
1271,5.6068726,1,-0.08194801,0.19735217,0.22519493,0.0,0.0,0.0,0.0,0.0,0.0
1272,5.611267,1,-0.054758146,0.06852865,0.19449234,0.0,0.0,0.0,0.0,0.0,0.0
1273,5.6156616,1,-0.08130817,0.06889701,0.21792698,0.0,0.0,0.0,0.0,0.0,0.0
1274,5.620056,1,-5.2359514E-4,0.05839014,0.14123058,0.0,0.0,0.0,0.0,0.0,0.0
1275,5.6244507,1,-0.13997148,0.23896718,0.28202248,0.0,0.0,0.0,0.0,0.0,0.0
1276,5.628845,1,-0.1527722,0.14356828,0.2886486,0.0,0.0,0.0,0.0,0.0,0.0
1277,5.6332397,1,-0.095662996,-0.07641387,0.22466278,0.0,0.0,0.0,0.0,0.0,0.0
1278,5.6376343,1,-0.06582859,0.120325804,0.20471573,0.0,0.0,0.0,0.0,0.0,0.0
1279,5.642029,1,-0.0366074,0.16149497,0.17996979,0.0,0.0,0.0,0.0,0.0,0.0
1280,5.6464233,1,0.0724549,0.070943356,0.07049465,0.0,0.0,0.0,0.0,0.0,0.0
1281,5.650818,1,-0.009251324,0.012008905,0.14786911,0.0,0.0,0.0,0.0,0.0,0.0
1282,5.6552124,1,-0.039817452,0.083721876,0.18112469,0.0,0.0,0.0,0.0,0.0,0.0
1283,5.659607,1,-0.04770626,0.22945571,0.1961565,0.0,0.0,0.0,0.0,0.0,0.0
1284,5.6640015,1,0.13321792,-0.045677185,0.012404442,0.0,0.0,0.0,0.0,0.0,0.0
1285,5.668396,1,0.06230624,0.089589596,0.08500576,0.0,0.0,0.0,0.0,0.0,0.0
1286,5.6727905,1,0.13031991,-0.0497396,0.01689434,0.0,0.0,0.0,0.0,0.0,0.0
1287,5.677185,1,0.08121295,0.076788425,0.06938648,0.0,0.0,0.0,0.0,0.0,0.0
1288,5.6815796,1,0.12623031,-0.06253672,0.021873474,0.0,0.0,0.0,0.0,0.0,0.0
1289,5.685974,1,0.13553181,0.01885891,0.016757011,0.0,0.0,0.0,0.0,0.0,0.0
1290,5.6903687,1,0.17748272,0.082727194,-0.02002716,0.0,0.0,0.0,0.0,0.0,0.0
1291,5.694763,1,0.15086988,0.0026910305,0.001832962,0.0,0.0,0.0,0.0,0.0,0.0
1292,5.6991577,1,0.105446026,-0.019189596,0.04377079,0.0,0.0,0.0,0.0,0.0,0.0
1293,5.7035522,1,0.103622034,-0.14428711,0.04125595,0.0,0.0,0.0,0.0,0.0,0.0
1294,5.707947,1,0.115829065,0.014818907,0.037708282,0.0,0.0,0.0,0.0,0.0,0.0
1295,5.7123413,1,0.021484481,0.034994364,0.12801075,0.0,0.0,0.0,0.0,0.0,0.0
1296,5.716736,1,0.02638446,0.053841114,0.123799324,0.0,0.0,0.0,0.0,0.0,0.0
1297,5.7211304,1,0.021407189,0.13468766,0.12987518,0.0,0.0,0.0,0.0,0.0,0.0
1298,5.725525,1,-0.014709307,0.1139133,0.16517544,0.0,0.0,0.0,0.0,0.0,0.0
1299,5.7299194,1,-0.0033803862,0.14846969,0.15505314,0.0,0.0,0.0,0.0,0.0,0.0
1300,5.734314,1,-0.016556619,0.10160947,0.16380882,0.0,0.0,0.0,0.0,0.0,0.0
1301,5.7387085,1,-0.02769184,0.07320237,0.17665195,0.0,0.0,0.0,0.0,0.0,0.0
1302,5.743103,1,0.07285221,0.12942815,0.08089638,0.0,0.0,0.0,0.0,0.0,0.0
1303,5.7474976,1,0.060284913,0.11346626,0.093379974,0.0,0.0,0.0,0.0,0.0,0.0
1304,5.751892,1,-0.025831817,0.103081465,0.17390919,0.0,0.0,0.0,0.0,0.0,0.0
1305,5.7562866,1,-0.065810904,0.24060106,0.21644402,0.0,0.0,0.0,0.0,0.0,0.0
1306,5.760681,1,-0.023460029,0.099012375,0.17190075,0.0,0.0,0.0,0.0,0.0,0.0
1307,5.7650757,1,0.013592022,0.051199913,0.13244629,0.0,0.0,0.0,0.0,0.0,0.0
1308,5.76947,1,-0.058798835,-0.01839614,0.19997501,0.0,0.0,0.0,0.0,0.0,0.0
1309,5.7738647,1,0.037816435,0.056096315,0.112273216,0.0,0.0,0.0,0.0,0.0,0.0
1310,5.7782593,1,0.16086605,-0.029389381,-0.0047454834,0.0,0.0,0.0,0.0,0.0,0.0
1311,5.782654,1,0.112123415,0.10536122,0.046902657,0.0,0.0,0.0,0.0,0.0,0.0
1312,5.7870483,1,0.08743721,-0.0077443123,0.06296158,0.0,0.0,0.0,0.0,0.0,0.0
1313,5.791443,1,0.0065274853,0.0052974224,0.14196968,0.0,0.0,0.0,0.0,0.0,0.0
1314,5.7958374,1,0.035805896,-0.033931732,0.11470413,0.0,0.0,0.0,0.0,0.0,0.0
1315,5.800232,1,-0.053418234,0.101916075,0.20356274,0.0,0.0,0.0,0.0,0.0,0.0
1316,5.8046265,1,0.010554241,0.01748538,0.1394167,0.0,0.0,0.0,0.0,0.0,0.0
1317,5.809021,1,0.045404702,0.08796525,0.1089077,0.0,0.0,0.0,0.0,0.0,0.0
1318,5.8134155,1,0.016837614,0.13066506,0.13757133,0.0,0.0,0.0,0.0,0.0,0.0
1319,5.81781,1,-0.056079715,-0.013007402,0.20258236,0.0,0.0,0.0,0.0,0.0,0.0
1320,5.8222046,1,-0.01022671,0.035354376,0.16207027,0.0,0.0,0.0,0.0,0.0,0.0
1321,5.826599,1,-0.14500946,-0.08484149,0.28499603,0.0,0.0,0.0,0.0,0.0,0.0
1322,5.8309937,1,-0.040349036,-0.010388613,0.19051647,0.0,0.0,0.0,0.0,0.0,0.0
1323,5.835388,1,0.02334279,0.19722629,0.13708878,0.0,0.0,0.0,0.0,0.0,0.0
1324,5.8397827,1,0.10003272,-0.031858683,0.055858612,0.0,0.0,0.0,0.0,0.0,0.0
1325,5.8441772,1,0.0054804552,0.07157779,0.15379906,0.0,0.0,0.0,0.0,0.0,0.0
1326,5.848572,1,-0.040507928,-0.049045324,0.19099712,0.0,0.0,0.0,0.0,0.0,0.0
1327,5.8529663,1,0.030590447,0.06886363,0.12884235,0.0,0.0,0.0,0.0,0.0,0.0
1328,5.857361,1,-0.005117206,0.005454302,0.16290474,0.0,0.0,0.0,0.0,0.0,0.0
1329,5.8617554,1,0.06582782,0.023921728,0.09623432,0.0,0.0,0.0,0.0,0.0,0.0
1330,5.86615,1,0.064754635,-0.049332857,0.09552193,0.0,0.0,0.0,0.0,0.0,0.0
1331,5.8705444,1,0.075456545,0.034721136,0.089907646,0.0,0.0,0.0,0.0,0.0,0.0
1332,5.874939,1,0.039516374,0.0834105,0.1256237,0.0,0.0,0.0,0.0,0.0,0.0
1333,5.8793335,1,0.057651147,-0.047415495,0.10272312,0.0,0.0,0.0,0.0,0.0,0.0
1334,5.883728,1,0.12400438,0.03646159,0.045066833,0.0,0.0,0.0,0.0,0.0,0.0
1335,5.8881226,1,0.117903784,-0.124415636,0.044610023,0.0,0.0,0.0,0.0,0.0,0.0
1336,5.892517,1,0.0050163288,0.008816719,0.15628529,0.0,0.0,0.0,0.0,0.0,0.0
1337,5.8969116,1,0.0051293243,0.14294958,0.16306877,0.0,0.0,0.0,0.0,0.0,0.0
1338,5.901306,1,-0.0010254662,0.16589522,0.1694746,0.0,0.0,0.0,0.0,0.0,0.0
1339,5.9057007,1,-0.044692576,0.15097141,0.21110535,0.0,0.0,0.0,0.0,0.0,0.0
1340,5.910095,1,-0.06657727,0.11977172,0.2303915,0.0,0.0,0.0,0.0,0.0,0.0
1341,5.9144897,1,0.079950914,0.19466925,0.09445667,0.0,0.0,0.0,0.0,0.0,0.0
1342,5.9188843,1,0.016709255,0.12939286,0.1512928,0.0,0.0,0.0,0.0,0.0,0.0
1343,5.923279,1,-0.0071053337,0.11145592,0.1710062,0.0,0.0,0.0,0.0,0.0,0.0
1344,5.9276733,1,0.01826431,0.06319308,0.14429569,0.0,0.0,0.0,0.0,0.0,0.0
1345,5.932068,1,0.099159285,0.18829513,0.071370125,0.0,0.0,0.0,0.0,0.0,0.0
1346,5.9364624,1,0.040556073,0.068728685,0.12027264,0.0,0.0,0.0,0.0,0.0,0.0
1347,5.940857,1,0.04099369,0.106473684,0.12205887,0.0,0.0,0.0,0.0,0.0,0.0
1348,5.9452515,1,0.028989749,0.21021962,0.13733006,0.0,0.0,0.0,0.0,0.0,0.0
1349,5.949646,1,-0.064049676,-0.048188448,0.21669102,0.0,0.0,0.0,0.0,0.0,0.0
1350,5.9540405,1,-0.044571385,0.025766611,0.20113564,0.0,0.0,0.0,0.0,0.0,0.0
1351,5.958435,1,-7.9214387E-4,-0.122349024,0.15554237,0.0,0.0,0.0,0.0,0.0,0.0
1352,5.9628296,1,0.048481986,0.079726934,0.117087364,0.0,0.0,0.0,0.0,0.0,0.0
1353,5.967224,1,-0.010257183,-0.013809919,0.17049408,0.0,0.0,0.0,0.0,0.0,0.0
1354,5.9716187,1,0.024598809,-0.09233284,0.13687706,0.0,0.0,0.0,0.0,0.0,0.0
1355,5.976013,1,0.098655805,8.647442E-4,0.07072163,0.0,0.0,0.0,0.0,0.0,0.0
1356,5.9804077,1,0.018200161,-0.023504972,0.14868546,0.0,0.0,0.0,0.0,0.0,0.0
1357,5.9848022,1,0.0079774875,-0.030908585,0.15758133,0.0,0.0,0.0,0.0,0.0,0.0
1358,5.989197,1,0.009544479,-0.08937955,0.15549564,0.0,0.0,0.0,0.0,0.0,0.0
1359,5.9935913,1,0.030679287,-0.09498072,0.13786602,0.0,0.0,0.0,0.0,0.0,0.0
1360,5.997986,1,-0.038872793,0.060518026,0.20961094,0.0,0.0,0.0,0.0,0.0,0.0
1361,6.0023804,1,-0.014456434,-0.14980364,0.177248,0.0,0.0,0.0,0.0,0.0,0.0
1362,6.006775,1,0.100188226,-0.044253588,0.07474899,0.0,0.0,0.0,0.0,0.0,0.0
1363,6.0111694,1,0.11552903,-0.021308184,0.061870575,0.0,0.0,0.0,0.0,0.0,0.0
1364,6.015564,1,0.045084268,-0.15969634,0.12214947,0.0,0.0,0.0,0.0,0.0,0.0
1365,6.0199585,1,0.037205175,0.053149223,0.13796711,0.0,0.0,0.0,0.0,0.0,0.0
1366,6.024353,1,-0.049043,-0.11160207,0.2100048,0.0,0.0,0.0,0.0,0.0,0.0
1367,6.0287476,1,-0.06279048,-0.13896418,0.22214985,0.0,0.0,0.0,0.0,0.0,0.0
1368,6.033142,1,-0.16189854,-0.019827843,0.31893063,0.0,0.0,0.0,0.0,0.0,0.0
1369,6.0375366,1,-0.13041046,-0.03194022,0.29079247,0.0,0.0,0.0,0.0,0.0,0.0
1370,6.041931,1,-0.06786513,0.10349631,0.23576641,0.0,0.0,0.0,0.0,0.0,0.0
1371,6.0463257,1,-0.0910992,0.042839766,0.25598145,0.0,0.0,0.0,0.0,0.0,0.0
1372,6.05072,1,-0.032640606,-0.10924649,0.19225311,0.0,0.0,0.0,0.0,0.0,0.0
1373,6.0551147,1,-0.0905312,0.029046059,0.25385284,0.0,0.0,0.0,0.0,0.0,0.0
1374,6.0595093,1,0.07000652,0.004707098,0.09832668,0.0,0.0,0.0,0.0,0.0,0.0
1375,6.063904,1,-0.12331787,-0.22640538,0.27274704,0.0,0.0,0.0,0.0,0.0,0.0
1376,6.0682983,1,-0.029188571,0.10618663,0.1947422,0.0,0.0,0.0,0.0,0.0,0.0
1377,6.072693,1,0.049434245,-0.008557558,0.116835594,0.0,0.0,0.0,0.0,0.0,0.0
1378,6.0770874,1,0.030532079,-0.026420355,0.13475704,0.0,0.0,0.0,0.0,0.0,0.0
1379,6.081482,1,0.1570142,-0.08088803,0.01033783,0.0,0.0,0.0,0.0,0.0,0.0
1380,6.0858765,1,0.11479509,0.03250718,0.0565567,0.0,0.0,0.0,0.0,0.0,0.0
1381,6.090271,1,0.12879407,0.0012900829,0.04250145,0.0,0.0,0.0,0.0,0.0,0.0
1382,6.0946655,1,0.2471768,-0.07761121,-0.0720911,0.0,0.0,0.0,0.0,0.0,0.0
1383,6.09906,1,0.108815774,-0.034749746,0.058940887,0.0,0.0,0.0,0.0,0.0,0.0
1384,6.1034546,1,0.022850351,-0.11554122,0.13827991,0.0,0.0,0.0,0.0,0.0,0.0
1385,6.107849,1,0.13761249,0.003567934,0.033851624,0.0,0.0,0.0,0.0,0.0,0.0
1386,6.1122437,1,0.045935392,0.02269888,0.120007515,0.0,0.0,0.0,0.0,0.0,0.0
1387,6.116638,1,0.05863732,-0.053262472,0.104914665,0.0,0.0,0.0,0.0,0.0,0.0
1388,6.1210327,1,0.031184243,0.011850357,0.13521099,0.0,0.0,0.0,0.0,0.0,0.0
1389,6.1254272,1,0.1433297,0.05149746,0.029572487,0.0,0.0,0.0,0.0,0.0,0.0
1390,6.129822,1,-0.018898947,0.06460929,0.18257046,0.0,0.0,0.0,0.0,0.0,0.0
1391,6.1342163,1,0.0457056,0.14038873,0.12164688,0.0,0.0,0.0,0.0,0.0,0.0
1392,6.138611,1,-0.053395346,-0.1379044,0.20463943,0.0,0.0,0.0,0.0,0.0,0.0
1393,6.1430054,1,-0.096906856,0.11911726,0.2565031,0.0,0.0,0.0,0.0,0.0,0.0
1394,6.1474,1,-0.08451699,0.10788751,0.24348545,0.0,0.0,0.0,0.0,0.0,0.0
1395,6.1517944,1,-2.7826242E-4,0.10672641,0.16139698,0.0,0.0,0.0,0.0,0.0,0.0
1396,6.156189,1,-0.013762711,0.09148669,0.17601109,0.0,0.0,0.0,0.0,0.0,0.0
1397,6.1605835,1,-0.008350326,0.06200552,0.16913033,0.0,0.0,0.0,0.0,0.0,0.0
1398,6.164978,1,-0.13674477,0.112546206,0.29146004,0.0,0.0,0.0,0.0,0.0,0.0
1399,6.1693726,1,-0.038916513,0.13109517,0.19736385,0.0,0.0,0.0,0.0,0.0,0.0
1400,6.173767,1,-0.092360035,0.11575174,0.24801254,0.0,0.0,0.0,0.0,0.0,0.0
1401,6.1781616,1,-0.02367927,0.05131483,0.18163395,0.0,0.0,0.0,0.0,0.0,0.0
1402,6.182556,1,0.008418085,0.08250761,0.15244007,0.0,0.0,0.0,0.0,0.0,0.0
1403,6.1869507,1,0.095466435,-0.03751731,0.069355965,0.0,0.0,0.0,0.0,0.0,0.0
1404,6.191345,1,0.12826464,0.012847185,0.038004875,0.0,0.0,0.0,0.0,0.0,0.0
1405,6.1957397,1,0.084705785,0.12955594,0.084584236,0.0,0.0,0.0,0.0,0.0,0.0
1406,6.2001343,1,-0.001953585,0.0806973,0.16306019,0.0,0.0,0.0,0.0,0.0,0.0
1407,6.204529,1,0.006603213,-0.012203455,0.15287209,0.0,0.0,0.0,0.0,0.0,0.0
1408,6.2089233,1,0.101090744,0.091606855,0.06547642,0.0,0.0,0.0,0.0,0.0,0.0
1409,6.213318,1,-0.030530049,0.13823485,0.19311714,0.0,0.0,0.0,0.0,0.0,0.0
1410,6.2177124,1,0.088868946,-0.06835437,0.073451996,0.0,0.0,0.0,0.0,0.0,0.0
1411,6.222107,1,0.058331177,-0.0083703995,0.10794735,0.0,0.0,0.0,0.0,0.0,0.0
1412,6.2265015,1,0.08126384,-0.001414299,0.08687973,0.0,0.0,0.0,0.0,0.0,0.0
1413,6.230896,1,0.09046584,0.035243273,0.0775013,0.0,0.0,0.0,0.0,0.0,0.0
1414,6.2352905,1,-0.051529884,-0.053432226,0.20978165,0.0,0.0,0.0,0.0,0.0,0.0
1415,6.239685,1,0.08112572,-0.0020637512,0.086771965,0.0,0.0,0.0,0.0,0.0,0.0
1416,6.2440796,1,0.060177848,0.07156491,0.110910416,0.0,0.0,0.0,0.0,0.0,0.0
1417,6.248474,1,0.07360847,0.07198095,0.09716034,0.0,0.0,0.0,0.0,0.0,0.0
1418,6.2528687,1,-0.0039087515,0.15524793,0.1727314,0.0,0.0,0.0,0.0,0.0,0.0
1419,6.257263,1,-0.006063102,0.004977703,0.16721725,0.0,0.0,0.0,0.0,0.0,0.0
1420,6.2616577,1,0.0014446694,0.16762424,0.16589355,0.0,0.0,0.0,0.0,0.0,0.0
1421,6.2660522,1,0.006500395,0.17512202,0.16100883,0.0,0.0,0.0,0.0,0.0,0.0
1422,6.270447,1,0.118276805,0.12661457,0.052933693,0.0,0.0,0.0,0.0,0.0,0.0
1423,6.2748413,1,-0.10145065,0.0050475597,0.256135,0.0,0.0,0.0,0.0,0.0,0.0
1424,6.279236,1,0.038208157,0.12559819,0.12847233,0.0,0.0,0.0,0.0,0.0,0.0
1425,6.2836304,1,-0.0089897495,0.050651312,0.17050171,0.0,0.0,0.0,0.0,0.0,0.0
1426,6.288025,1,-0.0012851935,-0.05309367,0.15951347,0.0,0.0,0.0,0.0,0.0,0.0
1427,6.2924194,1,-0.049821943,0.047643185,0.20786667,0.0,0.0,0.0,0.0,0.0,0.0
1428,6.296814,1,-0.04309337,0.19960356,0.20768642,0.0,0.0,0.0,0.0,0.0,0.0
1429,6.3012085,1,-0.049300835,0.07381368,0.20824146,0.0,0.0,0.0,0.0,0.0,0.0
1430,6.305603,1,-0.016838444,-0.046740294,0.17144871,0.0,0.0,0.0,0.0,0.0,0.0
1431,6.3099976,1,-0.04462251,-0.062333822,0.19838142,0.0,0.0,0.0,0.0,0.0,0.0
1432,6.314392,1,0.013321223,-0.010924101,0.14691639,0.0,0.0,0.0,0.0,0.0,0.0
1433,6.3187866,1,-0.012849165,0.03263545,0.17457771,0.0,0.0,0.0,0.0,0.0,0.0
1434,6.323181,1,0.014051126,0.02558446,0.14641476,0.0,0.0,0.0,0.0,0.0,0.0
1435,6.3275757,1,-0.0013449918,0.016055346,0.16167164,0.0,0.0,0.0,0.0,0.0,0.0
1436,6.33197,1,0.11240855,0.14072251,0.058633804,0.0,0.0,0.0,0.0,0.0,0.0
1437,6.3363647,1,-0.06899905,0.051179886,0.22774887,0.0,0.0,0.0,0.0,0.0,0.0
1438,6.3407593,1,0.09679341,0.12176466,0.07514763,0.0,0.0,0.0,0.0,0.0,0.0
1439,6.345154,1,0.044736207,0.11912656,0.12299156,0.0,0.0,0.0,0.0,0.0,0.0
1440,6.3495483,1,0.03954637,0.13096642,0.12846565,0.0,0.0,0.0,0.0,0.0,0.0
1441,6.353943,1,-0.010387016,0.14615583,0.1767788,0.0,0.0,0.0,0.0,0.0,0.0
1442,6.3583374,1,0.029344382,-0.08284974,0.13359165,0.0,0.0,0.0,0.0,0.0,0.0
1443,6.362732,1,0.0030481387,0.009485483,0.1615839,0.0,0.0,0.0,0.0,0.0,0.0
1444,6.3671265,1,0.08762041,0.0042393208,0.08417225,0.0,0.0,0.0,0.0,0.0,0.0
1445,6.371521,1,0.10441758,0.044327974,0.06680012,0.0,0.0,0.0,0.0,0.0,0.0
1446,6.3759155,1,0.0192834,0.05638814,0.15068054,0.0,0.0,0.0,0.0,0.0,0.0
1447,6.38031,1,0.063360974,-0.02360177,0.107087135,0.0,0.0,0.0,0.0,0.0,0.0
1448,6.3847046,1,0.014878513,-0.06257892,0.15026283,0.0,0.0,0.0,0.0,0.0,0.0
1449,6.389099,1,0.01300274,0.026770115,0.15653229,0.0,0.0,0.0,0.0,0.0,0.0
1450,6.3934937,1,0.08094713,-0.11259341,0.088051796,0.0,0.0,0.0,0.0,0.0,0.0
1451,6.397888,1,0.12103836,0.03209853,0.05774212,0.0,0.0,0.0,0.0,0.0,0.0
1452,6.4022827,1,0.10970287,0.03479886,0.06981754,0.0,0.0,0.0,0.0,0.0,0.0
1453,6.4066772,1,0.036956713,-0.06317687,0.13541317,0.0,0.0,0.0,0.0,0.0,0.0
1454,6.411072,1,0.041100696,-0.09566569,0.12766647,0.0,0.0,0.0,0.0,0.0,0.0
1455,6.4154663,1,-0.054678902,-0.32483363,0.2103672,0.0,0.0,0.0,0.0,0.0,0.0
1456,6.419861,1,-0.078540176,-0.02201581,0.24534225,0.0,0.0,0.0,0.0,0.0,0.0
1457,6.4242554,1,-0.0050420593,0.049624205,0.18032837,0.0,0.0,0.0,0.0,0.0,0.0
1458,6.42865,1,0.084557846,-0.1012404,0.086839676,0.0,0.0,0.0,0.0,0.0,0.0
1459,6.4330444,1,0.034748167,0.11417723,0.14282322,0.0,0.0,0.0,0.0,0.0,0.0
1460,6.437439,1,-0.10138315,-0.04261756,0.26396465,0.0,0.0,0.0,0.0,0.0,0.0
1461,6.4418335,1,-0.022833241,-0.0044338703,0.1892891,0.0,0.0,0.0,0.0,0.0,0.0
1462,6.446228,1,-0.039254904,-0.0056643486,0.20475388,0.0,0.0,0.0,0.0,0.0,0.0
1463,6.4506226,1,-0.09770413,0.13349366,0.26674938,0.0,0.0,0.0,0.0,0.0,0.0
1464,6.455017,1,-0.045145214,-0.017119646,0.20978928,0.0,0.0,0.0,0.0,0.0,0.0
1465,6.4594116,1,0.030438127,0.07864642,0.14076138,0.0,0.0,0.0,0.0,0.0,0.0
1466,6.463806,1,0.05722584,0.20107198,0.1199913,0.0,0.0,0.0,0.0,0.0,0.0
1467,6.4682007,1,-0.015739365,0.18717122,0.18812847,0.0,0.0,0.0,0.0,0.0,0.0
1468,6.472595,1,-0.006100921,0.24056101,0.18117428,0.0,0.0,0.0,0.0,0.0,0.0
1469,6.4769897,1,-0.012625394,0.11014795,0.1831522,0.0,0.0,0.0,0.0,0.0,0.0
1470,6.4813843,1,0.04793644,0.12336016,0.12536812,0.0,0.0,0.0,0.0,0.0,0.0
1471,6.485779,1,-6.9041364E-4,0.02762723,0.16883087,0.0,0.0,0.0,0.0,0.0,0.0
1472,6.4901733,1,0.004834043,0.086307764,0.16480827,0.0,0.0,0.0,0.0,0.0,0.0
1473,6.494568,1,0.004445838,0.09101558,0.16709328,0.0,0.0,0.0,0.0,0.0,0.0
1474,6.4989624,1,0.019822435,0.1375022,0.15450573,0.0,0.0,0.0,0.0,0.0,0.0
1475,6.503357,1,-0.019554121,0.084537745,0.19096565,0.0,0.0,0.0,0.0,0.0,0.0
1476,6.5077515,1,-0.012411116,-0.058749437,0.1784563,0.0,0.0,0.0,0.0,0.0,0.0
1477,6.512146,1,0.06434865,-0.027458906,0.10772514,0.0,0.0,0.0,0.0,0.0,0.0
1478,6.5165405,1,0.02842419,0.086457014,0.148942,0.0,0.0,0.0,0.0,0.0,0.0
1479,6.520935,1,-0.007938815,-0.058537006,0.17820835,0.0,0.0,0.0,0.0,0.0,0.0
1480,6.5253296,1,0.017923357,-0.13168788,0.15162182,0.0,0.0,0.0,0.0,0.0,0.0
1481,6.529724,1,0.100024045,-0.103800535,0.07804775,0.0,0.0,0.0,0.0,0.0,0.0
1482,6.5341187,1,0.096591756,-0.04314971,0.08358097,0.0,0.0,0.0,0.0,0.0,0.0
1483,6.538513,1,-0.01627521,-0.07071209,0.1905508,0.0,0.0,0.0,0.0,0.0,0.0
1484,6.5429077,1,0.06685333,0.11229706,0.11839199,0.0,0.0,0.0,0.0,0.0,0.0
1485,6.5473022,1,0.014754834,-0.23019981,0.15559006,0.0,0.0,0.0,0.0,0.0,0.0
1486,6.551697,1,0.16347703,0.06117797,0.026931763,0.0,0.0,0.0,0.0,0.0,0.0
1487,6.5560913,1,0.078716144,-0.107164145,0.09958172,0.0,0.0,0.0,0.0,0.0,0.0
1488,6.560486,1,0.0645702,0.13841891,0.12164402,0.0,0.0,0.0,0.0,0.0,0.0
1489,6.5648804,1,0.055003062,0.20834684,0.13630962,0.0,0.0,0.0,0.0,0.0,0.0
1490,6.569275,1,0.053263247,-0.018371105,0.124607086,0.0,0.0,0.0,0.0,0.0,0.0
1491,6.5736694,1,0.0040290374,-0.02399373,0.16839695,0.0,0.0,0.0,0.0,0.0,0.0
1492,6.578064,1,0.15202881,0.08546209,0.034672737,0.0,0.0,0.0,0.0,0.0,0.0
1493,6.5824585,1,0.011691706,0.119086504,0.16749096,0.0,0.0,0.0,0.0,0.0,0.0
1494,6.586853,1,0.09771061,0.024401903,0.08309078,0.0,0.0,0.0,0.0,0.0,0.0
1495,6.5912476,1,0.041815147,0.034305096,0.13691235,0.0,0.0,0.0,0.0,0.0,0.0
1496,6.595642,1,0.05695972,0.13490796,0.12708282,0.0,0.0,0.0,0.0,0.0,0.0
1497,6.600067,1,-0.042756677,0.20925975,0.22295761,0.0,0.0,0.0,0.0,0.0,0.0
1498,6.6044617,1,-0.024423031,0.09369254,0.20062637,0.0,0.0,0.0,0.0,0.0,0.0
1499,6.6088867,1,1.7744489E-4,-0.016090155,0.17172623,0.0,0.0,0.0,0.0,0.0,0.0
1500,6.6132813,1,0.031383812,0.14328218,0.14889145,0.0,0.0,0.0,0.0,0.0,0.0
1501,6.6177063,1,-0.010356275,0.018290758,0.18456268,0.0,0.0,0.0,0.0,0.0,0.0
1502,6.622101,1,0.0022827554,-0.03697014,0.16994572,0.0,0.0,0.0,0.0,0.0,0.0
1503,6.626526,1,0.04753983,-0.027804136,0.12664318,0.0,0.0,0.0,0.0,0.0,0.0
1504,6.6309204,1,0.06880486,0.0111067295,0.109583855,0.0,0.0,0.0,0.0,0.0,0.0
1505,6.6353455,1,-0.015366895,-0.015791178,0.18708134,0.0,0.0,0.0,0.0,0.0,0.0
1506,6.63974,1,0.065724984,-0.009277582,0.11009598,0.0,0.0,0.0,0.0,0.0,0.0
1507,6.644165,1,-0.01693332,-0.012309313,0.18796062,0.0,0.0,0.0,0.0,0.0,0.0
1508,6.6485596,1,-0.032986984,0.06878638,0.20778942,0.0,0.0,0.0,0.0,0.0,0.0
1509,6.652954,1,0.058803678,-0.041388273,0.115407944,0.0,-0.08880955,0.0,0.0,-3.902764E-4,0.0
1510,6.657379,1,-0.07267593,-0.022613764,0.24164104,0.0,-0.08890962,0.0,0.0,-7.8370573E-4,0.0
1511,6.6617737,1,0.0019865055,0.12272096,0.17578697,0.0,-0.088370316,0.0,0.0,-0.0011720519,0.0
1512,6.6661987,1,-0.006454466,0.017327547,0.18154907,0.0,-0.08829364,0.0,0.0,-0.0015627554,0.0
1513,6.6705933,1,-0.011954648,-0.028528214,0.18317318,0.0,-0.088419005,0.0,0.0,-0.0019513156,0.0
1514,6.6750183,1,0.037688866,-0.0031609535,0.13693523,0.0,-0.088433,0.0,0.0,-0.0023426358,0.0
1515,6.679413,1,-0.034122407,0.15584707,0.21209049,0.0,-0.08774812,-0.0034461208,0.0,-0.0027282475,-1.51440845E-5
1516,6.683838,1,0.034261048,0.12288332,0.14678383,-0.1670423,-0.08720435,-0.0027965952,-7.3917035E-4,-0.003114131,-2.7519156E-5
1517,6.6882324,1,0.11112149,0.21130443,0.075437546,-0.16655397,-0.08627577,-0.0024650826,-0.0014710969,-0.0034932727,-3.835204E-5
1518,6.6926575,1,0.020267801,-0.018954992,0.15148354,-0.16646428,-0.08635965,-0.0017947606,-0.0022077095,-0.0038754183,-4.6293942E-5
1519,6.697052,1,-0.030911205,-0.06949425,0.19723701,-0.16660012,-0.08666504,-9.2799636E-4,-0.002939839,-0.0042562704,-5.037205E-5
1520,6.701477,1,0.02909054,0.021214724,0.14741325,-0.16647139,-0.086571164,-2.7568545E-4,-0.003676483,-0.004639352,-5.1591975E-5
1521,6.7058716,1,0.09153539,0.021003962,0.09181118,-0.16606915,-0.08647887,1.2778165E-4,-0.004406279,-0.0050193863,-5.1030434E-5
1522,6.710266,1,-0.0015523713,0.10883546,0.18237877,-0.16607596,-0.086000584,9.2925085E-4,-0.0051361048,-0.0053973184,-4.6946814E-5
1523,6.714691,1,0.02249323,-0.031628847,0.15415859,-0.16597643,-0.08614054,0.0016114102,-0.005870559,-0.0057784943,-3.9816245E-5
1524,6.7190857,1,0.090693444,0.008813858,0.09411526,-0.16557787,-0.08610181,0.0020250026,-0.006598196,-0.0061568716,-3.091731E-5
1525,6.7235107,1,0.11168666,-0.03147912,0.07256985,-0.16508366,-0.0862411,0.0023461278,-0.0073286993,-0.0065384926,-2.053558E-5
1526,6.7279053,1,0.03570938,0.06091857,0.14810658,-0.16492674,-0.0859734,0.0029969867,-0.008053475,-0.0069163055,-7.365228E-6
1527,6.7323303,1,4.264135E-4,-0.07254672,0.17644787,-0.16492485,-0.08629442,0.0037777773,-0.008783275,-0.0072981627,9.351621E-6
1528,6.736725,1,0.10701287,0.014152288,0.07920742,-0.16445458,-0.08623223,0.0041258563,-0.009505976,-0.0076771127,2.7482823E-5
1529,6.74115,1,0.061258093,-0.05474615,0.11961079,-0.1641835,-0.086474486,0.00465514,-0.010232496,-0.008059766,4.8082045E-5
1530,6.7455444,1,0.007999079,-0.108618975,0.16802692,-0.16414835,-0.086951815,0.00539354,-0.010953851,-0.0084418785,7.178413E-5
1531,6.7499695,1,0.13873297,-0.11345768,0.042342186,-0.16353445,-0.087453865,0.0055809063,-0.011677499,-0.008828866,9.647991E-5
1532,6.754364,1,-0.039150268,-0.04933858,0.21293354,-0.1637065,-0.08767069,0.00651665,-0.012396912,-0.009214138,1.2511754E-4
1533,6.758789,1,0.09206338,0.052946806,0.09115505,-0.16329911,-0.08743639,0.006920015,-0.013119519,-0.009601048,1.5573893E-4
1534,6.7631836,1,-0.04643917,-0.0435009,0.2188673,-0.16350318,-0.08762756,0.007881835,-0.013838039,-0.0099861305,1.9037591E-4
1535,6.767578,1,-0.10174823,-0.13825536,0.26564407,-0.16395032,-0.08823513,0.009049216,-0.014558524,-0.010373883,2.3014298E-4
1536,6.772003,1,0.018322157,-0.028757095,0.15406132,-0.16386925,-0.08836238,0.009730944,-0.0152836535,-0.010764891,2.732029E-4
1537,6.7763977,1,0.03927414,0.07834983,0.13676167,-0.16369666,-0.08801807,0.010331947,-0.016003024,-0.011151689,3.1860697E-4
1538,6.7808228,1,-0.029059453,0.062752485,0.19706059,-0.16382524,-0.087740384,0.01120395,-0.016727958,-0.011539944,3.68185E-4
1539,6.7852173,1,0.0061592627,0.029217243,0.16207409,-0.16379818,-0.08761199,0.01191619,-0.017447773,-0.011924958,4.2055105E-4
1540,6.7896423,1,-0.011080502,-0.007906675,0.17323017,-0.16384721,-0.087646976,0.0126827415,-0.018172806,-0.0123128,4.766728E-4
1541,6.794037,1,-0.18054816,-0.05672002,0.32770157,-0.16464064,-0.087896235,0.014122836,-0.018896325,-0.012699062,5.3873606E-4
1542,6.798462,1,-0.039285123,0.14024901,0.20015621,-0.16481447,-0.087275624,0.015008537,-0.019625636,-0.013085261,6.0514954E-4
1543,6.8028564,1,-0.04647696,0.23645973,0.20816803,-0.16501872,-0.0862365,0.015923338,-0.020350816,-0.01346423,6.7512516E-4
1544,6.8072815,1,-0.12203257,-0.09011865,0.26496696,-0.16555873,-0.08663528,0.01709583,-0.021083422,-0.013847595,7.5077504E-4
1545,6.811676,1,-0.045721754,0.13738894,0.19992352,-0.16575965,-0.08603152,0.0179744,-0.021811858,-0.014225664,8.297641E-4
1546,6.816101,1,0.016483368,0.08565354,0.13818741,-0.16568671,-0.0856525,0.018585887,-0.02254503,-0.01460468,9.120076E-4
1547,6.8204956,1,-0.02433583,-0.009138107,0.16995907,-0.16579366,-0.08569265,0.019332778,-0.023273615,-0.01498126,9.96966E-4
1548,6.82489,1,-0.05308506,-0.07198596,0.19426632,-0.16602693,-0.086008996,0.020186488,-0.024003226,-0.0153592285,0.0010856763
1549,6.829315,1,-0.033984676,0.08712363,0.18200397,-0.16617732,-0.08562347,0.020991864,-0.024738569,-0.015738117,0.0011785663
1550,6.8337097,1,-0.10603969,0.12124324,0.251976,-0.16664332,-0.08509067,0.02209918,-0.025470888,-0.01611205,0.0012756818
1551,6.838135,1,-0.06101653,0.09737468,0.20506,-0.16691332,-0.08465978,0.02300658,-0.026209489,-0.016486675,0.001377487
1552,6.8425293,1,0.0063708443,0.031129837,0.1398077,-0.16688532,-0.08452298,0.02362097,-0.026942872,-0.016858114,0.0014812901
1553,6.8469543,1,-0.17536518,-0.0022611618,0.30834484,-0.16766132,-0.08453298,0.024985412,-0.027684782,-0.017232176,0.0015918517
1554,6.851349,1,-0.063834354,-0.07700181,0.20180798,-0.16794184,-0.08487137,0.025872264,-0.028422806,-0.017605146,0.0017055481
1555,6.855774,1,-0.10772759,-0.020145178,0.24707413,-0.16841854,-0.08496051,0.02696558,-0.029168067,-0.0179811,0.0018248721
1556,6.8601685,1,-0.13178182,-0.27527547,0.2601719,-0.16899766,-0.08617022,0.028108913,-0.029910732,-0.018359778,0.0019483976
1557,6.8645935,1,-0.07789837,-0.1618979,0.21496868,-0.16934237,-0.08688662,0.029060159,-0.03066008,-0.018744256,0.0020769902
1558,6.868988,1,-0.11796695,-0.44372106,0.24371815,-0.16986078,-0.08883657,0.030131187,-0.031406537,-0.019134652,0.0022094026
