Time,Rot1,Rot2,Rot3,Rot4,Rot5,Rot6,Rot7,Rot8,Rot9,FRot1,FRot2,FRot3,FRot4,FRot5,FRot6,FRot7,FRot8,FRot9,AccX,AccY,AccZ,GravX,GravY,GravZ,GyroX,GyroY,GyroZ,MagX,MagY,MagZ,Imid
0.0,0.0,0.0,0.0,0.0,0.0,0.0,0.0,0.0,0.0,0.0,0.0,0.0,0.0,0.0,0.0,0.0,0.0,0.0,0.35673523,9.236816,2.384613,0.1846466,9.408005,2.7608032,0.0,0.0,0.0,0.0,0.0,0.0,0
0.004425049,0.0,0.0,0.0,0.0,0.0,0.0,0.0,0.0,0.0,1.0,0.0,0.0,0.0,1.0,0.0,0.0,0.0,1.0,0.21307373,9.2799225,2.5378418,0.18135071,9.408463,2.759903,0.0,0.0,0.0,0.0,0.0,0.0,0
0.008850098,0.0,0.0,0.0,0.0,0.0,0.0,0.0,0.0,0.0,0.9999996,9.311761E-5,9.071014E-4,-9.307536E-5,1.0,-4.662271E-5,-9.071057E-4,4.653826E-5,0.9999996,0.22265625,9.332596,2.4899597,0.1782074,9.408752,2.759018,0.010665894,0.20770264,-0.021316528,0.0,0.0,0.0,0
0.013275146,0.030225571,0.28077096,-0.9592988,-0.9993835,0.02564469,-0.023982782,0.017867249,0.9594322,0.281373,0.99999845,1.8438896E-4,0.0017588735,-1.8425957E-4,1.0,-7.372806E-5,-0.001758887,7.3403855E-5,0.99999845,0.35673523,9.318222,2.432495,0.17521667,9.408752,2.7593079,0.0063934326,0.19918823,-0.021316528,-31.99768,-22.361755,-7.5531006,0
0.017700195,0.030171653,0.28084168,-0.9592797,-0.99939066,0.025323616,-0.02401942,0.017546779,0.95941997,0.28143466,0.99955285,0.029895866,5.546124E-4,-0.029871777,0.9992238,-0.025679141,-0.0013218821,0.025651094,0.9996701,0.3375702,9.222458,2.408554,0.17207336,9.4086,2.759903,-0.027679443,0.20451355,-0.031967163,-31.99768,-22.361755,-7.5531006,0
0.022125244,0.030056939,0.28099218,-0.95923924,-0.99939895,0.025032323,-0.023982532,0.017273083,0.95938355,0.28157568,0.998257,0.058977086,-0.0021575382,-0.059010625,0.9969726,-0.05062971,-8.349862E-4,0.05066878,0.99871516,0.16519165,9.375687,2.542633,0.16938782,9.408157,2.761261,-0.034072876,0.17893982,-0.036224365,-31.99768,-22.361755,-7.5531006,0
0.026519775,0.029899586,0.2811986,-0.9591837,-0.99940854,0.024713684,-0.023908298,0.016981985,0.9593313,0.28177118,0.9961626,0.08729207,-0.00635085,-0.08752251,0.9933492,-0.07481466,-2.2211486E-4,0.075083405,0.99717724,0.11251831,9.418777,2.604889,0.16653442,9.407715,2.7631989,-0.050048828,0.14273071,-0.024505615,-31.99768,-22.361755,-7.5531006,0
0.030944824,0.02969522,0.2814666,-0.95911145,-0.9994189,0.024428066,-0.023774382,0.016737541,0.9592601,0.28202844,0.9933099,0.11486343,-0.011906103,-0.115477815,0.98844165,-0.098224275,4.8611156E-4,0.09894204,0.9950931,0.01675415,9.46666,2.6815033,0.1641388,9.4071045,2.765747,-0.05644226,0.11503601,-0.029830933,-31.99768,-22.361755,-7.5531006,0
0.035369873,0.029465292,0.28176808,-0.95903,-0.9994287,0.024195984,-0.023597594,0.016555624,0.95917743,0.28232005,0.9897488,0.14158957,-0.018700674,-0.14281355,0.9823522,-0.12078234,0.0012691302,0.12221488,0.9925028,0.07421875,9.433151,2.6958618,0.16235352,9.4062195,2.7685852,-0.06602478,0.08627319,-0.020248413,-31.99768,-22.361755,-7.5531006,0
0.039794922,-0.0022089386,0.28271258,-0.9592022,-0.999864,0.015049903,0.006738345,0.016340913,0.95908654,0.28264087,0.9855118,0.16748509,-0.026745152,-0.16959247,0.9751672,-0.14243346,0.002225514,0.14490563,0.989443,-0.07899475,9.519333,2.7150116,0.1602478,9.405319,2.7717285,-0.076675415,0.037261963,-0.0234375,-32.714844,-22.361755,-6.515503,0
0.044219971,-0.0024145436,0.28298944,-0.95912004,-0.9998658,0.014858416,0.006901112,0.016203946,0.95900786,0.28291556,0.9805196,0.1931142,-0.035892516,-0.19639546,0.96685296,-0.16316922,0.0031924925,0.16703974,0.985945,-0.11251831,9.514557,2.7772675,0.15890503,9.404572,2.7744293,-0.08200073,0.024475098,-0.022369385,-32.714844,-22.361755,-6.515503,0
0.04864502,-0.002563577,0.2831901,-0.9590604,-0.99986696,0.014726814,0.0070211673,0.016112229,0.95895076,0.28311467,0.97492397,0.21773277,-0.04599682,-0.22249888,0.9575899,-0.18307315,0.004185065,0.18871665,0.9820227,-0.13166809,9.658203,2.901764,0.15800476,9.403961,2.7763672,-0.067092896,0.012771606,-0.0021362305,-32.714844,-22.361755,-6.515503,0
0.053070068,0.0027675352,0.28339458,-0.95899945,-0.9998666,0.01622238,0.0019084143,0.016098086,0.9588662,0.2834016,0.968745,0.24140166,-0.057082884,-0.24800248,0.94743896,-0.20212421,0.005289429,0.20996352,0.97769487,-0.14604187,9.62468,2.7964172,0.15786743,9.4032135,2.7792053,-0.04258728,-0.022369385,-0.0010681152,-31.99768,-20.568848,-6.1706543,0
0.057495117,0.002603026,0.28362978,-0.9589304,-0.999867,0.016175373,0.0020701576,0.016098212,0.9587974,0.28363413,0.96207273,0.26395264,-0.068885006,-0.27271786,0.93657273,-0.22012858,0.006412296,0.23056586,0.97303563,-0.24180603,9.739609,2.8634644,0.15786743,9.402466,2.7814636,-0.07028198,-0.031967163,0.014892578,-31.99768,-20.568848,-6.1706543,0
0.061920166,0.0024862965,0.28379664,-0.9588813,-0.99986464,0.016301421,0.0022321101,0.016264593,0.9587459,0.28379872,0.95491576,0.28550625,-0.08137665,-0.29678136,0.9250031,-0.23725533,0.007535781,0.25070992,0.96803296,-0.07421875,9.768341,2.9831696,0.15950012,9.402023,2.7830963,-0.05644226,-0.038360596,0.024475098,-31.99768,-20.568848,-6.1706543,0
0.066345215,-0.010080734,0.28416577,-0.9587222,-0.9998146,0.012863291,0.014325498,0.016403139,0.95868886,0.2839834,0.94731426,0.30602068,-0.0945886,-0.32018575,0.9128039,-0.25351563,0.008759824,0.2704449,0.9626956,-0.16998291,9.581589,2.9400787,0.16085815,9.401428,2.7848969,-0.03300476,-0.0660553,0.041519165,-32.17621,-22.54181,-6.3430786,0
0.072296143,-0.010117783,0.28421444,-0.9587073,-0.9998099,0.013099668,0.014435036,0.016661394,0.9586712,0.2840279,0.9391992,0.32580203,-0.108433865,-0.34322667,0.8999713,-0.2687881,0.010015664,0.28966296,0.95707625,0.05984497,9.610321,2.9448547,0.16339111,9.401276,2.7853394,-0.034072876,-0.078826904,0.04046631,-32.17621,-22.54181,-6.3430786,0
0.07824707,-0.010119837,0.28421718,-0.95870656,-0.99980545,0.013363047,0.01451526,0.016936725,0.95866686,0.28402662,0.9391992,0.32580203,-0.108433865,-0.34322667,0.8999713,-0.2687881,0.010015664,0.28966296,0.95707625,0.05984497,9.610321,2.9448547,0.16609192,9.401276,2.7853394,-0.034072876,-0.078826904,0.04046631,-32.17621,-22.54181,-6.3430786,0
0.084197998,0.020604083,0.2836249,-0.95871395,-0.99963903,0.0223812,-0.01486239,0.017241824,0.9586741,0.28398365,0.92186695,0.3621759,-0.13780397,-0.38729423,0.8729041,-0.296718,0.012825538,0.3269052,0.94497013,0.11730957,9.481033,2.7724762,0.16908264,9.401276,2.7848969,0.009597778,-0.078826904,0.050048828,-31.817627,-21.466064,-7.0343018,0
0.090179443,0.020674564,0.28352916,-0.95874065,-0.9996327,0.022663968,-0.014853938,0.017517345,0.9586957,0.28389364,0.9129384,0.37841195,-0.15279973,-0.40785143,0.8590138,-0.3094389,0.0141616985,0.34481826,0.9385626,0.14125061,9.514557,2.7150116,0.17178345,9.401428,2.7839966,0.0063934326,-0.080963135,0.053237915,-31.817627,-21.466064,-7.0343018,0
0.096130371,0.020803835,0.28335372,-0.9587898,-0.999625,0.022975506,-0.014899867,0.017806748,0.95874023,0.2837254,0.9037087,0.3937773,-0.16807742,-0.42786813,0.84480673,-0.32129502,0.015474245,0.36227205,0.93194395,0.22265625,9.485825,2.6719208,0.17462158,9.401871,2.7823486,0.009597778,-0.08203125,0.045791626,-31.817627,-21.466064,-7.0343018,0
0.099822998,0.02099247,0.2830975,-0.95886135,-0.9996152,0.023332292,-0.014995994,0.018127106,0.95880723,0.28347838,0.9037087,0.3937773,-0.16807742,-0.42786813,0.84480673,-0.32129502,0.015474245,0.36227205,0.93194395,0.22265625,9.485825,2.6719208,0.1777649,9.402618,2.779953,0.009597778,-0.08203125,0.045791626,-31.817627,-21.466064,-7.0343018,0
0.103485107,0.018120522,0.2828445,-0.9589946,-0.9996665,0.022777695,-0.01217101,0.018401185,0.9588953,0.2831629,0.8845062,0.42189384,-0.19913422,-0.4661885,0.8155926,-0.34274933,0.017808562,0.39599794,0.9180787,0.28012085,9.433151,2.7293854,0.18045044,9.403366,2.776825,0.045806885,-0.08415222,0.045791626,-32.356262,-22.361755,-7.206726,0
0.107177734,0.018302115,0.2826035,-0.9590622,-0.9996587,0.023060149,-0.012281779,0.018645244,0.95895964,0.2829291,0.8845062,0.42189384,-0.19913422,-0.4661885,0.8155926,-0.34274933,0.017808562,0.39599794,0.9180787,0.28012085,9.433151,2.7293854,0.18284607,9.404114,2.7745667,0.045806885,-0.08415222,0.045791626,-32.356262,-22.361755,-7.206726,0
0.110839844,0.035184145,0.28189653,-0.9587995,-0.99920434,0.027953368,-0.028448278,0.018782204,0.95903754,0.28265575,0.8643664,0.44689745,-0.23054999,-0.5024741,0.78558826,-0.3610689,0.019756591,0.42794126,0.9035906,0.12689209,9.342163,2.6671295,0.18418884,9.404861,2.771881,0.051132202,-0.07670593,0.026611328,-30.741882,-23.617554,-8.071899,0
0.114532471,0.03542266,0.28161165,-0.9588744,-0.99919355,0.028130367,-0.028650522,0.018905168,0.959116,0.28238097,0.85421413,0.4579587,-0.24615435,-0.5195133,0.77057326,-0.36921912,0.020592846,0.44327268,0.89615023,0.23222351,9.342163,2.7341766,0.18539429,9.405609,2.7691803,0.057525635,-0.052200317,0.020217896,-30.741882,-23.617554,-8.071899,0
0.11819458,0.035818864,0.28113836,-0.9589985,-0.99917746,0.028331008,-0.029014088,0.019012423,0.959249,0.28192192,0.8439213,0.46827447,-0.2617552,-0.53604114,0.7554974,-0.3766744,0.021368349,0.45819515,0.88859475,0.22265625,9.452301,2.47081,0.18644714,9.406967,2.7646942,0.06285095,-0.045806885,0.012771606,-30.741882,-23.617554,-8.071899,0
0.121887207,0.030597433,0.28080702,-0.95927644,-0.9993489,0.026951276,-0.02398621,0.019118225,0.9593857,0.28144884,0.83350855,0.4778455,-0.27735734,-0.5520643,0.7403788,-0.38348964,0.022100719,0.47276098,0.8809135,0.22265625,9.385269,2.5617828,0.18748474,9.40831,2.7600555,0.080963135,-0.043685913,0.007446289,-31.100464,-21.824646,-7.3806763,0
0.125549316,0.03088323,0.28043362,-0.9593765,-0.99933994,0.027037289,-0.024266466,0.019133804,0.95949256,0.2810835,0.8229444,0.4867581,-0.29296604,-0.5676643,0.72521275,-0.38964564,0.02279955,0.48696303,0.87312496,0.19392395,9.557648,2.652771,0.18763733,9.409348,2.7564697,0.094818115,-0.040481567,0.0095825195,-31.100464,-21.824646,-7.3806763,0
0.129241943,0.03125423,0.27994877,-0.9595061,-0.99932724,0.02718746,-0.024619026,0.019194465,0.95962995,0.28061014,0.8122785,0.49504298,-0.3084415,-0.58279943,0.71008915,-0.39511803,0.023420539,0.50070536,0.86530083,0.2753296,9.485825,2.3798218,0.18823242,9.410706,2.751831,0.07563782,-0.034088135,-0.0053253174,-31.100464,-21.824646,-7.3806763,0
0.13293457,0.030553183,0.27949426,-0.95966107,-0.99934816,0.02700914,-0.023950506,0.019225596,0.9597674,0.2801373,0.80155015,0.5026529,-0.3238169,-0.59744525,0.6950341,-0.39998353,0.024010908,0.51406974,0.8574122,0.16998291,9.533707,2.47081,0.1885376,9.412048,2.7471924,0.07884216,-0.03302002,-0.0053253174,-32.17621,-21.824646,-7.3806763,0
0.137268066,0.03087503,0.27905905,-0.9597774,-0.9993386,0.027073495,-0.024275947,0.019210106,0.9598922,0.2797104,0.790783,0.5096046,-0.3390655,-0.6116035,0.6800707,-0.40428331,0.024563847,0.52707404,0.8494643,0.21786499,9.471451,2.4372864,0.18838501,9.413239,2.7429962,0.08522034,-0.02557373,0.0021209717,-32.17621,-21.824646,-7.3806763,0
0.14163208,0.031150062,0.2786871,-0.95987666,-0.999331,0.027097624,-0.024563013,0.019164981,0.95999956,0.27934474,0.77993464,0.5159974,-0.35418725,-0.6253589,0.6651739,-0.40800738,0.02506536,0.5397132,0.84147567,0.16040039,9.457092,2.6958618,0.1879425,9.414291,2.7394104,0.07350159,-0.026641846,-0.015975952,-32.17621,-21.824646,-7.3806763,0
0.145996094,0.061720073,0.27728876,-0.9588022,-0.9979105,0.03554472,-0.053957902,0.019118432,0.96012896,0.27890316,0.76908606,0.52177334,-0.36913303,-0.6386359,0.650405,-0.41123915,0.025512327,0.5520199,0.83344054,0.05984497,9.495392,2.3079987,0.18748474,9.415497,2.7350616,0.07989502,-0.017044067,-0.01171875,-32.17621,-20.748901,-8.071899,0
0.150360107,0.06202857,0.2768517,-0.9589085,-0.99789095,0.035621338,-0.054265782,0.01913403,0.9602522,0.27847737,0.7586476,0.52659184,-0.38360757,-0.6509844,0.6361547,-0.41415748,0.02594179,0.56392217,0.8254204,0.16998291,9.524124,2.542633,0.18763733,9.416687,2.7308807,0.06817627,-0.014923096,-0.0032043457,-32.17621,-20.748901,-8.071899,0
0.154724121,0.06231733,0.27644256,-0.95900786,-0.9978727,0.035693616,-0.054553803,0.019149465,0.9603674,0.27807882,0.74822736,0.53086543,-0.39791682,-0.6629191,0.6220551,-0.4166362,0.026348457,0.5755252,0.81735945,0.23222351,9.490601,2.446869,0.18778992,9.417877,2.7269897,0.080963135,-0.0138549805,-0.0010681152,-32.17621,-20.748901,-8.071899,0
0.159088135,0.046142545,0.27668148,-0.95985323,-0.9987524,0.031139549,-0.039036427,0.019088738,0.96045697,0.2777732,0.7378345,0.5346661,-0.41198573,-0.6744528,0.60815,-0.41864896,0.026711678,0.5867587,0.80932117,0.10772705,9.481033,2.62883,0.18719482,9.418777,2.723999,0.069244385,-0.008529663,-0.0021362305,-32.356262,-22.003174,-7.897949,0
0.163452148,0.04637256,0.27637136,-0.9599315,-0.99874306,0.031130977,-0.03928464,0.019026456,0.9605466,0.27746758,0.7272376,0.53822994,-0.42595068,-0.6858537,0.59425193,-0.4200825,0.027021026,0.5976397,0.80130935,0.02154541,9.58638,2.5043335,0.18658447,9.419678,2.7210083,0.06391907,-0.0053253174,-0.008529663,-32.356262,-22.003174,-7.897949,0
0.168762207,0.046612494,0.2760478,-0.96001303,-0.9987336,0.031097598,-0.039550543,0.018936254,0.96064067,0.2771477,0.7167208,0.5413296,-0.43962884,-0.69682574,0.58060807,-0.4211034,0.027296335,0.6081583,0.79334635,0.07421875,9.548065,2.5761566,0.18569946,9.420578,2.717865,0.051132202,0.0053253174,0.0021209717,-32.356262,-22.003174,-7.897949,0
0.174072266,-0.031977843,0.27757454,-0.96017176,-0.99931,0.0092766695,0.035963092,0.018889634,0.96065927,0.27708635,0.70628864,0.54396415,-0.4530556,-0.70739174,0.56711215,-0.42187765,0.02744701,0.6184552,0.7853406,0.06463623,9.485825,2.5857239,0.1852417,9.420731,2.7172546,0.061798096,0.025543213,-0.0021362305,-33.251953,-22.183228,-5.305481,0
0.179412842,-0.031825226,0.2773617,-0.96023834,-0.99931407,0.009371824,0.035827335,0.018936314,0.9607199,0.27687317,0.6947234,0.5471496,-0.46689036,-0.71874315,0.5530832,-0.42131615,0.027706273,0.6282725,0.7774999,0.15083313,9.476242,2.5809479,0.18569946,9.421326,2.7151642,0.020248413,-0.0021362305,0.0021209717,-33.251953,-22.183228,-5.305481,0
0.1847229,-0.031671878,0.2771478,-0.9603052,-0.99931866,0.009435751,0.035681777,0.018950325,0.9607809,0.27666008,0.6832753,0.54979557,-0.48047867,-0.7296263,0.5392918,-0.42048764,0.027935974,0.63787866,0.7696301,0.16040039,9.481033,2.5378418,0.18583679,9.421921,2.7130737,0.039413452,0.010650635,0.013824463,-33.251953,-22.183228,-5.305481,0
0.190032959,-0.025433432,0.27688384,-0.96056676,-0.9994966,0.011186607,0.029688742,0.018965816,0.96083826,0.27645996,0.67187333,0.5520504,-0.4937879,-0.7401315,0.5257401,-0.41928846,0.02813573,0.6471767,0.7618206,0.19392395,9.346954,2.446869,0.18598938,9.422516,2.7111206,0.034088135,0.010650635,0.0095825195,-31.280518,-23.078918,-5.82428,0
0.195343018,-0.025359916,0.27679145,-0.96059537,-0.9994985,0.011209708,0.029616997,0.018965723,0.9608646,0.27636835,0.67187333,0.5520504,-0.4937879,-0.7401315,0.5257401,-0.41928846,0.02813573,0.6471767,0.7618206,0.19392395,9.346954,2.446869,0.18598938,9.422821,2.7102356,0.034088135,0.010650635,0.0095825195,-31.280518,-23.078918,-5.82428,0
0.200195312,-0.025300719,0.27671698,-0.9606183,-0.9994993,0.01125839,0.029567871,0.018996948,0.96088547,0.27629364,0.649332,0.5553985,-0.51951945,-0.7599691,0.4995177,-0.4158474,0.028548121,0.6648417,0.7464385,0.26574707,9.538498,2.5330505,0.18629456,9.422974,2.709488,0.004272461,-0.009597778,0.003189087,-31.280518,-23.078918,-5.82428,0
0.204620361,0.013970782,0.27601373,-0.9610521,-0.9997213,0.022144798,-0.008172939,0.019026462,0.9608985,0.27624622,0.6382219,0.55653286,-0.5319248,-0.76931536,0.4868604,-0.41366762,0.02875351,0.67322963,0.7388742,0.25138855,9.495392,2.5953064,0.18658447,9.423126,2.7090302,0.0063934326,-0.0010681152,0.012771606,-31.459045,-22.90039,-7.0343018,0
0.20904541,0.013993736,0.2759847,-0.96106017,-0.99972135,0.022137593,-0.008199487,0.019012626,0.96090704,0.27621755,0.62777823,0.5570053,-0.5437275,-0.7778563,0.47483605,-0.41166773,0.028880322,0.6813779,0.7313618,0.15560913,9.404419,2.609665,0.18644714,9.423126,2.708725,0.009597778,0.003189087,-0.0032043457,-31.459045,-22.90039,-7.0343018,0
0.213439941,0.014116237,0.27582958,-0.961103,-0.9997202,0.022140168,-0.008329362,0.018981494,0.9609515,0.27606487,0.6174105,0.5571796,-0.5552975,-0.78610396,0.4630989,-0.4093654,0.029067628,0.689268,0.72392315,0.11730957,9.308655,2.4803925,0.18614197,9.423569,2.7072296,0.0053253174,-0.012786865,0.0053253174,-31.459045,-22.90039,-7.0343018,0
0.217834473,-0.012232988,0.2762721,-0.9610016,-0.9997437,0.01492296,0.017016258,0.019042106,0.9609635,0.27601874,0.6071013,0.5570795,-0.5666485,-0.7940871,0.45154718,-0.40685484,0.02921804,0.69697034,0.71650445,0.2896881,9.399628,2.7054443,0.18673706,9.423721,2.706787,0.020248413,-0.018112183,-0.0063934326,-31.280518,-21.644592,-5.82428,0
0.222198486,-0.012258257,0.27630588,-0.96099156,-0.9997426,0.014960354,0.017053984,0.01908889,0.9609533,0.27605137,0.59646684,0.5569705,-0.577937,-0.8020996,0.43998852,-0.40378997,0.029386561,0.7044104,0.70918435,0.13166809,9.423569,2.5713654,0.18719482,9.423569,2.7070923,0.009597778,-0.0234375,-0.0021362305,-31.280518,-21.644592,-5.82428,0
0.2265625,-0.012208675,0.27623957,-0.96101135,-0.99974304,0.014988442,0.0170091,0.019102646,0.9609719,0.27598557,0.58595157,0.5566516,-0.5888971,-0.8098058,0.42877343,-0.40045965,0.029586947,0.71154225,0.70202017,0.20350647,9.399628,2.5378418,0.18733215,9.423874,2.706482,-0.018081665,-0.028762817,0.008514404,-31.280518,-21.644592,-5.82428,0
0.230926514,0.04112454,0.275077,-0.9605423,-0.9989699,0.02977334,-0.034243386,0.019178983,0.96096104,0.27601802,0.5755635,0.55605876,-0.59960437,-0.81721574,0.41778988,-0.39700142,0.029752508,0.71850556,0.69488454,0.22744751,9.294281,2.6431885,0.18807983,9.423721,2.706787,-0.003189087,-0.021316528,0.008514404,-31.6391,-21.644592,-7.5531006,0
0.235290527,0.04112684,0.27507392,-0.9605431,-0.9989684,0.029847182,-0.034224633,0.019255199,0.9609597,0.27601764,0.56613374,0.5548374,-0.6096294,-0.82377005,0.40765673,-0.3939784,0.029925605,0.7252389,0.68784666,0.19392395,9.476242,2.6671295,0.18882751,9.423721,2.706787,-0.010635376,-0.031967163,0.0053253174,-31.6391,-21.644592,-7.5531006,0
0.239654541,0.041139193,0.27505732,-0.96054727,-0.9989669,0.029894967,-0.034224093,0.019301942,0.96096283,0.276003,0.55680454,0.55341715,-0.6194336,-0.8300975,0.39776146,-0.390799,0.030111946,0.73178905,0.68086565,0.19392395,9.404419,2.518692,0.18928528,9.423721,2.7066345,-0.004257202,-0.038360596,0.007446289,-31.6391,-21.644592,-7.5531006,0
0.244018555,0.04103438,0.27519804,-0.9605115,-0.9989707,0.029901054,-0.0341104,0.019333187,0.9609224,0.2761417,0.5475317,0.5518725,-0.6290038,-0.83623666,0.38807562,-0.38743457,0.030286554,0.7381288,0.6739797,0.15560913,9.476242,2.7533264,0.18959045,9.423264,2.7079773,-0.009567261,-0.04901123,-0.0032043457,-31.6391,-21.644592,-7.5531006,0
0.248382568,0.041000526,0.27524346,-0.9604999,-0.99897087,0.029951662,-0.034059696,0.01939386,0.9609079,0.27618822,0.5383742,0.5502422,-0.6382686,-0.84215593,0.3786585,-0.38391536,0.03043939,0.74421185,0.66724974,0.12210083,9.346954,2.7198029,0.19018555,9.423126,2.708435,-0.03300476,-0.04901123,-0.004272461,-31.6391,-21.644592,-7.5531006,0
0.252746582,0.04096967,0.2752849,-0.9604893,-0.9989716,0.02997279,-0.03402066,0.01942317,0.96089536,0.27622977,0.52935904,0.5483813,-0.6473461,-0.84784585,0.36946198,-0.38033575,0.030600742,0.7501838,0.66052085,0.18913269,9.404419,2.7724762,0.19047546,9.423126,2.7088776,-0.0074310303,-0.046875,0.004257202,-31.6391,-21.644592,-7.5531006,0
0.257110596,0.027382797,0.2756502,-0.96086794,-0.9994346,0.026314897,-0.020932749,0.019515023,0.9608978,0.2762149,0.52034724,0.54642,-0.65625,-0.8534001,0.36043316,-0.37655848,0.030775154,0.7559849,0.6538652,0.13645935,9.524124,2.566574,0.19137573,9.423126,2.708725,-0.0053253174,-0.0745697,-0.01171875,-32.714844,-23.078918,-7.5531006,0
0.261474609,0.027358042,0.27568248,-0.9608594,-0.99943435,0.02635374,-0.020895151,0.019561809,0.96088743,0.27624753,0.5112684,0.54441446,-0.6649944,-0.85886264,0.35155347,-0.37251207,0.030980136,0.76159245,0.6473154,0.14604187,9.2799225,2.6862793,0.1918335,9.422974,2.7090302,-0.011703491,-0.069244385,0.004257202,-32.714844,-23.078918,-7.5531006,0
0.265838623,0.027417304,0.27560517,-0.9608798,-0.9994317,0.026411913,-0.020941706,0.019607034,0.960908,0.2761727,0.50229955,0.54229426,-0.6735073,-0.86413294,0.3428593,-0.36840433,0.031134678,0.76704913,0.6408324,0.04069519,9.44751,2.676712,0.192276,9.423126,2.7082825,-0.006378174,-0.06817627,-0.004272461,-32.714844,-23.078918,-7.5531006,0
0.270202637,0.010114518,0.27602133,-0.9610983,-0.9997573,0.021607745,-0.004315755,0.019575926,0.96090865,0.2761729,0.49354425,0.5399772,-0.6817908,-0.8691582,0.33441314,-0.3643238,0.031273253,0.772394,0.6343733,0.011962891,9.44751,2.7485352,0.19197083,9.423126,2.7082825,0.012786865,-0.04901123,0.010650635,-31.99768,-22.720337,-6.8618774,0
0.27456665,0.010091895,0.27605072,-0.96109,-0.99975765,0.02158801,-0.00429727,0.01956176,0.9609006,0.27620173,0.4845705,0.537737,-0.6899495,-0.8741904,0.32595274,-0.35992494,0.03134599,0.77755624,0.6280316,0.17477417,9.4427185,2.7820587,0.1918335,9.423126,2.7085876,0.0032043457,-0.047943115,-0.0053253174,-31.99768,-22.720337,-6.8618774,0
0.278930664,0.010128897,0.27600262,-0.96110344,-0.9997564,0.021641357,-0.004321447,0.019606855,0.96091324,0.27615464,0.4758159,0.53541255,-0.6978056,-0.8789861,0.3177392,-0.35556325,0.031347156,0.7825441,0.62180555,0.12689209,9.46666,2.5617828,0.192276,9.423264,2.70813,-0.004257202,-0.021316528,-0.0010681152,-31.99768,-22.720337,-6.8618774,0
0.283294678,0.054458633,0.27475855,-0.9599699,-0.9983242,0.033830438,-0.04695165,0.01957583,0.96091795,0.27614042,0.46716332,0.53298616,-0.70546734,-0.8836136,0.30976218,-0.35110468,0.031393167,0.78738374,0.61566335,0.13166809,9.500183,2.6671295,0.19197083,9.423264,2.7079773,-0.004257202,-0.034088135,0.004257202,-32.17621,-21.824646,-8.071899,0
0.287658691,0.054492783,0.27471232,-0.95998114,-0.9983226,0.033824112,-0.046989962,0.019561784,0.96093136,0.2760947,0.45949113,0.53017664,-0.7125873,-0.8876285,0.3024381,-0.34734243,0.031360712,0.79211354,0.6095676,0.16040039,9.528915,2.6479797,0.1918335,9.423416,2.7075348,0.008529663,-0.010650635,0.0021209717,-32.17621,-21.824646,-8.071899,0
0.292022705,0.054457456,0.27476013,-0.9599694,-0.99832475,0.033801742,-0.046958636,0.019546278,0.9609185,0.27614057,0.45195606,0.5272865,-0.71951693,-0.8914897,0.29532075,-0.34355754,0.031335015,0.79671484,0.6035425,0.15560913,9.533707,2.8299408,0.19168091,9.423264,2.7079773,0.012786865,-0.008529663,0.007446289,-32.17621,-21.824646,-8.071899,0
0.296386719,-9.2756166E-4,0.2761792,-0.96110564,-0.9998079,0.018558206,0.0062977197,0.019575698,0.96092695,0.27610898,0.4445858,0.52435166,-0.7262222,-0.89519095,0.2883817,-0.33980748,0.03125059,0.8011812,0.5976053,0.23701477,9.433151,2.6383972,0.19197083,9.423416,2.7076874,0.0138549805,0.008514404,0.0053253174,-32.53479,-22.183228,-6.3430786,0
0.300750732,-8.9220784E-4,0.27613133,-0.9611195,-0.9998076,0.01858319,0.006267105,0.01959121,0.9609402,0.27606162,0.43638223,0.5217031,-0.7330731,-0.8992207,0.28111285,-0.33522773,0.031186935,0.80548203,0.59179896,0.24180603,9.457092,2.609665,0.19212341,9.423569,2.7072296,0.0010681152,0.014892578,0.017028809,-32.53479,-22.183228,-6.3430786,0
0.305114746,-8.921979E-4,0.27613133,-0.96111953,-0.99980795,0.018568244,0.0062628007,0.019575655,0.9609405,0.2760617,0.42832476,0.51900417,-0.7397112,-0.9030908,0.27400732,-0.33067665,0.031063724,0.80966336,0.58607197,0.13645935,9.394836,2.6958618,0.19197083,9.423569,2.7072296,0.0032043457,0.025543213,0.008514404,-32.53479,-22.183228,-6.3430786,0
0.30947876,0.030533183,0.2753992,-0.960845,-0.9993426,0.027209502,-0.023957701,0.01954618,0.9609448,0.27604893,0.4203767,0.5162662,-0.74615866,-0.9068202,0.267138,-0.326059,0.03099408,0.8136993,0.5804592,0.12689209,9.533707,2.700653,0.19168091,9.423569,2.7070923,-0.0053253174,0.014892578,0.017028809,-32.17621,-22.183228,-7.3806763,0
0.313842773,0.030579995,0.27533674,-0.9608613,-0.9993414,0.027205957,-0.024008727,0.019530669,0.9609628,0.27598742,0.41312924,0.5132916,-0.752234,-0.9101484,0.26074192,-0.32193735,0.030891186,0.8176462,0.5748916,0.15560913,9.457092,2.5809479,0.19152832,9.423721,2.706482,0.0063934326,0.01914978,0.01171875,-32.17621,-22.183228,-7.3806763,0
0.318206787,0.030626776,0.27527443,-0.96087784,-0.9993396,0.027247267,-0.024046836,0.019561812,0.96097946,0.27592704,0.40594882,0.5103179,-0.75814325,-0.9133754,0.25454444,-0.3177303,0.030837672,0.8214516,0.5694438,0.2753296,9.457092,2.5282745,0.1918335,9.423874,2.7058868,-0.004257202,0.0010681152,0.013824463,-32.17621,-22.183228,-7.3806763,0
0.322570801,0.03529302,0.27514368,-0.9607551,-0.9991853,0.028545858,-0.028529702,0.019575812,0.9609793,0.27592698,0.39887524,0.5072964,-0.76390374,-0.91648805,0.24851176,-0.313515,0.030794036,0.82516193,0.5640563,0.22744751,9.504974,2.7150116,0.19197083,9.423874,2.7058868,0.0021362305,-0.0032043457,0.014892578,-31.280518,-22.361755,-7.5531006,0
0.326934814,0.035329424,0.27509683,-0.9607671,-0.999184,0.028554473,-0.028566077,0.019575763,0.96099246,0.27588117,0.3920178,0.5042208,-0.76946956,-0.91944486,0.24266364,-0.30941147,0.030710597,0.8287797,0.5587317,0.19871521,9.418777,2.6000977,0.19197083,9.4240265,2.7054443,0.008529663,0.004257202,0.0095825195,-31.280518,-22.361755,-7.5531006,0
0.331298828,0.035367068,0.2750484,-0.96077967,-0.9991824,0.028578376,-0.028599393,0.019591305,0.96100557,0.27583426,0.3852243,0.5011616,-0.77488023,-0.92231447,0.23696035,-0.3052634,0.03062961,0.83227813,0.55351144,0.21786499,9.423569,2.5857239,0.19212341,9.424164,2.7049866,0.0021362305,-0.007461548,0.003189087,-31.280518,-22.361755,-7.5531006,0
0.335662842,0.039668158,0.27487814,-0.9606604,-0.9990214,0.029732179,-0.03274478,0.019561704,0.9610193,0.2757886,0.37852746,0.4980666,-0.78015816,-0.92508495,0.23142116,-0.30110165,0.030576425,0.8356877,0.54835314,0.12210083,9.490601,2.5857239,0.1918335,9.424316,2.704544,0.007461548,-0.014923096,0.0063934326,-31.99768,-20.568848,-7.206726,0
0.340026855,0.039655324,0.27489647,-0.96065575,-0.99902165,0.029742926,-0.03272796,0.01957591,0.9610137,0.27580702,0.37201744,0.49494112,-0.785262,-0.9277233,0.22608854,-0.2970076,0.030537475,0.8389978,0.5432773,0.21307373,9.457092,2.7533264,0.19197083,9.424164,2.7046967,0.007461548,-0.019180298,0.0095825195,-31.99768,-20.568848,-7.206726,0
0.344390869,0.039691627,0.27484465,-0.960669,-0.9990184,0.029839423,-0.03273912,0.019667638,0.96102554,0.27575925,0.3656121,0.49187234,-0.7901831,-0.93026793,0.22091167,-0.29291552,0.030483618,0.84217554,0.5383411,0.27053833,9.481033,2.5234833,0.1928711,9.424316,2.704239,-0.0084991455,-0.019180298,0.0063934326,-31.99768,-20.568848,-7.206726,0
0.348754883,0.06552376,0.27393204,-0.95951444,-0.9976562,0.03698187,-0.05757044,0.019714247,0.9610377,0.27571318,0.3592897,0.48878965,-0.7949815,-0.932729,0.21588272,-0.28881007,0.030455386,0.8452688,0.5334727,0.22265625,9.433151,2.7198029,0.19332886,9.424469,2.7037964,-0.0053253174,-0.027694702,0.007446289,-31.459045,-20.748901,-8.071899,0
0.353118896,0.065524414,0.27393115,-0.9595146,-0.99765587,0.036995478,-0.05756723,0.019728247,0.9610374,0.2757131,0.3534812,0.48556313,-0.7995495,-0.93494695,0.21117958,-0.28509197,0.030418396,0.848311,0.52862376,0.22744751,9.356537,2.6719208,0.19346619,9.424469,2.7037964,0.010665894,-0.04473877,-0.004272461,-31.459045,-20.748901,-8.071899,0
0.35748291,0.0654913,0.2739771,-0.95950377,-0.99765784,0.037004102,-0.05752935,0.01974385,0.96102405,0.27575883,0.34787053,0.48241654,-0.8039032,-0.9370534,0.20660171,-0.28150797,0.030283682,0.85122854,0.52392066,0.29447937,9.495392,2.7389526,0.19361877,9.424316,2.704239,-0.006378174,-0.012786865,-0.010650635,-31.459045,-20.748901,-8.071899,0
0.361846924,0.031480663,0.27512735,-0.9608922,-0.9993105,0.027596034,-0.024837889,0.019683233,0.96101165,0.27580643,0.34231058,0.4793125,-0.80813557,-0.93910277,0.20214076,-0.27789423,0.030158963,0.8540484,0.5193186,0.3088379,9.399628,2.7581177,0.19302368,9.424164,2.7046967,-0.012756348,-0.024505615,-0.014923096,-32.53479,-23.258972,-7.725525,0
0.366210937,0.03150418,0.27509713,-0.9609002,-0.999312,0.027498415,-0.024891004,0.019575786,0.96102315,0.27577415,0.3362433,0.47635096,-0.8124224,-0.9412987,0.19742242,-0.27382684,0.029952712,0.8568046,0.5147705,0.21786499,9.562439,2.5570068,0.19197083,9.424316,2.7043915,-0.0053253174,-0.007461548,-0.02557373,-32.53479,-23.258972,-7.725525,0
0.370574951,0.031440992,0.27517843,-0.9608789,-0.99931717,0.027322914,-0.024873942,0.019409241,0.96100485,0.2758496,0.3304043,0.47339627,-0.81653476,-0.94337213,0.19285843,-0.26991597,0.029698402,0.8594775,0.5103101,0.16519165,9.390045,2.6958618,0.19033813,9.424164,2.7051392,-0.0074310303,0.023422241,-0.020248413,-32.53479,-23.258972,-7.725525,0
0.374938965,-0.0062517077,0.27601215,-0.96113384,-0.9997941,0.016827192,0.011335498,0.019301917,0.96100676,0.27585015,0.32464355,0.47049955,-0.82051015,-0.94537926,0.18838312,-0.26602614,0.029405065,0.86205685,0.50595784,0.3088379,9.504974,2.3223724,0.18928528,9.424164,2.7051392,-0.015960693,0.022354126,-0.030899048,-33.073425,-23.4375,-6.515503,0
0.379302978,-0.006322767,0.27610496,-0.9611068,-0.9997974,0.016630135,0.011354772,0.019118441,0.9609837,0.27594382,0.31837273,0.46780398,-0.82449883,-0.9475194,0.18372178,-0.261636,0.029084038,0.86452633,0.50174534,0.22744751,9.399628,2.6000977,0.18748474,9.423874,2.7060394,-0.031936646,0.045791626,-0.0234375,-33.073425,-23.4375,-6.515503,0
0.383666992,-0.0063796365,0.27617913,-0.96108496,-0.9998008,0.016408628,0.011351844,0.01890523,0.960966,0.27601945,0.31220922,0.46511683,-0.8283669,-0.94957906,0.17914625,-0.25730553,0.028721675,0.86693305,0.49759632,0.15560913,9.519333,2.5234833,0.18539429,9.423721,2.706787,-0.029800415,0.051116943,-0.03302002,-33.073425,-23.4375,-6.515503,0
0.388031006,0.015952611,0.27578872,-0.9610859,-0.999698,0.022368437,-0.010174773,0.018691901,0.96095794,0.27606225,0.3061671,0.4624538,-0.8321047,-0.95155555,0.1746967,-0.25302806,0.028352154,0.86926264,0.49353686,0.15083313,9.481033,2.5330505,0.18330383,9.423721,2.7072296,-0.034072876,0.05430603,-0.03302002,-31.817627,-21.466064,-6.6879272,0
0.39239502,0.015756525,0.2760564,-0.9610123,-0.99970484,0.02212574,-0.01003517,0.018492833,0.9608867,0.27632353,0.3007256,0.4596838,-0.83561647,-0.9533006,0.17057824,-0.24924095,0.027965954,0.8715468,0.48951408,0.26574707,9.46666,2.6862793,0.18135071,9.422974,2.7097778,-0.023422241,0.06816101,-0.027694702,-31.817627,-21.466064,-6.6879272,0
0.396759033,0.015654134,0.27619618,-0.96097374,-0.9997097,0.021922337,-0.009984377,0.018309144,0.9608512,0.27645922,0.29532644,0.45708963,-0.83895844,-0.9549982,0.16658401,-0.24541427,0.027580751,0.8736812,0.48571643,0.23222351,9.528915,2.609665,0.17955017,9.422668,2.7111206,-0.064956665,0.058563232,-0.03515625,-31.817627,-21.466064,-6.6879272,0
0.401123047,0.023915002,0.27607173,-0.96083945,-0.9995499,0.024015322,-0.01797833,0.01811156,0.960837,0.27652183,0.290041,0.45441732,-0.84224766,-0.95662737,0.16268519,-0.24165598,0.027208552,0.8758073,0.4818934,0.13645935,9.533707,2.427719,0.1776123,9.422516,2.711731,-0.039398193,0.060699463,-0.030899048,-32.17621,-22.90039,-7.3806763,0
0.405487061,0.023817742,0.27619752,-0.9608058,-0.999555,0.023844142,-0.017923966,0.01795903,0.96080506,0.27664253,0.28506058,0.45172602,-0.84538996,-0.95813346,0.15899289,-0.23812073,0.026845643,0.8778752,0.47813642,0.16519165,9.418777,2.604889,0.17611694,9.422226,2.7129211,-0.038330078,0.07028198,-0.0234375,-32.17621,-22.90039,-7.3806763,0
0.409851074,0.02375439,0.27627948,-0.9607838,-0.9995579,0.023755021,-0.017882133,0.017882971,0.9607837,0.2767216,0.28021422,0.44904563,-0.84843266,-0.95957166,0.15542969,-0.23465692,0.026499962,0.87988615,0.47444507,0.20828247,9.413986,2.5378418,0.17536926,9.421921,2.7136688,-0.036193848,0.0756073,-0.014923096,-32.17621,-22.90039,-7.3806763,0
0.414215088,0.028469417,0.27634877,-0.9606356,-0.9994366,0.024959072,-0.022439277,0.01777551,0.9607333,0.27690366,0.27539176,0.44635868,-0.85142434,-0.96097386,0.15199852,-0.23114023,0.026243793,0.88185054,0.47079813,0.12210083,9.509766,2.5761566,0.1743164,9.421478,2.7154694,-0.031936646,0.05430603,-0.0053253174,-33.073425,-21.644592,-7.206726,0
0.418579102,0.028369894,0.27648845,-0.9605984,-0.9994411,0.024846394,-0.022365535,0.017683594,0.960696,0.2770388,0.27073884,0.44376686,-0.85426664,-0.96230173,0.14872408,-0.22772011,0.025995381,0.883715,0.467303,0.19392395,9.284714,2.604889,0.17341614,9.421173,2.7168121,-0.05430603,0.051116943,-0.0053253174,-33.073425,-21.644592,-7.206726,0
0.422943115,0.028232533,0.2766812,-0.96054685,-0.99944735,0.02468133,-0.022266556,0.01754684,0.9606448,0.27722514,0.26615083,0.44115165,-0.85705835,-0.9635878,0.14549924,-0.22434002,0.025733374,0.88555926,0.46381313,0.07899475,9.514557,2.767685,0.17207336,9.420578,2.7186127,-0.037261963,0.04685974,-0.010650635,-33.073425,-21.644592,-7.206726,0
0.427307129,0.046390407,0.27632633,-0.9599436,-0.9987712,0.029609162,-0.039743595,0.017440924,0.9606077,0.27736035,0.26157367,0.43858016,-0.85978293,-0.96484697,0.1423409,-0.22092864,0.025487363,0.88734806,0.46039534,0.12210083,9.418777,2.5091095,0.17103577,9.420273,2.7199554,-0.04046631,0.03086853,-0.015975952,-31.6391,-20.92743,-7.5531006,0
0.431671143,0.04624199,0.2765319,-0.9598915,-0.998779,0.029516619,-0.039612025,0.017378764,0.9605513,0.2775592,0.25740466,0.43602276,-0.86233807,-0.96597314,0.13944863,-0.21783012,0.025272967,0.8890659,0.45708102,0.12689209,9.42836,2.5570068,0.17042542,9.419678,2.7218933,-0.051116943,0.02128601,-0.012786865,-31.6391,-20.92743,-7.5531006,0
0.436035156,0.04607441,0.27676407,-0.9598327,-0.99878633,0.02950938,-0.039435364,0.017409777,0.96048474,0.27778777,0.2533043,0.43352208,-0.8648096,-0.9670614,0.13665745,-0.21474876,0.025084341,0.89072067,0.45385838,0.27053833,9.370895,2.8012085,0.17073059,9.419083,2.7241516,-0.058563232,0.017028809,-0.008529663,-31.6391,-20.92743,-7.5531006,0
0.44039917,0.020786455,0.27756158,-0.9604829,-0.9996328,0.022469137,-0.015140565,0.017378785,0.96044505,0.27792674,0.2492381,0.43100947,-0.86724347,-0.9681207,0.13396397,-0.21165083,0.024955861,0.89234775,0.45065808,0.20828247,9.504974,2.700653,0.17042542,9.418625,2.7254944,-0.046844482,0.0021209717,-0.0010681152,-33.610535,-21.824646,-7.0343018,0
0.444763184,0.020644967,0.2777618,-0.9604282,-0.99963456,0.022506215,-0.014978794,0.017455064,0.96038634,0.2781249,0.2492381,0.43100947,-0.86724347,-0.9681207,0.13396397,-0.21165083,0.024955861,0.89234775,0.45065808,0.20828247,9.504974,2.700653,0.1711731,9.41803,2.7274323,-0.046844482,0.0021209717,-0.0010681152,-33.610535,-21.824646,-7.0343018,0
0.449127197,0.020491714,0.27797863,-0.96036863,-0.99963677,0.02251173,-0.014813574,0.017501703,0.9603234,0.278339,0.2404262,0.4262171,-0.87208617,-0.97035265,0.12841387,-0.20475729,0.024716899,0.8954601,0.44445497,0.20350647,9.351746,2.6719208,0.17163086,9.417435,2.729538,-0.051116943,0.004257202,0.013824463,-33.610535,-21.824646,-7.0343018,0
0.453491211,0.020373812,0.2781455,-0.9603229,-0.99963796,0.022554625,-0.014675241,0.01757787,0.96027416,0.27850428,0.23608147,0.42388135,-0.8744085,-0.97142094,0.12575996,-0.20131004,0.024633996,0.8969443,0.4414568,0.21786499,9.42836,2.6623383,0.17237854,9.416992,2.7311707,-0.0521698,-0.007461548,0.004257202,-33.610535,-21.824646,-7.0343018,0
0.457855225,0.020230513,0.27834818,-0.9602672,-0.9996401,0.022561174,-0.014520302,0.017623054,0.9602153,0.2787044,0.23185237,0.4215403,-0.8766688,-0.97244024,0.12321806,-0.19793244,0.024584942,0.8983992,0.43849114,0.28012085,9.514557,2.6862793,0.17282104,9.416382,2.7331238,-0.046844482,-0.0032043457,0.014892578,-33.610535,-21.824646,-7.0343018,0
0.462219238,0.020144856,0.27846938,-0.9602339,-0.99964136,0.022568908,-0.014426569,0.017654069,0.96018,0.27882412,0.2276684,0.41926706,-0.8788528,-0.973431,0.120686054,-0.19459435,0.024478273,0.89980555,0.43560392,0.10772705,9.528915,2.7054443,0.17312622,9.416092,2.734314,-0.0521698,-0.004272461,-0.0010681152,-33.610535,-21.824646,-7.0343018,0
0.466583252,0.035914514,0.27826098,-0.9598338,-0.9991972,0.027053656,-0.02954439,0.017745964,0.9601244,0.2790092,0.2235488,0.41695023,-0.8810099,-0.97438645,0.11825517,-0.19127643,0.024431227,0.90120375,0.4327065,0.01675415,9.548065,2.8012085,0.17402649,9.415497,2.7361145,-0.034072876,-0.012786865,0.0095825195,-31.817627,-22.54181,-7.725525,0
0.470947266,0.03587939,0.27830648,-0.95982194,-0.9991972,0.027118517,-0.0294881,0.017822219,0.9601094,0.27905604,0.21973316,0.4146411,-0.88305724,-0.9752526,0.11608612,-0.1881659,0.024489364,0.90255016,0.42988777,0.011962891,9.504974,2.7341766,0.17477417,9.415344,2.7365723,-0.041519165,-0.041549683,0.023422241,-31.817627,-22.54181,-7.725525,0
0.475311279,0.035870023,0.27831864,-0.95981884,-0.99919707,0.027144607,-0.029470531,0.017851705,0.9601052,0.27906883,0.21600159,0.41225493,-0.8850928,-0.9760849,0.11394606,-0.18513432,0.024530293,0.9039149,0.4270083,-0.04069519,9.572006,2.6862793,0.17506409,9.415344,2.7367096,-0.011703491,-0.03729248,0.02128601,-31.817627,-22.54181,-7.725525,0
0.479675293,0.011014176,0.27892473,-0.9602498,-0.99977773,0.020334184,-0.0055610742,0.017974775,0.9600976,0.2790867,0.21230562,0.4099167,-0.88707083,-0.9768948,0.11184096,-0.18212162,0.02455616,0.90524024,0.42418995,0.16998291,9.581589,2.767685,0.17626953,9.415192,2.7368622,-0.013824463,-0.043685913,0.014892578,-30.3833,-21.824646,-6.6879272,0
0.484039307,0.010992058,0.27895308,-0.9602418,-0.9997766,0.020401215,-0.005518006,0.018050836,0.96008795,0.27911502,0.20823474,0.4076225,-0.88909066,-0.9777698,0.10960622,-0.17875308,0.024586095,0.9065486,0.4213848,0.13166809,9.5767975,2.791626,0.17701721,9.415192,2.7371674,-0.003189087,-0.034088135,0.01914978,-30.3833,-21.824646,-6.6879272,0
0.48840332,0.011052019,0.27887625,-0.96026343,-0.99977404,0.020519193,-0.005547651,0.018156724,0.9601078,0.27904,0.20418498,0.40537533,-0.89105517,-0.97862315,0.10739967,-0.17539093,0.024599874,0.90781945,0.41863912,0.23222351,9.581589,2.6623383,0.17805481,9.415344,2.7364197,-0.0053253174,-0.045806885,0.010650635,-30.3833,-21.824646,-6.6879272,0
0.492767334,-0.006665918,0.27919626,-0.96021086,-0.99981225,0.015604098,0.011477971,0.018187834,0.9601072,0.27903986,0.20024249,0.40311837,-0.89297175,-0.9794377,0.10524075,-0.17212254,0.024591262,0.90907645,0.415903,0.09336853,9.490601,2.815567,0.17835999,9.415344,2.7364197,0.0053253174,-0.03729248,0.008514404,-32.714844,-22.003174,-6.1706543,0
0.497131348,-0.0066207615,0.2791343,-0.9602293,-0.9998119,0.0156608,0.011446206,0.018232986,0.9601244,0.27897808,0.1960698,0.40093273,-0.89487964,-0.98028225,0.103002064,-0.16863367,0.024563694,0.9102986,0.41322282,0.19392395,9.4379425,2.8921814,0.17880249,9.415497,2.7358093,0.004272461,-0.02557373,0.008514404,-32.714844,-22.003174,-6.1706543,0
0.501495361,-0.006532459,0.27901307,-0.96026504,-0.99981236,0.015686965,0.011359469,0.018233085,0.9601591,0.2788582,0.19199978,0.3986869,-0.89676356,-0.9810891,0.10078692,-0.16524585,0.024500683,0.9115321,0.4104984,0.11730957,9.514557,2.7964172,0.17880249,9.415787,2.7346191,0.028762817,-0.018112183,0.003189087,-32.714844,-22.003174,-6.1706543,0
0.505859375,0.033951096,0.27804136,-0.9599689,-0.99925697,0.026982028,-0.02752563,0.018248644,0.9601901,0.27875084,0.18799962,0.39646202,-0.8985956,-0.9818651,0.098628186,-0.1619059,0.024437312,0.91273785,0.4078143,0.17477417,9.481033,2.815567,0.17895508,9.416092,2.7335663,0.030899048,-0.020248413,0.0021209717,-32.89337,-21.466064,-7.3806763,0
0.510223389,0.034051135,0.27790082,-0.96000606,-0.9992538,0.026990857,-0.027629975,0.018232994,0.9602305,0.27861252,0.18494779,0.39418826,-0.9002278,-0.982447,0.09684478,-0.15943335,0.024335606,0.9139129,0.40518028,0.18434143,9.40921,2.767685,0.17880249,9.416534,2.7322235,0.030899048,0.0,0.0010681152,-32.89337,-21.466064,-7.3806763,0
0.514587402,0.034229834,0.27764982,-0.96007234,-0.9992473,0.027048279,-0.02780428,0.018248452,0.96030146,0.27836668,0.18199927,0.39191842,-0.9018183,-0.98300046,0.09510512,-0.15705149,0.024216166,0.915071,0.402565,0.3040619,9.461884,2.6623383,0.17895508,9.417282,2.729828,0.03729248,0.010650635,0.0010681152,-32.89337,-21.466064,-7.3806763,0
0.518951416,0.018002665,0.2778727,-0.9604492,-0.9996723,0.02249159,-0.0122307,0.018203452,0.9603546,0.27818653,0.17907202,0.38963705,-0.9033914,-0.98354125,0.09337025,-0.15468845,0.024077538,0.9162232,0.39994413,0.19871521,9.356537,2.791626,0.17851257,9.41774,2.7280426,0.051132202,0.004257202,-0.007461548,-31.99768,-21.644592,-6.8618774,0
0.52331543,0.01826627,0.27751428,-0.9605478,-0.9996676,0.022545263,-0.012496585,0.018187825,0.9604569,0.27783385,0.17589185,0.38742146,-0.9049678,-0.98411894,0.0915376,-0.15208817,0.023916366,0.917347,0.3973695,0.23222351,9.46666,2.5570068,0.17835999,9.418777,2.724594,0.051132202,0.008514404,-0.01171875,-31.99768,-21.644592,-6.8618774,0
0.527679443,0.018424384,0.27729923,-0.9606069,-0.99966675,0.02248324,-0.012683295,0.01808049,0.96052057,0.2776211,0.17273003,0.38516137,-0.90654004,-0.9846818,0.08975673,-0.14948404,0.023792593,0.91847396,0.39476508,0.16519165,9.461884,2.676712,0.17730713,9.419388,2.7225037,0.06712341,-0.0053253174,-0.008529663,-31.99768,-21.644592,-6.8618774,0
0.532043457,0.029136578,0.2768314,-0.9604767,-0.9994141,0.025332078,-0.023016479,0.017959185,0.9605845,0.27740732,0.16963017,0.38302478,-0.90802956,-0.98522514,0.08797526,-0.1469415,0.023601903,0.9195392,0.39228892,0.05505371,9.375687,2.7820587,0.17611694,9.419983,2.720398,0.047943115,0.0,-0.0234375,-32.53479,-22.183228,-7.3806763,0
0.536407471,0.029296324,0.2766162,-0.96053386,-0.99941057,0.025312934,-0.023192402,0.017898535,0.96064705,0.27719468,0.16682483,0.380862,-0.90945786,-0.9857081,0.086341605,-0.1446536,0.023430994,0.92059183,0.38982266,0.25138855,9.500183,2.5809479,0.17552185,9.420578,2.7183075,0.05645752,0.003189087,-0.017044067,-32.53479,-22.183228,-7.3806763,0
0.540771484,0.029399993,0.27647644,-0.96057093,-0.9994083,0.025293354,-0.02330862,0.017851774,0.96068776,0.27705646,0.16412798,0.37879953,-0.9108089,-0.9861653,0.08476003,-0.14245607,0.0232379,0.9215892,0.38747045,0.21307373,9.433151,2.78685,0.17506409,9.4210205,2.7169647,0.03729248,0.015960693,-0.017044067,-32.53479,-22.183228,-7.3806763,0
0.545135498,0.036330268,0.27614447,-0.9604293,-0.9991821,0.027117167,-0.029999396,0.017759955,0.9607336,0.27690375,0.16148391,0.37676063,-0.91212624,-0.98660564,0.083239526,-0.14028713,0.023070296,0.9225631,0.38515604,0.21786499,9.528915,2.700653,0.17416382,9.421478,2.7154694,0.039413452,0.013824463,-0.012786865,-32.89337,-22.54181,-7.725525,0
0.549499512,0.03641093,0.2760363,-0.9604572,-0.9991795,0.027107744,-0.030088102,0.017730422,0.9607648,0.27679688,0.15900463,0.37477902,-0.9133774,-0.98701274,0.08178309,-0.13826597,0.022879643,0.9235,0.38291556,0.20828247,9.433151,2.6575623,0.1738739,9.421768,2.7144165,0.030899048,0.010650635,-0.020248413,-32.89337,-22.54181,-7.725525,0
0.553863525,0.036525548,0.2758827,-0.960497,-0.99917674,0.02706134,-0.030223647,0.017654156,0.9608103,0.27664402,0.15663739,0.37285286,-0.9145739,-0.9873947,0.08042314,-0.13632242,0.022724705,0.92439866,0.3807502,0.15560913,9.385269,2.5091095,0.17312622,9.422226,2.7129211,0.022369385,0.02128601,-0.007461548,-32.89337,-22.54181,-7.725525,0
0.558227539,0.022926666,0.2761204,-0.9608496,-0.99958295,0.023214914,-0.01717958,0.017562406,0.96084267,0.27653748,0.15434688,0.37096226,-0.91573143,-0.9877592,0.07909776,-0.13444473,0.022558382,0.92527324,0.37862986,0.05027771,9.413986,2.5713654,0.17222595,9.422516,2.7118683,0.020248413,0.027679443,-0.007461548,-32.714844,-22.361755,-7.206726,0
0.562591553,0.02304098,0.27596655,-0.960891,-0.9995819,0.0231555,-0.017318511,0.017470583,0.9608883,0.27638468,0.1518729,0.36913761,-0.9168816,-0.988146,0.0777347,-0.1323811,0.022406673,0.9261181,0.37656766,0.09815979,9.481033,2.5809479,0.17132568,9.422974,2.710373,0.015991211,0.036193848,-0.0010681152,-32.714844,-22.361755,-7.206726,0
0.566955566,0.023155216,0.27581277,-0.9609325,-0.99958056,0.023111004,-0.01745304,0.01739434,0.96093345,0.2762322,0.14936964,0.3673075,-0.9180272,-0.9885309,0.07637422,-0.13028336,0.02225955,0.92695856,0.3745028,0.05027771,9.265549,2.5282745,0.170578,9.423416,2.7088776,0.02557373,0.018096924,-0.007461548,-32.714844,-22.361755,-7.206726,0
0.57131958,0.016618198,0.2758206,-0.9610654,-0.9997122,0.021216962,-0.0111973025,0.017302444,0.960975,0.2760938,0.14699568,0.36550164,-0.91913044,-0.9888899,0.07507976,-0.12829599,0.0221157,0.92777777,0.37247726,0.11730957,9.519333,2.5043335,0.16967773,9.423874,2.7075348,0.024505615,0.034072876,0.0,-31.6391,-22.003174,-6.8618774,0
0.575683594,0.016757153,0.27563652,-0.9611159,-0.9997104,0.021224875,-0.011343012,0.017273014,0.96102756,0.27591234,0.14451684,0.3637777,-0.92020684,-0.9892588,0.073748395,-0.126207,0.02195249,0.92856175,0.37052816,0.17955017,9.418777,2.5330505,0.16938782,9.424316,2.7057343,0.014923096,0.031936646,-0.0063934326,-31.6391,-22.003174,-6.8618774,0
0.580047607,0.016898317,0.27544945,-0.96116704,-0.9997083,0.02124651,-0.011487129,0.017257322,0.9610808,0.27572814,0.14209381,0.3620132,-0.92127943,-0.9896128,0.072466,-0.124157995,0.021814603,0.929352,0.36854985,0.3088379,9.524124,2.4803925,0.16923523,9.4249115,2.703949,0.030899048,0.03086853,-0.0010681152,-31.6391,-22.003174,-6.8618774,0
0.584411621,0.013721119,0.27533358,-0.9612509,-0.99975705,0.020369511,-0.008436272,0.01725742,0.96113294,0.2755461,0.13968267,0.36031187,-0.9223145,-0.98995924,0.07119579,-0.12211394,0.021665812,0.93011105,0.3666389,0.17955017,9.476242,2.5330505,0.16923523,9.425369,2.7021484,0.022369385,0.023422241,-0.007461548,-31.99768,-22.361755,-6.8618774,0
0.588775635,0.013803224,0.27522522,-0.96128064,-0.99975634,0.020361288,-0.008526044,0.017226331,0.9611642,0.27543923,0.13719568,0.35861653,-0.92334795,-0.990309,0.06995996,-0.119973525,0.021572893,0.9308597,0.36473942,0.06463623,9.44751,2.6815033,0.16893005,9.425659,2.7010956,0.026641846,0.0053253174,-0.0010681152,-31.99768,-22.361755,-6.8618774,0
0.593139648,0.013849257,0.27516446,-0.9612974,-0.99975616,0.02034504,-0.008579705,0.017196804,0.9611819,0.27537915,0.13479096,0.3569509,-0.924347,-0.9906407,0.06878881,-0.11789422,0.021502286,0.93158686,0.36288223,0.25138855,9.323013,2.839508,0.16864014,9.425812,2.7005005,0.02557373,0.010650635,0.0063934326,-31.99768,-22.361755,-6.8618774,0
0.597503662,0.03978567,0.27439192,-0.96079457,-0.9990608,0.027442709,-0.033532914,0.017165644,0.9612263,0.27522603,0.13241397,0.35531926,-0.9253188,-0.9909645,0.06756755,-0.115862235,0.02135344,0.9322998,0.36105564,0.08857727,9.318222,2.6431885,0.16833496,9.42627,2.6990051,0.026641846,0.012771606,-0.012786865,-31.100464,-22.54181,-7.725525,0
0.601867676,0.039811302,0.27435935,-0.96080273,-0.99906,0.02743359,-0.033562787,0.017150005,0.9612359,0.27519363,0.1305657,0.3536338,-0.9262266,-0.9912115,0.066605054,-0.11429646,0.021272289,0.9330096,0.3592222,0.15083313,9.356537,2.566574,0.16818237,9.426407,2.6987,0.03515625,0.0,-0.0010681152,-31.100464,-22.54181,-7.725525,0
0.606231689,0.03984864,0.27431193,-0.9608147,-0.99905825,0.027457144,-0.03359575,0.017165517,0.96124876,0.27514774,0.12883642,0.35207206,-0.9270634,-0.9914397,0.06569707,-0.11283309,0.021179968,0.9336644,0.35752237,0.20350647,9.457092,2.604889,0.16833496,9.426559,2.6982574,0.01171875,0.01914978,0.003189087,-31.100464,-22.54181,-7.725525,0
0.610595703,0.014389192,0.27487624,-0.96137196,-0.9997489,0.020475851,-0.009109121,0.017181028,0.9612616,0.27510184,0.12711406,0.35054642,-0.92787886,-0.99166304,0.06484118,-0.11135556,0.021129472,0.93429804,0.35586613,0.21786499,9.413986,2.5761566,0.16848755,9.426712,2.697815,0.008529663,0.0095825195,0.0095825195,-31.280518,-22.361755,-6.8618774,0
0.614959717,0.014389192,0.27487624,-0.96137196,-0.9997489,0.020475851,-0.009109121,0.017181028,0.9612616,0.27510184,0.124871716,0.34911722,-0.92872185,-0.9919484,0.06383996,-0.10937469,0.021104977,0.93490195,0.3542781,0.16040039,9.433151,2.700653,0.16848755,9.426712,2.697815,-0.0010528564,-0.0032043457,0.010650635,-31.280518,-22.361755,-6.8618774,0
0.61932373,0.014317162,0.27496916,-0.9613465,-0.99974966,0.020471947,-0.0090336045,0.01719667,0.96123505,0.2751934,0.12267606,0.3477304,-0.9295343,-0.992223,0.06286082,-0.107433766,0.021073295,0.93548495,0.35273764,0.05984497,9.327805,2.6958618,0.16864014,9.426407,2.6987,-0.0053253174,-0.0021362305,0.0095825195,-31.280518,-22.361755,-6.8618774,0
0.623687744,0.03035563,0.2746184,-0.961074,-0.99939036,0.024924656,-0.024443857,0.017241707,0.96123016,0.27520758,0.120468855,0.34642106,-0.93031156,-0.99249387,0.06190379,-0.10546984,0.02105284,0.9360344,0.35127825,0.16040039,9.509766,2.494751,0.16908264,9.426407,2.6988525,-0.018081665,-0.014923096,0.007446289,-32.356262,-21.644592,-7.206726,0
0.628051758,0.03026195,0.2747471,-0.96104014,-0.99939376,0.024872355,-0.024359021,0.017210761,0.96119475,0.27533326,0.11863631,0.34513217,-0.93102586,-0.9927151,0.061084937,-0.10385282,0.021028707,0.93656415,0.3498648,0.17477417,9.380478,2.6815033,0.16877747,9.425964,2.700058,-0.022354126,-0.01171875,0.007446289,-32.356262,-21.644592,-7.206726,0
0.632415771,0.030182784,0.27485594,-0.96101147,-0.9993967,0.024824878,-0.024288272,0.01718122,0.9611649,0.27543944,0.11684925,0.34390977,-0.93170404,-0.99292904,0.060225774,-0.102297306,0.020931555,0.93706936,0.34851533,0.15560913,9.366104,2.6336212,0.16848755,9.425659,2.7010956,-0.029800415,-0.0032043457,-0.007461548,-32.356262,-21.644592,-7.206726,0
0.636779785,0.038906816,0.27482584,-0.9607066,-0.9990957,0.027200133,-0.03268046,0.01714991,0.96110916,0.27563557,0.11515045,0.3426941,-0.93236315,-0.99312973,0.059395097,-0.10082443,0.02082586,0.9375676,0.34717906,0.22265625,9.42836,2.7293854,0.16818237,9.425217,2.7030487,-0.026611328,0.0095825195,-0.0053253174,-31.99768,-23.078918,-7.897949,0
0.641143799,0.038829543,0.2749244,-0.9606815,-0.9991003,0.027093947,-0.032628734,0.017058216,0.96108407,0.2757291,0.11368245,0.3415618,-0.93295866,-0.99330133,0.05864701,-0.09956428,0.020707887,0.93802774,0.3459409,0.2896881,9.500183,2.5378418,0.1672821,9.4249115,2.703949,-0.043655396,0.015960693,-0.0063934326,-31.99768,-23.078918,-7.897949,0
0.645507812,0.03873119,0.27504984,-0.9606495,-0.99910533,0.026997637,-0.032551777,0.016981907,0.96105087,0.2758494,0.11224723,0.3404361,-0.9335437,-0.99346876,0.057832994,-0.09836248,0.020503487,0.9384874,0.3447042,0.19871521,9.44751,2.5761566,0.16653442,9.424622,2.7051392,-0.036193848,0.023422241,-0.024505615,-31.99768,-23.078918,-7.897949,0
0.649871826,0.012327011,0.27586856,-0.9611163,-0.99978185,0.019607902,-0.0071948823,0.016860632,0.9609954,0.27605006,0.110865116,0.33934045,-0.9341076,-0.99362725,0.05708569,-0.097191274,0.020343242,0.93892986,0.34350672,0.19871521,9.452301,2.6862793,0.16534424,9.4240265,2.7070923,-0.04046631,0.026611328,-0.0138549805,-31.6391,-21.28601,-6.515503,0
0.65423584,0.012192085,0.27605334,-0.96106493,-0.99978566,0.019440353,-0.0070993104,0.016723653,0.9609456,0.27623123,0.10899134,0.33833745,-0.9346918,-0.9938388,0.056134135,-0.09556899,0.020133544,0.9393491,0.34237102,0.13166809,9.461884,2.6862793,0.16400146,9.423569,2.7088776,-0.048980713,0.031936646,-0.024505615,-31.6391,-21.28601,-6.515503,0
0.658599853,0.012110806,0.2761647,-0.961034,-0.9997901,0.019227345,-0.0070739947,0.016524546,0.96091795,0.2763396,0.107130736,0.3373426,-0.9352663,-0.9940448,0.055216186,-0.09394757,0.01994932,0.9397612,0.34124902,0.05505371,9.423569,2.604889,0.16204834,9.423264,2.7099304,-0.04472351,0.024475098,-0.020248413,-31.6391,-21.28601,-6.515503,0
0.662963867,0.011941,0.27639726,-0.96096927,-0.9997949,0.019020557,-0.0069526904,0.016356466,0.96085525,0.27656773,0.10542989,0.33631268,-0.93583035,-0.9942314,0.054299317,-0.09249558,0.019707507,0.9401837,0.34009743,0.026321411,9.423569,2.791626,0.16040039,9.422668,2.7121735,-0.031936646,0.057510376,-0.0234375,-31.6391,-21.28601,-6.515503,0
0.667327881,0.011771748,0.2766291,-0.9609047,-0.9997986,0.01887365,-0.0068148035,0.016250605,0.96079135,0.27679554,0.10369266,0.33535782,-0.93636686,-0.99441785,0.053432498,-0.09098445,0.019520078,0.94057435,0.33902636,0.08857727,9.390045,2.8778229,0.1593628,9.422073,2.7144165,-0.045791626,0.038330078,-0.017044067,-31.6391,-21.28601,-6.515503,0
0.671691895,0.011667715,0.27677158,-0.9608649,-0.9998029,0.018669544,-0.0067628827,0.016067136,0.9607544,0.27693483,0.10199481,0.33439413,-0.9368979,-0.99459606,0.052630384,-0.089491434,0.01938388,0.9409626,0.3379551,0.03111267,9.500183,2.8682404,0.15756226,9.421631,2.7157593,-0.039398193,0.036193848,-0.0053253174,-31.6391,-21.28601,-6.515503,0
0.676055908,0.036280297,0.27632162,-0.96038014,-0.9992147,0.025349457,-0.030453779,0.015930079,0.9607309,0.27702433,0.10038103,0.33338213,-0.9374327,-0.9947643,0.051784787,-0.08810377,0.019172532,0.9413685,0.33683485,0.06942749,9.533707,2.9113464,0.15621948,9.421478,2.7166595,-0.020217896,0.05218506,-0.017044067,-32.356262,-22.003174,-7.5531006,0
0.680419922,0.036230884,0.27638835,-0.9603629,-0.9992189,0.02519126,-0.030446837,0.015777599,0.9607158,0.27708516,0.09924874,0.3323107,-0.93793356,-0.99488145,0.05112676,-0.0871605,0.018989138,0.94178325,0.33568403,0.03111267,9.543274,2.8826141,0.15472412,9.421326,2.7172546,-0.0074310303,0.04258728,-0.014923096,-32.356262,-22.003174,-7.5531006,0
0.684783936,0.036192838,0.2764397,-0.96034956,-0.99922174,0.025094124,-0.030434396,0.015685853,0.96070355,0.27713278,0.09812836,0.33123854,-0.93843055,-0.9949958,0.050487965,-0.086222425,0.018819258,0.9421953,0.33453524,0.05505371,9.639053,2.815567,0.15382385,9.421173,2.7177124,-0.0021209717,0.039398193,-0.012786865,-32.356262,-22.003174,-7.5531006,0
0.689147949,0.022039017,0.27678236,-0.9606798,-0.99963456,0.02114718,-0.016839944,0.015654672,0.9606999,0.2771473,0.09702745,0.33018798,-0.9389151,-0.99510604,0.049907357,-0.08528331,0.018699246,0.9425949,0.33341444,0.07421875,9.471451,2.810791,0.15351868,9.421173,2.717865,-0.003189087,0.034072876,-0.0021362305,-32.53479,-21.824646,-7.0343018,0
0.693511963,0.0220492,0.27676845,-0.9606837,-0.99963486,0.02112142,-0.016858209,0.015625183,0.9607045,0.27713305,0.09555552,0.32914045,-0.93943375,-0.9952498,0.049253535,-0.08397641,0.018630397,0.94299555,0.3322834,-0.09336853,9.500183,2.7389526,0.15322876,9.421173,2.7177124,0.004272461,0.0063934326,0.0,-32.53479,-21.824646,-7.0343018,0
0.697875977,0.022197375,0.27656528,-0.9607388,-0.9996316,0.021158861,-0.017005028,0.015625136,0.9607622,0.27693304,0.09555552,0.32914045,-0.93943375,-0.9952498,0.049253535,-0.08397641,0.018630397,0.94299555,0.3322834,-0.09336853,9.500183,2.7389526,0.15322876,9.421768,2.7157593,0.004272461,0.0063934326,0.0,-32.53479,-21.824646,-7.0343018,0
0.703430176,0.0048656585,0.27666244,-0.96095484,-0.9998651,0.016419753,-3.353674E-4,0.015685858,0.9608269,0.276705,0.09277601,0.3268773,-0.9405019,-0.9955137,0.04807843,-0.08149269,0.018579748,0.94384307,0.32987133,0.11251831,9.500183,2.7581177,0.15382385,9.422379,2.7135162,0.050079346,0.003189087,0.02128601,-32.17621,-21.466064,-6.3430786,0
0.708984375,0.0050324015,0.27643186,-0.96102035,-0.9998628,0.01655405,-4.741256E-4,0.015777716,0.9608909,0.27647725,0.09277601,0.3268773,-0.9405019,-0.9955137,0.04807843,-0.08149269,0.018579748,0.94384307,0.32987133,0.11251831,9.500183,2.7581177,0.15472412,9.422974,2.7112732,0.050079346,0.003189087,0.02128601,-32.17621,-21.466064,-6.3430786,0
0.714569092,0.0051885857,0.27621585,-0.9610816,-0.9998609,0.016670361,-6.068647E-4,0.01585395,0.96095103,0.27626392,0.08941527,0.3243872,-0.94168884,-0.995819,0.04686259,-0.078412086,0.018694103,0.9447628,0.32722116,0.06942749,9.538498,2.7293854,0.1554718,9.423569,2.7091827,0.055404663,-0.0021362305,0.024475098,-32.17621,-21.466064,-6.3430786,0
0.720123291,-0.0041416995,0.27609956,-0.9611201,-0.9998639,0.014211025,0.008391036,0.015975263,0.96102405,0.27600312,0.08773656,0.32319665,-0.9422559,-0.9959668,0.04628736,-0.07686105,0.018773302,0.94519913,0.32595423,0.08857727,9.413986,2.7054443,0.15666199,9.424316,2.7066345,0.04901123,-0.007461548,0.023422241,-30.741882,-22.54181,-6.3430786,0
0.724945068,-0.003923109,0.27582398,-0.9612001,-0.9998613,0.01447859,0.008235649,0.016188413,0.96109915,0.27572894,0.08586204,0.32195902,-0.94285214,-0.9961277,0.04569509,-0.07510999,0.01890137,0.9456502,0.32463577,0.22265625,9.490601,2.7389526,0.15875244,9.425064,2.703949,0.06391907,-0.018112183,0.029815674,-30.741882,-22.54181,-6.3430786,0
0.729248047,-0.0036662435,0.2755001,-0.961294,-0.99986047,0.014655293,0.008013435,0.01629575,0.9611893,0.27540797,0.083925426,0.32077357,-0.9434303,-0.99628985,0.04511302,-0.07328892,0.019051844,0.9460809,0.3233696,0.04548645,9.327805,2.6192474,0.1598053,9.425964,2.7008057,0.06498718,-0.042617798,0.03086853,-30.741882,-22.54181,-6.3430786,0
0.733551025,0.026173688,0.27464986,-0.961188,-0.9995238,0.022907615,-0.020671973,0.016340971,0.9612714,0.27511865,0.082094684,0.31961188,-0.9439856,-0.99644053,0.044521276,-0.071582615,0.019148791,0.94650203,0.32212922,0.08378601,9.370895,2.6910706,0.1602478,9.426712,2.6979523,0.071380615,-0.029830933,0.027679443,-30.741882,-22.90039,-7.3806763,0
0.737854004,0.026451191,0.2743065,-0.96127844,-0.9995143,0.023109747,-0.02090881,0.01647948,0.9613646,0.27478454,0.08087611,0.31845847,-0.9444804,-0.9965397,0.044064943,-0.07047622,0.019174727,0.94691205,0.32092032,0.27053833,9.4379425,2.542633,0.16160583,9.427612,2.6946716,0.06817627,-0.028762817,0.010650635,-30.741882,-22.90039,-7.3806763,0
0.742156982,0.026668143,0.274038,-0.961349,-0.99950635,0.023280175,-0.021090494,0.016600778,0.961437,0.2745236,0.07961877,0.31733295,-0.94496596,-0.99664015,0.04361974,-0.06932449,0.019220226,0.94731045,0.3197397,0.24180603,9.490601,2.6575623,0.16279602,9.42836,2.6921234,0.06712341,-0.046875,0.0095825195,-30.741882,-22.90039,-7.3806763,0
0.746459961,0.025360316,0.27395958,-0.9614068,-0.99953985,0.022964235,-0.019822381,0.01664744,0.961467,0.27441588,0.078499235,0.3162601,-0.9454192,-0.9967282,0.043215774,-0.068303004,0.019255502,0.9476877,0.31861776,0.23701477,9.375687,2.7293854,0.16325378,9.428665,2.6910706,0.055404663,-0.020248413,0.014892578,-31.6391,-22.361755,-7.206726,0
0.750762939,0.025443373,0.27385134,-0.9614354,-0.9995371,0.023013236,-0.0198967,0.016677003,0.96149665,0.2743101,0.077310376,0.31531182,-0.94583386,-0.9968218,0.042736348,-0.06723103,0.019222744,0.94802535,0.31761363,0.31362915,9.485825,2.6815033,0.1635437,9.428955,2.690033,0.030899048,-0.029830933,-0.0053253174,-31.6391,-22.361755,-7.206726,0
0.755065918,0.025575202,0.27367944,-0.96148086,-0.99953294,0.02309075,-0.020014744,0.01672369,0.96154374,0.27414218,0.07617672,0.3144069,-0.9462269,-0.9969104,0.04224436,-0.06622031,0.01915263,0.94834787,0.31665352,0.29927063,9.385269,2.609665,0.16400146,9.429413,2.688385,0.024505615,-0.020248413,-0.01171875,-31.6391,-22.361755,-7.206726,0
0.759368896,0.0482381,0.2730825,-0.9607804,-0.9986949,0.029350165,-0.041799482,0.016784357,0.96154284,0.2741419,0.07506269,0.31348088,-0.9466231,-0.9969959,0.04177238,-0.0652238,0.019096283,0.9486753,0.31567472,0.31362915,9.40921,2.6958618,0.16459656,9.429413,2.688385,0.03303528,-0.022369385,-0.009597778,-33.610535,-20.030212,-7.3806763,0
0.763671875,0.048271067,0.27303195,-0.9607932,-0.9986922,0.029415417,-0.041816063,0.016845012,0.9615551,0.27409476,0.07450582,0.31267282,-0.9469343,-0.99703914,0.04146749,-0.064755775,0.019019617,0.9489553,0.31483662,0.33277893,9.457092,2.5522156,0.16519165,9.42955,2.6879272,0.0032043457,-0.0021362305,-0.008529663,-33.610535,-20.030212,-7.3806763,0
0.767974853,0.048329994,0.27294138,-0.96081585,-0.99869025,0.02936916,-0.04189214,0.016784256,0.9615822,0.27400336,0.073932715,0.31186175,-0.9472467,-0.99708384,0.0411316,-0.06428077,0.018915057,0.94923675,0.31399328,0.36151123,9.567215,2.5330505,0.16459656,9.429855,2.6870422,0.008529663,-0.0063934326,-0.018112183,-33.610535,-20.030212,-7.3806763,0
0.772277832,0.014952864,0.2736932,-0.96170086,-0.9997466,0.020280916,-0.009772608,0.016829476,0.9616032,0.27392712,0.07333976,0.3110822,-0.947549,-0.9971309,0.040728953,-0.06380597,0.018743776,0.94950986,0.31317672,0.3471527,9.471451,2.5139008,0.16503906,9.430008,2.6862793,0.0053253174,-0.008529663,-0.03515625,-33.251953,-22.90039,-7.0343018,0
0.776580811,0.015021732,0.27360094,-0.96172595,-0.999746,0.020270351,-0.009848887,0.016799858,0.9616297,0.273836,0.07203951,0.31034896,-0.94788915,-0.99722666,0.04021965,-0.06262083,0.01868946,0.9497715,0.31238565,0.2753296,9.433151,2.542633,0.16474915,9.430298,2.6853943,0.0021362305,-0.028762817,-0.0138549805,-33.251953,-22.90039,-7.0343018,0
0.780883789,0.01504304,0.2735724,-0.9617338,-0.99974656,0.020231143,-0.009882718,0.016753335,0.9616386,0.2738074,0.07083088,0.30959958,-0.9482252,-0.99731517,0.03969304,-0.06153788,0.018585838,0.9500382,0.31157982,0.19392395,9.366104,2.427719,0.16429138,9.430298,2.685089,0.009597778,-0.010650635,-0.020248413,-33.251953,-22.90039,-7.0343018,0
0.785186768,-0.011204091,0.2740084,-0.9616621,-0.99979824,0.01296998,0.01534397,0.016677113,0.9616399,0.27380776,0.069631204,0.30894905,-0.94852614,-0.9974013,0.039187893,-0.060455028,0.018493216,0.9502709,0.3108749,0.17477417,9.404419,2.5522156,0.1635437,9.430298,2.685089,-0.011703491,-0.014923096,-0.019180298,-31.100464,-21.107483,-5.6518555,0
0.789489746,-0.011214363,0.2740224,-0.96165794,-0.99979866,0.012923483,0.015341661,0.01663193,0.96163636,0.27382234,0.06791618,0.30833247,-0.9488512,-0.99752176,0.038508385,-0.058886446,0.01838212,0.95049894,0.31018367,0.15083313,9.356537,2.5809479,0.1631012,9.430298,2.6852417,-0.011703491,-0.017044067,-0.024505615,-31.100464,-21.107483,-5.6518555,0
0.793792725,-0.011224523,0.27403623,-0.9616538,-0.9997996,0.012862062,0.015334983,0.016571194,0.9616333,0.27383703,0.066233575,0.30771872,-0.9491692,-0.997636,0.037885614,-0.057333168,0.018317373,0.9507228,0.30950058,0.05984497,9.375687,2.5857239,0.1625061,9.430298,2.6853943,-0.010635376,-0.021316528,-0.014923096,-31.100464,-21.107483,-5.6518555,0
0.798095703,0.034417454,0.27316427,-0.9613516,-0.99927044,0.025340565,-0.028574571,0.016555637,0.96163356,0.2738371,0.0645711,0.30711704,-0.9494786,-0.9977459,0.037283182,-0.055794038,0.018264286,0.95094115,0.3088322,0.12210083,9.4427185,2.700653,0.16235352,9.430298,2.6853943,-0.010635376,-0.024505615,-0.012786865,-32.356262,-21.28601,-7.206726,0
0.802398682,0.0344414,0.27313077,-0.96136016,-0.9992696,0.02534603,-0.028598506,0.016555531,0.961643,0.27380422,0.063943714,0.30644602,-0.9497379,-0.99778676,0.03703025,-0.05523042,0.018243888,0.9511675,0.30813563,0.18913269,9.40921,2.5713654,0.16235352,9.43045,2.685089,0.0,-0.0063934326,0.0010681152,-32.356262,-21.28601,-7.206726,0
0.80670166,0.034441773,0.27313024,-0.9613603,-0.99926937,0.025361083,-0.028594617,0.016571086,0.96164274,0.27380416,0.063256785,0.30578986,-0.9499954,-0.9978312,0.036742676,-0.054615058,0.01820464,0.9513898,0.3074509,0.19871521,9.495392,2.7102356,0.1625061,9.43045,2.685089,0.0,-0.021316528,-0.008529663,-32.356262,-21.28601,-7.206726,0
0.811004639,0.043476287,0.27293554,-0.9610494,-0.998917,0.027831657,-0.03728524,0.01657113,0.9616297,0.27385,0.06268154,0.30509943,-0.9502554,-0.9978675,0.036526974,-0.05409442,0.01820578,0.95161974,0.30673838,0.14125061,9.46666,2.8203583,0.1625061,9.430298,2.6855316,0.010665894,-0.0021362305,0.007446289,-32.89337,-20.748901,-7.3806763,0
0.815307617,0.04350686,0.2728911,-0.9610607,-0.99891496,0.027881939,-0.037303492,0.016616445,0.9616408,0.27380803,0.062300667,0.3044669,-0.95048326,-0.9978909,0.03639669,-0.053749166,0.018229602,0.9518273,0.3060923,0.23222351,9.413986,2.7724762,0.16294861,9.430298,2.685089,-0.0021209717,-0.0032043457,0.012771606,-32.89337,-20.748901,-7.3806763,0
0.819610596,0.04349723,0.27290508,-0.9610571,-0.99891496,0.027894747,-0.037289582,0.01663193,0.96163636,0.27382234,0.061996188,0.3037674,-0.95072705,-0.9979101,0.036255732,-0.053488854,0.018221132,0.9520561,0.30538025,0.20350647,9.413986,2.7389526,0.1631012,9.430298,2.6852417,0.018112183,0.014892578,0.010650635,-32.89337,-20.748901,-7.3806763,0
0.823913574,-0.0022529217,0.2738167,-0.96177924,-0.9998601,0.015321029,0.0067039924,0.016571114,0.96165985,0.2737439,0.061684713,0.30310842,-0.95095754,-0.9979303,0.03607143,-0.053234223,0.018166656,0.95227313,0.30470616,0.12210083,9.471451,2.6958618,0.1625061,9.430603,2.684494,0.01171875,0.014892578,-0.0010681152,-31.817627,-22.54181,-6.3430786,0
0.828216553,-0.0021483912,0.2736802,-0.96181846,-0.99986106,0.015320782,0.006592811,0.016540129,0.9616988,0.2736092,0.06053186,0.30245975,-0.9512382,-0.99800247,0.03560204,-0.05218753,0.018081397,0.95249707,0.3040106,0.09336853,9.394836,2.4899597,0.16220093,9.430908,2.6831512,0.020248413,0.031936646,-0.0032043457,-31.817627,-22.54181,-6.3430786,0
0.832519531,-0.0021231787,0.27364725,-0.9618278,-0.9998616,0.015297903,0.006559504,0.016508937,0.96170855,0.2735769,0.05941479,0.30183023,-0.95150846,-0.99807024,0.035193656,-0.051158372,0.018045917,0.9527119,0.30333883,0.07421875,9.42836,2.5809479,0.16189575,9.431046,2.682846,0.017044067,0.03086853,0.008514404,-31.817627,-22.54181,-6.3430786,0
0.83682251,-0.0034237716,0.27365264,-0.96182245,-0.999857,0.014987001,0.007823184,0.01655567,0.96171176,0.27356222,0.058238856,0.30120692,-0.9517787,-0.9981395,0.03480769,-0.050060153,0.018050753,0.9529233,0.30267367,0.15083313,9.390045,2.7054443,0.16235352,9.431046,2.6826935,0.018112183,0.0095825195,0.01171875,-31.100464,-21.466064,-5.996704,0
0.841125488,-0.0034454393,0.2736817,-0.9618141,-0.9998573,0.014965743,0.007840182,0.016539978,0.96170396,0.27359113,0.05711425,0.30063358,-0.95202804,-0.9982042,0.03444839,-0.04900627,0.0180629,0.9531174,0.3020612,0.12689209,9.519333,2.810791,0.16220093,9.431046,2.6829987,0.008529663,0.02128601,0.017028809,-31.100464,-21.466064,-5.996704,0
0.845428467,-0.0035044565,0.27376089,-0.96179134,-0.99985725,0.014934102,0.007893946,0.016524546,0.96168184,0.2736695,0.05596544,0.3000941,-0.9522665,-0.99826896,0.03409165,-0.047925513,0.018082174,0.95330024,0.3014826,0.08857727,9.471451,2.8251495,0.16204834,9.430756,2.6837463,0.0032043457,0.010650635,0.015960693,-31.100464,-21.466064,-5.996704,0
0.849731445,0.028638206,0.27312493,-0.96155214,-0.99945325,0.023726273,-0.023027679,0.016524617,0.961686,0.27365512,0.054889396,0.2995972,-0.95248544,-0.998329,0.033723693,-0.04692371,0.018063119,0.9534696,0.30094767,0.19392395,9.4427185,2.7772675,0.16204834,9.430756,2.6835938,-0.004257202,0.024475098,0.010650635,-31.459045,-21.466064,-7.0343018,0
0.854034424,0.028652776,0.27310523,-0.9615573,-0.99945223,0.023759555,-0.0230337,0.01655555,0.96169066,0.27363646,0.05452985,0.29903248,-0.9526836,-0.9983496,0.033544686,-0.046614524,0.018018214,0.95365316,0.3003681,0.22265625,9.4427185,2.6336212,0.16235352,9.430908,2.6834412,0.009597778,0.038330078,0.008514404,-31.459045,-21.466064,-7.0343018,0
0.858337402,0.0286734,0.2730774,-0.96156466,-0.9994517,0.023764664,-0.023054183,0.016555684,0.9616985,0.2736091,0.054106537,0.29852694,-0.95286626,-0.9983734,0.03335026,-0.046242137,0.017973814,0.9538183,0.2998458,0.22744751,9.361328,2.5857239,0.16235352,9.430908,2.6831512,-0.0021209717,0.022354126,0.003189087,-31.459045,-21.466064,-7.0343018,0
0.862640381,0.031844635,0.27296728,-0.9614961,-0.9993553,0.024658509,-0.026098013,0.016585158,0.96170735,0.27357653,0.053698037,0.29800984,-0.9530513,-0.99839646,0.033150315,-0.045887154,0.017919123,0.953987,0.29931208,0.23701477,9.399628,2.6240387,0.16264343,9.431046,2.682846,0.0032043457,0.024475098,0.0010681152,-31.459045,-21.107483,-7.0343018,0
0.866943359,0.031897943,0.27289414,-0.9615151,-0.99935514,0.024582889,-0.026176237,0.016493477,0.96173,0.27350232,0.053309187,0.29755056,-0.9532166,-0.998419,0.032918032,-0.045561668,0.017821115,0.9541384,0.29883495,0.23222351,9.423569,2.6000977,0.16174316,9.431198,2.6820984,-0.0084991455,0.015960693,-0.012786865,-31.459045,-21.107483,-7.0343018,0
0.871246338,0.031943936,0.27283108,-0.96153146,-0.9993548,0.02452019,-0.026242984,0.016417034,0.9617494,0.2734383,0.05301289,0.29701057,-0.9534015,-0.99843717,0.03267789,-0.045337,0.01768958,0.9543149,0.29827875,0.32321167,9.351746,2.5043335,0.16099548,9.431503,2.6815033,0.0138549805,0.038330078,-0.014923096,-31.459045,-21.107483,-7.0343018,0
0.875549316,0.031976618,0.27278626,-0.96154314,-0.9993555,0.024426078,-0.026304498,0.01631122,0.9617645,0.2733915,0.052671142,0.29652372,-0.953572,-0.9984581,0.0323967,-0.045076344,0.017526377,0.9544758,0.29777288,0.20828247,9.413986,2.494751,0.15995789,9.431656,2.6810455,0.0032043457,0.027679443,-0.02557373,-31.459045,-21.107483,-7.0343018,0
0.879852295,0.031952206,0.27281976,-0.96153444,-0.9993563,0.024420414,-0.02628015,0.016311327,0.9617552,0.2734244,0.052336715,0.29607072,-0.95373106,-0.9984783,0.032134395,-0.044816628,0.017378679,0.9546253,0.29730198,0.16040039,9.332596,2.743744,0.15995789,9.431503,2.6813507,-0.003189087,0.026611328,-0.022369385,-31.459045,-21.107483,-7.0343018,0
0.884155273,0.031976968,0.27278575,-0.9615432,-0.99935526,0.02444113,-0.026300596,0.016326776,0.96176434,0.27339143,0.051976208,0.2956212,-0.9538903,-0.9984988,0.0319135,-0.044516522,0.017281951,0.95477206,0.29683614,0.16519165,9.485825,2.604889,0.16011047,9.431656,2.6810455,-0.0021209717,0.015960693,-0.0138549805,-31.459045,-21.107483,-7.0343018,0
0.888458252,0.037150655,0.27270776,-0.9613794,-0.9991786,0.025721613,-0.031315062,0.016188368,0.961753,0.27343932,0.051564492,0.2951234,-0.9540667,-0.9985213,0.031699754,-0.044161398,0.01721062,0.95493317,0.29632157,0.12689209,9.5767975,2.7389526,0.15875244,9.431503,2.6815033,0.01171875,0.0010681152,-0.012786865,-31.817627,-22.90039,-7.725525,0
0.89276123,0.037187945,0.27266005,-0.96139145,-0.9991773,0.025716754,-0.03135603,0.016174331,0.9617666,0.27339208,0.05123973,0.294725,-0.95420736,-0.9985402,0.03146737,-0.043901056,0.017087659,0.9550639,0.29590714,0.12210083,9.595947,2.6192474,0.15861511,9.431656,2.6810455,-0.010635376,-0.0010681152,-0.026641846,-31.817627,-22.90039,-7.725525,0
0.897064209,0.037187062,0.2726612,-0.96139127,-0.99917805,0.025686607,-0.031363666,0.016143221,0.9617672,0.27339226,0.05089039,0.29433477,-0.9543465,-0.99855846,0.0313223,-0.043587722,0.017062947,0.955189,0.29550448,0.08857727,9.567215,2.5953064,0.15830994,9.431656,2.6810455,-0.011703491,-0.014923096,-0.0063934326,-31.817627,-22.90039,-7.725525,0
0.901367187,0.03677238,0.27272233,-0.9613898,-0.99919474,0.025486764,-0.030988432,0.016051477,0.96175516,0.27343994,0.05050506,0.29393998,-0.95448864,-0.9985785,0.031165512,-0.043240402,0.017037043,0.95531565,0.29509616,-0.08378601,9.495392,2.6575623,0.15740967,9.431503,2.6815033,-0.0084991455,-0.024505615,-0.009597778,-31.100464,-21.824646,-7.3806763,0
0.905670166,0.03679751,0.27268937,-0.9613982,-0.99919415,0.02547751,-0.03101775,0.01603582,0.9617648,0.27340713,0.0501333,0.29358375,-0.9546178,-0.99859744,0.031027308,-0.042900797,0.017024243,0.9554297,0.2947275,0.07421875,9.509766,2.5474243,0.15725708,9.431656,2.6811981,-0.015960693,-0.022369385,-0.0053253174,-31.100464,-21.824646,-7.3806763,0
0.909973145,0.036821984,0.27265725,-0.96140635,-0.9991921,0.025556672,-0.031021243,0.016112179,0.96177185,0.273378,0.049684763,0.29318267,-0.9547645,-0.99861974,0.03088049,-0.042484358,0.017027918,0.9555576,0.2943123,0.12210083,9.394836,2.8442993,0.15800476,9.431656,2.680893,-0.003189087,-0.042617798,-0.007461548,-31.100464,-21.824646,-7.3806763,0
0.914276123,0.04763911,0.2723013,-0.96103203,-0.99873346,0.028578237,-0.04141057,0.016188452,0.9617876,0.2733178,0.049225736,0.2926957,-0.9549377,-0.9986414,0.03078404,-0.042043068,0.017091017,0.95571,0.2938134,0.16040039,9.476242,2.6192474,0.15875244,9.431793,2.6802979,0.019180298,-0.051132202,0.004257202,-31.100464,-21.824646,-7.725525,0
0.918579102,0.047677543,0.2722509,-0.96104443,-0.9987305,0.028659955,-0.04142817,0.016264632,0.96179944,0.27327165,0.049037136,0.29225037,-0.9550838,-0.9986498,0.030760136,-0.041861523,0.01714446,0.955847,0.29336414,0.16998291,9.528915,2.6671295,0.15950012,9.431946,2.6798553,0.009597778,-0.041549683,0.0053253174,-31.100464,-21.824646,-7.725525,0
0.92288208,0.047785923,0.27210873,-0.96107924,-0.99872357,0.028771995,-0.041511476,0.016356532,0.9618362,0.27313635,0.04876788,0.2918207,-0.955229,-0.9986618,0.030730423,-0.041597184,0.01721567,0.9559792,0.29292884,0.05505371,9.385269,2.6719208,0.16040039,9.432251,2.6785126,0.007461548,-0.06072998,0.003189087,-31.100464,-21.824646,-7.725525,0
0.927185059,-0.010046759,0.27334458,-0.9618638,-0.99981594,0.012988221,0.014134193,0.016356401,0.9618286,0.27316374,0.048482515,0.29130074,-0.95540214,-0.9986739,0.030722084,-0.041311245,0.017317949,0.9561381,0.2924039,-0.002380371,9.44751,2.925705,0.16040039,9.432251,2.6788025,0.030899048,-0.06817627,0.008514404,-31.280518,-21.644592,-5.82428,0
0.931488037,-0.00993193,0.27319065,-0.96190864,-0.9998159,0.0130801685,0.014038216,0.016417038,0.96187097,0.27301046,0.04711129,0.29089746,-0.9555936,-0.9987387,0.030348806,-0.039999723,0.017365307,0.9562728,0.29196033,0.10293579,9.514557,2.604889,0.16099548,9.4326935,2.6773071,0.0138549805,-0.050064087,0.0010681152,-31.280518,-21.644592,-5.82428,0
0.935791016,-0.009886966,0.27313042,-0.96192616,-0.9998153,0.013153208,0.014011139,0.016479285,0.96188706,0.27294993,0.045721814,0.29044184,-0.95579976,-0.99880195,0.029996939,-0.03866362,0.017441535,0.9564224,0.29146537,0.06942749,9.4427185,2.6862793,0.16160583,9.432846,2.676712,0.027709961,-0.06285095,0.004257202,-31.280518,-21.644592,-5.82428,0
0.940093994,0.025193667,0.27245325,-0.96183914,-0.9995437,0.02290118,-0.01969422,0.016661497,0.9618964,0.27290592,0.04443516,0.29004887,-0.95597965,-0.9988587,0.02967483,-0.037424754,0.017513528,0.9565517,0.29103646,0.20350647,9.495392,2.8442993,0.16339111,9.432846,2.6762543,0.0138549805,-0.045806885,0.008514404,-32.53479,-21.824646,-7.0343018,0
0.944396973,0.025254428,0.2723697,-0.96186113,-0.9995398,0.023049138,-0.019716898,0.016799787,0.9619165,0.27282652,0.043813553,0.28960383,-0.9561432,-0.9988837,0.029608088,-0.03680414,0.017650954,0.9566885,0.2905778,0.11251831,9.543274,2.7533264,0.16474915,9.433151,2.6755066,0.0234375,-0.0660553,0.01914978,-32.53479,-21.824646,-7.0343018,0
0.948699951,0.025321487,0.27227768,-0.9618855,-0.9995362,0.023182476,-0.01975045,0.016921282,0.96193945,0.27273837,0.043813553,0.28960383,-0.9561432,-0.9988837,0.029608088,-0.03680414,0.017650954,0.9566885,0.2905778,0.11251831,9.543274,2.7533264,0.16593933,9.433304,2.6746216,0.0234375,-0.0660553,0.01914978,-32.53479,-21.824646,-7.0343018,0
0.95300293,-0.012136829,0.2728496,-0.96198016,-0.9997806,0.013115725,0.016333794,0.017073736,0.9619673,0.2726305,0.042728923,0.2887104,-0.95646256,-0.99892646,0.0294908,-0.035724092,0.017892929,0.95696217,0.28966054,0.15560913,9.4379425,2.6623383,0.16743469,9.433594,2.6735687,0.024505615,-0.050064087,0.020217896,-31.459045,-22.54181,-5.996704,0
0.957305908,-0.012068016,0.2727605,-0.9620062,-0.99978006,0.013209501,0.016287206,0.01715013,0.9619913,0.27254114,0.04142243,0.28830087,-0.95664346,-0.9989791,0.029223578,-0.03444853,0.018025003,0.95709383,0.28921705,0.24659729,9.514557,2.5474243,0.16818237,9.433746,2.6726685,0.024505615,-0.057525635,0.01914978,-31.459045,-22.54181,-5.996704,0
0.961608887,-0.012006565,0.27268097,-0.96202964,-0.9997809,0.013227446,0.016226951,0.017149974,0.9620136,0.27246237,0.04023912,0.28797382,-0.95679253,-0.999027,0.028894931,-0.033318598,0.01805157,0.95720226,0.28885633,0.15083313,9.4379425,2.6719208,0.16818237,9.4340515,2.6719208,0.0063934326,-0.028762817,0.0021209717,-31.459045,-22.54181,-5.996704,0
0.967712402,0.025107246,0.27200142,-0.96196926,-0.9995372,0.023368452,-0.019480221,0.017181084,0.9620131,0.27246225,0.03908434,0.28760478,-0.9569514,-0.99907297,0.028540688,-0.032227006,0.01804341,0.95732385,0.28845367,0.20350647,9.567215,2.566574,0.16848755,9.4340515,2.6719208,0.018112183,-0.02557373,-0.0053253174,-31.459045,-20.748901,-6.6879272,0
0.973815918,0.025140585,0.2719548,-0.9619816,-0.9995361,0.023391545,-0.019509185,0.017196618,0.9620257,0.2724167,0.03908434,0.28760478,-0.9569514,-0.99907297,0.028540688,-0.032227006,0.01804341,0.95732385,0.28845367,0.20350647,9.567215,2.566574,0.16864014,9.434189,2.6714783,0.018112183,-0.02557373,-0.0053253174,-31.459045,-20.748901,-6.6879272,0
0.979949951,0.02515107,0.27194014,-0.9619854,-0.9995357,0.023394175,-0.019519607,0.01719669,0.9620297,0.2724023,0.038369842,0.2868707,-0.9572005,-0.9991016,0.028261859,-0.031579453,0.017993046,0.9575523,0.28769737,0.16519165,9.46666,2.6479797,0.16864014,9.434189,2.6713257,0.007461548,-0.009597778,-0.0063934326,-31.459045,-20.748901,-6.6879272,0
0.985137939,-0.013851874,0.2726175,-0.9620228,-0.9997553,0.012814264,0.018026471,0.017241945,0.9620371,0.27237326,0.03807949,0.28654385,-0.95731,-0.99911326,0.028134156,-0.031321153,0.017958228,0.95765394,0.2873611,0.29447937,9.461884,2.5953064,0.16908264,9.434189,2.6710205,0.0053253174,-0.0032043457,-0.004272461,-32.714844,-23.4375,-6.1706543,0
0.989379883,-0.013874659,0.272647,-0.9620141,-0.99975455,0.0128373,0.018057225,0.017272912,0.9620285,0.27240196,0.037104823,0.28622055,-0.957445,-0.9991518,0.027747802,-0.03042614,0.01785841,0.9577619,0.28700733,0.24659729,9.500183,2.7581177,0.16938782,9.434189,2.6713257,0.01171875,0.017028809,-0.012786865,-32.714844,-23.4375,-6.1706543,0
0.993621826,-0.013908811,0.27269122,-0.9620011,-0.99975616,0.012708935,0.01805719,0.017150046,0.96201766,0.27244797,0.036164887,0.28598234,-0.9575522,-0.99918664,0.02744992,-0.029539142,0.017837059,0.95784163,0.28674248,0.13645935,9.485825,2.7581177,0.16818237,9.4340515,2.6717682,-0.006378174,0.01914978,0.003189087,-32.714844,-23.4375,-6.1706543,0
0.99786377,0.05380898,0.27112854,-0.961038,-0.9984032,0.031182952,-0.047103725,0.017196836,0.96203786,0.27237347,0.0352084,0.28574532,-0.9576586,-0.9992229,0.0270568,-0.028663334,0.017720765,0.95792353,0.2864759,0.2753296,9.404419,2.4803925,0.16864014,9.434189,2.6710205,-0.004257202,0.017028809,-0.020248413,-31.99768,-21.644592,-7.897949,0
1.002105713,0.053824026,0.2711081,-0.96104294,-0.998402,0.031214358,-0.047110844,0.017226206,0.9620427,0.27235487,0.035622947,0.28546885,-0.9577257,-0.99920964,0.027088583,-0.029091671,0.017638665,0.9580051,0.2862082,0.25616455,9.490601,2.6240387,0.16893005,9.434341,2.670868,-0.003189087,0.014892578,-0.0138549805,-31.99768,-21.644592,-7.897949,0
1.006347656,0.053841643,0.2710841,-0.9610486,-0.9984021,0.031144682,-0.047149315,0.017150125,0.96205163,0.27232787,0.03607044,0.2851911,-0.95779175,-0.9991941,0.027181435,-0.029536135,0.01761071,0.9580852,0.2859417,0.17955017,9.495392,2.5043335,0.16818237,9.434341,2.670578,-0.0021209717,0.020217896,0.0010681152,-31.99768,-21.644592,-7.897949,0
1.0105896,0.027539924,0.27171695,-0.9619831,-0.9994735,0.023995372,-0.021835597,0.017150039,0.962078,0.2722347,0.036512777,0.284941,-0.95784944,-0.99917954,0.027218813,-0.029991213,0.0175258,0.95815855,0.285701,0.15083313,9.600739,2.4756012,0.16818237,9.434647,2.6696777,-0.0074310303,0.025543213,-0.01171875,-30.3833,-21.824646,-7.0343018,0
1.014831543,0.027538646,0.2717186,-0.96198267,-0.99947464,0.023936665,-0.02185085,0.017089374,0.962079,0.27223498,0.036398713,0.28468692,-0.9579293,-0.9991848,0.027117768,-0.02990719,0.017462721,0.95823693,0.2854419,0.03590393,9.4379425,2.652771,0.16758728,9.434647,2.6696777,-0.0021209717,0.01914978,-0.008529663,-30.3833,-21.824646,-7.0343018,0
1.019073486,0.027574072,0.27167308,-0.9619945,-0.99947447,0.023901813,-0.021898357,0.017044218,0.9620927,0.27218935,0.036235306,0.28443623,-0.95800996,-0.9991905,0.027070653,-0.029755544,0.0174704,0.9583127,0.2851869,0.04548645,9.509766,2.5905151,0.16714478,9.434799,2.6692352,-0.0021209717,0.0021209717,0.004257202,-30.3833,-21.824646,-7.0343018,0
1.02331543,0.016833782,0.27189952,-0.9621784,-0.9997128,0.020994851,-0.011557585,0.01705829,0.96209663,0.2721749,0.036112536,0.2841959,-0.95808595,-0.99919623,0.026962215,-0.029664312,0.017401643,0.9583871,0.28494114,0.19392395,9.557648,2.6431885,0.1672821,9.434799,2.6690826,-0.003189087,0.015960693,-0.010650635,-32.17621,-22.90039,-7.0343018,0
1.027557373,0.016859408,0.2718663,-0.9621874,-0.9997121,0.021016315,-0.011578751,0.01707376,0.9621055,0.27214232,0.03571764,0.28392962,-0.9581797,-0.99921,0.026864178,-0.029286664,0.017425356,0.95846874,0.28466484,0.20828247,9.471451,2.5857239,0.16743469,9.434937,2.6687775,0.0053253174,-0.004272461,0.0063934326,-32.17621,-22.90039,-7.0343018,0
1.031799316,0.01688178,0.27183723,-0.96219516,-0.999712,0.021007221,-0.011605103,0.017058348,0.9621139,0.27211356,0.035357013,0.28367767,-0.9582676,-0.9992233,0.026724646,-0.0289568,0.017394964,0.95854723,0.28440225,0.12210083,9.423569,2.609665,0.1672821,9.434937,2.6684723,0.0032043457,0.0053253174,-0.004272461,-32.17621,-22.90039,-7.0343018,0
1.03604126,0.029340992,0.2714608,-0.9620021,-0.9994227,0.02445132,-0.02358257,0.017120479,0.96213883,0.27202156,0.034893725,0.28343123,-0.95835745,-0.99923986,0.026571015,-0.028523952,0.017379953,0.95862436,0.28414294,0.16040039,9.390045,2.5330505,0.16789246,9.435242,2.6675873,0.0032043457,-0.021316528,-0.008529663,-32.714844,-22.003174,-7.206726,0
1.040283203,0.02942154,0.27135047,-0.9620308,-0.9994199,0.024498973,-0.02365482,0.01715002,0.96216875,0.2719139,0.034679286,0.28314915,-0.9584487,-0.99924624,0.026561495,-0.028308537,0.017442292,0.958708,0.2838569,0.07899475,9.375687,2.5857239,0.16818237,9.435547,2.6665344,0.010665894,-0.028762817,0.008514404,-32.714844,-22.003174,-7.206726,0
1.044525146,0.029469226,0.27128518,-0.9620479,-0.999416,0.024657153,-0.023660876,0.017302513,0.9621831,0.2718533,0.034473624,0.28283054,-0.9585503,-0.9992525,0.026544124,-0.028105326,0.01749483,0.9588025,0.2835342,0.15083313,9.461884,2.609665,0.16967773,9.435684,2.6659393,0.020248413,-0.026641846,0.0063934326,-32.714844,-22.003174,-7.206726,0
1.04876709,0.029814394,0.27125695,-0.96204513,-0.9994025,0.02492714,-0.0239437,0.017486138,0.96218413,0.27183804,0.03419379,0.2825635,-0.958639,-0.99925953,0.026596507,-0.027803246,0.017640265,0.9588798,0.2832637,0.15083313,9.4427185,2.7724762,0.17147827,9.435684,2.6657867,0.008529663,-0.052200317,0.022354126,-32.356262,-22.003174,-7.206726,0
1.053009033,0.02988805,0.27115712,-0.962071,-0.9993974,0.025106343,-0.02397149,0.017654043,0.9622076,0.27174407,0.03394845,0.28228134,-0.95873076,-0.9992647,0.026691828,-0.027524807,0.017820535,0.95896024,0.2829799,0.18434143,9.361328,2.6383972,0.17312622,9.435989,2.6648865,0.012786865,-0.047943115,0.03086853,-32.356262,-22.003174,-7.206726,0
1.057250977,0.029902818,0.27113706,-0.9620762,-0.99939364,0.02528515,-0.023936715,0.017836109,0.9622085,0.27172875,0.03373317,0.28197187,-0.9588295,-0.99926937,0.026762174,-0.02728571,0.017966557,0.95904934,0.28266862,0.33277893,9.313431,2.5809479,0.1749115,9.435989,2.664734,0.021316528,-0.041549683,0.025543213,-32.356262,-22.003174,-7.206726,0
1.06149292,0.0037001253,0.27166423,-0.96238494,-0.99983126,0.01831889,0.0013270008,0.017990323,0.96221775,0.27168623,0.033478998,0.28176153,-0.9589002,-0.9992756,0.026802437,-0.027013086,0.018089615,0.95911,0.2824548,0.25616455,9.413986,2.810791,0.17642212,9.435989,2.6642914,-0.0021209717,-0.050064087,0.017028809,-31.817627,-23.258972,-6.6879272,0
1.065734863,0.0037006454,0.27166364,-0.96238524,-0.99982804,0.018494176,0.0013759418,0.018172313,0.9622145,0.27168533,0.032704007,0.28146562,-0.9590139,-0.99929947,0.026678644,-0.02624777,0.018197343,0.9592004,0.28214094,0.3471527,9.380478,2.767685,0.1782074,9.435989,2.6642914,0.0234375,-0.047943115,0.012771606,-31.817627,-23.258972,-6.6879272,0
1.069976807,0.0037638934,0.27158353,-0.9624075,-0.9998269,0.018556215,0.0013261747,0.018218808,0.9622359,0.27160633,0.03201906,0.28121933,-0.9591091,-0.9993196,0.026582647,-0.025567174,0.018305676,0.95927525,0.28187916,0.2753296,9.337372,2.5905151,0.17866516,9.436295,2.6635437,0.012786865,-0.031967163,0.018096924,-31.817627,-23.258972,-6.6879272,0
1.07421875,0.00810566,0.2715182,-0.9623992,-0.9997995,0.019822475,-0.0028282152,0.01830922,0.96222913,0.2716244,0.031361077,0.28097507,-0.9592025,-0.99934036,0.026398132,-0.024940692,0.018313441,0.95935196,0.2816176,0.33277893,9.418777,2.7150116,0.17955017,9.436142,2.6636963,0.0138549805,-0.022369385,-0.004272461,-31.6391,-20.92743,-6.1706543,0
1.078460693,0.008116038,0.27150363,-0.9624032,-0.9997996,0.019811852,-0.0028422824,0.0182953,0.9622334,0.27161002,0.030794699,0.28078753,-0.95927584,-0.9993573,0.02627168,-0.024391465,0.018352967,0.9594103,0.28141606,0.12210083,9.457092,2.6383972,0.17941284,9.436142,2.6635437,0.0,-0.02557373,0.0021209717,-31.6391,-20.92743,-6.1706543,0
1.082702637,0.008085794,0.27154595,-0.9623915,-0.99979967,0.019817017,-0.0028085695,0.018309074,0.96222144,0.27165177,0.03031781,0.28056183,-0.959357,-0.9993719,0.026128873,-0.023941033,0.018349977,0.9594802,0.28117776,0.22265625,9.4379425,2.7628937,0.17955017,9.436142,2.6639862,0.010665894,-0.0053253174,-0.0021362305,-31.6391,-20.92743,-6.1706543,0
1.08694458,0.0081057465,0.271518,-0.9623991,-0.99979913,0.019837465,-0.0028240774,0.018324776,0.9622289,0.2716243,0.029886458,0.2803826,-0.95942295,-0.9993846,0.02601647,-0.02352821,0.018363897,0.9595357,0.2809876,0.22265625,9.413986,2.5809479,0.17970276,9.436142,2.6636963,0.0,0.0021209717,0.004257202,-31.6391,-20.92743,-6.1706543,0
1.091186523,0.008096251,0.2715313,-0.9623955,-0.99979955,0.01981989,-0.0028189109,0.018309152,0.9622255,0.27163735,0.02949958,0.28022933,-0.9594797,-0.9993969,0.025862865,-0.023173243,0.018321073,0.9595846,0.28082326,0.15083313,9.485825,2.7198029,0.17955017,9.436142,2.6638336,-0.0053253174,0.013824463,-0.0063934326,-31.6391,-20.92743,-6.1706543,0
1.095428467,0.008082673,0.2715503,-0.9623903,-0.99980026,0.019788004,-0.0028134328,0.018279795,0.96222085,0.27165598,0.02914963,0.28001055,-0.95955426,-0.9994074,0.025746295,-0.02284719,0.018307514,0.9596516,0.2805951,0.09815979,9.46666,2.743744,0.17926025,9.435989,2.6639862,0.01171875,0.01914978,0.0021209717,-31.6391,-20.92743,-6.1706543,0
1.100250244,0.0083895,0.2715256,-0.9623947,-0.9997975,0.01988606,-0.0031049913,0.018295152,0.9622258,0.27163744,0.028767899,0.27978268,-0.9596323,-0.999419,0.02560894,-0.022494294,0.018281652,0.95972174,0.28035682,0.17477417,9.572006,2.6623383,0.17941284,9.436142,2.6638336,0.014923096,0.010650635,-0.0032043457,-32.89337,-21.466064,-6.3430786,0
1.105072021,0.008398699,0.27151254,-0.96239823,-0.99979764,0.019873613,-0.003118318,0.018279668,0.9622297,0.27162454,0.028767899,0.27978268,-0.9596323,-0.999419,0.02560894,-0.022494294,0.018281652,0.95972174,0.28035682,0.17477417,9.572006,2.6623383,0.17926025,9.436142,2.6636963,0.014923096,0.010650635,-0.0032043457,-32.89337,-21.466064,-6.3430786,0
1.109924316,0.008454708,0.27143323,-0.9624202,-0.9997975,0.019873459,-0.0031781122,0.018263971,0.9622521,0.27154627,0.028064586,0.27931204,-0.9597901,-0.9994396,0.025363449,-0.021842837,0.01824262,0.95986533,0.27986735,0.12210083,9.471451,2.4756012,0.17910767,9.436432,2.6629486,0.01171875,0.017028809,0.0021209717,-32.89337,-21.466064,-6.3430786,0
1.114746094,0.022031171,0.27105013,-0.96231306,-0.99959123,0.023512948,-0.016261837,0.018219044,0.962278,0.27145737,0.027721893,0.2791646,-0.959843,-0.9994491,0.025271311,-0.021515772,0.01825005,0.95991063,0.2797114,0.05027771,9.5767975,2.4612274,0.17866516,9.436584,2.6620483,-0.0021209717,0.0095825195,0.004257202,-31.817627,-23.617554,-7.3806763,0
1.119598389,0.022057826,0.27101701,-0.9623219,-0.99959093,0.023504537,-0.016292548,0.01820337,0.9622875,0.27142456,0.027648408,0.27896363,-0.9599036,-0.9994512,0.025239773,-0.021452427,0.018243302,0.95996994,0.27950838,0.15560913,9.538498,2.6144562,0.17851257,9.436737,2.6617432,0.008529663,0.008514404,0.0010681152,-31.817627,-23.617554,-7.3806763,0
1.124420166,0.022057554,0.27101734,-0.9623217,-0.9995912,0.023489494,-0.016296502,0.018187815,0.9622878,0.27142465,0.02760598,0.27871743,-0.9599763,-0.9994527,0.025207618,-0.021422476,0.018227898,0.9600423,0.27926075,0.14604187,9.4427185,2.6623383,0.17835999,9.436737,2.6617432,0.019180298,0.014892578,0.0010681152,-31.817627,-23.617554,-7.3806763,0
1.129272461,0.005647259,0.27139914,-0.9624502,-0.99981827,0.019052943,-4.938231E-4,0.01820349,0.9622783,0.27145746,0.027567841,0.27851498,-0.9600361,-0.999454,0.0251716,-0.021397233,0.018206196,0.96010196,0.27905688,0.19871521,9.519333,2.7533264,0.17851257,9.436584,2.6620483,0.010665894,0.015960693,0.0,-32.17621,-21.824646,-6.3430786,0
1.134094238,0.0057056877,0.27131942,-0.96247244,-0.99981856,0.019038657,-5.601151E-4,0.018172212,0.962301,0.27137887,0.027164128,0.27834052,-0.96009827,-0.99946564,0.025030393,-0.021021433,0.01818052,0.96015626,0.27887172,0.27053833,9.562439,2.7150116,0.1782074,9.43689,2.6613007,0.007461548,0.008514404,-0.0032043457,-32.17621,-21.824646,-6.3430786,0
1.138946533,0.0057611535,0.27124378,-0.9624934,-0.99981856,0.019038789,-6.191782E-4,0.018156761,0.96232235,0.27130425,0.026698004,0.2781114,-0.9601778,-0.99947953,0.02482491,-0.020600379,0.018107127,0.96022797,0.27862942,0.16519165,9.4379425,2.4612274,0.17805481,9.437042,2.660553,0.020248413,-0.0032043457,-0.017044067,-32.17621,-21.824646,-6.3430786,0
1.143768311,0.030440716,0.27069065,-0.9621849,-0.99937123,0.025743822,-0.024374695,0.018172316,0.96232206,0.27130416,0.026301354,0.2779575,-0.9602332,-0.9994913,0.024645457,-0.020242564,0.018038813,0.96027714,0.2784643,0.20350647,9.356537,2.6336212,0.1782074,9.437042,2.660553,0.004272461,0.008514404,-0.012786865,-31.459045,-21.466064,-7.0343018,0
1.148590088,0.030406158,0.27073738,-0.96217287,-0.99937487,0.025603604,-0.024377426,0.018035214,0.9623127,0.27134666,0.026386037,0.27778506,-0.9602808,-0.99948984,0.024623392,-0.020340465,0.017995093,0.9603276,0.27829307,0.15560913,9.476242,2.5570068,0.17686462,9.437042,2.6609955,0.0063934326,0.003189087,-0.009597778,-31.459045,-21.466064,-7.0343018,0
1.152496338,0.030368792,0.27078786,-0.96215993,-0.9993775,0.025521386,-0.02436082,0.01795904,0.9623008,0.27139434,0.026452772,0.27773532,-0.9602934,-0.99949056,0.024509102,-0.020444006,0.017857904,0.9603449,0.27824217,0.18913269,9.40921,2.6192474,0.17611694,9.43689,2.6614532,-0.01914978,0.0053253174,-0.028762817,-31.459045,-21.466064,-7.0343018,0
1.156402588,0.008666943,0.27139977,-0.9624277,-0.99980366,0.019505696,-0.0035030167,0.017822104,0.96226907,0.27151555,0.026530288,0.27765343,-0.96031487,-0.9994898,0.02445748,-0.020541243,0.01778354,0.96036994,0.27816063,0.12210083,9.514557,2.6240387,0.17477417,9.436584,2.6626434,-0.014892578,0.0053253174,-0.019180298,-32.17621,-21.466064,-6.3430786,0
1.160308838,0.008632627,0.27144733,-0.9624145,-0.999806,0.019378323,-0.0035023978,0.017699266,0.96225816,0.27156198,0.026177276,0.27764603,-0.9603268,-0.99950093,0.02426038,-0.020231046,0.01768082,0.9603771,0.2781425,0.12689209,9.514557,2.4995422,0.17356873,9.436432,2.663086,-0.03086853,0.008514404,-0.02557373,-32.17621,-21.466064,-6.3430786,0
1.164215088,0.008509351,0.2716182,-0.9623675,-0.9998093,0.019228645,-0.0034133312,0.017577898,0.962213,0.27173,0.025911842,0.277619,-0.96034175,-0.9995094,0.024101226,-0.020001397,0.017592646,0.9603889,0.2781073,0.14604187,9.490601,2.8490906,0.17237854,9.435989,2.664734,-0.025543213,0.027679443,-0.015975952,-32.17621,-21.466064,-6.3430786,0
1.168121338,-0.030574102,0.27226833,-0.96173555,-0.99937874,0.008549227,0.034191094,0.017531248,0.96218336,0.2718378,0.025606614,0.27758947,-0.96035844,-0.99951893,0.023924334,-0.019735493,0.017497571,0.96040183,0.27806857,0.23222351,9.600739,2.6862793,0.17192078,9.435684,2.6657867,-0.024475098,0.018096924,-0.021316528,-32.53479,-23.617554,-5.6518555,0
1.172027588,-0.030677162,0.27240056,-0.96169484,-0.9993776,0.008414486,0.034262612,0.017425321,0.96214724,0.27197286,0.024514105,0.27759904,-0.9603842,-0.9995473,0.023567712,-0.018701516,0.017442536,0.9604079,0.2780511,0.16040039,9.46666,2.7198029,0.17088318,9.435394,2.6671295,-0.028747559,0.01171875,-0.01171875,-32.53479,-23.617554,-5.6518555,0
1.175933838,-0.030748088,0.27249154,-0.9616667,-0.9993768,0.008303652,0.03430669,0.01733363,0.9621223,0.27206644,0.02347618,0.27759957,-0.96041,-0.9995736,0.023199057,-0.017727979,0.017359328,0.96041673,0.27802584,0.10293579,9.4379425,2.609665,0.16998291,9.435089,2.6680298,-0.025543213,0.022354126,-0.015975952,-32.53479,-23.617554,-5.6518555,0
1.179840088,0.047597203,0.27093437,-0.96142036,-0.9987177,0.029522834,-0.041123968,0.017241955,0.9621449,0.27199218,0.022472188,0.2776009,-0.9604336,-0.9995978,0.022860201,-0.0167811,0.017297257,0.9604245,0.27800298,0.13645935,9.495392,2.3558807,0.16908264,9.435242,2.667282,-0.025543213,0.024475098,-0.009597778,-31.817627,-21.824646,-7.725525,0
1.183746338,0.047621693,0.27090153,-0.96142846,-0.998717,0.02951301,-0.041152805,0.017226288,0.96215457,0.2719594,0.023041662,0.27750987,-0.96044636,-0.99958616,0.022939969,-0.01735241,0.017217146,0.96044886,0.27792364,0.13166809,9.404419,2.5617828,0.16893005,9.435394,2.666977,-0.010635376,0.022354126,-0.014923096,-31.817627,-21.824646,-7.725525,0
1.187652588,0.047679234,0.2708243,-0.9614473,-0.9987152,0.029466808,-0.041227065,0.01716549,0.9621777,0.2718813,0.023556214,0.2773992,-0.96046585,-0.99957484,0.023047222,-0.017858949,0.017182011,0.96047825,0.27782416,0.27053833,9.390045,2.6192474,0.16833496,9.435684,2.6662292,-0.0053253174,0.008514404,-0.007461548,-31.817627,-21.824646,-7.725525,0
1.191558838,0.020333614,0.27150184,-0.96222305,-0.99964595,0.022044938,-0.0149042085,0.01716563,0.9621855,0.27185395,0.024058904,0.27721182,-0.9605076,-0.99956423,0.023107855,-0.018368047,0.01710343,0.96053094,0.27764696,0.16040039,9.385269,2.5905151,0.16833496,9.435684,2.6659393,0.015991211,0.010650635,-0.018112183,-30.921936,-22.003174,-6.8618774,0
1.195465088,0.020311913,0.27152997,-0.9622156,-0.9996466,0.022024367,-0.014886955,0.017149935,0.962178,0.2718814,0.023960676,0.27708572,-0.96054643,-0.99956644,0.0230861,-0.018274456,0.017111683,0.96056783,0.27751875,0.25616455,9.346954,2.5378418,0.16818237,9.435684,2.6662292,0.0032043457,-0.0063934326,0.0,-30.921936,-22.003174,-6.8618774,0
1.199584961,0.020333854,0.27150154,-0.96222323,-0.9996457,0.022059971,-0.014900216,0.017181184,0.9621852,0.2718539,0.023960676,0.27708572,-0.96054643,-0.99956644,0.0230861,-0.018274456,0.017111683,0.96056783,0.27751875,0.25616455,9.346954,2.5378418,0.16848755,9.435684,2.6659393,0.0032043457,-0.0063934326,0.0,-30.921936,-22.003174,-6.8618774,0
1.204315186,0.03721226,0.27113518,-0.96182173,-0.9991595,0.026658202,-0.031141954,0.01719676,0.9621721,0.27189925,0.023862459,0.27680677,-0.9606293,-0.99956834,0.023078645,-0.01817958,0.017137792,0.9606484,0.277238,0.21786499,9.485825,2.8299408,0.16864014,9.435547,2.6663818,0.015991211,0.0053253174,0.012771606,-33.79059,-20.92743,-7.206726,0
1.209014893,0.03716135,0.27121067,-0.96180236,-0.9991612,0.02666017,-0.031087108,0.01721066,0.9621508,0.27197388,0.024180867,0.27662244,-0.96067435,-0.99956065,0.023165185,-0.018489342,0.017139632,0.96069944,0.27706107,0.19392395,9.361328,2.8682404,0.16877747,9.435394,2.6671295,0.015991211,0.010650635,0.003189087,-33.79059,-20.92743,-7.206726,0
1.213745117,0.037225742,0.27111512,-0.9618268,-0.99915814,0.026704509,-0.031143242,0.01724171,0.96217644,0.27188095,0.02441752,0.2765105,-0.9607007,-0.99955505,0.023221701,-0.01872135,0.017132452,0.9607303,0.27695447,0.23701477,9.28949,2.7150116,0.16908264,9.435684,2.6662292,0.0010681152,-0.004272461,-0.0032043457,-33.79059,-20.92743,-7.206726,0
1.218444824,-0.022186166,0.2721617,-0.9619957,-0.99960566,0.010525886,0.026031468,0.017210625,0.96219397,0.27182084,0.024614315,0.27626604,-0.960766,-0.99955004,0.023280274,-0.018913753,0.017141666,0.9607992,0.27671477,0.16998291,9.433151,2.8059998,0.16877747,9.435837,2.6656342,0.030899048,-0.012786865,-0.0021362305,-31.459045,-22.54181,-5.6518555,0
1.223175049,-0.022035317,0.27196595,-0.9620546,-0.99960834,0.010617252,0.025896886,0.017257445,0.9622484,0.2716254,0.023643974,0.27607214,-0.96084607,-0.99957395,0.022979582,-0.01799443,0.01711208,0.96086216,0.27649784,0.19392395,9.433151,2.5378418,0.16923523,9.436295,2.6636963,0.026641846,-0.0053253174,-0.008529663,-31.459045,-22.54181,-5.6518555,0
1.227874756,-0.0220348,0.2719652,-0.96205467,-0.9996087,0.01058746,0.025887925,0.017226333,0.96224886,0.27162555,0.022725884,0.27582908,-0.96093804,-0.99959457,0.02275998,-0.017107043,0.017152308,0.9609372,0.2762345,0.07899475,9.433151,2.6719208,0.16893005,9.436295,2.6636963,0.03729248,-0.0032043457,0.007446289,-31.459045,-22.54181,-5.6518555,0
1.23260498,-0.0082614105,0.27172762,-0.96233875,-0.99981886,0.014260554,0.012609801,0.017149914,0.9622686,0.27156052,0.021840952,0.275662,-0.9610065,-0.999614,0.02253102,-0.016255427,0.017171452,0.96099055,0.2760477,0.07421875,9.394836,2.5905151,0.16818237,9.436584,2.663086,0.021316528,0.0010681152,0.004257202,-31.100464,-22.183228,-5.996704,0
1.237304687,-0.008239935,0.27169967,-0.9623468,-0.9998194,0.014238438,0.012580731,0.017120495,0.96227676,0.27153328,0.021840952,0.275662,-0.9610065,-0.999614,0.02253102,-0.016255427,0.017171452,0.96099055,0.2760477,0.07421875,9.394836,2.5905151,0.16789246,9.436584,2.662796,0.021316528,0.0010681152,0.004257202,-31.100464,-22.183228,-5.996704,0
1.242034912,-0.00820277,0.2716513,-0.9623608,-0.9998209,0.01418924,0.012527345,0.017058237,0.9622912,0.27148628,0.020698715,0.27533233,-0.96112627,-0.999639,0.022171512,-0.015176687,0.01713099,0.9610934,0.27569187,0.09815979,9.375687,2.7389526,0.1672821,9.436737,2.6623383,0.020248413,-0.0021362305,0.0053253174,-31.100464,-22.183228,-5.996704,0
1.246734619,0.018953431,0.27110547,-0.962363,-0.9996748,0.021560693,-0.0136144515,0.01705826,0.9623081,0.271426,0.020187605,0.27517134,-0.96118325,-0.99965006,0.02199351,-0.0146991275,0.017095014,0.9611436,0.27551904,0.19871521,9.471451,2.4899597,0.1672821,9.43689,2.6617432,0.020248413,0.015960693,-0.0032043457,-32.53479,-21.466064,-6.6879272,0
1.251464844,0.019029805,0.27099866,-0.9623917,-0.9996739,0.021551462,-0.013698354,0.01702871,0.9623384,0.27132037,0.020174976,0.27500042,-0.96123236,-0.9996508,0.0219588,-0.014699113,0.01706525,0.9611933,0.2753474,0.19392395,9.380478,2.5474243,0.16699219,9.43718,2.6607056,0.020248413,0.004257202,-0.0053253174,-32.53479,-21.466064,-6.6879272,0
1.256164551,0.019020177,0.2710121,-0.96238804,-0.99967444,0.021534007,-0.01369303,0.017013092,0.9623351,0.27133346,0.020244751,0.27484968,-0.9612741,-0.9996503,0.021924935,-0.014784139,0.017012455,0.9612372,0.27519742,0.13166809,9.366104,2.676712,0.1668396,9.43718,2.660843,0.015991211,0.022354126,-0.0053253174,-32.53479,-21.466064,-6.6879272,0
1.260894775,0.036729228,0.2705756,-0.9619978,-0.99918073,0.026317049,-0.030746832,0.0169976,0.962339,0.27132055,0.0202724,0.27469712,-0.96131706,-0.99964994,0.021915931,-0.01481827,0.016997622,0.961281,0.27504528,0.13166809,9.543274,2.6479797,0.16668701,9.43718,2.6607056,0.017044067,0.01171875,0.0,-32.53479,-21.824646,-7.3806763,0
1.265594482,0.036730044,0.2705745,-0.9619981,-0.9991801,0.026347194,-0.030739196,0.01702871,0.9623384,0.27132037,0.020558909,0.27459106,-0.9613413,-0.9996433,0.022039307,-0.015082866,0.017045677,0.9613085,0.27494624,0.23701477,9.528915,2.7054443,0.16699219,9.43718,2.6607056,0.0053253174,-0.01171875,0.007446289,-32.53479,-21.824646,-7.3806763,0
1.270324707,0.036729228,0.2705756,-0.9619978,-0.99918073,0.026317049,-0.030746832,0.0169976,0.962339,0.27132055,0.020904772,0.2745573,-0.9613434,-0.99963504,0.022191392,-0.015399639,0.01710547,0.9613146,0.27492103,0.10293579,9.548065,2.6910706,0.16668701,9.43718,2.6607056,-0.010635376,0.0010681152,0.013824463,-32.53479,-21.824646,-7.3806763,0
1.275054932,-0.025065739,0.27165318,-0.96206874,-0.99954027,0.009611098,0.028755847,0.017058155,0.96234727,0.27128738,0.021180656,0.2745291,-0.9613455,-0.9996281,0.022334978,-0.01564597,0.017176356,0.9613194,0.27490008,0.3040619,9.615112,2.6240387,0.1672821,9.437332,2.6604004,-0.011703491,-0.012786865,0.012771606,-32.89337,-21.824646,-5.305481,0
1.279754639,-0.025068134,0.27165654,-0.9620677,-0.99953777,0.0097436365,0.028795756,0.017196594,0.9623449,0.2712867,0.020163897,0.27446362,-0.96138614,-0.9996492,0.02205282,-0.014670614,0.017174724,0.9613446,0.274812,0.24180603,9.514557,2.6383972,0.16864014,9.437332,2.6604004,0.0032043457,-0.019180298,-0.0053253174,-32.89337,-21.824646,-5.305481,0
1.284484863,-0.025059123,0.27164388,-0.96207154,-0.99953663,0.009819917,0.028807662,0.017272888,0.9623477,0.27127194,0.019101597,0.27442104,-0.9614199,-0.9996681,0.021867929,-0.013619684,0.017286733,0.96136093,0.27474767,0.16040039,9.548065,2.6862793,0.16938782,9.437332,2.6602478,-0.0021209717,-0.039413452,0.013824463,-32.89337,-21.824646,-5.305481,0
1.28918457,0.0021566283,0.2712154,-0.9625162,-0.9998469,0.0172972,0.00263369,0.017363135,0.96236324,0.27121127,0.018020865,0.2743559,-0.9614594,-0.9996865,0.02166352,-0.012555607,0.017383892,0.9613842,0.27466026,0.22744751,9.481033,2.6431885,0.17027283,9.437485,2.6596527,0.0032043457,-0.046875,0.008514404,-31.99768,-21.644592,-6.1706543,0
1.293579102,0.002201325,0.27115428,-0.9625334,-0.99984586,0.0173694,0.0026064573,0.01742538,0.9623792,0.27115068,0.017551351,0.2742556,-0.96149665,-0.9996938,0.021589478,-0.0120904595,0.017442334,0.96141446,0.27455056,0.21307373,9.418777,2.6383972,0.17088318,9.437637,2.6590576,0.008529663,-0.03515625,0.003189087,-31.99768,-21.644592,-6.1706543,0
1.297943115,0.0022011807,0.27115443,-0.9625333,-0.9998473,0.017281024,0.00258171,0.017333604,0.9623807,0.2711511,0.017143939,0.27413335,-0.96153885,-0.9997001,0.021516953,-0.011689894,0.017484797,0.96145093,0.27442002,0.18434143,9.581589,2.604889,0.16998291,9.437637,2.6590576,0.014923096,-0.02557373,0.003189087,-31.99768,-21.644592,-6.1706543,0
1.302307129,0.0022362291,0.27110648,-0.9625468,-0.99984676,0.017319065,0.0025551217,0.017363118,0.9623935,0.27110365,0.016723678,0.27411643,-0.961551,-0.99970883,0.021315506,-0.011310756,0.017395483,0.96146023,0.2743931,0.25616455,9.500183,2.5474243,0.17027283,9.43779,2.6585999,-0.009567261,-0.021316528,-0.026641846,-31.99768,-21.644592,-6.1706543,0
1.306671143,0.002191489,0.2711677,-0.96252954,-0.99984825,0.017219905,0.0025748045,0.017272873,0.96237797,0.27116433,0.016342796,0.27405357,-0.96157557,-0.99971586,0.021171464,-0.010957062,0.01735514,0.9614814,0.27432168,0.13166809,9.40921,2.6862793,0.16938782,9.437637,2.659195,0.0010681152,-0.018112183,-0.014923096,-31.99768,-21.644592,-6.1706543,0
1.311065674,0.0022010612,0.2711546,-0.96253324,-0.9998485,0.017207626,0.0025611576,0.017257383,0.9623819,0.27115145,0.015940126,0.27404132,-0.96158576,-0.9997236,0.020988267,-0.010590903,0.017279673,0.96148884,0.27430013,0.28012085,9.533707,2.7293854,0.16923523,9.437637,2.6590576,-0.010635376,-0.022369385,-0.024505615,-31.99768,-21.644592,-6.1706543,0
1.315429687,0.0035450477,0.2711443,-0.96253216,-0.99984527,0.01754207,0.0012591092,0.017226208,0.9623788,0.27116457,0.015572794,0.27395415,-0.9616167,-0.9997307,0.0208185,-0.010259066,0.017208902,0.9615174,0.27420455,0.09815979,9.4427185,2.7054443,0.16893005,9.437637,2.659195,0.007461548,-0.015975952,-0.021316528,-31.280518,-22.720337,-6.515503,0
1.319793701,0.0035450058,0.2711444,-0.96253216,-0.99984556,0.017527087,0.0012549327,0.017210653,0.96237904,0.27116463,0.015270915,0.2739299,-0.96162844,-0.9997365,0.020671396,-0.009987611,0.017142294,0.96152747,0.27417338,0.11730957,9.40921,2.6575623,0.16877747,9.437637,2.659195,-0.0074310303,-0.009597778,-0.019180298,-31.280518,-22.720337,-6.515503,0
1.324188232,0.0035665887,0.2711169,-0.96253985,-0.9998468,0.017459743,0.001213029,0.01713457,0.96238804,0.2711376,0.0149836205,0.27384102,-0.96165824,-0.999742,0.02052625,-0.009731963,0.017074227,0.9615559,0.27407792,0.13166809,9.514557,2.834732,0.16802979,9.437637,2.658905,0.008529663,-0.007461548,-0.019180298,-31.280518,-22.720337,-6.515503,0
1.328552246,0.031008773,0.27056286,-0.9622028,-0.99937224,0.024895294,-0.025206292,0.017134434,0.96238035,0.271165,0.014685679,0.2737029,-0.96170217,-0.99974734,0.020389084,-0.009463865,0.01701794,0.96159816,0.27393317,0.17477417,9.60553,2.7581177,0.16802979,9.437637,2.659195,0.020248413,-0.01171875,-0.017044067,-31.6391,-22.003174,-7.206726,0
1.33291626,0.030983182,0.27059683,-0.9621941,-0.9993733,0.024875864,-0.02518456,0.017120546,0.96237135,0.27119797,0.014993101,0.27360722,-0.96172464,-0.9997442,0.020394059,-0.009783775,0.016936557,0.9616253,0.273843,0.14604187,9.519333,2.8012085,0.16789246,9.437485,2.6595001,0.008529663,0.0010681152,-0.020248413,-31.6391,-22.003174,-7.206726,0
1.337310791,0.030960318,0.27062714,-0.9621863,-0.9993746,0.024840353,-0.025170263,0.01708929,0.9623638,0.27122694,0.015334602,0.27352223,-0.9617435,-0.9997396,0.020452743,-0.010123625,0.016901257,0.9616482,0.27376464,0.06463623,9.452301,2.7485352,0.16758728,9.437485,2.6598053,0.0063934326,0.007446289,-0.007461548,-31.6391,-22.003174,-7.206726,0
1.341674805,0.019737804,0.27079666,-0.9624342,-0.99965984,0.021755408,-0.014379995,0.017044093,0.96239066,0.27113396,0.015621591,0.27337152,-0.9617817,-0.9997354,0.020512458,-0.010407701,0.016883336,0.9616898,0.27361965,0.15560913,9.390045,2.7389526,0.16714478,9.43779,2.658905,0.022369385,-0.004272461,-0.0063934326,-32.714844,-22.003174,-6.8618774,0
1.346038818,0.019904643,0.27056763,-0.96249527,-0.9996588,0.021678945,-0.014579014,0.016921269,0.9624569,0.2709068,0.015754066,0.27318567,-0.96183234,-0.9997339,0.020513512,-0.010548484,0.016848864,0.9617426,0.27343616,0.10772705,9.567215,2.78685,0.16593933,9.438385,2.656662,0.03303528,0.013824463,-0.0053253174,-32.714844,-22.003174,-6.8618774,0
1.35043335,0.020027502,0.27039894,-0.96254003,-0.9996575,0.021636304,-0.014721682,0.016845081,0.96250516,0.27073964,0.015915133,0.2728841,-0.9619153,-0.9997331,0.020459885,-0.010736603,0.016750827,0.9618293,0.27313685,0.17477417,9.361328,2.676712,0.16519165,9.4388275,2.655014,0.059661865,0.023422241,-0.017044067,-32.714844,-22.003174,-6.8618774,0
1.354797363,0.014564843,0.27028278,-0.96267086,-0.9997539,0.020052671,-0.009495838,0.016737558,0.96257216,0.2705083,0.016032152,0.27264437,-0.9619813,-0.9997324,0.02041825,-0.010874372,0.016677137,0.9618982,0.27289873,0.12210083,9.394836,2.7341766,0.1641388,9.439575,2.652771,0.046875,0.012771606,-0.014923096,-30.3833,-22.183228,-6.6879272,0
1.359161377,0.014722496,0.27008304,-0.96272457,-0.9997519,0.020079987,-0.009655493,0.016723707,0.9626277,0.27031162,0.016017865,0.2723419,-0.9620672,-0.9997339,0.020335786,-0.010888342,0.016599042,0.96198565,0.27259517,0.20350647,9.471451,2.7485352,0.16400146,9.440033,2.6508179,0.06285095,0.008514404,-0.017044067,-30.3833,-22.183228,-6.6879272,0
1.363555908,0.014904139,0.26985285,-0.9627862,-0.9997506,0.020038418,-0.009859923,0.016631985,0.9626931,0.27008423,0.016074345,0.27207267,-0.96214247,-0.9997335,0.02031875,-0.010956679,0.01656852,0.9620622,0.2723268,0.04069519,9.342163,2.8299408,0.1631012,9.440628,2.6485748,0.053268433,0.020217896,-0.0021362305,-30.3833,-22.183228,-6.6879272,0
1.367919922,0.021430084,0.2695048,-0.9627605,-0.99963343,0.021707606,-0.016174246,0.016540192,0.9627543,0.2698712,0.016051725,0.27173778,-0.9622375,-0.99973464,0.020264685,-0.010954455,0.0165227,0.96215796,0.27199095,0.11730957,9.46666,2.652771,0.16220093,9.441223,2.6464844,0.071380615,0.003189087,-0.010650635,-32.53479,-22.54181,-7.0343018,0
1.372283936,0.021593021,0.2692874,-0.9628177,-0.99963003,0.02174787,-0.016336016,0.016540153,0.96281433,0.2696574,0.01621287,0.2714854,-0.96230596,-0.99973327,0.020232683,-0.011135396,0.016446933,0.96222985,0.27174103,0.16998291,9.385269,2.7198029,0.16220093,9.4418335,2.644394,0.051132202,0.017028809,-0.0138549805,-32.53479,-22.54181,-7.0343018,0
1.376678467,0.021709722,0.2691318,-0.96285874,-0.9996276,0.021776656,-0.01645189,0.016540114,0.9628571,0.26950428,0.016452607,0.2711949,-0.96238387,-0.9997293,0.020302191,-0.011369996,0.016455015,0.9623103,0.27145553,0.28012085,9.404419,2.676712,0.16220093,9.442276,2.6428986,0.05859375,0.028747559,0.0095825195,-32.53479,-22.54181,-7.0343018,0
1.38104248,-0.0012900077,0.26945388,-0.96301246,-0.9998617,0.01562424,0.00571108,0.016585208,0.9628866,0.26939642,0.01665277,0.27098,-0.96244085,-0.9997266,0.020311734,-0.011579037,0.016411155,0.96237063,0.27124417,0.20350647,9.351746,2.6719208,0.16264343,9.442581,2.6418457,0.042617798,0.024475098,-0.004272461,-31.6391,-23.4375,-6.515503,0
1.385406494,-0.001191548,0.2693306,-0.9630471,-0.99986273,0.015593132,0.0055979523,0.016524618,0.9629215,0.26927504,0.016366713,0.27081963,-0.9624909,-0.999731,0.020253092,-0.011301272,0.01643281,0.962417,0.27107826,0.14125061,9.514557,2.5234833,0.16204834,9.442871,2.6406403,0.030899048,0.014892578,0.008514404,-31.6391,-23.4375,-6.515503,0
1.389801025,-0.0010907132,0.26920432,-0.9630825,-0.99986285,0.015620809,0.0054987534,0.016524415,0.96295637,0.26915035,0.016090821,0.2707216,-0.9625233,-0.9997363,0.020131497,-0.011050697,0.01638537,0.96244717,0.27097416,0.20828247,9.509766,2.62883,0.16204834,9.443329,2.63945,0.017044067,0.020217896,-0.0063934326,-31.6391,-23.4375,-6.515503,0
1.394165039,0.014498742,0.26885363,-0.9630719,-0.9997583,0.019815575,-0.009519277,0.016524531,0.9629772,0.269076,0.015788253,0.27057883,-0.9625684,-0.9997414,0.020030424,-0.0107674,0.016367221,0.9624894,0.27082512,0.16040039,9.423569,2.432495,0.16204834,9.443466,2.6387024,0.027709961,0.010650635,-0.0021362305,-32.89337,-22.183228,-6.6879272,0
1.398529053,0.014509416,0.26883903,-0.9630759,-0.9997582,0.01981837,-0.0095298365,0.0165246,0.96298116,0.26906157,0.015818637,0.27050418,-0.96258885,-0.99974155,0.020002363,-0.01080817,0.016330397,0.962511,0.27075067,0.16998291,9.366104,2.5713654,0.16204834,9.443466,2.6385498,0.009597778,0.014892578,-0.0053253174,-32.89337,-22.183228,-6.6879272,0
1.402923584,0.014532838,0.26880693,-0.96308446,-0.9997576,0.019839225,-0.009548897,0.01654004,0.96298975,0.26903003,0.0157925,0.27047575,-0.9625973,-0.9997424,0.019967096,-0.01079144,0.016301448,0.9625197,0.2707214,0.21307373,9.471451,2.5761566,0.16220093,9.443619,2.63826,-0.0010528564,0.0021209717,-0.007461548,-32.89337,-22.183228,-6.6879272,0
1.407287598,0.0264909,0.2685022,-0.96291476,-0.9995117,0.023082156,-0.021061424,0.01657111,0.9630025,0.2689826,0.015723884,0.27045634,-0.96260387,-0.9997437,0.01993678,-0.010729045,0.01628948,0.9625258,0.2707005,0.22744751,9.538498,2.542633,0.1625061,9.443771,2.6378021,-0.003189087,-0.008529663,-0.0063934326,-32.53479,-23.258972,-7.3806763,0
1.411651611,0.026477918,0.26851904,-0.9629104,-0.99951077,0.02315264,-0.021027956,0.016647512,0.96299607,0.2690007,0.015902612,0.27041325,-0.96261305,-0.9997405,0.02000909,-0.0108950995,0.016314832,0.9625364,0.27066126,0.09815979,9.476242,2.5474243,0.16325378,9.443619,2.6379547,0.0010681152,-0.009597778,0.0021209717,-32.53479,-23.258972,-7.3806763,0
1.416046143,0.026505016,0.26848397,-0.9629195,-0.9995091,0.023217514,-0.021038596,0.016708069,0.96300435,0.26896754,0.016016345,0.27042237,-0.96260846,-0.9997368,0.020145096,-0.010974802,0.01642401,0.962531,0.27067384,0.18434143,9.504974,2.5857239,0.16384888,9.443771,2.6376495,-0.011703491,-0.028762817,0.017028809,-32.53479,-23.258972,-7.3806763,0
1.420410156,0.029842103,0.26839113,-0.9628477,-0.99941444,0.024142008,-0.024245918,0.016737686,0.9630074,0.2689544,0.016117934,0.2703748,-0.9626202,-0.99973434,0.020220798,-0.011059873,0.016474638,0.9625428,0.27062893,0.18434143,9.509766,2.6575623,0.1641388,9.443771,2.6375122,0.0021362305,-0.026641846,0.003189087,-32.17621,-22.90039,-7.3806763,0
1.42477417,0.029881675,0.26833975,-0.9628608,-0.9994116,0.02425475,-0.024256442,0.016844979,0.96301895,0.2689066,0.016249664,0.2703184,-0.96263385,-0.9997317,0.020285958,-0.011179369,0.016505962,0.96255726,0.27057552,0.20828247,9.40921,2.518692,0.16519165,9.443924,2.6370544,0.004272461,-0.034088135,-0.0032043457,-32.17621,-22.90039,-7.3806763,0
1.429168701,0.029943088,0.26825997,-0.962881,-0.9994076,0.024386268,-0.024284922,0.016966404,0.9630379,0.26883128,0.016325407,0.27027023,-0.96264607,-0.999729,0.020392863,-0.011228841,0.016596286,0.9625685,0.27052987,0.13166809,9.476242,2.7054443,0.16638184,9.444077,2.6363068,0.0021362305,-0.050064087,0.0063934326,-32.17621,-22.90039,-7.3806763,0
1.433532715,0.037399445,0.26795894,-0.9627042,-0.9991543,0.026502043,-0.031438895,0.017089296,0.9630658,0.26872346,0.016402915,0.27013543,-0.9626826,-0.9997254,0.020546509,-0.011268586,0.016735723,0.9626031,0.2703983,0.17477417,9.552856,2.4756012,0.16758728,9.444366,2.635254,0.022369385,-0.051132202,0.017028809,-31.6391,-22.720337,-7.5531006,0
1.437896728,0.0374411,0.2679053,-0.9627174,-0.99914944,0.026688375,-0.031431135,0.017272796,0.9630755,0.2686767,0.016561426,0.27005762,-0.96270174,-0.9997206,0.020711206,-0.01138835,0.016863203,0.9626214,0.27032515,0.23701477,9.327805,2.700653,0.16938782,9.444519,2.6348114,0.008529663,-0.067108154,0.010650635,-31.6391,-22.720337,-7.5531006,0
1.44229126,0.037539434,0.2677788,-0.9627489,-0.9991443,0.026797693,-0.031505056,0.017363062,0.96310765,0.26855564,0.016756412,0.26993626,-0.9627324,-0.9997149,0.02090732,-0.011537984,0.017013634,0.9626512,0.2702096,0.18434143,9.476242,2.542633,0.17027283,9.444824,2.6336212,0.019180298,-0.059661865,0.018096924,-31.6391,-22.720337,-7.5531006,0
1.446655273,0.024667412,0.2679782,-0.96310914,-0.99954355,0.02341907,-0.019084394,0.017440917,0.9631403,0.26843357,0.016936567,0.26981342,-0.96276367,-0.99971014,0.021048209,-0.011687778,0.01711093,0.96268255,0.27009168,0.11251831,9.356537,2.5905151,0.17103577,9.445114,2.6324158,0.019180298,-0.057525635,0.0053253174,-31.817627,-21.107483,-6.6879272,0
1.451019287,0.024768196,0.26783785,-0.9631456,-0.999539,0.02356037,-0.019152265,0.017562365,0.96317595,0.2682979,0.016863775,0.2696678,-0.9628058,-0.99970967,0.021121716,-0.011594281,0.017209508,0.96272177,0.2699457,0.14125061,9.356537,2.6192474,0.17222595,9.445419,2.631073,0.026641846,-0.057525635,0.0063934326,-31.817627,-21.107483,-6.6879272,0
1.455413818,0.024814386,0.26777348,-0.96316224,-0.9995356,0.023688423,-0.019165756,0.017683715,0.9631907,0.268237,0.016863775,0.2696678,-0.9628058,-0.99970967,0.021121716,-0.011594281,0.017209508,0.96272177,0.2699457,0.14125061,9.356537,2.6192474,0.17341614,9.445572,2.630478,0.026641846,-0.057525635,0.0063934326,-31.817627,-21.107483,-6.6879272,0
1.459777832,0.031713303,0.26753896,-0.96302503,-0.9993387,0.025637994,-0.025786627,0.0177911,0.9632059,0.2681751,0.016782187,0.2694379,-0.9628715,-0.9997061,0.021371376,-0.011443891,0.01749447,0.9627806,0.26971737,0.25138855,9.457092,2.5474243,0.174469,9.445709,2.6298676,0.015991211,-0.052200317,0.015960693,-31.6391,-23.4375,-7.5531006,0
1.464141846,0.031762235,0.2674779,-0.9630404,-0.99933743,0.025634516,-0.025839541,0.017775567,0.9632229,0.2681148,0.016913056,0.26937425,-0.962887,-0.9997025,0.021479528,-0.011550665,0.017570907,0.962796,0.26965743,0.16519165,9.461884,2.700653,0.1743164,9.445862,2.6292725,0.0063934326,-0.042617798,0.0053253174,-31.6391,-23.4375,-7.5531006,0
1.468536377,0.031788718,0.2674448,-0.9630487,-0.999336,0.025670601,-0.025857616,0.017806554,0.9632312,0.26808324,0.017100219,0.26925266,-0.96291775,-0.99969953,0.021520223,-0.011735901,0.017562283,0.9628291,0.26953974,0.2609558,9.538498,2.566574,0.17462158,9.446014,2.6289825,0.020248413,-0.0234375,-0.009597778,-31.6391,-23.4375,-7.5531006,0
1.472900391,0.013132036,0.26790854,-0.9633549,-0.999755,0.020690028,-0.00787434,0.017822234,0.9632222,0.26811463,0.017338604,0.26916873,-0.96293694,-0.9996944,0.021639233,-0.011951663,0.017620204,0.9628499,0.26946166,0.20828247,9.404419,2.700653,0.17477417,9.445862,2.6292725,0.01171875,-0.015975952,0.008514404,-30.741882,-22.54181,-6.6879272,0
1.477264404,0.013132036,0.26790854,-0.9633549,-0.999755,0.020690028,-0.00787434,0.017822234,0.9632222,0.26811463,0.017227314,0.26917687,-0.9629367,-0.99969476,0.021697277,-0.011819735,0.017711505,0.96284634,0.26946846,0.18913269,9.356537,2.6431885,0.17477417,9.445862,2.6292725,-0.0084991455,-0.01171875,0.018096924,-30.741882,-22.54181,-6.6879272,0
1.481658936,0.01315764,0.26787618,-0.96336347,-0.999754,0.020724976,-0.007891804,0.01785166,0.9632304,0.268083,0.01718492,0.2691512,-0.96294457,-0.99969536,0.021690948,-0.011777967,0.017717123,0.9628536,0.26944196,0.25138855,9.5767975,2.5761566,0.17506409,9.446014,2.6289825,0.0,0.008514404,0.003189087,-30.741882,-22.54181,-6.6879272,0
1.486022949,0.019475445,0.2677569,-0.96328974,-0.999651,0.022417882,-0.01397929,0.017851861,0.96322566,0.26810002,0.017133467,0.2690905,-0.9629624,-0.9996958,0.021698227,-0.011723675,0.01773985,0.9628704,0.26938042,0.18434143,9.500183,2.6815033,0.17506409,9.445862,2.6291199,0.008529663,0.0053253174,0.0063934326,-30.741882,-21.824646,-6.6879272,0
1.490386963,0.019427666,0.26781914,-0.9632732,-0.9996512,0.022435913,-0.013923489,0.017882941,0.9632079,0.26816165,0.017213978,0.2690099,-0.9629836,-0.9996944,0.021721262,-0.011802368,0.017742265,0.9628925,0.2693016,0.24180603,9.413986,2.78685,0.17536926,9.445709,2.6297302,0.012786865,0.007446289,0.0021209717,-30.741882,-21.824646,-6.6879272,0
1.494781494,0.019442081,0.26780036,-0.9632783,-0.9996512,0.022439327,-0.013937862,0.01788275,0.96321315,0.2681432,0.01732944,0.2689901,-0.96298707,-0.9996923,0.02175823,-0.0119122565,0.017748615,0.9628971,0.26928437,0.16998291,9.433151,2.566574,0.17536926,9.445862,2.6295776,-0.0010528564,0.015960693,0.0053253174,-30.741882,-21.824646,-6.6879272,0
1.499145508,0.015646568,0.26797855,-0.9632978,-0.9997201,0.021291602,-0.010315082,0.017745934,0.9631896,0.2682367,0.017441154,0.26897493,-0.9629893,-0.9996907,0.021772012,-0.012024678,0.017731877,0.96290106,0.26927143,0.11251831,9.418777,2.5330505,0.17402649,9.445572,2.630478,-0.0021209717,0.017028809,0.0,-31.817627,-22.183228,-6.6879272,0
1.503509521,0.015599137,0.26804155,-0.96328115,-0.99972284,0.021176126,-0.010296821,0.017638583,0.96317464,0.26829752,0.017469704,0.269082,-0.9629588,-0.99969214,0.021670874,-0.012080558,0.0176175,0.96287346,0.26937777,0.10293579,9.528915,2.4851685,0.17297363,9.445419,2.631073,-0.029800415,0.02128601,-0.021316528,-31.817627,-22.183228,-6.6879272,0
1.507904053,0.015540335,0.26811957,-0.9632603,-0.99972606,0.021029206,-0.010275247,0.017501604,0.9631561,0.26837295,0.01750134,0.26917925,-0.96293104,-0.99969286,0.021612724,-0.012127824,0.017547004,0.96284753,0.26947483,0.05027771,9.481033,2.5330505,0.17163086,9.445267,2.6318207,-0.028747559,0.020217896,-0.01171875,-31.817627,-22.183228,-6.6879272,0
1.512268066,0.015435535,0.26825872,-0.9632232,-0.9997299,0.020884044,-0.010204321,0.0173786,0.9631206,0.26850864,0.01762933,0.26926327,-0.9629052,-0.99969214,0.021561678,-0.012273423,0.017457072,0.96282524,0.2695605,0.08378601,9.404419,2.6240387,0.17042542,9.444962,2.6331635,-0.025543213,0.043655396,-0.009597778,-31.817627,-22.183228,-6.6879272,0
1.51663208,0.015281396,0.26846337,-0.9631686,-0.99973315,0.02078643,-0.010067732,0.017318022,0.96306556,0.2687094,0.017727062,0.2693647,-0.96287507,-0.9996922,0.021493763,-0.012391992,0.017357843,0.96279836,0.26966283,0.17955017,9.452301,2.6144562,0.16983032,9.444366,2.6351166,-0.028747559,0.037261963,-0.012786865,-31.817627,-22.183228,-6.6879272,0
1.521026611,0.015128716,0.2686661,-0.9631146,-0.9997361,0.020717606,-0.00992468,0.017287003,0.9630105,0.2689086,0.017789356,0.26954257,-0.96282417,-0.99969196,0.021459514,-0.012462959,0.017302442,0.96274936,0.2698413,0.23222351,9.528915,2.5474243,0.16952515,9.443771,2.6370544,-0.047912598,0.028747559,-0.0053253174,-31.817627,-22.183228,-6.6879272,0
1.525390625,0.032126117,0.26841184,-0.9627684,-0.9993354,0.025228199,-0.02631289,0.017226221,0.9629739,0.26904398,0.017848175,0.26976302,-0.9627613,-0.99969214,0.021415126,-0.012532353,0.017236887,0.96268857,0.27006218,0.20350647,9.514557,2.652771,0.16893005,9.443466,2.6383972,-0.05644226,0.028747559,-0.007461548,-31.459045,-21.466064,-7.0343018,0
1.529754639,0.032032035,0.2685392,-0.96273607,-0.99934024,0.025104333,-0.02624749,0.017120365,0.9629416,0.26916614,0.018227052,0.2698588,-0.96272737,-0.9996864,0.021452675,-0.0129134655,0.017168265,0.9626609,0.27016523,0.18434143,9.533707,2.6623383,0.16789246,9.443176,2.6396027,-0.029800415,0.025543213,-0.009597778,-31.459045,-21.466064,-7.0343018,0
