Time,Rot1,Rot2,Rot3,Rot4,Rot5,Rot6,Rot7,Rot8,Rot9,FRot1,FRot2,FRot3,FRot4,FRot5,FRot6,FRot7,FRot8,FRot9,AccX,AccY,AccZ,GravX,GravY,GravZ,GyroX,GyroY,GyroZ,MagX,MagY,MagZ,Imid
0.0,0.0,0.0,0.0,0.0,0.0,0.0,0.0,0.0,0.0,1.0,0.0,0.0,0.0,1.0,0.0,0.0,0.0,1.0,9.936203,0.19262695,1.6019897,9.646523,0.24801832,1.7474144,0.0,0.0,0.0,0.0,0.0,0.0,0,0.0,0.0,0.0,0.0
0.008300781,0.0,0.0,0.0,0.0,0.0,0.0,0.0,0.0,0.0,1.0,0.0,0.0,0.0,1.0,0.0,0.0,0.0,1.0,9.936203,0.19262695,1.6019897,9.647981,0.25019604,1.739038,-0.024963379,-0.073028564,-0.050994873,0.0,0.0,0.0,0,0.0,0.0,0.0,0.0
0.016601562,0.16510773,0.24353777,-0.9557347,-0.067656025,0.9695483,0.23536979,0.9839523,0.02579984,0.1765567,1.0,0.0,0.0,0.0,1.0,0.0,0.0,0.0,1.0,9.792633,0.18544006,1.5672913,9.649276,0.25301,1.7314298,-0.0028076172,-0.033325195,-0.053588867,-38.339233,23.878479,-0.53863525,0,0.0,0.0,0.0,0.0
0.024902344,0.16457862,0.24268122,-0.9560438,-0.06768271,0.96975464,0.23451029,0.9840391,0.026112264,0.17602618,0.9984304,0.009745208,-0.055151965,-0.009786728,0.99995196,-4.8278633E-4,0.05514461,0.0010217859,0.9984778,9.73999,0.18424988,1.5565338,9.650127,0.25607383,1.7262272,-0.028320313,-0.008590698,-0.05480957,-38.339233,23.878479,-0.53863525,0,0.0,0.0,0.0,0.0
0.033203125,0.16423309,0.24399063,-0.95576996,-0.06816075,0.9694176,0.23576233,0.9840638,0.026426015,0.175841,0.99653846,0.014454217,-0.081866615,-0.014530433,0.9998944,-3.3525703E-4,0.08185313,0.0015236541,0.99664325,9.838089,0.1986084,1.5960083,9.65037,0.25915068,1.7244112,-0.028320313,0.039978027,-0.05038452,-38.69934,23.699951,-0.5996704,0,0.0,0.0,0.0,0.0
0.041503906,0.16320919,0.25879046,-0.9520453,-0.07099508,0.9655633,0.2502943,0.98403376,0.0267402,0.17596164,0.99076366,0.023644079,-0.13352294,-0.023767488,0.9997173,6.697844E-4,0.13350102,0.0025099067,0.9910455,9.887146,0.2524414,1.6187439,9.650075,0.2622318,1.7255943,-0.07015991,0.063797,-0.04045105,-38.339233,24.179077,0.0,0,0.0,0.0,0.0,0.0
0.049804687,0.16340299,0.25909778,-0.95192844,-0.07139285,0.9654729,0.2505294,0.9839728,0.02702363,0.17625889,0.9825983,0.0330736,-0.18277495,-0.033150494,0.99944687,0.0026353938,0.18276101,0.003469547,0.98315126,9.920639,0.29670715,1.6079712,9.649477,0.26501128,1.7285093,-0.09992981,0.07432556,-0.039993286,-38.339233,24.179077,0.0,0,0.0,0.0,0.0,0.0
0.058105469,0.1636937,0.25955874,-0.9517529,-0.07175567,0.96534365,0.25092375,0.9838981,0.027219027,0.1766455,0.9777234,0.037652757,-0.20649256,-0.037654698,0.99928313,0.0039220946,0.20649222,0.003940691,0.97844034,9.920639,0.29670715,1.6079712,9.648745,0.26692748,1.7323006,-0.09992981,0.077545166,-0.027160645,-38.339233,24.179077,0.0,0,0.0,0.0,0.0,0.0
0.06640625,0.16490668,0.24674688,-0.954946,-0.06987778,0.9686913,0.23823154,0.9838307,0.02744353,0.17698579,0.9665765,0.046554677,-0.25211614,-0.046275575,0.99890393,0.007039465,0.2521675,0.0048626363,0.9676714,9.937393,0.37208557,1.5613098,9.648084,0.2691291,1.7356377,-0.11566162,0.07449341,-0.029907227,-38.339233,23.999023,-0.4196167,0,0.0,0.0,0.0,0.0
0.074707031,0.16508012,0.24842773,-0.9544801,-0.070446804,0.9682558,0.23982923,0.9837611,0.027649032,0.1773407,0.9538248,0.054576714,-0.2953634,-0.05383894,0.99849296,0.010636218,0.2954988,0.005756962,0.9553257,9.996017,0.36012268,1.6187439,9.647401,0.2711444,1.7391182,-0.1083374,0.036315918,-0.04335022,-38.09967,23.939514,-0.35858154,0,0.0,0.0,0.0,0.0
0.083007812,0.16510275,0.24846396,-0.9544667,-0.070755854,0.968238,0.23980959,0.983735,0.027940884,0.17743905,0.94691813,0.058501203,-0.316107,-0.05745478,0.9982681,0.012637835,0.31629887,0.006194865,0.9486394,10.058228,0.33140564,1.6390839,9.647145,0.2740065,1.7400826,-0.09474182,-0.0026397705,-0.051452637,-38.09967,23.939514,-0.35858154,0,0.0,0.0,0.0,0.0
0.091308594,0.16476332,0.24797492,-0.9546525,-0.07092649,0.96835345,0.23929259,0.98377967,0.028283507,0.17713714,0.9321897,0.06611511,-0.35588086,-0.064287595,0.99778706,0.016973577,0.3562155,0.0070561296,0.93437713,9.900299,0.31585693,1.6366882,9.647583,0.27736646,1.7371219,-0.047409058,-0.058517456,-0.053131104,-38.279724,23.81897,-0.4196167,0,0.0,0.0,0.0,0.0
0.099609375,0.16417041,0.24701582,-0.95500326,-0.07098231,0.9685874,0.23832716,0.98387474,0.028662069,0.17654715,0.91641414,0.073403895,-0.39344236,-0.070572,0.997271,0.021681419,0.39396018,0.007896856,0.91909355,9.854843,0.3014984,1.6498566,9.648516,0.28107888,1.7313362,-0.013809204,-0.0771637,-0.0448761,-38.279724,23.81897,-0.4196167,0,0.0,0.0,0.0,0.0
0.107910156,0.16346273,0.24587119,-0.95541996,-0.07097113,0.96886754,0.23718938,0.9839934,0.02903561,0.17582348,0.908193,0.07691819,-0.41142333,-0.0735019,0.9970028,0.024144838,0.41204736,0.008312223,0.9111245,9.771088,0.25004578,1.6821594,9.649679,0.28474206,1.7242393,-0.004333496,-0.07608032,-0.04624939,-38.279724,23.81897,-0.4196167,0,0.0,0.0,0.0,0.0
0.116210937,0.16276282,0.24563958,-0.955599,-0.07107864,0.96891665,0.23695642,0.98410165,0.029354988,0.17516333,0.89119244,0.08368793,-0.44583884,-0.07894203,0.9964501,0.029244445,0.44670358,0.009132994,0.8946354,9.706482,0.1878357,1.6821594,9.650741,0.2878741,1.7177655,-0.016708374,-0.052261353,-0.045639038,-38.398743,23.579407,-0.47912598,0,0.0,0.0,0.0,0.0
0.124511719,0.16195613,0.2498563,-0.95464236,-0.07185749,0.96783197,0.24111769,0.9841782,0.029547717,0.17470036,0.8735832,0.09017646,-0.47824743,-0.08388478,0.99587625,0.034551688,0.479391,0.00993391,0.8775452,9.706482,0.1878357,1.6821594,9.651491,0.28976414,1.7132254,-0.059921265,0.0016479492,-0.0289917,-38.398743,23.519897,-0.35858154,0,0.0,0.0,0.0,0.0
0.1328125,0.16182657,0.24964361,-0.95472,-0.07184136,0.9678852,0.24090886,0.98420066,0.029602919,0.17456427,0.86458874,0.09340903,-0.4937216,-0.08625385,0.99557424,0.037311547,0.49502173,0.010326249,0.8688192,9.7005005,0.18066406,1.6450653,9.651711,0.29030547,1.7118907,-0.074279785,0.021499634,-0.024261475,-38.398743,23.519897,-0.35858154,0,0.0,0.0,0.0,0.0
0.141113281,0.1625118,0.24218673,-0.95652264,-0.07054559,0.9697803,0.23355792,0.98418146,0.029522536,0.17468594,0.8463258,0.09966991,-0.52325755,-0.0906311,0.9949587,0.04293108,0.5248986,0.0110897245,0.8510925,9.737595,0.23330688,1.6534424,9.651524,0.2895172,1.7130839,-0.107421875,0.05479431,-0.015716553,-38.398743,23.638916,-0.53863525,0,0.0,0.0,0.0,0.0
0.149414062,0.16278617,0.2426361,-0.95636207,-0.07068957,0.9696682,0.23397963,0.9841258,0.029516172,0.17500041,0.8278331,0.10537592,-0.5509884,-0.09430157,0.99436224,0.048487183,0.55299145,0.011819775,0.8331031,9.737595,0.23330688,1.6534424,9.650978,0.2894548,1.716168,-0.1184082,0.057235718,-0.010513306,-38.398743,23.638916,-0.53863525,0,0.0,0.0,0.0,0.0
0.157714844,0.16313471,0.2432069,-0.9561577,-0.070824966,0.96952695,0.2345237,0.9840584,0.029460879,0.1753886,0.81852627,0.10815155,-0.5641967,-0.0959902,0.99405986,0.051291697,0.5663926,0.012173758,0.82404566,9.911072,0.3014984,1.7108612,9.650316,0.28891253,1.7199748,-0.1184082,0.04196167,-0.014801025,-38.398743,23.638916,-0.53863525,0,0.0,0.0,0.0,0.0
0.166015625,0.16387482,0.23745665,-0.9574755,-0.069909096,0.970952,0.22883372,0.9840009,0.029436165,0.17571498,0.8091975,0.11088249,-0.5769788,-0.09758884,0.9937546,0.054111797,0.5793754,0.012519552,0.81496465,9.911072,0.3014984,1.7108612,9.649753,0.28867018,1.7231754,-0.103302,0.042419434,-0.021362305,-38.279724,23.519897,-0.71868896,0,0.0,0.0,0.0,0.0
0.174316406,0.16409926,0.23782592,-0.9573454,-0.07005747,0.9708609,0.22917485,0.98395294,0.02946177,0.17597903,0.7905403,0.11594602,-0.60133404,-0.100313656,0.993168,0.059620574,0.60413843,0.0131895505,0.7967702,9.897903,0.3026886,1.7144623,9.649282,0.28892127,1.7257649,-0.09275818,0.02897644,-0.018463135,-38.279724,23.519897,-0.71868896,0,0.0,0.0,0.0,0.0
0.182617187,0.1655047,0.21992698,-0.96137416,-0.06705663,0.9750714,0.2115163,0.9839266,0.029459575,0.17612647,0.7719147,0.12082102,-0.6241395,-0.10270493,0.99257797,0.0651214,0.62737507,0.013834026,0.7785944,9.943375,0.30508423,1.7348022,9.649024,0.28889975,1.7272106,-0.0753479,5.79834E-4,-0.009597778,-38.459778,23.699951,-1.1993408,0,0.0,0.0,0.0,0.0
0.190917969,0.16487457,0.2264946,-0.9599565,-0.068105526,0.97356755,0.21800873,0.98396033,0.029434249,0.17594208,0.753467,0.12477742,-0.6455371,-0.104223594,0.99207956,0.070112295,0.64917254,0.014452888,0.7605039,9.92543,0.29910278,1.6546326,9.649355,0.28865138,1.7254024,-0.036102295,-0.039901733,-0.020446777,-38.69934,23.339844,-1.1398315,0,0.0,0.0,0.0,0.0
0.19921875,0.16450399,0.22586983,-0.9601673,-0.06797417,0.97371066,0.21740986,0.98403144,0.029501786,0.1755326,0.74428254,0.12682943,-0.65571165,-0.104986474,0.99181485,0.07267173,0.65956146,0.014752557,0.75150585,9.92543,0.29910278,1.6546326,9.650052,0.2893137,1.7213868,-0.026031494,-0.04875183,-0.024261475,-38.69934,23.339844,-1.1398315,0,0.0,0.0,0.0,0.0
0.207519531,0.16450393,0.21580495,-0.96247953,-0.066285715,0.97598594,0.20750397,0.98414665,0.029663416,0.17485829,0.7260512,0.13078433,-0.67508894,-0.10630113,0.99129224,0.0777163,0.67937446,0.015336707,0.73363143,9.9062805,0.3026886,1.5553284,9.651182,0.29089874,1.714774,-0.0051116943,-0.057907104,-0.019683838,-38.99994,23.039246,-1.499939,0,0.0,0.0,0.0,0.0
0.215820312,0.16386062,0.21469264,-0.96283793,-0.06609599,0.97622657,0.20642948,0.98426676,0.02981406,0.1741554,0.7080783,0.13417548,-0.69326913,-0.10708931,0.99082994,0.0823886,0.69796634,0.015904123,0.715954,9.891922,0.28953552,1.5708923,9.65236,0.29237607,1.7078811,-0.008163452,-0.060668945,-0.015258789,-38.99994,23.039246,-1.499939,0,0.0,0.0,0.0,0.0
0.224121094,0.16322476,0.21359329,-0.9631903,-0.06587869,0.97646403,0.20537284,0.984387,0.029931786,0.17345436,0.69918424,0.13579719,-0.7019263,-0.10739444,0.99060446,0.084671006,0.7068294,0.016182361,0.70719886,9.891922,0.28953552,1.5708923,9.653539,0.29353055,1.7010062,-0.005264282,-0.04966736,-0.014038086,-38.99994,23.039246,-1.499939,0,0.0,0.0,0.0,0.0
0.232421875,0.16321796,0.20538071,-0.96497595,-0.06440014,0.978224,0.19730759,0.98448586,0.029940438,0.17289029,0.6816028,0.13889872,-0.71841824,-0.10784012,0.99016535,0.08912435,0.7237321,0.016726913,0.6898783,9.84288,0.27757263,1.5696869,9.654509,0.2936154,1.6954746,-0.05000305,-0.020812988,-0.0010528564,-39.29901,22.499084,-1.8585205,0,0.0,0.0,0.0,0.0
0.240722656,0.16325335,0.1988084,-0.9663454,-0.063096955,0.97958475,0.19087264,0.9845644,0.02981286,0.17246471,0.66436243,0.1415467,-0.73388493,-0.10789884,0.98978126,0.09322486,0.7395813,0.017250242,0.6728462,9.84288,0.27757263,1.5696869,9.655278,0.29236427,1.691301,-0.09062195,-0.0015563965,0.0013885498,-39.538574,22.558594,-2.0385742,0,0.0,0.0,0.0,0.0
0.249023437,0.16303018,0.1984064,-0.96646565,-0.06279484,0.9796719,0.19052483,0.98462075,0.029627768,0.172175,0.655879,0.14269784,-0.74125576,-0.107788205,0.9896115,0.09513507,0.7471308,0.017501526,0.6644466,9.846466,0.24526978,1.5302124,9.655831,0.29054916,1.6884601,-0.10940552,0.0024108887,0.0027618408,-39.538574,22.558594,-2.0385742,0,0.0,0.0,0.0,0.0
0.257324219,0.1629235,0.19821422,-0.9665232,-0.06259222,0.9797152,0.19036868,0.98465127,0.029481305,0.17202531,0.6391757,0.14491478,-0.755284,-0.10747142,0.9892807,0.09886117,0.7615144,0.017981786,0.64789844,9.866806,0.3134613,1.578064,9.656131,0.28911284,1.686992,-0.11367798,0.014160156,0.005508423,-39.538574,22.558594,-2.0385742,0,0.0,0.0,0.0,0.0
0.265625,0.16356266,0.18748066,-0.9685548,-0.060589496,0.981832,0.17981876,0.9846705,0.029272607,0.1719504,0.62284404,0.1470355,-0.7684048,-0.10705071,0.9889594,0.10246714,0.77498734,0.018437224,0.63170767,9.939789,0.29193115,1.5984039,9.65632,0.28706622,1.6862574,-0.11352539,0.008972168,7.7819824E-4,-39.718628,22.259521,-2.3986816,0,0.0,0.0,0.0,0.0
0.273925781,0.16353999,0.18743892,-0.9685666,-0.060384873,0.9818456,0.17981288,0.98468685,0.029080182,0.1718895,0.61484605,0.14784743,-0.7746647,-0.10667066,0.98883426,0.104058646,0.78139985,0.018653957,0.6237518,9.939789,0.29193115,1.5984039,9.65648,0.28517917,1.6856602,-0.10115051,0.008972168,7.7819824E-4,-39.718628,22.259521,-2.3986816,0,0.0,0.0,0.0,0.0
0.282226562,0.1626088,0.2024782,-0.965692,-0.06266931,0.9788614,0.19468683,0.98469836,0.028861454,0.17186065,0.59914535,0.1494209,-0.78657377,-0.10586444,0.9885898,0.107158154,0.79361045,0.019066883,0.60812736,9.970886,0.23568726,1.6773682,9.656592,0.28303418,1.6853772,-0.07946777,-0.013320923,-0.0033416748,-39.59961,22.079468,-2.0385742,0,0.0,0.0,0.0,0.0
0.290527344,0.16276677,0.19794105,-0.96660554,-0.0617185,0.97979397,0.19024898,0.9847324,0.02869123,0.17169455,0.5837833,0.15153204,-0.79764354,-0.10536068,0.9882609,0.11063262,0.8050443,0.019454788,0.5928957,9.876373,0.23808289,1.6426697,9.656926,0.28136486,1.6837484,-0.04786682,-0.045700073,-0.0079193115,-39.538574,22.259521,-2.0996094,0,0.0,0.0,0.0,0.0
0.298828125,0.16245009,0.19736232,-0.9667772,-0.06145381,0.97991365,0.1897178,0.98480123,0.028592465,0.17131571,0.57626396,0.1524642,-0.8029162,-0.105025575,0.9881138,0.11225273,0.8104872,0.019639537,0.58542705,9.876373,0.23808289,1.6426697,9.657601,0.2803963,1.6800333,-0.035949707,-0.05393982,-0.012512207,-39.538574,22.259521,-2.0996094,0,0.0,0.0,0.0,0.0
0.307128906,0.16196428,0.19647467,-0.96703947,-0.06114678,0.98009354,0.18888573,0.98490036,0.028538605,0.17075393,0.5615266,0.15424941,-0.8129544,-0.10429683,0.98782957,0.115389846,0.8208593,0.01999411,0.57078034,9.869202,0.19262695,1.6139526,9.658573,0.27986813,1.6745241,-0.033813477,-0.06341553,-0.029296875,-39.538574,22.259521,-2.0996094,0,0.0,0.0,0.0,0.0
0.315429687,0.16057962,0.20872632,-0.9647007,-0.06309781,0.97755593,0.20100476,0.98500395,0.028593238,0.17014574,0.5543067,0.15509725,-0.817734,-0.103902444,0.98769337,0.11690195,0.8258017,0.020165015,0.56360006,9.869202,0.19262695,1.6139526,9.65959,0.2804039,1.6685599,-0.03579712,-0.05807495,-0.03755188,-39.538574,22.37854,-1.739502,0,0.0,0.0,0.0,0.0
0.323730469,0.16002545,0.20772323,-0.9650093,-0.06291033,0.9777666,0.20003702,0.98510617,0.02869804,0.16953547,0.5401083,0.15723144,-0.8267776,-0.10335061,0.98734903,0.12025211,0.83522546,0.020498803,0.54952544,9.830917,0.18066406,1.5912323,9.660591,0.28143162,1.662575,-0.04374695,-0.053329468,-0.039535522,-39.538574,22.37854,-1.739502,0,0.0,0.0,0.0,0.0
0.33203125,0.1595438,0.2060898,-0.9654392,-0.06277281,0.97810495,0.19841999,0.9851931,0.028946655,0.1689874,0.52631325,0.15924029,-0.8352466,-0.10271993,0.9870202,0.12344921,0.8440634,0.020823523,0.53583896,9.818954,0.3062744,1.5158539,9.661444,0.2838697,1.6572002,-0.05732727,-0.040512085,-0.041519165,-39.538574,22.738647,-1.6799927,0,0.0,0.0,0.0,0.0
0.340332031,0.1590016,0.20512527,-0.9657339,-0.06275216,0.97829986,0.1974626,0.98528206,0.02920502,0.16842332,0.51956624,0.1601815,-0.8392811,-0.10237151,0.98686445,0.124974385,0.8482753,0.020986,0.52913946,9.818954,0.3062744,1.5158539,9.662316,0.28640342,1.6516687,-0.06817627,-0.033477783,-0.032821655,-39.538574,22.738647,-1.6799927,0,0.0,0.0,0.0,0.0
0.348632812,0.15858987,0.20453814,-0.96592623,-0.06283158,0.9784149,0.19686669,0.9853433,0.02946961,0.16801813,0.5063679,0.16196881,-0.8469696,-0.101630345,0.9865657,0.12790367,0.8563077,0.021311505,0.5160262,9.836899,0.35414124,1.503891,9.662917,0.28899816,1.6476951,-0.078704834,0.0068359375,-0.028244019,-39.419556,22.918701,-1.6189575,0,0.0,0.0,0.0,0.0
0.356933594,0.15832701,0.20407608,-0.9660671,-0.062936984,0.9785042,0.1963887,0.9853788,0.029707711,0.16776755,0.49356994,0.1636614,-0.85416836,-0.1008509,0.9862793,0.1306989,0.863839,0.021634595,0.50330323,9.890732,0.38046265,1.4799652,9.663265,0.29133314,1.6452377,-0.09550476,0.024246216,-0.025482178,-39.419556,22.918701,-1.6189575,0,0.0,0.0,0.0,0.0
0.365234375,0.1573115,0.21733902,-0.9633362,-0.06524667,0.9756379,0.20945972,0.98539126,0.029904058,0.16765974,0.48732033,0.16447291,-0.8575941,-0.100449644,0.9861407,0.13204649,0.8674265,0.021796072,0.4970877,9.890732,0.38046265,1.4799652,9.663388,0.29325867,1.6441805,-0.0962677,0.027145386,-0.023040771,-39.05945,23.2193,-1.1398315,0,0.0,0.0,0.0,0.0
0.373535156,0.15729105,0.21730407,-0.96334755,-0.06536583,0.97564185,0.20940468,0.98538667,0.030032529,0.16766399,0.47506607,0.16657718,-0.8640395,-0.0998918,0.9857803,0.13512495,0.87426186,0.022117179,0.4849505,9.918243,0.3481598,1.5349884,9.663342,0.2945185,1.6442221,-0.08528137,0.015075684,-0.021514893,-39.05945,23.2193,-1.1398315,0,0.0,0.0,0.0,0.0
0.381835937,0.15745191,0.21521467,-0.9637902,-0.06505668,0.97610414,0.20733625,0.9853814,0.030055506,0.16769062,0.46321362,0.16859597,-0.87006235,-0.09929663,0.98542994,0.13808662,0.88066643,0.022430655,0.47320563,9.915863,0.27278137,1.5924225,9.663291,0.29474384,1.6444833,-0.069244385,7.324219E-4,-0.017242432,-38.879395,23.339844,-1.1398315,0,0.0,0.0,0.0,0.0
0.390136719,0.15739076,0.2151112,-0.9638233,-0.06503531,0.97612673,0.20723698,0.98539263,0.030065358,0.16762315,0.4574407,0.16953272,-0.87293,-0.09896645,0.9852658,0.13948828,0.88371587,0.022583166,0.4674787,9.915863,0.27278137,1.5924225,9.663401,0.29484046,1.6438216,-0.05809021,-0.0052337646,-0.012207031,-38.879395,23.339844,-1.1398315,0,0.0,0.0,0.0,0.0
0.3984375,0.15775025,0.20780127,-0.965367,-0.06378822,0.97771025,0.20003462,0.98541665,0.030023532,0.1674893,0.4461845,0.17134577,-0.8783849,-0.098283395,0.98494524,0.14220837,0.8895278,0.022879489,0.45630774,9.867996,0.2596283,1.5828552,9.663636,0.2944303,1.6425091,-0.055038452,-0.0067596436,-0.005630493,-39.05945,23.519897,-1.3198853,0,0.0,0.0,0.0,0.0
0.406738281,0.15766363,0.20765482,-0.9654126,-0.06366674,0.97774357,0.19990958,0.9854383,0.029946208,0.16737533,0.435335,0.17279467,-0.88353,-0.097445786,0.9846855,0.14456423,0.8949792,0.023162415,0.4455062,9.881165,0.28115845,1.6199341,9.663849,0.293672,1.6413913,-0.07550049,-0.015304565,0.008407593,-39.05945,23.519897,-1.3198853,0,0.0,0.0,0.0,0.0
0.415039062,0.15814686,0.19808932,-0.96734184,-0.061946496,0.9797309,0.19049893,0.9854705,0.029796626,0.16721231,0.43004894,0.17349437,-0.88597834,-0.097021,0.98455924,0.14570527,0.89757717,0.023298101,0.44024128,9.881165,0.28115845,1.6199341,9.664165,0.2922051,1.6397926,-0.079315186,-0.018814087,0.0015411377,-39.29901,23.75946,-1.5594482,0,0.0,0.0,0.0,0.0
0.423339844,0.15798633,0.19781847,-0.9674235,-0.06163197,0.97979283,0.19028287,0.985516,0.029562123,0.16698581,0.41978422,0.17447078,-0.890697,-0.095999114,0.98438054,0.1475774,0.9025328,0.023555463,0.42997646,9.890732,0.22612,1.6319122,9.664611,0.2899054,1.6375715,-0.076416016,-0.038360596,-0.0048675537,-39.29901,23.75946,-1.5594482,0,0.0,0.0,0.0,0.0
0.431640625,0.15724175,0.20370467,-0.96632266,-0.062303662,0.978592,0.19615294,0.98559284,0.029362006,0.16656706,0.4098706,0.17539757,-0.8951211,-0.09497493,0.98421013,0.14936598,0.9071857,0.023793345,0.42005712,9.876373,0.21057129,1.5601196,9.665364,0.28794292,1.6334649,-0.07305908,-0.045547485,-0.0022735596,-39.179993,23.699951,-1.3793945,0,0.0,0.0,0.0,0.0
0.439941406,0.15685385,0.20305173,-0.96652305,-0.061936673,0.9787329,0.19556533,0.98567784,0.02918805,0.16609438,0.40502656,0.17596537,-0.8972122,-0.094511926,0.98410606,0.15034208,0.90940696,0.023904726,0.41521993,9.876373,0.21057129,1.5601196,9.666198,0.286237,1.6288295,-0.075042725,-0.040512085,-0.005630493,-39.179993,23.699951,-1.3793945,0,0.0,0.0,0.0,0.0
0.448242187,0.15706049,0.19253862,-0.96863866,-0.060028806,0.9808592,0.18523432,0.98576295,0.029053226,0.1656121,0.39558256,0.17704092,-0.90120524,-0.09357181,0.983908,0.15221462,0.9136513,0.024113962,0.40578288,9.814163,0.24287415,1.503891,9.667032,0.28491482,1.6241,-0.0765686,-0.018814087,-0.005935669,-39.118958,23.458862,-1.6799927,0,0.0,0.0,0.0,0.0
0.456542969,0.15668757,0.1919034,-0.96882516,-0.059819177,0.9809846,0.1846374,0.985835,0.029023936,0.16518758,0.38649756,0.17765567,-0.9050183,-0.0924697,0.9837924,0.15362893,0.9176432,0.024309566,0.39666116,9.8524475,0.31225586,1.4584198,9.667739,0.2846276,1.6199368,-0.07839966,0.022109985,-0.010513306,-39.118958,23.458862,-1.6799927,0,0.0,0.0,0.0,0.0
0.46484375,0.15670268,0.18821475,-0.96954596,-0.059176713,0.9816993,0.1810096,0.9858714,0.029009853,0.16497287,0.382071,0.17794105,-0.90684,-0.09192147,0.9837385,0.1543017,0.91955,0.02440386,0.39221454,9.8524475,0.31225586,1.4584198,9.668096,0.28448948,1.6178312,-0.08253479,0.02394104,-0.0051727295,-38.938904,23.458862,-1.739502,0,0.0,0.0,0.0,0.0
0.473144531,0.15668245,0.1881804,-0.969556,-0.059218377,0.9817044,0.18096846,0.9858721,0.029060949,0.16495958,0.37346265,0.17834839,-0.91033924,-0.09078776,0.98366016,0.15546773,0.92319185,0.024586268,0.38355216,9.882355,0.37088013,1.5086823,9.668103,0.28499058,1.617701,-0.0715332,0.01675415,-0.0033416748,-38.938904,23.458862,-1.739502,0,0.0,0.0,0.0,0.0
0.481445312,0.15674849,0.18620962,-0.9699257,-0.058834568,0.9820819,0.17903523,0.9858846,0.02900166,0.1648954,0.36516422,0.1787382,-0.9136234,-0.089687176,0.983585,0.15657838,0.9266128,0.024763474,0.37520057,9.917053,0.29910278,1.4895325,9.668225,0.28440914,1.6170715,-0.056869507,0.011108398,-0.0036468506,-39.05945,23.81897,-1.739502,0,0.0,0.0,0.0,0.0
0.489746094,0.15665059,0.18604565,-0.969973,-0.0587508,0.98211414,0.17888612,0.9859051,0.02896407,0.16477908,0.3611311,0.17888777,-0.9151959,-0.08913294,0.9835557,0.1570783,0.9282455,0.024848241,0.37113735,9.917053,0.29910278,1.4895325,9.6684265,0.2840405,1.6159308,-0.038848877,-1.8310547E-4,-0.0036468506,-39.05945,23.81897,-1.739502,0,0.0,0.0,0.0,0.0
0.498046875,0.15762958,0.16824599,-0.97306025,-0.055787817,0.9853227,0.16132894,0.98592126,0.028854694,0.16470206,0.35328242,0.17917149,-0.9181988,-0.08804548,0.9834999,0.15803789,0.93136436,0.02501124,0.36322847,9.854843,0.2368927,1.5565338,9.668585,0.2829679,1.6151755,-0.027709961,7.324219E-4,-0.0034942627,-39.118958,23.81897,-2.218628,0,0.0,0.0,0.0,0.0
0.506347656,0.15757567,0.16815518,-0.9730847,-0.05565326,0.9853414,0.16126107,0.9859375,0.028744515,0.16462421,0.3457811,0.17873926,-0.92113394,-0.086739525,0.9835747,0.15829459,0.93429744,0.025163447,0.35560527,9.920639,0.21894836,1.5804596,9.668744,0.2818874,1.6144121,-0.02709961,0.007446289,-0.00730896,-39.118958,23.81897,-2.218628,0,0.0,0.0,0.0,0.0
0.514648437,0.15701927,0.17730655,-0.971549,-0.05702676,0.98373824,0.17031455,0.98594767,0.028661618,0.16457707,0.3421329,0.17852777,-0.92253613,-0.086103775,0.9836112,0.15841436,0.9356982,0.025235072,0.35189766,9.920639,0.21894836,1.5804596,9.668844,0.28107446,1.6139498,-0.035949707,0.009277344,-0.0063934326,-39.239502,23.579407,-2.0385742,0,0.0,0.0,0.0,0.0
0.522949219,0.1570365,0.17733593,-0.97154075,-0.056909733,0.9837366,0.17036335,0.9859518,0.028536862,0.1645747,0.33500513,0.17847946,-0.92515767,-0.08499129,0.98361653,0.15898135,0.93837523,0.02537077,0.34468576,9.896713,0.19740295,1.5900269,9.668884,0.27985102,1.6139265,-0.08161926,0.012939453,-0.010070801,-39.239502,23.579407,-2.0385742,0,0.0,0.0,0.0,0.0
0.53125,0.1566135,0.18373272,-0.97041976,-0.057739474,0.98256713,0.1767142,0.98597074,0.028355695,0.16449192,0.3281414,0.1784342,-0.92762303,-0.08391523,0.9836215,0.15952131,0.940894,0.025496153,0.33774027,9.936203,0.17468262,1.5170441,9.66907,0.27807438,1.6131147,-0.11566162,0.014007568,-0.015106201,-38.879395,23.638916,-1.7990112,0,0.0,0.0,0.0,0.0
0.539550781,0.15658626,0.18368691,-0.9704328,-0.057540473,0.982581,0.17670181,0.9859867,0.028170086,0.16442813,0.32479382,0.17854026,-0.92878,-0.08343073,0.98360074,0.15990281,0.94209784,0.025553348,0.33436322,9.936203,0.17468262,1.5170441,9.669227,0.27625418,1.6124892,-0.11123657,0.008514404,-0.015716553,-38.879395,23.638916,-1.7990112,0,0.0,0.0,0.0,0.0
0.547851562,0.15622202,0.18975338,-0.96932364,-0.058308836,0.98143315,0.18272652,0.98599935,0.02797423,0.16438577,0.31828558,0.17874418,-0.9309913,-0.082478,0.983561,0.16063978,0.94440013,0.025656972,0.32779577,9.933807,0.16870117,1.5481567,9.669351,0.27433348,1.6120738,-0.11138916,0.0071411133,-0.012817383,-38.69934,23.278809,-1.6799927,0,0.0,0.0,0.0,0.0
0.556152344,0.15616421,0.18965523,-0.9693522,-0.05830908,0.98145133,0.18262875,0.98600847,0.028001953,0.16432619,0.31200042,0.17918064,-0.9330327,-0.081625916,0.98347914,0.16157323,0.94656897,0.025748739,0.3214717,9.933807,0.33499146,1.5565338,9.66944,0.27460536,1.6114895,-0.10620117,-0.0018615723,-0.016479492,-38.69934,23.278809,-1.6799927,0,0.0,0.0,0.0,0.0
0.564453125,0.15627418,0.18603796,-0.9700352,-0.057754118,0.98214227,0.17905563,0.9860237,0.028041752,0.16422795,0.30894598,0.17939036,-0.9340083,-0.081209145,0.9834398,0.16202253,0.9476062,0.025793806,0.3183979,9.933807,0.33499146,1.5565338,9.66959,0.27499565,1.6105261,-0.100234985,-0.011184692,-0.015106201,-38.879395,23.278809,-1.7990112,0,0.0,0.0,0.0,0.0
0.572753906,0.15605414,0.18566214,-0.97014254,-0.057746448,0.98221064,0.17868276,0.98605907,0.028138109,0.16399938,0.30301824,0.1796538,-0.9358976,-0.080351174,0.9833893,0.1627547,0.9495913,0.025882827,0.31242034,9.893127,0.35533142,1.5230255,9.669936,0.2759406,1.6082846,-0.089401245,-0.029663086,-0.01876831,-38.879395,23.278809,-1.7990112,0,0.0,0.0,0.0,0.0
0.581054687,0.15578224,0.18479358,-0.97035205,-0.057640493,0.9823718,0.1778289,0.98610824,0.028228993,0.16368769,0.29730633,0.17989188,-0.9376822,-0.07951909,0.9833434,0.16343915,0.951465,0.025972137,0.30665904,9.872787,0.33140564,1.5361938,9.670419,0.27683187,1.605228,-0.07809448,-0.029510498,-0.021972656,-38.819885,23.278809,-1.7990112,0,0.0,0.0,0.0,0.0
0.589355469,0.15543583,0.18420292,-0.97052,-0.057603464,0.9824792,0.17724714,0.98616505,0.028354753,0.16332318,0.29452705,0.17999,-0.9385401,-0.07910901,0.98332435,0.16375305,0.9523632,0.026017275,0.30385447,9.872787,0.33140564,1.5361938,9.670976,0.27806515,1.6016533,-0.054122925,-0.038208008,-0.023040771,-38.819885,23.278809,-1.7990112,0,0.0,0.0,0.0,0.0
0.59765625,0.15495254,0.18564028,-0.9703234,-0.057789467,0.98220766,0.17868546,0.9862302,0.028386705,0.1629236,0.28911436,0.18015692,-0.9401895,-0.07830538,0.98329127,0.16433655,0.95408654,0.026109839,0.2983909,9.902695,0.24047852,1.5409851,9.671615,0.2783785,1.5977348,-0.04067993,-0.041732788,-0.019836426,-38.938904,23.098755,-1.7990112,0,0.0,0.0,0.0,0.0
0.605957031,0.15454985,0.18494612,-0.9705201,-0.057608552,0.98233825,0.17802441,0.986304,0.028396612,0.16247472,0.28388748,0.1803742,-0.9417394,-0.07754471,0.9832491,0.1649488,0.95571685,0.026200006,0.29311916,9.828522,0.20936584,1.5170441,9.6723385,0.27847564,1.5933328,-0.027252197,-0.031188965,-0.018615723,-38.938904,23.098755,-1.7990112,0,0.0,0.0,0.0,0.0
0.614257812,0.1536387,0.19337565,-0.96902066,-0.05886326,0.98071355,0.18637626,0.9863723,0.02840511,0.16205826,0.28134167,0.18046568,-0.9424855,-0.07716888,0.98323107,0.16523187,0.9564997,0.02624394,0.29055023,9.828522,0.20936584,1.5170441,9.673008,0.27855897,1.5892488,-0.03366089,-0.02279663,-0.012817383,-38.75885,22.979736,-1.5594482,0,0.0,0.0,0.0,0.0
0.622558594,0.15325846,0.1927214,-0.96921116,-0.058692187,0.98084193,0.18575329,0.9864416,0.02841686,0.16163357,0.27882373,0.18072422,-0.943184,-0.07684629,0.9831825,0.16567108,0.95726275,0.026287165,0.28802258,9.873978,0.24287415,1.4536438,9.673688,0.27867422,1.5850838,-0.038391113,-0.016983032,-0.007156372,-38.75885,22.979736,-1.5594482,0,0.0,0.0,0.0,0.0
0.630859375,0.15310298,0.19245386,-0.9692888,-0.05851095,0.9808975,0.18551674,0.98647654,0.028310847,0.16143902,0.27391863,0.18119988,-0.9445291,-0.07620558,0.98309267,0.16649795,0.958729,0.026371501,0.28309584,9.846466,0.22132874,1.5110626,9.67403,0.27763456,1.5831759,-0.06451416,0.014160156,0.0019989014,-38.75885,22.979736,-1.5594482,0,0.0,0.0,0.0,0.0
0.639160156,0.15218005,0.20807637,-0.96620154,-0.060766503,0.9777081,0.20098342,0.986483,0.028127024,0.16143173,0.26919556,0.18164603,-0.9458004,-0.0755759,0.98300827,0.16728143,0.9601156,0.026448304,0.27834952,9.846466,0.22132874,1.5110626,9.674093,0.27583188,1.5831045,-0.08192444,0.03982544,0.0044403076,-38.819885,23.098755,-1.1398315,0,0.0,0.0,0.0,0.0
0.647460937,0.1522343,0.2119875,-0.96534246,-0.06121593,0.9768739,0.20486604,0.9864468,0.027906703,0.1616907,0.2668789,0.18217602,-0.94635487,-0.07534999,0.98290926,0.16796361,0.9607799,0.02648188,0.2760447,9.893127,0.21894836,1.6019897,9.6737385,0.27367127,1.5856441,-0.08175659,0.04058838,0.0027618408,-38.879395,23.278809,-1.0192871,0,0.0,0.0,0.0,0.0
0.655761719,0.15254645,0.21251608,-0.96517694,-0.061219588,0.9767633,0.20539144,0.98639834,0.027755998,0.16201192,0.2623798,0.18336,-0.94738376,-0.07493851,0.98268753,0.16943845,0.96205044,0.026538305,0.27157807,9.919449,0.25842285,1.6283112,9.673264,0.27219337,1.5887942,-0.08068848,0.029891968,-4.4250488E-4,-38.879395,23.278809,-1.0192871,0,0.0,0.0,0.0,0.0
0.6640625,0.1530135,0.2086517,-0.9659458,-0.06050809,0.97760034,0.20158422,0.9863699,0.027602425,0.16221121,0.25806633,0.18451788,-0.9483433,-0.07453387,0.98246956,0.17087536,0.9632479,0.026586527,0.26729512,9.930206,0.2416687,1.6175537,9.672984,0.2706873,1.5907484,-0.07748413,-0.0043182373,-0.0041046143,-38.938904,23.278809,-1.1398315,0,0.0,0.0,0.0,0.0
0.672363281,0.15305288,0.20871857,-0.9659251,-0.060462117,0.97758794,0.20165834,0.9863666,0.027537486,0.16224223,0.25598302,0.18500169,-0.9488135,-0.07431103,0.98237795,0.17149758,0.9638208,0.026606845,0.26521975,9.970886,0.28833008,1.6522369,9.672953,0.2700505,1.5910529,-0.07092285,-0.030273438,-0.007003784,-38.938904,23.278809,-1.1398315,0,0.0,0.0,0.0,0.0
0.680664062,0.15283768,0.20835304,-0.9660381,-0.06034676,0.9776662,0.20131347,0.9864071,0.027528992,0.16199766,0.25193936,0.18594308,-0.9497114,-0.07387035,0.9821992,0.17270751,0.96491957,0.0266437,0.26119033,9.970886,0.28833008,1.6522369,9.673349,0.2699672,1.5886544,-0.059158325,-0.056381226,-0.012512207,-38.938904,23.278809,-1.1398315,0,0.0,0.0,0.0,0.0
0.688964844,0.15232357,0.20639983,-0.9665384,-0.05995264,0.97807926,0.19941595,0.9865107,0.027570784,0.16135876,0.24804464,0.18683246,-0.9505617,-0.07343308,0.98202944,0.17385544,0.9659614,0.026678758,0.25730684,9.896713,0.279953,1.537384,9.674365,0.27037704,1.5823889,-0.03945923,-0.0947113,-0.019226074,-38.938904,23.399353,-1.1398315,0,0.0,0.0,0.0,0.0
0.697265625,0.15174673,0.2018961,-0.96757984,-0.05905063,0.9790195,0.19502214,0.9866539,0.027542228,0.16048515,0.24614486,0.18722457,-0.9509783,-0.073206745,0.9819543,0.17437467,0.9664644,0.026696598,0.2554091,9.836899,0.19381714,1.4667969,9.67577,0.270097,1.5738217,-0.03778076,-0.087387085,-0.019378662,-38.63983,23.579407,-1.1398315,0,0.0,0.0,0.0,0.0
0.705566406,0.15097009,0.20060454,-0.96796995,-0.05866401,0.9792854,0.19380002,0.9867961,0.027526993,0.15961108,0.24243653,0.18780641,-0.9518158,-0.072711125,0.9818423,0.17521085,0.9674387,0.026730089,0.25169003,9.836899,0.19381714,1.4667969,9.677164,0.2699476,1.56525,-0.03793335,-0.07287598,-0.012359619,-38.63983,23.579407,-1.1398315,0,0.0,0.0,0.0,0.0
0.713867187,0.14965129,0.20992853,-0.9661959,-0.059942976,0.977329,0.20306307,0.98692006,0.027528008,0.1588423,0.23884259,0.18831386,-0.9526238,-0.0722108,0.9817442,0.1759656,0.96836966,0.026761645,0.24808063,9.773483,0.22253418,1.421341,9.67838,0.26995754,1.5577109,-0.04878235,-0.023406982,-0.013122559,-38.879395,23.579407,-0.8987427,0,0.0,0.0,0.0,0.0
0.722167969,0.14919306,0.20916395,-0.9664326,-0.05971296,0.9774933,0.20233962,0.98700345,0.027520882,0.15832502,0.23706979,0.18874708,-0.95298076,-0.07200891,0.98166054,0.17651398,0.96882015,0.026776975,0.24631356,9.780655,0.24047852,1.3986053,9.679197,0.26988766,1.552638,-0.054275513,0.0013427734,-0.007003784,-38.879395,23.579407,-0.8987427,0,0.0,0.0,0.0,0.0
0.73046875,0.1490092,0.20885713,-0.9665273,-0.05954686,0.97756094,0.20206109,0.98704123,0.02744471,0.15810235,0.23361075,0.18955724,-0.95367396,-0.0716009,0.98150367,0.17754956,0.9696903,0.026806433,0.24286228,9.866806,0.22732544,1.409378,9.679568,0.26914066,1.5504544,-0.059005737,0.025466919,-9.0026855E-4,-38.879395,23.579407,-0.8987427,0,0.0,0.0,0.0,0.0
0.738769531,0.1485989,0.21582079,-0.96505946,-0.060507223,0.97605014,0.20896186,0.98704475,0.027341574,0.15809867,0.23027949,0.19032297,-0.95433146,-0.07119556,0.9813548,0.17853282,0.9705167,0.026831709,0.23953605,9.949356,0.24765015,1.4488525,9.679603,0.26812926,1.5504184,-0.056259155,0.035705566,0.0030670166,-38.99994,23.638916,-0.71868896,0,0.0,0.0,0.0,0.0
0.747070312,0.14867687,0.21761969,-0.9646434,-0.060633436,0.9756558,0.21075884,0.9870252,0.02715468,0.15825246,0.22865328,0.19083427,-0.9546203,-0.07102744,0.9812552,0.17914607,0.9709134,0.026841905,0.2379217,9.963715,0.21057129,1.5014954,9.679411,0.26629645,1.5519266,-0.059768677,0.040130615,0.0070343018,-38.99994,23.458862,-0.71868896,0,0.0,0.0,0.0,0.0
0.755371094,0.14892638,0.21803857,-0.9645103,-0.060500283,0.97556937,0.21119697,0.98699576,0.026900347,0.15847939,0.22549878,0.19189782,-0.95515734,-0.07070642,0.98104745,0.18040657,0.97167426,0.026854293,0.2347934,9.964905,0.18544006,1.5194397,9.679122,0.2638023,1.554152,-0.06436157,0.046539307,0.01008606,-38.99994,23.458862,-0.71868896,0,0.0,0.0,0.0,0.0
0.763671875,0.14917429,0.21845476,-0.9643778,-0.060364064,0.9754833,0.21163304,0.98696667,0.026643557,0.15870383,0.2239728,0.19242205,-0.95541084,-0.07054588,0.9809447,0.18102686,0.9720388,0.026855214,0.23327953,9.964905,0.18544006,1.5194397,9.678837,0.26128405,1.556353,-0.06893921,0.032180786,0.0013885498,-38.99994,23.458862,-0.71868896,0,0.0,0.0,0.0,0.0
0.771972656,0.14882585,0.22655676,-0.9625606,-0.06143973,0.9736389,0.21966477,0.98695296,0.026447667,0.15882222,0.22102024,0.19345567,-0.95588964,-0.070224956,0.9807416,0.18224792,0.97273767,0.026846834,0.23034917,10.001999,0.22372437,1.5433655,9.678702,0.25936303,1.557514,-0.073516846,0.002105713,-0.01159668,-38.69934,23.638916,-0.4196167,0,0.0,0.0,0.0,0.0
0.780273437,0.14883943,0.2265791,-0.9625532,-0.061352722,0.9736361,0.21970099,0.98695624,0.026355091,0.1588167,0.2181666,0.19477095,-0.956278,-0.06997563,0.98048174,0.18373632,0.97339964,0.026831025,0.22753759,9.961319,0.20219421,1.5589294,9.678735,0.25845516,1.5574598,-0.07260132,-0.010116577,-0.017089844,-38.69934,23.638916,-0.4196167,0,0.0,0.0,0.0,0.0
0.788574219,0.14955138,0.21291521,-0.96555763,-0.05919618,0.97671616,0.20620713,0.9869804,0.026318766,0.15867302,0.21678239,0.19540921,-0.9564625,-0.069850065,0.9803549,0.184459,0.9737178,0.026821507,0.22617303,9.930206,0.20578003,1.5876312,9.678971,0.25809893,1.5560508,-0.07260132,-0.022033691,-0.022125244,-38.519287,23.519897,-0.7797241,0,0.0,0.0,0.0,0.0
0.796875,0.14831777,0.22891876,-0.96208006,-0.061596937,0.9730894,0.22204232,0.98701954,0.026328368,0.15842713,0.2141294,0.19610368,-0.95691794,-0.069479726,0.9802168,0.1853309,0.97433114,0.0268016,0.22351846,9.929016,0.20817566,1.5625153,9.679356,0.2581931,1.5536395,-0.067718506,-0.05607605,-0.030075073,-38.519287,23.699951,-0.29907227,0,0.0,0.0,0.0,0.0
0.805175781,0.1479224,0.22827344,-0.9622943,-0.061480355,0.9732388,0.22141902,0.9870862,0.026409363,0.15799813,0.211526,0.1974076,-0.9572288,-0.06925607,0.9799556,0.18679047,0.97491556,0.026782857,0.22095777,9.877579,0.19142151,1.4990997,9.680009,0.2589874,1.5494324,-0.06297302,-0.05531311,-0.03831482,-38.519287,23.699951,-0.29907227,0,0.0,0.0,0.0,0.0
0.813476562,0.14743392,0.22747624,-0.9625579,-0.06135796,0.9734221,0.2206456,0.9871669,0.02652994,0.15747295,0.21025532,0.19802694,-0.9573808,-0.06914207,0.9798308,0.1874859,0.97519845,0.026775388,0.21970664,9.877579,0.19142151,1.4990997,9.6808,0.26016983,1.5442822,-0.06297302,-0.047531128,-0.0398407,-38.519287,23.699951,-0.29907227,0,0.0,0.0,0.0,0.0
0.821777344,0.14699309,0.22659215,-0.96283376,-0.06125243,0.9736244,0.21978039,0.9872391,0.02666971,0.15699542,0.20777053,0.1991967,-0.95768064,-0.06890991,0.97959393,0.18880454,0.97574735,0.026765667,0.21725737,9.836899,0.1878357,1.483551,9.681509,0.26154053,1.5395991,-0.049697876,-0.042037964,-0.037704468,-38.398743,23.638916,-0.29907227,0,0.0,0.0,0.0,0.0
0.830078125,0.1465906,0.22593564,-0.9630494,-0.061271768,0.97377104,0.2191245,0.9872978,0.026886152,0.15658918,0.2053668,0.20028466,-0.95797217,-0.068675324,0.9793722,0.19003643,0.9762726,0.026761867,0.21488515,9.8033905,0.23568726,1.4572296,9.682084,0.26366308,1.5356153,-0.045425415,-0.0055389404,-0.037704468,-38.398743,23.638916,-0.29907227,0,0.0,0.0,0.0,0.0
0.838378906,0.14625393,0.22733635,-0.96277094,-0.06162779,0.9734395,0.22049366,0.9873256,0.02708539,0.1563796,0.20419289,0.2007991,-0.95811534,-0.06855932,0.97926676,0.19062065,0.976527,0.026764354,0.21372595,9.829712,0.25723267,1.426117,9.682357,0.26561695,1.53356,-0.04510498,0.013397217,-0.03327942,-38.63983,23.339844,-0.35858154,0,0.0,0.0,0.0,0.0
0.846679687,0.14596009,0.23115729,-0.9619055,-0.062410668,0.9725333,0.22424105,0.9873199,0.027302913,0.15637769,0.20303556,0.20133136,-0.95824957,-0.068453215,0.97915727,0.19122015,0.9767757,0.026770774,0.21258552,9.829712,0.25723267,1.426117,9.682301,0.2677501,1.5335413,-0.055343628,0.025466919,-0.025634766,-38.519287,23.579407,-0.17852783,0,0.0,0.0,0.0,0.0
0.854980469,0.1461106,0.23140378,-0.9618232,-0.06262185,0.9724707,0.22445257,0.9872842,0.027436249,0.15657923,0.19968155,0.20309083,-0.958583,-0.06819839,0.978793,0.19316629,0.9774847,0.02680207,0.20929737,9.871582,0.3254242,1.4955139,9.6819515,0.26905772,1.5355178,-0.0652771,0.069747925,-0.020141602,-38.519287,23.579407,-0.17852783,0,0.0,0.0,0.0,0.0
0.86328125,0.14663823,0.2322679,-0.9615346,-0.06291868,0.972264,0.2252643,0.98718715,0.027466137,0.15718505,0.19861096,0.20365886,-0.9586849,-0.06811854,0.97867465,0.19379325,0.9777083,0.026814753,0.20824845,9.871582,0.25125122,1.6247253,9.680999,0.2693508,1.5414587,-0.0715332,0.07279968,-0.016784668,-38.519287,23.579407,-0.17852783,0,0.0,0.0,0.0,0.0
0.871582031,0.14728226,0.231414,-0.9616421,-0.06294812,0.97246695,0.224378,0.9870894,0.027486661,0.1577942,0.19655383,0.20479532,-0.9588668,-0.06797267,0.97843677,0.19504166,0.9781341,0.026840549,0.20623596,10.00798,0.2632141,1.6510468,9.68004,0.26955208,1.5474325,-0.0493927,0.039520264,-0.014801025,-38.519287,23.519897,-0.23956299,0,0.0,0.0,0.0,0.0
0.879882812,0.14763784,0.23199838,-0.9614467,-0.0631592,0.9723268,0.22492518,0.98702276,0.02751673,0.15820509,0.19460371,0.20585245,-0.9590382,-0.06782674,0.9782142,0.19620539,0.9785341,0.026866136,0.2043264,10.00798,0.2632141,1.6510468,9.679387,0.26984695,1.551462,-0.026947021,0.014160156,-0.014038086,-38.519287,23.519897,-0.23956299,0,0.0,0.0,0.0,0.0
0.888183594,0.1477534,0.23122698,-0.96161485,-0.06309562,0.97250956,0.22415197,0.9870095,0.027554475,0.15828097,0.19366483,0.20637688,-0.9591155,-0.06775893,0.97810334,0.19678067,0.978725,0.02687915,0.20340809,9.98645,0.25842285,1.6163483,9.679257,0.2702171,1.5522062,-0.026947021,-0.039733887,-0.012817383,-38.459778,23.579407,-0.23956299,0,0.0,0.0,0.0,0.0
0.896484375,0.14807485,0.2221469,-0.96370363,-0.061721064,0.9746221,0.21518019,0.9870483,0.027618041,0.15802813,0.19184758,0.20736364,-0.95926785,-0.0676204,0.9778938,0.19786634,0.9790924,0.026905894,0.20162857,9.940979,0.22253418,1.5684967,9.679638,0.27084047,1.5497266,5.493164E-4,-0.06768799,-0.018157959,-38.69934,23.458862,-0.53863525,0,0.0,0.0,0.0,0.0
0.904785156,0.14759131,0.2213433,-0.9639626,-0.06153634,0.9748032,0.21441072,0.98713225,0.027673572,0.15749313,0.19011684,0.20794998,-0.95948553,-0.06741395,0.97776854,0.1985548,0.9794442,0.026934097,0.19990899,9.879959,0.16870117,1.4667969,9.680461,0.27138504,1.5444801,-0.010604858,-0.06906128,-0.019836426,-38.69934,23.458862,-0.53863525,0,0.0,0.0,0.0,0.0
0.913085937,0.14697558,0.22032,-0.96429116,-0.061231904,0.9750351,0.2134419,0.98724306,0.02767463,0.15679693,0.18926774,0.20821825,-0.95959514,-0.0673088,0.9777111,0.19887334,0.97961587,0.026948886,0.19906409,9.796219,0.14955139,1.4775696,9.681547,0.27139542,1.5376527,-0.010604858,-0.06585693,-0.019683838,-38.69934,23.458862,-0.53863525,0,0.0,0.0,0.0,0.0
0.921386719,0.14625216,0.22289959,-0.96380806,-0.061448805,0.97444975,0.21603619,0.987337,0.027629104,0.15621229,0.18759584,0.2086981,-0.9598192,-0.06708997,0.977608,0.1994533,0.9799524,0.026977628,0.19739674,9.814163,0.23330688,1.4763641,9.682468,0.27094895,1.5319192,-0.04649353,-0.03149414,-0.00730896,-38.819885,23.399353,-0.47912598,0,0.0,0.0,0.0,0.0
0.9296875,0.14589275,0.22229937,-0.9640011,-0.061273534,0.9745867,0.21546723,0.98740107,0.027632656,0.15580621,0.18677005,0.20898256,-0.9599183,-0.06698982,0.9775468,0.1997863,0.98011696,0.026990658,0.19657618,9.814163,0.23330688,1.4763641,9.683097,0.2709838,1.527937,-0.06253052,-0.020202637,-0.012664795,-38.819885,23.399353,-0.47912598,0,0.0,0.0,0.0,0.0
0.937988281,0.1464378,0.21073593,-0.9665125,-0.059541054,0.9771514,0.20403445,0.98742634,0.027668817,0.15563932,0.18515337,0.20951067,-0.9601164,-0.06678635,0.977433,0.20041002,0.9804376,0.02701608,0.19496748,9.857239,0.2871399,1.4691925,9.683345,0.2713384,1.5263003,-0.08482361,0.017532349,-0.019683838,-38.819885,23.399353,-0.7797241,0,0.0,0.0,0.0,0.0
0.946289062,0.14605498,0.21757539,-0.9650538,-0.060526095,0.9756525,0.21080466,0.9874231,0.027621869,0.1556679,0.18362525,0.20955923,-0.9603992,-0.066503085,0.97742194,0.2005584,0.9807442,0.027041929,0.19341569,9.911072,0.22612,1.4823608,9.683313,0.27087802,1.5265807,-0.10467529,0.02607727,-0.01586914,-38.819885,23.399353,-0.5996704,0,0.0,0.0,0.0,0.0
0.954589844,0.14616236,0.217755,-0.964997,-0.0605153,0.9756143,0.21098493,0.987408,0.027559029,0.15577562,0.18287528,0.20971969,-0.9605073,-0.06639041,0.9773872,0.20076492,0.9808919,0.027053528,0.19266334,9.911072,0.22612,1.4823608,9.683165,0.27026176,1.527637,-0.108795166,0.029891968,-0.016479492,-38.819885,23.399353,-0.5996704,0,0.0,0.0,0.0,0.0
0.962890625,0.1462499,0.21790141,-0.9649508,-0.060512163,0.975583,0.21113098,0.9873952,0.027513376,0.15586458,0.18142398,0.21003817,-0.9607129,-0.06617075,0.9773182,0.20117268,0.98117626,0.027073545,0.19120735,9.915863,0.23330688,1.4584198,9.68304,0.26981404,1.5285095,-0.10467529,0.023788452,-0.021209717,-38.819885,23.399353,-0.5996704,0,0.0,0.0,0.0,0.0
0.971191406,0.14632004,0.21903087,-0.9646844,-0.060698133,0.97533035,0.21224155,0.98737335,0.02749935,0.15600513,0.18003333,0.21034981,-0.9609063,-0.06595883,0.97725075,0.20156983,0.98144656,0.027090963,0.18981214,9.9039,0.23091125,1.4955139,9.682825,0.2696765,1.5298878,-0.085739136,0.027297974,-0.02243042,-38.75885,23.519897,-0.53863525,0,0.0,0.0,0.0,0.0
0.979492187,0.14645286,0.21925135,-0.96461415,-0.060771305,0.9752806,0.21244915,0.98734915,0.027507072,0.15615682,0.17935997,0.21052362,-0.9609942,-0.06586013,0.97721314,0.20178454,0.9815765,0.027099133,0.18913803,9.9039,0.23091125,1.4955139,9.682588,0.26975223,1.5313753,-0.07778931,0.02760315,-0.02243042,-38.75885,23.519897,-0.53863525,0,0.0,0.0,0.0,0.0
0.987792969,0.14796408,0.19539678,-0.96949816,-0.05729652,0.9803356,0.18883644,0.9873316,0.027607866,0.15624999,0.17805852,0.21086954,-0.9611603,-0.06567098,0.97713804,0.2022091,0.98182607,0.027115287,0.18783577,9.952942,0.26081848,1.5122681,9.682415,0.27074066,1.5322889,-0.042373657,0.0022583008,-0.031143188,-38.75885,23.399353,-1.1993408,0,0.0,0.0,0.0,0.0
0.99609375,0.14802994,0.19247988,-0.97007143,-0.057007544,0.9809076,0.18593079,0.9873384,0.027778069,0.1561765,0.17687453,0.2102578,-0.96151286,-0.06532215,0.9772693,0.20168704,0.98206335,0.027134795,0.18658854,9.957733,0.20578003,1.5266266,9.682483,0.2724098,1.5315683,-0.012130737,-0.030731201,-0.034347534,-38.519287,23.579407,-1.1993408,0,0.0,0.0,0.0,0.0
1.004394531,0.14777523,0.19205756,-0.9701939,-0.05704246,0.98098606,0.18550552,0.9873746,0.027929127,0.15592091,0.17630164,0.2099029,-0.9616957,-0.065145925,0.9773452,0.20137584,0.98217803,0.02714766,0.1859819,9.957733,0.20578003,1.5266266,9.6828375,0.27389118,1.5290618,-0.0023498535,-0.044937134,-0.041519165,-38.519287,23.579407,-1.1993408,0,0.0,0.0,0.0,0.0
1.012695312,0.14739811,0.19143231,-0.9703749,-0.05720728,0.98109865,0.18485819,0.9874214,0.02826476,0.15556343,0.17517969,0.20919749,-0.9620543,-0.064805865,0.9774956,0.20075475,0.98240125,0.027178606,0.1847946,9.839279,0.29910278,1.5385895,9.683296,0.2771826,1.5255562,-0.003112793,-0.053482056,-0.03831482,-38.519287,23.579407,-1.1993408,0,0.0,0.0,0.0,0.0
1.020996094,0.14736252,0.18406495,-0.9718047,-0.05628378,0.98249984,0.17755592,0.9874798,0.028531753,0.15514353,0.17408673,0.20849524,-0.9624051,-0.064486295,0.9776445,0.20013197,0.9826166,0.027221618,0.18364003,9.84407,0.2596283,1.5385895,9.683869,0.27980092,1.5214384,-0.05458069,-0.043411255,-0.03541565,-38.69934,23.699951,-1.3793945,0,0.0,0.0,0.0,0.0
1.029296875,0.14698978,0.18344621,-0.97197807,-0.056320548,0.9826097,0.17693555,0.98753333,0.02873462,0.1547654,0.17355675,0.20800784,-0.96260625,-0.06430923,0.97774756,0.19968483,0.9827219,0.027247822,0.18307151,9.84407,0.2596283,1.5385895,9.684394,0.28179038,1.5177301,-0.05458069,-0.033477783,-0.030380249,-38.69934,23.699951,-1.3793945,0,0.0,0.0,0.0,0.0
1.037597656,0.14681683,0.17986074,-0.97267413,-0.05582913,0.98326904,0.17339295,0.9875869,0.028846543,0.15440193,0.17251316,0.20703755,-0.9630029,-0.063967586,0.9779519,0.19879223,0.982928,0.0273067,0.18195325,9.832108,0.2644043,1.4273224,9.684919,0.28288797,1.5141656,-0.101623535,-0.0015563965,-0.016479492,-38.63983,23.75946,-1.4389038,0,0.0,0.0,0.0,0.0
1.045898437,0.14634539,0.18464711,-0.97184795,-0.05651721,0.9823811,0.17813775,0.98761773,0.028856497,0.1542027,0.17150451,0.20596421,-0.9634132,-0.06361805,0.9781768,0.19779532,0.9831272,0.02736768,0.18086477,9.856033,0.27278137,1.401001,9.685222,0.28298557,1.5122119,-0.13215637,0.019210815,-0.011291504,-38.63983,23.999023,-1.2588501,0,0.0,0.0,0.0,0.0
1.054199219,0.1463254,0.18461445,-0.97185713,-0.05643919,0.98238933,0.17811751,0.98762524,0.028787715,0.15416801,0.17100488,0.20553876,-0.9635928,-0.06346536,0.9782654,0.19740556,0.983224,0.027397456,0.18033274,9.856033,0.27278137,1.401001,9.685295,0.28231105,1.5118717,-0.1355133,0.030654907,-0.009902954,-38.63983,23.999023,-1.2588501,0,0.0,0.0,0.0,0.0
1.0625,0.14642124,0.18477106,-0.97181296,-0.056333914,0.9823641,0.17828943,0.98761696,0.02864067,0.15424785,0.17003427,0.20471184,-0.96394056,-0.06316721,0.97843724,0.1966481,0.98341155,0.027452512,0.17929894,9.9015045,0.2416687,1.414154,9.685214,0.28086904,1.5126548,-0.13032532,0.039978027,-0.012054443,-38.63983,23.999023,-1.2588501,0,0.0,0.0,0.0,0.0
1.070800781,0.14619552,0.19193245,-0.970458,-0.057297483,0.98099405,0.1853846,0.98759496,0.028502405,0.15441419,0.16956513,0.20431381,-0.9641077,-0.063021176,0.9785198,0.196284,0.9835019,0.027476275,0.17879891,9.9015045,0.2416687,1.414154,9.6849985,0.27951312,1.5142859,-0.12528992,0.04776001,-0.0119018555,-38.75885,23.75946,-1.1398315,0,0.0,0.0,0.0,0.0
1.079101562,0.14644893,0.19235167,-0.97033685,-0.057364333,0.98091346,0.18579054,0.98755354,0.028453898,0.15468785,0.16864379,0.20382409,-0.9643728,-0.06278364,0.9786207,0.19585621,0.9836755,0.027516909,0.17783514,9.954147,0.28115845,1.483551,9.684592,0.27903742,1.5169697,-0.10681152,0.030349731,-0.018310547,-38.75885,23.75946,-1.1398315,0,0.0,0.0,0.0,0.0
1.087402344,0.14714772,0.18513878,-0.9716333,-0.056263875,0.9823026,0.17865093,0.987513,0.028379774,0.1549602,0.1677687,0.2033703,-0.9646213,-0.06255953,0.9787141,0.19546103,0.98383945,0.027554013,0.17692034,9.988831,0.23568726,1.6079712,9.684195,0.2783105,1.5196404,-0.075042725,-0.015914917,-0.012359619,-38.75885,23.878479,-1.3198853,0,0.0,0.0,0.0,0.0
1.095703125,0.14714883,0.18514061,-0.9716327,-0.05621072,0.9823037,0.1786611,0.98751587,0.028326401,0.15495174,0.16735889,0.20300634,-0.9647692,-0.062426154,0.9787892,0.19512735,0.98391765,0.027570527,0.17648196,9.988831,0.23568726,1.6079712,9.684222,0.2777871,1.5195574,-0.052597046,-0.036071777,-0.013122559,-38.75885,23.878479,-1.3198853,0,0.0,0.0,0.0,0.0
1.104003906,0.14691429,0.18373327,-0.9719353,-0.055860892,0.9825702,0.17729995,0.98757064,0.028245276,0.15461713,0.16656356,0.20230007,-0.96505505,-0.062166136,0.9789345,0.19448002,0.98406905,0.02760046,0.17563103,9.940979,0.18185425,1.5385895,9.68476,0.27699155,1.5162761,-0.022201538,-0.0625,-0.02029419,-38.819885,24.058533,-1.3198853,0,0.0,0.0,0.0,0.0
1.112304687,0.14642854,0.18293722,-0.97215885,-0.055633478,0.9827192,0.17654479,0.9876556,0.02823338,0.15407553,0.16579045,0.20156616,-0.9653417,-0.061902367,0.97908527,0.19380456,0.9842163,0.027625993,0.17480041,9.871582,0.18304443,1.4811554,9.685593,0.27687487,1.5109649,-0.011520386,-0.059295654,-0.021820068,-38.819885,24.058533,-1.3198853,0,0.0,0.0,0.0,0.0
1.120605469,0.14446588,0.20706147,-0.96760285,-0.0591209,0.97792006,0.20044237,0.987742,0.028248465,0.15351772,0.16540574,0.20119426,-0.9654853,-0.061769806,0.9791614,0.19346185,0.9842893,0.027638141,0.17438664,9.871582,0.18304443,1.4811554,9.68644,0.2770228,1.5054946,0.0057373047,-0.05470276,-0.017242432,-38.63983,23.878479,-0.6591797,0,0.0,0.0,0.0,0.0
1.12890625,0.14399385,0.20629115,-0.96783763,-0.058980152,0.97808045,0.19969937,0.9878193,0.02832773,0.15300466,0.16457723,0.20142676,-0.9655784,-0.0616701,0.9791129,0.19373886,0.9844345,0.02766231,0.17356169,9.858429,0.24885559,1.450058,9.687199,0.27780014,1.5004631,-0.0021972656,-0.04020691,-0.010070801,-38.63983,23.878479,-0.6591797,0,0.0,0.0,0.0,0.0
1.137207031,0.14366782,0.20316896,-0.9685463,-0.05852499,0.9787307,0.1966241,0.98789394,0.028435605,0.15250258,0.16376284,0.20161948,-0.9656766,-0.061567847,0.9790725,0.19397543,0.98457664,0.027688663,0.17274897,9.836899,0.29312134,1.3471527,9.68793,0.27885804,1.4955394,-0.016860962,-0.0137786865,-0.010513306,-38.69934,23.939514,-0.71868896,0,0.0,0.0,0.0,0.0
1.145507812,0.1433259,0.20261118,-0.9687137,-0.058445707,0.978844,0.19608265,0.9879483,0.028513443,0.15213545,0.16336153,0.20165046,-0.96573806,-0.061507825,0.97906566,0.19402882,0.98464704,0.027703604,0.17234476,9.836899,0.29312134,1.3471527,9.688463,0.27962136,1.4919392,-0.036712646,0.0053100586,-0.010986328,-38.69934,23.939514,-0.71868896,0,0.0,0.0,0.0,0.0
1.153808594,0.14226204,0.21795547,-0.96553445,-0.060727514,0.97554004,0.21126649,0.9879644,0.02857931,0.15201823,0.16256918,0.2016885,-0.9658638,-0.061387673,0.97905695,0.19411097,0.9847857,0.027735673,0.17154568,9.854843,0.30389404,1.401001,9.6886215,0.2802673,1.4907897,-0.06037903,0.025161743,-0.010070801,-38.578796,24.119568,-0.23956299,0,0.0,0.0,0.0,0.0
1.162109375,0.14236282,0.21811718,-0.96548307,-0.060747977,0.97550476,0.21142378,0.98794866,0.02855226,0.15212582,0.16176511,0.20233378,-0.9658639,-0.06137444,0.97892284,0.19479029,0.9849189,0.02776908,0.1707737,9.847656,0.26679993,1.4452667,9.688467,0.28000203,1.4918447,-0.089401245,0.044555664,9.3078613E-4,-38.578796,24.119568,-0.23956299,0,0.0,0.0,0.0,0.0
1.170410156,0.14169867,0.23255464,-0.9622057,-0.06280783,0.97216713,0.22571285,0.98791534,0.028450837,0.15236104,0.16137707,0.20265,-0.9658625,-0.061368067,0.978857,0.19512297,0.98498297,0.027784744,0.17040132,9.847656,0.26679993,1.4452667,9.68814,0.2790074,1.4941514,-0.102371216,0.045013428,0.002609253,-38.578796,23.999023,0.119018555,0,0.0,0.0,0.0,0.0
1.178710937,0.1421021,0.23320208,-0.9619895,-0.06279923,0.972018,0.22635666,0.98785794,0.02824645,0.1527707,0.16059804,0.20383807,-0.9657423,-0.06144726,0.9786095,0.19633554,0.98510534,0.02781112,0.16968806,9.870392,0.23210144,1.5672913,9.687577,0.27700305,1.4981688,-0.10620117,0.020889282,0.0013885498,-38.578796,23.999023,0.119018555,0,0.0,0.0,0.0,0.0
1.187011719,0.14234827,0.23417714,-0.9617162,-0.06275422,0.97179097,0.22734179,0.98782533,0.027990043,0.15302837,0.15986553,0.20500456,-0.965617,-0.06152121,0.9783653,0.19752578,0.98521984,0.027828358,0.16901901,9.976868,0.20100403,1.6211395,9.687258,0.27448857,1.5006957,-0.10650635,-0.03744507,-0.004714966,-38.578796,23.939514,0.119018555,0,0.0,0.0,0.0,0.0
1.1953125,0.14234214,0.23416726,-0.96171945,-0.06252283,0.97179973,0.2273678,0.9878409,0.0277654,0.15296887,0.15951508,0.2055899,-0.9655505,-0.061555754,0.9782424,0.19812293,0.9852745,0.027831592,0.16869967,9.976868,0.20100403,1.6211395,9.68741,0.27228558,1.5001122,-0.09916687,-0.05180359,-0.010070801,-38.578796,23.939514,0.119018555,0,0.0,0.0,0.0,0.0
1.203613281,0.14183088,0.23690446,-0.96112454,-0.062666714,0.9711411,0.23012583,0.9879053,0.027591567,0.15258381,0.15883438,0.20672509,-0.96542037,-0.061612464,0.9780032,0.19928275,0.98538095,0.02782897,0.16807738,9.927826,0.19142151,1.5481567,9.688042,0.27058086,1.496336,-0.07366943,-0.0687561,-0.012359619,-38.459778,24.238586,0.29907227,0,0.0,0.0,0.0,0.0
1.211914062,0.1412714,0.23602043,-0.96142435,-0.06226679,0.9713597,0.22931,0.9880107,0.027469862,0.15192159,0.15816036,0.20792416,-0.96527344,-0.061673418,0.9777493,0.20050628,0.98548555,0.02781957,0.16746457,9.897903,0.18902588,1.4117584,9.689075,0.26938733,1.4898418,-0.06022644,-0.04890442,-0.016326904,-38.459778,24.238586,0.29907227,0,0.0,0.0,0.0,0.0
1.220214844,0.1407654,0.2352209,-0.9616945,-0.061936527,0.9715559,0.22856712,0.9881037,0.027389675,0.15133022,0.1578221,0.20848785,-0.9652072,-0.06169449,0.9776294,0.20108335,0.9855384,0.027812574,0.16715409,9.897903,0.18902588,1.4117584,9.689987,0.26860097,1.4840425,-0.057632446,-0.038986206,-0.015411377,-38.459778,24.238586,0.29907227,0,0.0,0.0,0.0,0.0
1.228515625,0.14032778,0.23452939,-0.9619273,-0.06169473,0.97172385,0.22791778,0.9881811,0.027362645,0.15082909,0.15714565,0.20954962,-0.96508765,-0.061721347,0.97740287,0.2021735,0.9856449,0.027795829,0.1665283,9.859619,0.19979858,1.3268127,9.690746,0.26833588,1.4791281,-0.043884277,0.0043945313,-0.016479492,-38.459778,24.238586,0.29907227,0,0.0,0.0,0.0,0.0
1.236816406,0.13959233,0.24282627,-0.95997363,-0.06284806,0.96968365,0.23614353,0.9882126,0.027368665,0.15062155,0.15647867,0.21054155,-0.9649801,-0.061736286,0.97719014,0.20319454,0.98575,0.027778674,0.16590747,9.872787,0.2141571,1.3842468,9.691055,0.26839492,1.4770929,-0.0335083,0.020736694,-0.010070801,-38.459778,24.238586,0.53863525,0,0.0,0.0,0.0,0.0
1.245117187,0.13956656,0.24278569,-0.95998776,-0.06281513,0.96969444,0.23610827,0.9882183,0.027348928,0.15058751,0.15614057,0.21118963,-0.9648933,-0.061769016,0.9770505,0.20385498,0.9858015,0.027770475,0.1656022,9.872787,0.2141571,1.3842468,9.691112,0.26820138,1.4767591,-0.023590088,0.035079956,-0.0077667236,-38.459778,24.238586,0.53863525,0,0.0,0.0,0.0,0.0
1.253417969,0.1397115,0.2419935,-0.9601665,-0.062737934,0.96989185,0.23531577,0.9882027,0.027362544,0.15068725,0.15548347,0.21244526,-0.9647237,-0.06182999,0.97677875,0.20513487,0.9859016,0.02775378,0.16500846,9.88475,0.24526978,1.3866425,9.690958,0.2683349,1.4777371,-0.02281189,0.04714966,-0.01373291,-38.69934,24.479675,0.53863525,0,0.0,0.0,0.0,0.0
1.26171875,0.1399331,0.24234118,-0.96004665,-0.06294468,0.96980256,0.2356292,0.9881582,0.02745751,0.15096153,0.15485823,0.21361926,-0.96456504,-0.06188339,0.9765231,0.20633239,0.9859966,0.027738286,0.16444212,10.001999,0.29670715,1.475174,9.690522,0.2692662,1.480427,-0.017623901,0.031570435,-0.016784668,-38.69934,24.479675,0.53863525,0,0.0,0.0,0.0,0.0
1.270019531,0.1391512,0.25698215,-0.95634574,-0.06523104,0.9660225,0.25009108,0.9881204,0.027582945,0.15118639,0.15455934,0.21419561,-0.9644852,-0.061912835,0.97639704,0.20691946,0.9860417,0.027732672,0.16417274,10.001999,0.29670715,1.475174,9.69015,0.27049628,1.4826319,-0.01335144,0.015533447,-0.023956299,-38.69934,24.299622,0.8987427,0,0.0,0.0,0.0,0.0
1.278320312,0.1392202,0.25709057,-0.9563066,-0.06539488,0.96599,0.2501736,0.9880998,0.027708335,0.15129772,0.1539501,0.21589842,-0.9642029,-0.06206794,0.97602206,0.20863478,0.98612726,0.027726743,0.16365907,9.962524,0.2679901,1.4990997,9.689949,0.27172595,1.4837238,-0.03137207,-0.0043182373,-0.017547607,-38.69934,24.299622,0.8987427,0,0.0,0.0,0.0,0.0
1.286621094,0.13953583,0.25145584,-0.95775765,-0.06467296,0.9674691,0.24458334,0.9881028,0.027812894,0.15125898,0.15336779,0.21753752,-0.96392727,-0.062221464,0.9756581,0.21028504,0.9862083,0.027726013,0.16317002,9.933807,0.23091125,1.5302124,9.689979,0.27275133,1.4833438,-0.053207397,-0.020339966,-0.012969971,-38.63983,24.179077,0.71868896,0,0.0,0.0,0.0,0.0
1.294921875,0.13945095,0.25132164,-0.9578053,-0.06462611,0.9675041,0.24445736,0.9881179,0.027809415,0.1511613,0.1530914,0.21821861,-0.96381724,-0.06227929,0.97550595,0.2109727,0.98624754,0.027727751,0.16293205,9.933807,0.23091125,1.5302124,9.690126,0.2727172,1.482386,-0.06436157,-0.026763916,-0.013122559,-38.63983,24.179077,0.71868896,0,0.0,0.0,0.0,0.0
1.303222656,0.13976377,0.24257901,-0.9600112,-0.06330647,0.9697328,0.235819,0.9881591,0.02781597,0.15089035,0.15255164,0.21953456,-0.9636039,-0.062388685,0.97521055,0.21230187,0.9863243,0.027730986,0.16246644,9.930206,0.24406433,1.4392853,9.690531,0.2727815,1.4797288,-0.08451843,-0.016525269,-0.020446777,-38.578796,24.35913,0.53863525,0,0.0,0.0,0.0,0.0
1.311523437,0.13948677,0.24214366,-0.96016145,-0.06310551,0.96984345,0.23541774,0.98821104,0.027753808,0.15056092,0.15204486,0.22044954,-0.96347517,-0.062436022,0.975004,0.21323447,0.98639953,0.027734352,0.16200833,9.887146,0.18902588,1.3686981,9.69104,0.27217188,1.4764982,-0.098861694,-0.005844116,-0.018157959,-38.578796,24.35913,0.53863525,0,0.0,0.0,0.0,0.0
1.319824219,0.13876313,0.24973884,-0.958319,-0.06405865,0.9679177,0.24296466,0.98825157,0.027674079,0.15030922,0.15179351,0.22088452,-0.96341515,-0.06245468,0.97490555,0.21367873,0.9864371,0.027734742,0.16177961,9.887146,0.18902588,1.3686981,9.691438,0.27139002,1.4740299,-0.09703064,0.0024108887,-0.020751953,-38.63983,23.999023,0.6591797,0,0.0,0.0,0.0,0.0
1.328125,0.13865301,0.24956323,-0.9583807,-0.06394118,0.9679647,0.24280828,0.9882747,0.027613893,0.15016857,0.1512774,0.22203103,-0.9632328,-0.06253204,0.97464514,0.21484087,0.98651147,0.027732342,0.16132581,9.891922,0.2033844,1.360321,9.691665,0.27079982,1.4726508,-0.10498047,0.02607727,-0.015106201,-38.63983,23.999023,0.6591797,0,0.0,0.0,0.0,0.0
1.336425781,0.13928834,0.24016821,-0.9606862,-0.06262349,0.97033775,0.23350139,0.9882697,0.027637508,0.15019691,0.15077718,0.2231248,-0.9630584,-0.062600635,0.97439545,0.21595061,0.98658365,0.02772765,0.16088434,9.873978,0.275177,1.3866425,9.691615,0.27103138,1.4729285,-0.10360718,0.032333374,-0.026245117,-38.69934,23.878479,0.35858154,0,0.0,0.0,0.0,0.0
1.344726562,0.13936992,0.24029976,-0.9606415,-0.062698774,0.97030425,0.23362051,0.9882534,0.027671365,0.15029773,0.15054715,0.22346635,-0.96301526,-0.06260493,0.9743172,0.21630202,0.9866186,0.027725847,0.16067077,9.873978,0.275177,1.3866425,9.691456,0.2713634,1.4739172,-0.10284424,0.032333374,-0.026245117,-38.69934,23.878479,0.35858154,0,0.0,0.0,0.0,0.0
1.353027344,0.13945726,0.2416049,-0.96030134,-0.06302802,0.9699772,0.2348862,0.98822016,0.02776931,0.15049827,0.15032344,0.2238037,-0.96297187,-0.06261049,0.9742399,0.21664874,0.9866524,0.027724758,0.16046354,9.923035,0.28355408,1.4404755,9.69113,0.2723239,1.4758838,-0.10269165,0.03753662,-0.0309906,-38.99994,23.699951,0.29907227,0,0.0,0.0,0.0,0.0
1.361328125,0.13977866,0.24213153,-0.960122,-0.06320607,0.96984553,0.23538189,0.9881634,0.027784172,0.15086791,0.149684,0.22485267,-0.9628271,-0.06264566,0.9739982,0.2177224,0.9867473,0.02772738,0.159878,9.9062805,0.21774292,1.5457611,9.690573,0.27246967,1.4795088,-0.07672119,0.037368774,-0.021209717,-38.99994,23.699951,0.29907227,0,0.0,0.0,0.0,0.0
1.369628906,0.13973778,0.24818276,-0.95858157,-0.06416871,0.9683146,0.24134846,0.9881071,0.02778544,0.15123571,0.14948587,0.22519895,-0.96277696,-0.0626602,0.97391814,0.21807599,0.9867764,0.027728517,0.15969802,9.9062805,0.21774292,1.5457611,9.690021,0.2724821,1.4831158,-0.07458496,0.033096313,-0.026855469,-38.99994,23.579407,0.4196167,0,0.0,0.0,0.0,0.0
1.377929687,0.14000922,0.24862894,-0.95842636,-0.06429043,0.9682007,0.24177285,0.9880608,0.027767207,0.15154149,0.1492909,0.2256599,-0.96269923,-0.06269458,0.9738114,0.21854226,0.9868037,0.027729653,0.15952884,9.933807,0.18424988,1.5397797,9.689567,0.27230328,1.4861144,-0.06893921,0.023788452,-0.030380249,-38.99994,23.579407,0.4196167,0,0.0,0.0,0.0,0.0
1.386230469,0.14011508,0.24880295,-0.9583657,-0.064461075,0.96815276,0.24191944,0.9880347,0.02788072,0.15169092,0.14892349,0.22657198,-0.96254194,-0.06276553,0.9735996,0.21946383,0.98685473,0.02773114,0.15921274,9.908676,0.23449707,1.5122681,9.68931,0.27341646,1.4875796,-0.042816162,0.004547119,-0.03678894,-38.99994,23.579407,0.4196167,0,0.0,0.0,0.0,0.0
1.39453125,0.14060445,0.24130611,-0.96020913,-0.0635573,0.97004324,0.23447071,0.98802376,0.028060678,0.15172917,0.14857481,0.22745465,-0.9623876,-0.06283975,0.97339356,0.22035456,0.9869026,0.02773706,0.15891495,9.908676,0.23449707,1.5122681,9.689203,0.27518126,1.4879549,-0.020370483,8.8500977E-4,-0.043045044,-38.938904,23.399353,0.17852783,0,0.0,0.0,0.0,0.0
1.402832031,0.14058179,0.240147,-0.96050316,-0.063596696,0.9703244,0.23329434,0.9880244,0.028287886,0.15168248,0.14841536,0.22773215,-0.9623467,-0.06285622,0.97332853,0.2206371,0.98692554,0.027743535,0.15877128,9.909882,0.23568726,1.4871368,9.68921,0.2774094,1.487497,-0.020828247,-0.007522583,-0.03755188,-39.05945,23.579407,0.17852783,0,0.0,0.0,0.0,0.0
1.411132812,0.14051217,0.24003197,-0.960542,-0.06368323,0.9703492,0.23316686,0.9880287,0.028407628,0.15163189,0.1481052,0.22822452,-0.96227765,-0.06288919,0.97321254,0.2211386,0.98697,0.02776509,0.1584907,9.911072,0.17228699,1.5122681,9.689252,0.27858368,1.487001,-0.029846191,-0.0066070557,-0.03541565,-39.05945,23.579407,0.17852783,0,0.0,0.0,0.0,0.0
1.419433594,0.14122988,0.22720113,-0.9635526,-0.06192352,0.9734297,0.22045386,0.98803824,0.0285319,0.15154648,0.14780468,0.22869276,-0.9622128,-0.06292401,0.9731019,0.22161512,0.98701286,0.027790535,0.15821926,9.836899,0.21655273,1.4895325,9.689345,0.27980235,1.4861633,-0.046340942,-8.087158E-4,-0.024261475,-38.938904,23.699951,-0.119018555,0,0.0,0.0,0.0,0.0
1.427734375,0.14115085,0.22707109,-0.96359485,-0.062031362,0.97345585,0.22030827,0.98804283,0.028676406,0.15148968,0.14767316,0.22866292,-0.96224004,-0.06290379,0.9731085,0.22159195,0.98703384,0.027805362,0.15808576,9.829712,0.27397156,1.4680023,9.68939,0.28121948,1.4856062,-0.06512451,0.012481689,-0.025482178,-38.938904,23.699951,-0.119018555,0,0.0,0.0,0.0,0.0
1.436035156,0.14110772,0.22700012,-0.9636179,-0.06211662,0.9734693,0.22022475,0.9880436,0.028781276,0.15146454,0.14741512,0.22859989,-0.9622946,-0.06286886,0.9731223,0.22154114,0.9870746,0.027839856,0.15782475,9.877579,0.2859497,1.4225311,9.689398,0.2822479,1.4853597,-0.07748413,0.015991211,-0.020141602,-38.938904,23.699951,-0.119018555,0,0.0,0.0,0.0,0.0
1.444335937,0.14043313,0.23761855,-0.9611534,-0.06368652,0.9709311,0.23073065,0.98803973,0.028810289,0.15148401,0.1471655,0.22853655,-0.96234787,-0.062838696,0.9731362,0.22148903,0.98711383,0.027877135,0.15757301,9.877579,0.26679993,1.405777,9.689361,0.28253245,1.4855509,-0.086502075,0.022872925,-0.012817383,-38.879395,23.699951,0.17852783,0,0.0,0.0,0.0,0.0
1.452636719,0.14081411,0.23068415,-0.9627857,-0.0626368,0.97260296,0.2238753,0.9880526,0.028781012,0.15140551,0.14703092,0.22871836,-0.9623252,-0.06285682,0.97309285,0.22167382,0.9871327,0.027895799,0.15745124,9.865601,0.24645996,1.3292084,9.6894865,0.2822453,1.4847809,-0.086502075,0.0054626465,-0.019226074,-38.69934,24.119568,0.119018555,0,0.0,0.0,0.0,0.0
1.4609375,0.14063689,0.23040028,-0.9628796,-0.06255621,0.9726701,0.22360611,0.98808295,0.028786821,0.15120624,0.14678484,0.22879623,-0.9623443,-0.062848605,0.97307354,0.2217609,0.98716974,0.027930854,0.15721197,9.865601,0.24645996,1.3292084,9.689784,0.2823023,1.4828267,-0.023727417,-0.006454468,-0.025634766,-38.69934,24.119568,0.119018555,0,0.0,0.0,0.0,0.0
1.469238281,0.14040263,0.23517196,-0.9617594,-0.06344095,0.97152215,0.22829774,0.98805994,0.028961329,0.15132381,0.14654157,0.22885977,-0.9623662,-0.062837444,0.9730576,0.2218339,0.9872067,0.02796475,0.15697436,9.873978,0.324234,1.5768738,9.689558,0.28401363,1.4839797,0.005279541,0.034317017,-0.007461548,-38.75885,24.119568,0.23956299,0,0.0,0.0,0.0,0.0
1.477539062,0.14056669,0.23543473,-0.9616712,-0.06363483,0.97145516,0.22852857,0.98802406,0.02907228,0.15153609,0.14641887,0.22898611,-0.96235484,-0.06285028,0.97302735,0.22196312,0.98722404,0.027984682,0.1568614,9.920639,0.30747986,1.5433655,9.689206,0.28510168,1.4860615,-0.020217896,0.025924683,1.6784668E-4,-38.75885,24.119568,0.23956299,0,0.0,0.0,0.0,0.0
1.485839844,0.14062288,0.24032877,-0.96045166,-0.06416947,0.97026396,0.23338878,0.98798156,0.028811863,0.15186307,0.14618723,0.22924168,-0.96232927,-0.06288276,0.97296596,0.222223,0.9872563,0.028027752,0.15665054,9.958923,0.122039795,1.6319122,9.688789,0.28254786,1.489268,-0.08114624,0.0011901855,0.0036773682,-38.459778,24.41864,0.47912598,0,0.0,0.0,0.0,0.0
1.494140625,0.14090583,0.24077143,-0.96029925,-0.06395489,0.9701644,0.2338607,0.98795515,0.028463498,0.15210034,0.14596707,0.22968133,-0.9622578,-0.06293596,0.97286135,0.22266538,0.98728544,0.028058806,0.15646093,9.951752,0.14356995,1.6701965,9.688531,0.27913156,1.4915948,-0.12696838,-0.01713562,0.013458252,-38.459778,24.41864,0.47912598,0,0.0,0.0,0.0,0.0
1.502441406,0.14200209,0.22693257,-0.9635024,-0.061546996,0.973507,0.22021806,0.9879511,0.028029256,0.15220706,0.14586586,0.22990344,-0.9622201,-0.06295738,0.97280866,0.22288945,0.9872991,0.0280669,0.15637368,9.974487,0.22013855,1.4476624,9.688491,0.2748731,1.4926414,-0.13520813,-0.027526855,0.010391235,-38.09967,24.598694,0.17852783,0,0.0,0.0,0.0,0.0
1.510742187,0.14164588,0.22638218,-0.9636844,-0.061089486,0.9736434,0.21974252,0.9880307,0.027745359,0.15174215,0.14571297,0.22978581,-0.9622714,-0.06290108,0.97283643,0.22278385,0.98732525,0.02806541,0.15620868,9.894318,0.23928833,1.3172455,9.689271,0.27208903,1.4880822,-0.13169861,-0.03929138,-0.0054779053,-38.09967,24.598694,0.17852783,0,0.0,0.0,0.0,0.0
1.519042969,0.1411662,0.22657003,-0.9637106,-0.060841464,0.9736043,0.21998389,0.9881146,0.027579278,0.15122487,0.14555214,0.22965108,-0.9623279,-0.06282881,0.9728687,0.22266369,0.98735356,0.028052734,0.15603182,9.894318,0.23928833,1.3172455,9.690094,0.27046034,1.4830093,-0.08328247,-0.021881104,-0.019683838,-38.038635,24.719238,0.23956299,0,0.0,0.0,0.0,0.0
1.52734375,0.14076608,0.2259563,-0.96391314,-0.06062191,0.9737478,0.21940872,0.98818517,0.027548956,0.15076858,0.14537866,0.2295291,-0.96238315,-0.062749594,0.97289795,0.22255786,0.9873842,0.028033989,0.15584147,9.84407,0.22970581,1.3005066,9.690786,0.27016297,1.4785347,-0.02999878,0.004852295,-0.027008057,-38.038635,24.719238,0.23956299,0,0.0,0.0,0.0,0.0
1.535644531,0.14049667,0.22554305,-0.9640493,-0.06055083,0.973842,0.21900967,0.98822784,0.027603857,0.1504784,0.14528657,0.22945768,-0.96241415,-0.062706724,0.9729151,0.22249506,0.9874005,0.028024288,0.15574005,9.9015045,0.22612,1.3351898,9.691205,0.27070138,1.4756889,3.9672852E-4,0.004852295,-0.027008057,-38.038635,24.719238,0.23956299,0,0.0,0.0,0.0,0.0
1.543945312,0.14090161,0.21651354,-0.9660583,-0.059382826,0.9758846,0.21005471,0.9882411,0.027770225,0.1503609,0.14519095,0.22937942,-0.9624472,-0.062663235,0.9729338,0.22242554,0.9874173,0.02801588,0.15563485,9.909882,0.24526978,1.3914337,9.691335,0.27233288,1.4745368,3.9672852E-4,0.009124756,-0.031906128,-37.799072,24.598694,0.0,0,0.0,0.0,0.0,0.0
1.552246094,0.14031762,0.22535513,-0.9641193,-0.06091609,0.9738734,0.21876936,0.9882309,0.028033182,0.15037934,0.14502245,0.22887069,-0.9625937,-0.06253105,0.9730539,0.22193694,0.9874504,0.028006153,0.15542619,9.929016,0.275177,1.4620209,9.691235,0.2749116,1.4747176,0.03704834,0.014312744,-0.027160645,-38.279724,24.598694,0.17852783,1,0.0,0.0,0.0,0.0
1.560546875,0.14031786,0.22535549,-0.96411926,-0.06122382,0.9738645,0.21872286,0.9882118,0.028336337,0.15044768,0.14483641,0.22873153,-0.96265477,-0.062466465,0.9730866,0.22181174,0.98748183,0.028007222,0.15522642,9.927826,0.30508423,1.4871368,9.691048,0.27788454,1.4753878,0.024673462,0.0037841797,-0.024108887,-38.279724,24.598694,0.17852783,1,0.0,0.0,0.0,0.0
1.568847656,0.14066206,0.21923421,-0.9654795,-0.06058234,0.9752536,0.2126273,0.9882024,0.028582407,0.15046288,0.1447462,0.22866404,-0.96268445,-0.06244132,0.97310233,0.22175007,0.9874967,0.028013805,0.15513094,9.927826,0.30508423,1.4871368,9.690955,0.28029767,1.4755368,0.0036010742,-0.0014190674,-0.019073486,-38.339233,24.598694,0.0,1,0.0,0.0,0.0,0.0
1.577148437,0.14062548,0.21917722,-0.9654978,-0.06066656,0.9752634,0.21255797,0.9882024,0.028682357,0.1504436,0.14458483,0.228291,-0.96279716,-0.062366072,0.9731892,0.22138946,0.98752505,0.028036322,0.15494601,9.96611,0.2524414,1.5254211,9.690955,0.28127784,1.4753478,-0.039001465,-0.01576233,-0.012664795,-38.339233,24.598694,0.0,1,0.0,0.0,0.0,0.0
1.585449219,0.14053978,0.21904366,-0.9655405,-0.060614802,0.97529376,0.21243346,0.9882178,0.028670697,0.15034485,0.14442848,0.22793049,-0.96290606,-0.062297273,0.9732729,0.22104032,0.9875523,0.028061904,0.15476778,9.913467,0.2416687,1.4955139,9.691107,0.2811635,1.4743794,-0.08129883,-0.008285522,-0.0021209717,-38.339233,24.598694,0.0,1,0.0,0.0,0.0,0.0
1.59375,0.1407479,0.21551323,-0.96630436,-0.05993957,0.97608465,0.20896398,0.98822933,0.02850863,0.15029964,0.14435089,0.22775292,-0.9629597,-0.06226287,0.97331417,0.22086847,0.98756576,0.028074078,0.15467931,9.888336,0.22372437,1.5074768,9.691219,0.27957416,1.473936,-0.11260986,7.324219E-4,0.005203247,-38.75885,24.238586,-0.23956299,1,0.0,0.0,0.0,0.0
1.602050781,0.14018369,0.22442758,-0.9643552,-0.06091574,0.97408247,0.21783632,0.98824984,0.028207304,0.15022163,0.14420907,0.22726887,-0.96309525,-0.062169004,0.97342676,0.22039798,0.9875924,0.028091287,0.15450606,9.871582,0.1878357,1.405777,9.691421,0.27661917,1.473171,-0.14163208,0.017532349,0.0047454834,-39.118958,24.179077,-0.059509277,1,0.0,0.0,0.0,0.0
1.610351562,0.14023893,0.22451702,-0.96432626,-0.06064129,0.97407037,0.2179668,0.9882589,0.027910559,0.1502176,0.14404978,0.22715642,-0.96314573,-0.062118933,0.9734529,0.22029674,0.9876188,0.028095884,0.1543364,9.870392,0.2141571,1.3890381,9.691509,0.2737091,1.4731314,-0.13352966,0.02684021,0.006881714,-39.118958,24.179077,-0.059509277,1,0.0,0.0,0.0,0.0
1.618652344,0.14036806,0.22472611,-0.96425873,-0.0604138,0.97403026,0.21820892,0.9882545,0.02762497,0.15029933,0.1439736,0.22710365,-0.9631695,-0.06208917,0.9734653,0.22025025,0.9876318,0.028092178,0.15425399,9.870392,0.2141571,1.3890381,9.691466,0.27090842,1.4739329,-0.1159668,0.033706665,7.7819824E-4,-39.118958,24.179077,-0.059509277,1,0.0,0.0,0.0,0.0
1.626953125,0.14133015,0.21177478,-0.96704566,-0.058412068,0.9769328,0.20540328,0.9882378,0.027457463,0.15044025,0.14383094,0.2270095,-0.96321297,-0.0620225,0.9734878,0.2201696,0.9876567,0.028073676,0.15409736,9.924225,0.24526978,1.3950195,9.691302,0.26926574,1.4753149,-0.065582275,0.0320282,-0.013122559,-39.239502,23.999023,-0.47912598,1,0.0,0.0,0.0,0.0
1.635253906,0.1414634,0.21199399,-0.9669782,-0.058421116,0.97688675,0.2056196,0.9882181,0.027404293,0.15057862,0.14373349,0.22640724,-0.9633693,-0.061877802,0.9736288,0.21958628,0.98768,0.028049273,0.15395264,9.924225,0.24526978,1.3950195,9.69111,0.26874432,1.4766718,-0.010299683,0.019058228,-0.019073486,-39.239502,23.999023,-0.47912598,1,0.0,0.0,0.0,0.0
1.643554687,0.14102697,0.22161014,-0.9648835,-0.059825666,0.9747506,0.21513228,0.98819643,0.027385348,0.15072413,0.14368875,0.22611946,-0.9634436,-0.061807886,0.97369605,0.21930762,0.9876909,0.028036373,0.15388513,9.969696,0.1531372,1.5146637,9.690897,0.26855853,1.4780988,-0.010299683,0.004852295,-0.03892517,-39.59961,23.638916,-0.35858154,1,0.0,0.0,0.0,0.0
1.651855469,0.14070469,0.22666597,-0.96375555,-0.060703613,0.97358334,0.22011487,0.98818886,0.027532248,0.15074718,0.14358363,0.22594096,-0.96350116,-0.06172891,0.9737382,0.21914254,0.98771113,0.028010592,0.15375996,9.909882,0.16630554,1.524231,9.690823,0.26999912,1.4783249,0.048339844,-0.017288208,-0.043045044,-39.839172,23.458862,-0.29907227,1,0.0,0.0,0.0,0.0
1.66015625,0.14056745,0.22643194,-0.9638306,-0.060913607,0.97363,0.2198503,0.9881955,0.027806599,0.15065347,0.14346957,0.22596966,-0.96351135,-0.061688393,0.97373205,0.2191811,0.9877302,0.027991649,0.15364064,9.890732,0.20100403,1.5158539,9.690887,0.27268958,1.4774058,0.021011353,-0.010574341,-0.03816223,-39.839172,23.458862,-0.29907227,1,0.0,0.0,0.0,0.0
1.668457031,0.1404534,0.22623748,-0.9638929,-0.06111271,0.973668,0.21962677,0.98819935,0.028058777,0.15058096,0.14341147,0.22597893,-0.96351784,-0.06167292,0.97373,0.21919455,0.9877397,0.027987948,0.15358084,9.867996,0.20698547,1.5206451,9.690926,0.2751626,1.4766948,0.021011353,-0.0053863525,-0.033584595,-39.839172,23.458862,-0.29907227,1,0.0,0.0,0.0,0.0
1.676757812,0.13996394,0.2323873,-0.9625,-0.062178288,0.97221273,0.22569057,0.9882024,0.02825806,0.15052417,0.1432943,0.22598916,-0.96353287,-0.061650768,0.9737275,0.21921171,0.98775804,0.027990753,0.15346202,9.885941,0.22253418,1.4943237,9.690955,0.2771169,1.4761379,-0.017929077,-0.0024719238,-0.028549194,-40.19928,23.2193,-0.23956299,1,0.0,0.0,0.0,0.0
1.685058594,0.13990487,0.2322847,-0.96253335,-0.06227948,0.97223353,0.22557323,0.98820436,0.028387284,0.15048677,0.1432278,0.22611724,-0.96351266,-0.061661743,0.97369766,0.21934131,0.987767,0.0279961,0.15340336,9.885941,0.22253418,1.4943237,9.690975,0.27838418,1.4757712,-0.029846191,-0.0067596436,-0.024871826,-40.19928,23.2193,-0.23956299,1,0.0,0.0,0.0,0.0
1.693359375,0.13969804,0.23313877,-0.9623568,-0.06247102,0.972026,0.22641276,0.9882215,0.028490003,0.15035455,0.14309628,0.22636165,-0.9634749,-0.061686967,0.9736405,0.21958816,0.9877845,0.028011592,0.1532879,9.902695,0.26679993,1.4392853,9.691143,0.2793915,1.4744744,-0.051071167,-0.0027923584,-0.010986328,-40.19928,23.098755,-0.23956299,1,0.0,0.0,0.0,0.0
1.701660156,0.14052822,0.21792653,-0.9657949,-0.06026546,0.97554886,0.21135852,0.9882408,0.028502245,0.15022558,0.14296179,0.22663023,-0.9634317,-0.061718844,0.9735775,0.21985848,0.98780197,0.028030537,0.15317172,9.866806,0.3397827,1.4368896,9.691332,0.27951154,1.4732097,-0.070007324,-3.0517578E-5,-0.009292603,-40.25879,23.039246,-0.6591797,1,0.0,0.0,0.0,0.0
1.709960937,0.14044714,0.21778361,-0.96583885,-0.060290936,0.9755788,0.21121265,0.98825073,0.028567126,0.15014765,0.14291325,0.22645631,-0.9634798,-0.061689302,0.9736177,0.21968871,0.98781085,0.028039971,0.15311278,9.866806,0.3397827,1.4368896,9.691429,0.28014782,1.4724455,-0.07733154,0.007446289,-0.005935669,-40.25879,23.039246,-0.6591797,1,0.0,0.0,0.0,0.0
1.718261719,0.1404118,0.2177213,-0.9658581,-0.060217254,0.9755944,0.21116193,0.98826027,0.028511701,0.15009554,0.14281589,0.2261132,-0.9635748,-0.06163301,0.9736967,0.21935353,0.98782843,0.028060848,0.15299541,9.894318,0.27397156,1.3950195,9.691523,0.2796043,1.4719344,-0.090774536,0.017059326,-0.005935669,-40.25879,23.039246,-0.6591797,1,0.0,0.0,0.0,0.0
1.7265625,0.14080456,0.21358043,-0.9667251,-0.059474982,0.9765144,0.20708059,0.98824936,0.028338065,0.15020037,0.14272101,0.2257812,-0.96366674,-0.061576083,0.9737733,0.21902958,0.9878457,0.028078701,0.15288064,9.929016,0.20219421,1.4620209,9.691416,0.2779015,1.4729625,-0.10101318,0.026382446,-0.0037994385,-40.019226,23.399353,-0.6591797,1,0.0,0.0,0.0,0.0
1.734863281,0.14096946,0.21386488,-0.9666382,-0.059354596,0.9764578,0.20738146,0.98823303,0.028139973,0.15034458,0.142683,0.22553754,-0.96372944,-0.061533503,0.9738297,0.21879104,0.9878539,0.028083889,0.15282704,9.929016,0.20219421,1.4620209,9.6912565,0.2759589,1.4743768,-0.09642029,0.023025513,-4.4250488E-4,-40.019226,23.399353,-0.6591797,1,0.0,0.0,0.0,0.0
1.743164062,0.14197671,0.20036273,-0.96937984,-0.05725035,0.9793229,0.19403292,0.988213,0.027949184,0.15051189,0.1426157,0.22507589,-0.9638473,-0.061446264,0.9739364,0.21833996,0.987869,0.02808611,0.15272869,9.952942,0.22132874,1.4990997,9.691059,0.27408788,1.4760175,-0.09138489,0.002105713,-0.0015106201,-39.65912,23.458862,-0.95977783,1,0.0,0.0,0.0,0.0
1.751464844,0.14134248,0.21141689,-0.9671222,-0.058686104,0.97700113,0.20499963,0.98821974,0.027781473,0.15049897,0.14259267,0.22409987,-0.96407807,-0.061278775,0.9741615,0.21738029,0.98788273,0.028080687,0.15264086,9.9062805,0.23449707,1.4356995,9.691126,0.2724432,1.4758909,-0.07778931,0.005004883,-2.89917E-4,-39.59961,23.458862,-0.6591797,1,0.0,0.0,0.0,0.0
1.759765625,0.14131372,0.2113679,-0.9671371,-0.058531005,0.9770157,0.20497459,0.98823303,0.027641784,0.15043727,0.1425681,0.22384658,-0.9641406,-0.06122651,0.97422,0.21713313,0.9878895,0.028074702,0.15259804,9.9062805,0.23449707,1.4356995,9.691256,0.2710733,1.4752856,-0.076416016,0.0037841797,-0.0119018555,-39.59961,23.458862,-0.6591797,1,0.0,0.0,0.0,0.0
1.768066406,0.14133197,0.211399,-0.96712756,-0.058375873,0.9770135,0.20502912,0.98823965,0.02747975,0.15042384,0.14249547,0.22311376,-0.9643212,-0.06106682,0.97438884,0.21641938,0.98790985,0.028049245,0.15247084,9.933807,0.17108154,1.4691925,9.69132,0.26948428,1.475154,-0.058242798,-0.0043182373,-0.010681152,-39.59961,23.458862,-0.6591797,1,0.0,0.0,0.0,0.0
1.776367187,0.14132644,0.21114944,-0.9671829,-0.058215357,0.9770707,0.20480156,0.98824984,0.027361024,0.15037806,0.14247262,0.22287975,-0.96437865,-0.061012648,0.97444266,0.21619196,0.98791647,0.028037854,0.1524299,9.940979,0.1878357,1.4524384,9.691421,0.26832,1.4747051,-0.043273926,-0.0110321045,-0.021514893,-39.779663,23.878479,-0.5996704,1,0.0,0.0,0.0,0.0
1.784667969,0.14122395,0.21097738,-0.96723545,-0.05811227,0.9771095,0.2046463,0.9882706,0.027307285,0.15025163,0.14245017,0.22264548,-0.9644361,-0.06095635,0.97449666,0.21596456,0.98792326,0.028024318,0.15238886,9.940979,0.1878357,1.4524384,9.691624,0.267793,1.4734651,-0.029541016,-0.010879517,-0.01586914,-39.779663,23.878479,-0.5996704,1,0.0,0.0,0.0,0.0
1.79296875,0.14114788,0.20788999,-0.96791476,-0.057648636,0.9777699,0.20159997,0.9883086,0.02734356,0.14999473,0.14240257,0.22218403,-0.96454954,-0.060843036,0.9746027,0.21551715,0.9879371,0.027995924,0.15230429,9.917053,0.22132874,1.3878326,9.691997,0.26814872,1.4709458,-0.014724731,-0.008743286,-0.019378662,-39.779663,23.939514,-0.6591797,1,0.0,0.0,0.0,0.0
1.801269531,0.14092262,0.20764825,-0.9679996,-0.05761943,0.9778199,0.20136653,0.9883425,0.027398486,0.14976148,0.14235404,0.22161889,-0.9646867,-0.0607156,0.9747321,0.21496716,0.98795193,0.02797009,0.15221278,9.8524475,0.2416687,1.421341,9.692329,0.26868737,1.4686584,-0.022201538,0.002105713,-0.02166748,-39.65912,24.119568,-0.5996704,1,0.0,0.0,0.0,0.0
1.809570312,0.14082113,0.20748012,-0.9680503,-0.057683814,0.97785234,0.20118977,0.98835313,0.027509065,0.14967051,0.14232607,0.22133993,-0.9647548,-0.060653187,0.9747958,0.21469569,0.9879597,0.027958661,0.15216383,9.8524475,0.2416687,1.421341,9.692433,0.26977178,1.4677664,-0.01991272,0.013244629,-0.026397705,-39.65912,24.119568,-0.5996704,1,0.0,0.0,0.0,0.0
1.817871094,0.14082107,0.20748,-0.96805036,-0.057762846,0.97785014,0.20117769,0.98834854,0.027587283,0.14968655,0.14226753,0.22079192,-0.96488905,-0.060534574,0.97492063,0.21416193,0.9879755,0.027940856,0.1520651,9.92543,0.22253418,1.4955139,9.692389,0.27053884,1.4679235,-0.03717041,0.015686035,-0.024871826,-39.65912,24.119568,-0.5996704,1,0.0,0.0,0.0,0.0
1.826171875,0.14152431,0.19712897,-0.9701088,-0.05637239,0.979987,0.19091235,0.98832834,0.027668612,0.14980459,0.14221121,0.22026557,-0.9650177,-0.060423873,0.9750401,0.21364874,0.9879903,0.027926855,0.15197092,9.94577,0.24645996,1.537384,9.69219,0.2713364,1.4690813,-0.049850464,-0.0035552979,-0.021820068,-39.59961,24.299622,-0.8392334,1,0.0,0.0,0.0,0.0
1.834472656,0.14159043,0.19723782,-0.970077,-0.056487784,0.9799627,0.19100298,0.98831236,0.027753308,0.14989488,0.14219858,0.219804,-0.9651247,-0.06034221,0.9751444,0.2131953,0.9879972,0.027921692,0.1519276,9.94577,0.24645996,1.537384,9.692034,0.272167,1.4699667,-0.06266785,-0.0053863525,-0.018920898,-39.59961,24.299622,-0.8392334,1,0.0,0.0,0.0,0.0
1.842773437,0.14030786,0.21748933,-0.9659256,-0.05941782,0.9756673,0.21105191,0.98832345,0.027780946,0.14981653,0.1421763,0.21891253,-0.9653306,-0.060188428,0.97534513,0.21231885,0.98800975,0.027915023,0.15184696,9.897903,0.25125122,1.4560394,9.6921425,0.27243802,1.4691982,-0.08543396,-0.003250122,-0.0132751465,-39.538574,24.179077,-0.29907227,1,0.0,0.0,0.0,0.0
1.851074219,0.14024109,0.2173797,-0.96595997,-0.05936307,0.9756924,0.21095137,0.9883362,0.027758293,0.14973648,0.14213894,0.21888407,-0.96534264,-0.06017296,0.9753516,0.21229355,0.98801607,0.027912341,0.15180634,9.897903,0.25125122,1.4560394,9.692267,0.27221587,1.4684132,-0.09992981,-0.006149292,-0.016174316,-39.538574,24.179077,-0.29907227,1,0.0,0.0,0.0,0.0
1.859375,0.14025193,0.2163502,-0.9661895,-0.05913592,0.97592306,0.20994559,0.98834825,0.027691226,0.14966914,0.14206396,0.2188245,-0.9653671,-0.06014081,0.97536504,0.21224044,0.9880288,0.02790624,0.15172452,9.8524475,0.22732544,1.4536438,9.692386,0.27155817,1.4677529,-0.09687805,-0.0024719238,-0.015258789,-39.35852,24.179077,-0.29907227,1,0.0,0.0,0.0,0.0
1.867675781,0.14025699,0.21635845,-0.9661869,-0.059025906,0.9759245,0.20997046,0.9883542,0.02758023,0.14965096,0.14199232,0.21872659,-0.9653998,-0.060100853,0.9753873,0.2121497,0.9880416,0.027897727,0.15164317,9.872787,0.18902588,1.4739838,9.692444,0.27046967,1.4675746,-0.095047,0.014465332,-0.025024414,-39.35852,24.179077,-0.29907227,1,0.0,0.0,0.0,0.0
1.875976562,0.13955636,0.22887313,-0.96340084,-0.060775474,0.9730672,0.22236575,0.9883473,0.027518587,0.14970759,0.14195773,0.21867925,-0.96541566,-0.060079284,0.9753981,0.21210615,0.98804784,0.027891377,0.15160337,9.872787,0.18902588,1.4739838,9.692376,0.26986516,1.4681299,-0.084365845,0.014465332,-0.025024414,-39.35852,23.999023,0.0,1,0.0,0.0,0.0,0.0
1.884277344,0.13964638,0.22902079,-0.96335274,-0.06081085,0.97303283,0.222507,0.9883324,0.027509993,0.14980745,0.1418626,0.21908341,-0.96533805,-0.060107693,0.9753079,0.21251285,0.98805976,0.027876616,0.1515283,9.890732,0.18304443,1.475174,9.69223,0.26978087,1.4691093,-0.07397461,0.010803223,-0.03388977,-39.35852,23.999023,0.0,1,0.0,0.0,0.0,0.0
1.892578125,0.13963173,0.22909859,-0.96333635,-0.060935285,0.9730112,0.22256713,0.9883268,0.02762374,0.14982341,0.1417747,0.21947737,-0.9652614,-0.060136255,0.97521967,0.21290898,0.9880706,0.027862096,0.15146004,9.918243,0.22732544,1.4464569,9.692176,0.27089638,1.4692659,-0.047561646,-0.002029419,-0.03526306,-39.35852,24.238586,0.059509277,1,0.0,0.0,0.0,0.0
1.900878906,0.13955072,0.22896716,-0.96337926,-0.06105541,0.9730376,0.22241847,0.98833084,0.027780863,0.14976779,0.14173187,0.21967003,-0.9652239,-0.0601526,0.9751764,0.21310237,0.9880758,0.02785733,0.15142731,9.918243,0.22732544,1.4464569,9.692214,0.27243719,1.4687202,-0.043273926,-0.005844116,-0.037246704,-39.35852,24.238586,0.059509277,1,0.0,0.0,0.0,0.0
1.909179687,0.13995732,0.22020225,-0.9653615,-0.05995458,0.9750532,0.21372078,0.9883407,0.027966056,0.14966798,0.1416456,0.2200386,-0.9651526,-0.06018905,0.9750934,0.2134716,0.9880859,0.027854303,0.1513616,9.888336,0.24406433,1.4464569,9.692311,0.27425334,1.4677415,-0.04298401,-0.004776001,-0.030075073,-39.179993,24.119568,-0.17852783,1,0.0,0.0,0.0,0.0
1.917480469,0.13980749,0.2199583,-0.9654389,-0.060052186,0.9751036,0.21346393,0.98835605,0.028132858,0.14953576,0.14157864,0.22004507,-0.9651609,-0.06017975,0.9750918,0.21348147,0.98809606,0.027858727,0.15129444,9.931412,0.24885559,1.4249268,9.692462,0.2758891,1.4664448,-0.042373657,-0.0035552979,-0.031448364,-39.179993,24.119568,-0.17852783,1,0.0,0.0,0.0,0.0
1.92578125,0.13942882,0.22353412,-0.964672,-0.060671054,0.97428596,0.21699278,0.9883717,0.028272621,0.14940558,0.14154328,0.22004333,-0.96516657,-0.060177207,0.9750921,0.21348111,0.9881013,0.02786421,0.15125932,9.931412,0.24885559,1.4249268,9.6926155,0.2772597,1.4651684,-0.040374756,-0.009963989,-0.023651123,-39.29901,23.999023,-0.119018555,1,0.0,0.0,0.0,0.0
1.934082031,0.13929261,0.22331071,-0.9647434,-0.060692064,0.97433466,0.2167679,0.9883896,0.028358106,0.1492708,0.14145964,0.22018163,-0.96514726,-0.060197048,0.97506034,0.21362019,0.9881121,0.027880382,0.15118597,9.915863,0.24406433,1.429718,9.692791,0.27809802,1.4638466,-0.05961609,-3.3569336E-4,-0.01586914,-39.29901,23.999023,-0.119018555,1,0.0,0.0,0.0,0.0
1.942382812,0.13945234,0.21883918,-0.9657445,-0.060045205,0.97534823,0.21234494,0.9884066,0.028376326,0.14915484,0.14137387,0.2203056,-0.9651315,-0.06021691,0.97503185,0.21374485,0.9881231,0.027899299,0.15111016,9.936203,0.24645996,1.4021912,9.692958,0.2782767,1.4627093,-0.06817627,0.014312744,-0.012664795,-39.179993,24.179077,-0.17852783,1,0.0,0.0,0.0,0.0
1.950683594,0.13943824,0.21881628,-0.96575177,-0.0600133,0.9753541,0.21232702,0.9884105,0.028351443,0.14913353,0.14133543,0.22027628,-0.96514386,-0.060213406,0.97503823,0.21371682,0.98812884,0.02790884,0.15107101,9.936203,0.24645996,1.4021912,9.692996,0.2780327,1.4625005,-0.08421326,0.0181427,-0.01373291,-39.179993,24.179077,-0.17852783,1,0.0,0.0,0.0,0.0
1.958984375,0.13858715,0.23375304,-0.9623685,-0.062082157,0.9718849,0.2271243,0.9884024,0.028269403,0.14920266,0.14126037,0.22021848,-0.965168,-0.060205385,0.97505075,0.21366182,0.9881401,0.027926367,0.15099438,9.900299,0.2368927,1.4081726,9.692917,0.27722815,1.4631783,-0.099472046,0.032943726,-0.0013580322,-39.118958,24.179077,0.23956299,1,0.0,0.0,0.0,0.0
1.967285156,0.13877884,0.23406214,-0.96226585,-0.0620058,0.9718155,0.22744247,0.9883804,0.028101858,0.1493806,0.14115497,0.2207553,-0.9650609,-0.06028089,0.974929,0.21419561,0.98815054,0.027939953,0.15092339,9.908676,0.21655273,1.4416809,9.6927,0.2755851,1.4649233,-0.10131836,0.017669678,-0.013885498,-39.118958,24.179077,0.23956299,1,0.0,0.0,0.0,0.0
1.975585937,0.13930434,0.22863829,-0.96349293,-0.06112652,0.9731098,0.22208256,0.9883612,0.027957916,0.1495343,0.14110765,0.22102185,-0.9650067,-0.060315914,0.9748685,0.21446088,0.9881552,0.02794319,0.15089253,9.908676,0.21655273,1.4416809,9.6925125,0.2741735,1.4664305,-0.09321594,0.021499634,-0.016174316,-39.05945,24.299622,0.119018555,1,0.0,0.0,0.0,0.0
1.983886719,0.1394169,0.22881895,-0.96343386,-0.061147213,0.9730684,0.22225869,0.9883441,0.027924677,0.14965384,0.14103624,0.2213237,-0.96494794,-0.060348466,0.97479993,0.2147629,0.98816335,0.027943775,0.15083867,9.913467,0.2416687,1.450058,9.692345,0.27384755,1.4676028,-0.08604431,0.018753052,-0.02029419,-39.05945,24.299622,0.119018555,1,0.0,0.0,0.0,0.0
1.9921875,0.13912219,0.23404868,-0.9622194,-0.061915863,0.97182345,0.22743267,0.98833776,0.027935721,0.14969352,0.14097226,0.22162075,-0.96488917,-0.06038051,0.9747325,0.21505992,0.98817056,0.027943019,0.15079181,9.931412,0.25004578,1.4249268,9.692282,0.27395582,1.467992,-0.0715332,0.010650635,-0.017547607,-39.239502,24.058533,0.17852783,1,0.0,0.0,0.0,0.0
2.000488281,0.13912243,0.23404908,-0.96221924,-0.061931007,0.9718229,0.22743079,0.9883368,0.027950488,0.14969727,0.14093535,0.22186966,-0.96483725,-0.060411565,0.97467583,0.21530767,0.9881739,0.027942872,0.15076979,9.931412,0.25004578,1.4249268,9.692273,0.27410066,1.4680288,-0.06573486,0.019210815,-0.017242432,-39.239502,24.058533,0.17852783,1,0.0,0.0,0.0,0.0
2.008789062,0.13933133,0.2308919,-0.96295154,-0.061451606,0.9725787,0.2243087,0.9883373,0.027921688,0.14969938,0.14086393,0.22235264,-0.9647366,-0.060472433,0.9745658,0.21578833,0.9881804,0.027943173,0.15072738,9.915863,0.22013855,1.4177399,9.692278,0.27381822,1.4680494,-0.05152893,0.0056152344,-0.016021729,-39.35852,23.999023,0.059509277,1,0.0,0.0,0.0,0.0
2.017089844,0.13938758,0.23098406,-0.9629213,-0.06143947,0.97255796,0.22440201,0.98833007,0.027882518,0.14975405,0.14080332,0.22269115,-0.9646673,-0.060511626,0.97448856,0.21612604,0.9881866,0.027942324,0.15068662,9.909882,0.20219421,1.4859467,9.692207,0.2734341,1.4685856,-0.043121338,-0.008285522,-0.023345947,-39.35852,23.999023,0.059509277,1,0.0,0.0,0.0,0.0
2.025390625,0.13997048,0.22123095,-0.96512437,-0.060031757,0.9748228,0.21474777,0.9883342,0.027879765,0.14972731,0.1407751,0.22285715,-0.96463317,-0.06053038,0.97445065,0.21629167,0.9881895,0.027941128,0.15066801,9.909882,0.20219421,1.4859467,9.692247,0.2734071,1.4683233,-0.04206848,-0.008743286,-0.019989014,-39.29901,23.81897,-0.23956299,1,0.0,0.0,0.0,0.0
2.033691406,0.13986795,0.22106126,-0.96517813,-0.06000398,0.9748607,0.2145835,0.9883504,0.027901178,0.14961633,0.14074318,0.22279274,-0.96465266,-0.06051056,0.9744654,0.21623054,0.98819524,0.0279387,0.15063068,9.911072,0.22253418,1.4512482,9.692407,0.2736171,1.4672351,-0.04083252,-0.0030975342,-0.009292603,-39.29901,23.81897,-0.23956299,1,0.0,0.0,0.0,0.0
2.041992187,0.13962243,0.22448912,-0.96442217,-0.06044469,0.9740783,0.21798602,0.98835826,0.027858464,0.14957236,0.14070843,0.22272417,-0.9646735,-0.06049041,0.97448117,0.21616533,0.98820144,0.027937213,0.15059039,9.879959,0.22253418,1.4727783,9.692484,0.27319822,1.4668038,-0.05732727,0.007751465,-0.00440979,-39.118958,23.81897,-0.119018555,1,0.0,0.0,0.0,0.0
2.050292969,0.13965364,0.22454046,-0.96440583,-0.060358614,0.97406936,0.21804997,0.98835903,0.02775872,0.14958525,0.1406867,0.22275947,-0.96466863,-0.06048953,0.9744731,0.21620177,0.9882046,0.027935639,0.15057002,9.879959,0.22253418,1.4727783,9.692492,0.27222005,1.4669303,-0.06878662,0.010040283,-0.0037994385,-39.118958,23.81897,-0.119018555,1,0.0,0.0,0.0,0.0
2.05859375,0.1401143,0.21934578,-0.9655338,-0.059458993,0.97525746,0.21292631,0.9883484,0.027575638,0.1496896,0.14064579,0.22283001,-0.9646582,-0.06048442,0.9744572,0.21627495,0.98821074,0.027928634,0.15053105,9.882355,0.17826843,1.4907227,9.692388,0.27042463,1.4679536,-0.07611084,0.026229858,-0.012054443,-38.578796,24.119568,-0.119018555,1,0.0,0.0,0.0,0.0
2.066894531,0.14025547,0.2195719,-0.96546185,-0.05946357,0.9752082,0.21315004,0.9883281,0.027514353,0.14983481,0.14062467,0.22269209,-0.9646932,-0.060443692,0.9744891,0.21614245,0.9882162,0.027914654,0.15049754,9.867996,0.24765015,1.463211,9.692188,0.26982364,1.4693776,-0.07366943,0.028823853,-0.01373291,-38.578796,24.119568,-0.119018555,1,0.0,0.0,0.0,0.0
2.075195312,0.14022826,0.22323294,-0.9646259,-0.060010727,0.97437733,0.21676582,0.9882989,0.027491206,0.15003161,0.14061731,0.22262971,-0.9647086,-0.060424052,0.9745036,0.21608263,0.9882184,0.027906649,0.15048425,9.867996,0.24765015,1.463211,9.691902,0.26959667,1.4713076,-0.07382202,0.03187561,-0.01586914,-38.519287,23.939514,-0.059509277,1,0.0,0.0,0.0,0.0
2.083496094,0.14043473,0.22356541,-0.9645188,-0.06012612,0.9743006,0.21707833,0.9882626,0.027507437,0.15026778,0.14060175,0.22265361,-0.96470535,-0.06040766,0.9744986,0.2161097,0.98822165,0.027890194,0.1504662,9.915863,0.26679993,1.4727783,9.6915455,0.2697558,1.4736235,-0.0791626,0.030960083,-0.016021729,-38.519287,23.939514,-0.059509277,1,0.0,0.0,0.0,0.0
2.091796875,0.14086446,0.22056758,-0.96514624,-0.059639085,0.9749869,0.21411209,0.988231,0.027399654,0.15049542,0.14059517,0.2226897,-0.9646981,-0.060396522,0.9744908,0.21614806,0.9882233,0.027875038,0.15045837,9.976868,0.17468262,1.4727783,9.691236,0.2686988,1.475856,-0.07473755,0.017837524,-0.016021729,-38.519287,23.81897,-0.17852783,1,0.0,0.0,0.0,0.0
2.100097656,0.14102133,0.22082192,-0.96506506,-0.059610996,0.974932,0.21436891,0.98821026,0.027297905,0.15064964,0.14060056,0.22264728,-0.964707,-0.060381383,0.9745008,0.21610734,0.98822343,0.02786553,0.15045911,9.976868,0.17468262,1.4727783,9.691032,0.267701,1.4773684,-0.074279785,0.011566162,-0.019683838,-38.519287,23.81897,-0.17852783,1,0.0,0.0,0.0,0.0
2.108398437,0.14156316,0.21366349,-0.96659595,-0.058555923,0.976527,0.20728289,0.9881959,0.027256295,0.15075152,0.14061724,0.22257501,-0.96472126,-0.060350895,0.9745179,0.21603851,0.98822296,0.027843054,0.15046662,9.914658,0.20817566,1.4883423,9.690891,0.26729295,1.4783674,-0.07366943,0.007446289,-0.017242432,-38.398743,23.81897,-0.35858154,1,0.0,0.0,0.0,0.0
2.116699219,0.14160307,0.2137281,-0.96657586,-0.058637995,0.9765111,0.20733453,0.9881853,0.027318865,0.15080956,0.1406551,0.22222243,-0.964797,-0.060280047,0.974599,0.21569207,0.9882218,0.027819818,0.15047792,9.9039,0.2859497,1.4739838,9.690787,0.26790655,1.4789366,-0.07443237,0.022109985,-0.019989014,-38.398743,23.81897,-0.35858154,1,0.0,0.0,0.0,0.0
2.125,0.14107938,0.22376566,-0.96437836,-0.06017997,0.9742582,0.21725433,0.98816746,0.027386151,0.15091394,0.14067426,0.22205271,-0.9648333,-0.060247324,0.974638,0.21552506,0.9882211,0.027809799,0.15048456,9.9039,0.2859497,1.4739838,9.690613,0.2685664,1.4799602,-0.0703125,0.025161743,-0.023345947,-38.15918,24.058533,0.0,1,0.0,0.0,0.0,0.0
2.133300781,0.14116558,0.2239024,-0.9643339,-0.06033843,0.9742233,0.21736585,0.9881455,0.027501822,0.15103675,0.14068228,0.22208698,-0.96482426,-0.060245946,0.9746304,0.21555966,0.9882201,0.027801326,0.15049307,9.939789,0.26081848,1.5457611,9.690397,0.26970074,1.4811647,-0.06573486,0.012329102,-0.029159546,-38.15918,24.058533,0.0,1,0.0,0.0,0.0,0.0
2.141601562,0.14140849,0.2198172,-0.9652378,-0.05973473,0.9751536,0.21332416,0.98814744,0.027492369,0.15102573,0.14070137,0.2221589,-0.96480495,-0.06024956,0.9746144,0.21563122,0.9882172,0.027789466,0.15051456,9.942184,0.16151428,1.4895325,9.690416,0.26960805,1.4810565,-0.060073853,-0.021728516,-0.028381348,-37.739563,24.539185,0.059509277,1,0.0,0.0,0.0,0.0
2.149902344,0.14126459,0.21959607,-0.9653092,-0.059677616,0.9752031,0.21311353,0.98817146,0.027501957,0.15086664,0.14072937,0.2220662,-0.9648222,-0.060229223,0.97463584,0.21553987,0.9882144,0.027777703,0.15053475,9.942184,0.16151428,1.4895325,9.690652,0.26970208,1.4794964,-0.04206848,-0.015151978,-0.023803711,-37.739563,24.539185,0.059509277,1,0.0,0.0,0.0,0.0
2.158203125,0.1401279,0.23349229,-0.9622087,-0.061667964,0.9719684,0.2268798,0.9882111,0.027545258,0.15059888,0.14074007,0.22201681,-0.964832,-0.06021821,0.9746473,0.21549135,0.9882136,0.027772188,0.15054138,9.877579,0.20458984,1.3866425,9.69104,0.2701267,1.4768704,-0.049697876,-0.004623413,-0.01739502,-37.5,24.479675,0.47912598,1,0.0,0.0,0.0,0.0
2.166503906,0.14005339,0.2333789,-0.962247,-0.061663296,0.9719948,0.22676809,0.988222,0.027575681,0.15052208,0.14071622,0.22247183,-0.9647307,-0.060275756,0.97454375,0.21594293,0.9882135,0.0277632,0.15054376,9.877579,0.20458984,1.3866425,9.691148,0.27042505,1.4761175,-0.057937622,0.005004883,-0.018920898,-37.5,24.479675,0.47912598,1,0.0,0.0,0.0,0.0
2.174804687,0.14019662,0.23189922,-0.96258384,-0.061455753,0.972349,0.22530098,0.98821455,0.027569883,0.15057157,0.14069018,0.2229043,-0.9646346,-0.06033083,0.9744451,0.21637213,0.9882138,0.027755775,0.15054286,9.897903,0.19979858,1.4739838,9.691074,0.2703682,1.4766028,-0.067108154,0.020431519,-0.023345947,-37.5,24.659729,0.47912598,1,0.0,0.0,0.0,0.0
2.183105469,0.14035341,0.23213609,-0.9625039,-0.061517976,0.9722929,0.22552636,0.9881885,0.027557896,0.15074515,0.14068042,0.22308438,-0.9645944,-0.060353372,0.97440404,0.21655089,0.9882138,0.027752059,0.15054345,9.876373,0.18424988,1.5134583,9.690819,0.27025065,1.478305,-0.07015991,0.019515991,-0.02532959,-37.5,24.659729,0.47912598,1,0.0,0.0,0.0,0.0
2.19140625,0.14063141,0.23255609,-0.9623619,-0.061623324,0.9721932,0.22592673,0.9881424,0.027531547,0.15105179,0.1406677,0.22344323,-0.9645132,-0.060399525,0.974322,0.21690671,0.9882128,0.02774437,0.1505515,9.88356,0.1878357,1.5960083,9.690367,0.26999226,1.481312,-0.075805664,0.022567749,-0.020446777,-37.5,24.659729,0.47912598,1,0.0,0.0,0.0,0.0
2.199707031,0.14028427,0.24258403,-0.95993406,-0.06309387,0.9697411,0.23584187,0.9880989,0.027481055,0.15134497,0.14066648,0.22380447,-0.96442956,-0.0604479,0.97423935,0.2172643,0.98821,0.027735943,0.15057133,9.88356,0.1878357,1.5960083,9.68994,0.2694971,1.4841872,-0.074279785,0.01890564,-0.023040771,-37.61902,24.598694,0.71868896,1,0.0,0.0,0.0,0.0
2.208007812,0.13942291,0.25703874,-0.95629096,-0.06525412,0.966009,0.25013706,0.98808056,0.02752709,0.15145661,0.14065932,0.22418089,-0.96434325,-0.060500734,0.9741529,0.21763669,0.9882078,0.027730845,0.15058678,9.896713,0.25602722,1.4943237,9.68976,0.26994854,1.4852821,-0.075042725,0.004699707,-0.01953125,-37.379456,24.958801,1.2588501,1,0.0,0.0,0.0,0.0
2.216308594,0.13946134,0.25709528,-0.95627016,-0.06531109,0.965993,0.2501844,0.9880714,0.027563998,0.15150984,0.14061329,0.2254872,-0.96404535,-0.06068914,0.9738516,0.21892887,0.9882028,0.027722776,0.1506211,9.876373,0.25602722,1.4943237,9.689671,0.2703105,1.485804,-0.08328247,0.003326416,-0.02029419,-37.379456,24.958801,1.2588501,1,0.0,0.0,0.0,0.0
2.224609375,0.13942184,0.25781566,-0.95608187,-0.06547475,0.96579915,0.25088808,0.988066,0.027619952,0.15153392,0.14057061,0.22674364,-0.9637568,-0.06087232,0.97356004,0.22017139,0.9881976,0.027716486,0.15065636,9.860825,0.27278137,1.5026855,9.689618,0.2708592,1.4860401,-0.08970642,0.0011901855,-0.016784668,-37.139893,25.19989,1.3793945,1,0.0,0.0,0.0,0.0
2.232910156,0.13935876,0.25772452,-0.9561157,-0.0654701,0.9658229,0.2507985,0.98807526,0.027646018,0.15146911,0.14054912,0.22736746,-0.9636129,-0.06096445,0.9734146,0.2207881,0.988195,0.027714556,0.15067391,9.90509,0.25842285,1.4536438,9.689709,0.27111483,1.4854046,-0.083602905,-0.004776001,-0.016784668,-37.139893,25.19989,1.3793945,1,0.0,0.0,0.0,0.0
2.241210937,0.13927208,0.25759932,-0.95616204,-0.06543577,0.965856,0.25067976,0.9880898,0.027654508,0.15137298,0.14050484,0.22857402,-0.96333396,-0.061143115,0.9731321,0.22198096,0.98819023,0.027711838,0.1507055,9.933807,0.26200867,1.4644012,9.689851,0.2711981,1.4844619,-0.07611084,-0.013168335,-0.013580322,-37.139893,25.19989,1.3793945,1,0.0,0.0,0.0,0.0
2.249511719,0.13827705,0.2692496,-0.95309186,-0.06703457,0.962674,0.262231,0.98812234,0.027629577,0.15116476,0.1404585,0.22972748,-0.96306634,-0.061313406,0.97286046,0.2231215,0.9881863,0.027709572,0.15073188,9.917053,0.22492981,1.4225311,9.69017,0.2709536,1.4824198,-0.06297302,-0.019729614,-0.024871826,-37.078857,25.19989,1.739502,1,0.0,0.0,0.0,0.0
2.2578125,0.13778228,0.272664,-0.9521924,-0.067450255,0.9617126,0.2656301,0.9881632,0.027626498,0.1508982,0.14041711,0.2305219,-0.9628825,-0.061428502,0.97267264,0.2239076,0.98818505,0.027707972,0.15074049,9.917053,0.20578003,1.4069824,9.690571,0.2709234,1.479806,-0.057174683,-0.013015747,-0.026245117,-36.95984,25.379944,1.9195557,1,0.0,0.0,0.0,0.0
2.266113281,0.13755943,0.27234873,-0.9523149,-0.0673411,0.9618019,0.2653346,0.9882017,0.027630646,0.15064517,0.14031777,0.23219958,-0.9624938,-0.061668977,0.9722735,0.22556847,0.98818415,0.027704747,0.15074675,9.917053,0.20578003,1.4069824,9.6909485,0.2709641,1.4773245,-0.060684204,-0.012710571,-0.01159668,-36.95984,25.379944,1.9195557,1,0.0,0.0,0.0,0.0
2.274414062,0.13776131,0.26821625,-0.95345783,-0.06665129,0.96296453,0.2612604,0.9882204,0.027557628,0.15053621,0.14021297,0.23379754,-0.96212214,-0.06189581,0.97189057,0.22715104,0.9881848,0.027701812,0.15074275,9.90509,0.19502258,1.450058,9.691132,0.27024803,1.476256,-0.05870056,0.020584106,-0.012054443,-37.139893,25.2594,1.739502,1,0.0,0.0,0.0,0.0
2.282714844,0.13781056,0.26828682,-0.9534309,-0.06655956,0.9629481,0.26134425,0.9882196,0.027443944,0.15056145,0.14016555,0.23448896,-0.9619608,-0.061991833,0.9717241,0.22783616,0.9881856,0.027698928,0.15073864,9.867996,0.18066406,1.4368896,9.691124,0.26913315,1.4765035,-0.06236267,0.028671265,-0.015563965,-37.139893,25.2594,1.739502,1,0.0,0.0,0.0,0.0
2.291015625,0.13802488,0.26859388,-0.95331335,-0.066551596,0.96286565,0.2616496,0.9881903,0.027330372,0.15077479,0.14007503,0.23583303,-0.96164536,-0.062174305,0.97139907,0.22916861,0.9881869,0.027688831,0.1507315,9.846466,0.17347717,1.4847412,9.690836,0.26801938,1.4785955,-0.07077026,0.032791138,-0.011749268,-37.139893,25.2594,1.739502,1,0.0,0.0,0.0,0.0
2.299316406,0.13923684,0.25505194,-0.95684993,-0.06456807,0.9665443,0.24824034,0.98815185,0.027217755,0.15104675,0.14003548,0.23649102,-0.96148956,-0.062262505,0.9712393,0.22982092,0.988187,0.027681662,0.15073247,9.923035,0.16989136,1.5613098,9.69046,0.26691502,1.4812628,-0.07077026,0.03967285,-0.01586914,-37.1994,25.2594,1.3198853,1,0.0,0.0,0.0,0.0
2.307617187,0.13936023,0.2581612,-0.95599777,-0.06504897,0.96572,0.25130412,0.9881029,0.027164867,0.15137605,0.14000455,0.2372277,-0.96131253,-0.06235394,0.9710601,0.230552,0.9881855,0.02766329,0.15074492,9.955338,0.21655273,1.5385895,9.68998,0.26639634,1.484492,-0.08879089,0.020584106,-0.01739502,-37.379456,24.839783,1.2588501,1,0.0,0.0,0.0,0.0
2.315917969,0.13952693,0.2584074,-0.95590687,-0.06516476,0.96565324,0.25153047,0.9880718,0.02719616,0.15157367,0.13997984,0.2380588,-0.96111065,-0.06246058,0.9708572,0.23137598,0.9881823,0.027643552,0.15076974,9.955338,0.21655273,1.5385895,9.689674,0.26670322,1.4864299,-0.06802368,0.0028686523,-0.020446777,-37.379456,24.839783,1.2588501,1,0.0,0.0,0.0,0.0
2.32421875,0.13956556,0.25846446,-0.95588577,-0.06523714,0.9656364,0.25157592,0.9880615,0.027247922,0.15163106,0.13997129,0.23846686,-0.9610108,-0.062514566,0.9707574,0.23178017,0.98818016,0.027634604,0.1507858,9.907486,0.26560974,1.5146637,9.689574,0.26721087,1.4869928,-0.06802368,-9.460449E-4,-0.017547607,-37.379456,24.839783,1.2588501,1,0.0,0.0,0.0,0.0
2.332519531,0.14009598,0.2497994,-0.9581094,-0.06398847,0.9679138,0.24299915,0.9880681,0.027264746,0.15158509,0.13995627,0.23926076,-0.9608156,-0.06262219,0.97056246,0.2325661,0.98817545,0.02761929,0.15081933,9.907486,0.26560974,1.5146637,9.689638,0.26737583,1.4865419,-0.06175232,-0.00920105,-0.01663208,-37.319946,24.839783,1.0192871,1,0.0,0.0,0.0,0.0
2.340820312,0.1399599,0.24959792,-0.9581817,-0.06396427,0.9679645,0.2428031,0.9880889,0.027306693,0.15144156,0.13996205,0.23967862,-0.9607106,-0.06267609,0.97045976,0.23297982,0.98817116,0.02760525,0.15084964,9.940979,0.2679901,1.4847412,9.689842,0.2677872,1.4851344,-0.04725647,-0.0256958,-0.011123657,-37.319946,24.839783,1.0192871,1,0.0,0.0,0.0,0.0
2.349121094,0.14066829,0.23465496,-0.9618469,-0.06174157,0.97169495,0.22802795,0.98812973,0.027309636,0.15117463,0.1399622,0.23987724,-0.96066093,-0.06270181,0.9704108,0.23317654,0.98816955,0.02759928,0.15086158,9.940979,0.2679901,1.4847412,9.690243,0.26781604,1.4825168,-0.047561646,-0.021255493,-0.010986328,-37.55951,24.479675,0.47912598,1,0.0,0.0,0.0,0.0
2.357421875,0.14037518,0.23498183,-0.9618099,-0.061694637,0.9716168,0.22837351,0.9881744,0.027280545,0.15088801,0.13999018,0.2396706,-0.96070844,-0.06266387,0.9704622,0.23297279,0.98816794,0.027587812,0.15087387,9.865601,0.22253418,1.4069824,9.6906805,0.26753077,1.4797059,-0.044189453,-0.00843811,-0.0119018555,-37.5,24.119568,0.4196167,1,0.0,0.0,0.0,0.0
2.365722656,0.14020206,0.23471428,-0.96190053,-0.06160546,0.9716817,0.22812168,0.98820454,0.027275192,0.15069146,0.1400055,0.23948504,-0.9607525,-0.06262553,0.9705084,0.23279077,0.98816824,0.027575646,0.15087439,9.902695,0.23091125,1.405777,9.690976,0.26747826,1.4777786,-0.04710388,0.011566162,-0.009765625,-37.5,24.119568,0.4196167,1,0.0,0.0,0.0,0.0
2.374023437,0.14015386,0.23463976,-0.9619257,-0.06153734,0.97170085,0.22805811,0.98821557,0.027231127,0.15062673,0.14000942,0.23938966,-0.9607757,-0.06260511,0.9705321,0.23269744,0.988169,0.027569637,0.15087065,9.902695,0.23091125,1.405777,9.691084,0.26704612,1.4771436,-0.057022095,0.019210815,3.2043457E-4,-37.5,24.119568,0.4196167,1,0.0,0.0,0.0,0.0
2.382324219,0.14138544,0.21645713,-0.96600026,-0.058748953,0.9759174,0.21008073,0.9882099,0.02704915,0.15069713,0.14001521,0.23920166,-0.9608217,-0.06256281,0.9705788,0.23251382,0.98817086,0.027556233,0.15086092,9.930206,0.19502258,1.426117,9.691029,0.26526156,1.477834,-0.055038452,0.033554077,0.0070343018,-37.739563,24.119568,-0.119018555,1,0.0,0.0,0.0,0.0
2.390625,0.14160453,0.21680051,-0.9658912,-0.058666594,0.9758462,0.21043415,0.9881834,0.02686711,0.15090318,0.14007138,0.23830338,-0.9610367,-0.062412366,0.9708003,0.2316278,0.9881724,0.027536152,0.15085441,9.917053,0.22970581,1.4739838,9.690769,0.26347637,1.4798548,-0.061904907,0.032180786,0.007965088,-37.739563,24.119568,-0.119018555,1,0.0,0.0,0.0,0.0
2.398925781,0.14239307,0.2078964,-0.96773094,-0.05722718,0.97778714,0.20163628,0.9881545,0.02666891,0.15112744,0.14010301,0.23787445,-0.9611383,-0.062337838,0.9709059,0.23120499,0.9881726,0.027522773,0.1508554,9.913467,0.1986084,1.4847412,9.690485,0.26153266,1.482054,-0.061904907,0.03401184,0.0116119385,-37.85858,23.699951,-0.47912598,1,0.0,0.0,0.0,0.0
2.407226562,0.14202441,0.2194153,-0.9652388,-0.05870242,0.9752742,0.2130591,0.988121,0.026402261,0.15139297,0.14019719,0.23669145,-0.9614166,-0.062137097,0.9711959,0.23003797,0.98817194,0.02748896,0.15086627,9.902695,0.18424988,1.5134583,9.690157,0.25891775,1.4846579,-0.056259155,0.029281616,0.003982544,-37.919617,23.75946,-0.17852783,1,0.0,0.0,0.0,0.0
2.415527344,0.14228825,0.2198374,-0.9651039,-0.058589544,0.97518545,0.2134958,0.9880897,0.026167054,0.15163761,0.14027107,0.23600873,-0.96157366,-0.062001973,0.9713633,0.22936687,0.9881699,0.027445927,0.15088718,9.896713,0.17945862,1.4775696,9.689851,0.25661117,1.4870572,-0.05595398,0.022720337,-2.89917E-4,-37.919617,23.75946,-0.17852783,1,0.0,0.0,0.0,0.0
2.423828125,0.14246713,0.22012356,-0.96501225,-0.05846806,0.9751264,0.21379887,0.9880712,0.025963085,0.15179366,0.1403121,0.23568594,-0.96164685,-0.061934207,0.9714424,0.22904998,0.98816836,0.027420351,0.15090214,9.9673,0.19979858,1.5122681,9.689669,0.2546109,1.4885874,-0.06022644,0.017364502,0.0021514893,-37.919617,23.75946,-0.17852783,1,0.0,0.0,0.0,0.0
2.432128906,0.14137755,0.23999973,-0.9604231,-0.061225116,0.9704304,0.23348789,0.9880607,0.025792072,0.15189107,0.140399,0.23507081,-0.9617847,-0.061797995,0.971593,0.22844696,0.98816454,0.027362647,0.15093759,9.948166,0.20100403,1.5146637,9.689566,0.25293383,1.4895426,-0.051071167,-0.013626099,-2.89917E-4,-38.09967,23.878479,0.35858154,1,0.0,0.0,0.0,0.0
2.440429687,0.14133517,0.23993242,-0.9604461,-0.061071947,0.9704503,0.2334445,0.98807615,0.025662398,0.1518119,0.1404185,0.23516947,-0.9617578,-0.061786436,0.9715701,0.22854783,0.9881625,0.027331237,0.15095669,9.948166,0.20100403,1.5146637,9.689717,0.25166216,1.4887662,-0.05519104,-0.029663086,-0.01373291,-38.09967,23.878479,0.35858154,1,0.0,0.0,0.0,0.0
2.448730469,0.14054443,0.24759409,-0.95861584,-0.062078558,0.96852463,0.24105191,0.9881262,0.02563099,0.15149105,0.14045458,0.2353582,-0.96170634,-0.06175793,0.9715262,0.22874182,0.9881592,0.027265152,0.15099053,9.878769,0.21296692,1.4333038,9.690208,0.25135416,1.4856197,-0.05656433,-0.026153564,-0.022125244,-38.09967,24.179077,0.6591797,1,0.0,0.0,0.0,0.0
2.45703125,0.13950557,0.25912198,-0.9557165,-0.063653976,0.96550494,0.25248438,0.9881732,0.025612174,0.15118746,0.14045785,0.23584343,-0.96158695,-0.061770394,0.9714103,0.22923006,0.98815787,0.027200444,0.15101035,9.872787,0.17945862,1.4273224,9.690669,0.25116962,1.4826425,-0.07702637,-0.011489868,-0.025634766,-38.038635,24.238586,1.0192871,1,0.0,0.0,0.0,0.0
2.465332031,0.1393342,0.25885713,-0.9558132,-0.06356485,0.965576,0.25223494,0.98820317,0.025611179,0.15099198,0.1404389,0.2363104,-0.9614751,-0.06180816,0.97129774,0.22969653,0.9881582,0.027168678,0.1510139,9.872787,0.17945862,1.4273224,9.690963,0.25115988,1.4807255,-0.08680725,-6.4086914E-4,-0.022583008,-38.038635,24.238586,1.0192871,1,0.0,0.0,0.0,0.0
2.473632812,0.13921845,0.25867823,-0.9558786,-0.06356153,0.96562254,0.25205773,0.9882197,0.025666015,0.15087445,0.14039521,0.23720573,-0.961261,-0.061878044,0.9710812,0.23059154,0.9881601,0.027107002,0.15101297,9.9266205,0.25483704,1.3962097,9.691125,0.25169763,1.479573,-0.088638306,0.015686035,-0.009765625,-38.038635,24.238586,1.0192871,1,0.0,0.0,0.0,0.0
2.481933594,0.13835533,0.2719817,-0.9523044,-0.065436885,0.9619614,0.26523274,0.98821855,0.02561947,0.15089011,0.14034867,0.23805831,-0.96105695,-0.06194511,0.97087413,0.23144388,0.98816246,0.02704994,0.15100744,9.858429,0.23808289,1.3986053,9.691113,0.25124118,1.4797266,-0.083602905,0.034317017,-0.0054779053,-37.678528,24.41864,1.499939,1,0.0,0.0,0.0,0.0
2.490234375,0.13849536,0.27219284,-0.9522237,-0.06541279,0.96190405,0.26544604,0.9882004,0.025524562,0.15102416,0.14030951,0.23873976,-0.9608936,-0.06201554,0.97070754,0.23212259,0.9881636,0.027021332,0.15100507,9.858429,0.23808289,1.3986053,9.690936,0.25031045,1.4810411,-0.07778931,0.05142212,-1.373291E-4,-37.678528,24.41864,1.499939,1,0.0,0.0,0.0,0.0
2.498535156,0.13863216,0.27528796,-0.9513136,-0.065764084,0.9610278,0.26851538,0.9881579,0.025337402,0.15133342,0.14023915,0.24007016,-0.96057236,-0.062151052,0.970381,0.23344782,0.9881651,0.02696206,0.15100603,9.879959,0.18185425,1.4356995,9.690519,0.24847504,1.484074,-0.075805664,0.06135559,9.3078613E-4,-37.61902,24.539185,1.6189575,1,0.0,0.0,0.0,0.0
2.506835937,0.13734597,0.29900488,-0.9443157,-0.06911726,0.9539197,0.2919931,0.98810875,0.02516444,0.15168343,0.14017689,0.24147113,-0.96023023,-0.062294707,0.9700352,0.23484284,0.9881649,0.026897723,0.15101889,9.881165,0.15792847,1.5074768,9.690037,0.24677886,1.4875064,-0.045272827,0.04852295,-0.0062408447,-37.61902,24.479675,2.279663,1,0.0,0.0,0.0,0.0
2.515136719,0.13774164,0.29959026,-0.94407254,-0.069185235,0.95373994,0.29256386,0.9880489,0.025017655,0.15209691,0.14012334,0.24263088,-0.9599456,-0.062432133,0.96974665,0.23599492,0.98816377,0.026863057,0.1510321,9.881165,0.15792847,1.5074768,9.68945,0.2453394,1.4915613,-0.0385437,0.04852295,-0.012817383,-37.61902,24.479675,2.279663,1,0.0,0.0,0.0,0.0
2.5234375,0.1381817,0.3002413,-0.9438014,-0.069315135,0.9535381,0.29319033,0.98797834,0.024906179,0.15257278,0.14003491,0.2449039,-0.9593812,-0.06270047,0.9691772,0.23825255,0.9881593,0.026789982,0.15107423,9.924225,0.14117432,1.6211395,9.688758,0.24424618,1.4962279,-0.03778076,0.029281616,-0.016021729,-37.61902,24.479675,2.279663,1,0.0,0.0,0.0,0.0
2.531738281,0.13843578,0.30214745,-0.9431556,-0.06966268,0.95293707,0.29505596,0.9879183,0.024856446,0.15296897,0.1399672,0.24711178,-0.95882475,-0.06296225,0.96861863,0.2404448,0.9881523,0.026715383,0.15113355,9.955338,0.15194702,1.660614,9.6881695,0.24375847,1.5001132,-0.02709961,-0.009506226,-0.030212402,-37.739563,24.778748,2.3986816,1,0.0,0.0,0.0,0.0
2.540039062,0.13858595,0.30236724,-0.94306314,-0.06978503,0.95286644,0.29525527,0.98788863,0.02489345,0.1531546,0.13993955,0.248221,-0.9585423,-0.06309581,0.96833605,0.24154566,0.98814774,0.026678205,0.15117021,9.955338,0.15194702,1.660614,9.687878,0.24412133,1.5019335,-0.021133423,-0.024627686,-0.03831482,-37.739563,24.778748,2.3986816,1,0.0,0.0,0.0,0.0
2.548339844,0.13798343,0.30758995,-0.9414611,-0.07059434,0.9511903,0.30042213,0.9879155,0.025008554,0.15296261,0.13989188,0.2503812,-0.95798725,-0.06335954,0.9677816,0.24368891,0.98813754,0.026607532,0.15124883,9.90509,0.12802124,1.5876312,9.688142,0.24525014,1.5000508,-0.018844604,-0.060668945,-0.0460968,-37.919617,24.539185,2.4597168,1,0.0,0.0,0.0,0.0
2.556640625,0.13881868,0.29107827,-0.9465742,-0.068297334,0.9563669,0.28407353,0.9879599,0.025213782,0.15264148,0.13982317,0.25266483,-0.95739746,-0.06364574,0.96718967,0.24595393,0.98812884,0.026544213,0.15131657,9.8022,0.15194702,1.5996094,9.688578,0.24726275,1.4969016,-0.04710388,-0.040649414,-0.046554565,-37.678528,24.598694,2.0385742,1,0.0,0.0,0.0,0.0
2.564941406,0.13854025,0.29066566,-0.9467418,-0.06833128,0.95648766,0.28365862,0.9879967,0.025393944,0.15237358,0.13980454,0.25343722,-0.957196,-0.06373851,0.9669883,0.24672054,0.9881255,0.026517604,0.15134306,9.8022,0.15194702,1.5996094,9.688938,0.24902953,1.4942745,-0.072143555,-0.037139893,-0.03907776,-37.678528,24.598694,2.0385742,1,0.0,0.0,0.0,0.0
2.573242187,0.13811351,0.29003328,-0.94699806,-0.06832811,0.9566736,0.28303137,0.9880566,0.025616126,0.151947,0.1397574,0.25491902,-0.9568094,-0.06392038,0.96659994,0.2481909,0.9881205,0.026473105,0.15138401,9.899109,0.2644043,1.4045868,9.689526,0.2512084,1.4900911,-0.10864258,-0.016525269,-0.024414063,-37.678528,24.598694,2.0385742,1,0.0,0.0,0.0,0.0
2.581542969,0.13851601,0.27960896,-0.9500695,-0.06683196,0.9597693,0.27271986,0.9881026,0.025718942,0.15163024,0.13969488,0.2563163,-0.95644516,-0.06409551,0.9662313,0.24957734,0.988118,0.02643917,0.15140629,9.897903,0.28953552,1.3902283,9.689977,0.25221667,1.4869847,-0.12788391,0.0028686523,-4.4250488E-4,-37.438965,24.659729,1.7990112,1,0.0,0.0,0.0,0.0
2.58984375,0.13838698,0.27941856,-0.95014435,-0.06670377,0.9598264,0.27255055,0.9881294,0.025660755,0.15146574,0.13967186,0.25678366,-0.95632315,-0.06415044,0.9661076,0.25004166,0.98811764,0.026424764,0.15141082,9.897903,0.28953552,1.3902283,9.690239,0.25164604,1.4853716,-0.13398743,0.019363403,0.014221191,-37.438965,24.659729,1.7990112,1,0.0,0.0,0.0,0.0
2.598144531,0.13900831,0.27101094,-0.9524862,-0.06525044,0.96224076,0.26426357,0.98813915,0.025415303,0.15144302,0.13962185,0.25768283,-0.95608854,-0.064252034,0.965869,0.2509358,0.9881181,0.026394509,0.15141307,9.927826,0.25004578,1.3902283,9.690335,0.24923898,1.4851488,-0.12849426,0.039520264,0.016815186,-37.799072,24.659729,1.499939,1,0.0,0.0,0.0,0.0
2.606445312,0.13916972,0.27125272,-0.95239365,-0.06504528,0.96217984,0.26453513,0.9881299,0.02513344,0.15155002,0.13960966,0.2579499,-0.95601827,-0.06427207,0.96579826,0.25120285,0.9881185,0.026374925,0.15141374,9.927826,0.25004578,1.3902283,9.690245,0.24647486,1.4861981,-0.10115051,0.04043579,0.015289307,-37.799072,24.659729,1.499939,1,0.0,0.0,0.0,0.0
2.614746094,0.13961497,0.269377,-0.95286083,-0.064515196,0.96271557,0.26271006,0.9881019,0.024795743,0.1517884,0.13959223,0.25847763,-0.9558783,-0.064302705,0.9656585,0.25173178,0.988119,0.026325762,0.15141922,9.867996,0.18902588,1.4476624,9.68997,0.24316317,1.4885358,-0.08253479,0.03401184,0.0128479,-38.279724,24.719238,1.3793945,1,0.0,0.0,0.0,0.0
2.623046875,0.13993704,0.26986536,-0.9526753,-0.06433935,0.96258724,0.26322243,0.9880678,0.024459941,0.15206459,0.13959287,0.25890988,-0.95576125,-0.06431095,0.96554434,0.2521672,0.9881184,0.026265174,0.15143384,9.911072,0.15434265,1.5050812,9.689635,0.23987009,1.4912442,-0.066345215,0.035232544,0.005203247,-38.279724,24.719238,1.3793945,1,0.0,0.0,0.0,0.0
2.631347656,0.14027613,0.2694533,-0.95274216,-0.06411393,0.962709,0.26283234,0.9880344,0.024214933,0.1523208,0.13959958,0.25912932,-0.95570076,-0.06431136,0.9654864,0.2523886,0.98811746,0.026229072,0.15144646,9.911072,0.15434265,1.5050812,9.689307,0.23746736,1.4937567,-0.05168152,0.029891968,-0.008224487,-38.459778,24.899292,1.3793945,1,0.0,0.0,0.0,0.0
2.639648437,0.14045638,0.26972595,-0.9526383,-0.06405143,0.96263635,0.26311305,0.98801285,0.024061942,0.15248477,0.13962595,0.2595387,-0.95558584,-0.06430311,0.96537864,0.2528028,0.9881142,0.026149314,0.15148106,9.913467,0.12322998,1.4990997,9.689096,0.23596705,1.4953649,-0.015029907,0.0036315918,-0.023651123,-38.459778,24.899292,1.3793945,1,0.0,0.0,0.0,0.0
2.647949219,0.14117181,0.25950313,-0.9553684,-0.06254065,0.9654433,0.2529983,0.9880077,0.024033131,0.15252285,0.13965847,0.25994268,-0.9554713,-0.06429268,0.9652721,0.25321162,0.9881103,0.026066657,0.15152085,9.896713,0.112457275,1.5086823,9.689046,0.23568451,1.4957383,-9.765625E-4,5.79834E-4,-0.04319763,-38.578796,24.958801,1.0787964,1,0.0,0.0,0.0,0.0
2.65625,0.14112598,0.2594334,-0.9553941,-0.06265591,0.9654585,0.25291112,0.9880069,0.024168756,0.1525063,0.13968879,0.2599339,-0.9554692,-0.06425765,0.9652756,0.2532073,0.98810834,0.026025986,0.15154092,9.896713,0.112457275,1.5086823,9.689038,0.23701453,1.495576,0.0115356445,0.0022583008,-0.045944214,-38.578796,24.958801,1.0787964,1,0.0,0.0,0.0,0.0
2.664550781,0.14187045,0.24653952,-0.9586924,-0.061017226,0.9688247,0.24011564,0.98800284,0.024431432,0.15249076,0.1397456,0.2599141,-0.95546633,-0.06419421,0.9652829,0.25319555,0.98810434,0.025952442,0.15157902,9.90509,0.17108154,1.5194397,9.688998,0.23959051,1.4954236,-0.0060272217,-5.0354004E-4,-0.037399292,-38.398743,24.659729,0.6591797,1,0.0,0.0,0.0,0.0
2.672851562,0.14178193,0.24640295,-0.9587406,-0.06127578,0.9688519,0.23993994,0.9879995,0.024728427,0.15246423,0.13983095,0.25938544,-0.95559746,-0.0640693,0.96542674,0.25267833,0.9881004,0.02589221,0.15161519,9.92543,0.22132874,1.4990997,9.688966,0.24250303,1.4951633,-0.02557373,0.01171875,-0.035568237,-38.398743,24.659729,0.6591797,1,0.0,0.0,0.0,0.0
2.681152344,0.14228056,0.23813613,-0.96075356,-0.060287066,0.9709112,0.23172577,0.9879887,0.02495094,0.15249832,0.13987052,0.25912625,-0.95566195,-0.06401385,0.96549696,0.25242394,0.9880984,0.025868936,0.15163223,9.92543,0.22132874,1.4990997,9.68886,0.24468514,1.4954977,-0.050460815,0.012634277,-0.027313232,-38.339233,24.839783,0.47912598,1,0.0,0.0,0.0,0.0
2.689453125,0.14226188,0.23810746,-0.96076345,-0.060458016,0.9709137,0.23167089,0.98798096,0.025127914,0.15251951,0.13996789,0.25829735,-0.9558721,-0.06386774,0.96572,0.25160637,0.9880941,0.025832582,0.15166666,9.917053,0.26919556,1.4703827,9.688784,0.24642067,1.4957055,-0.08879089,0.010955811,-0.0132751465,-38.339233,24.839783,0.47912598,1,0.0,0.0,0.0,0.0
2.697753906,0.14220393,0.23947245,-0.96043277,-0.06067513,0.9705778,0.23301828,0.987976,0.025138266,0.15254997,0.14006017,0.25749993,-0.95607376,-0.063733995,0.96593374,0.25081882,0.9880896,0.025804678,0.15170033,9.912262,0.24406433,1.4680023,9.688735,0.24652219,1.4960042,-0.10038757,0.025772095,0.008270264,-38.69934,24.41864,0.35858154,1,0.0,0.0,0.0,0.0
2.706054687,0.14232422,0.23966216,-0.96036756,-0.060596623,0.97053427,0.233219,0.98796344,0.025002316,0.15265328,0.1401036,0.25714022,-0.9561641,-0.06367336,0.9660299,0.25046355,0.9880874,0.025791349,0.15171723,9.912262,0.24406433,1.4680023,9.688612,0.24518897,1.4970173,-0.12361145,0.03263855,0.0116119385,-38.69934,24.41864,0.35858154,1,0.0,0.0,0.0,0.0
2.714355469,0.1426432,0.23835939,-0.9606445,-0.060197733,0.97086185,0.23195599,0.98794186,0.024741676,0.15283552,0.14019267,0.25644967,-0.95633656,-0.06355265,0.96621424,0.24978204,0.9880826,0.025760105,0.15175423,9.890732,0.24287415,1.4596252,9.6884,0.24263296,1.4988045,-0.12574768,0.03538513,0.020324707,-38.99994,24.058533,0.17852783,1,0.0,0.0,0.0,0.0
2.72265625,0.14290187,0.23877768,-0.96050215,-0.059958987,0.9707683,0.23240921,0.98791903,0.024379022,0.15304145,0.14029124,0.25573498,-0.95651346,-0.06342115,0.96640474,0.2490776,0.988077,0.025719777,0.15179713,9.937393,0.20219421,1.4667969,9.688176,0.23907655,1.500824,-0.11581421,0.026687622,0.011474609,-38.99994,24.058533,0.17852783,1,0.0,0.0,0.0,0.0
2.730957031,0.14289138,0.24288976,-0.95947206,-0.060290776,0.96975565,0.23651412,0.9879003,0.024051487,0.15321372,0.14034417,0.2553966,-0.9565961,-0.0633526,0.966495,0.24874485,0.9880739,0.025692962,0.15182199,9.937393,0.20219421,1.4667969,9.687993,0.23586452,1.5025134,-0.09642029,0.026687622,0.011474609,-38.879395,23.81897,0.23956299,1,0.0,0.0,0.0,0.0
2.739257812,0.14301111,0.24308455,-0.95940495,-0.060037475,0.9697146,0.23674737,0.98789847,0.023742741,0.15327413,0.14044613,0.25490215,-0.956713,-0.06323241,0.9666272,0.24826105,0.9880671,0.025627961,0.15187714,9.933807,0.16390991,1.4237366,9.687975,0.23283675,1.5031058,-0.07839966,0.014312744,1.6784668E-4,-38.879395,23.81897,0.23956299,1,0.0,0.0,0.0,0.0
2.747558594,0.14417309,0.22647114,-0.9632886,-0.057399962,0.9737337,0.22033589,0.9878863,0.023526227,0.15338562,0.14054886,0.25443494,-0.9568223,-0.06310692,0.96675223,0.2478056,0.98806053,0.025553308,0.15193254,9.875183,0.15553284,1.4990997,9.687856,0.23071349,1.5041991,-0.044662476,0.0066833496,-0.019226074,-38.63983,23.579407,-0.23956299,1,0.0,0.0,0.0,0.0
2.755859375,0.14421728,0.2265438,-0.9632649,-0.057343896,0.9737187,0.22041698,0.98788315,0.023449428,0.15341796,0.14062335,0.2538777,-0.95695937,-0.06299433,0.9668998,0.24725798,0.9880571,0.025512768,0.15196154,9.875183,0.15553284,1.4990997,9.687824,0.22996034,1.5045162,-0.030151367,-0.0030975342,-0.022125244,-38.63983,23.579407,-0.23956299,1,0.0,0.0,0.0,0.0
2.764160156,0.14510863,0.21125007,-0.9666007,-0.055135936,0.9771493,0.2052783,0.98787826,0.023506775,0.15344028,0.14076956,0.252799,-0.95722336,-0.06277351,0.96718454,0.2461982,0.9880503,0.025431061,0.15201923,9.899109,0.16630554,1.5337982,9.687777,0.23052272,1.5047351,-0.02128601,-3.0517578E-5,-0.030075073,-38.938904,23.458862,-0.71868896,1,0.0,0.0,0.0,0.0
2.772460937,0.14509551,0.21122809,-0.9666075,-0.055259597,0.97715104,0.20523721,0.9878733,0.023635337,0.1534526,0.14094888,0.25116205,-0.95762783,-0.062476136,0.9676129,0.2445853,0.9880436,0.02535486,0.15207559,9.891922,0.17826843,1.5589294,9.687728,0.23178348,1.504856,-0.027557373,-0.00843811,-0.0289917,-38.938904,23.458862,-0.71868896,1,0.0,0.0,0.0,0.0
2.780761719,0.14579071,0.1976805,-0.96936446,-0.05335816,0.97997856,0.19182003,0.98787546,0.023757927,0.15341963,0.14103526,0.25036734,-0.9578232,-0.0623342,0.96781975,0.24380192,0.98804027,0.02532047,0.15210316,9.891922,0.17826843,1.5589294,9.687749,0.23298568,1.5045327,-0.028320313,-0.013320923,-0.025482178,-38.819885,23.339844,-1.0787964,1,0.0,0.0,0.0,0.0
2.7890625,0.14575526,0.19762072,-0.969382,-0.05342978,0.9799885,0.19174935,0.9878769,0.02384539,0.15339732,0.14123392,0.24829395,-0.9583335,-0.06198538,0.96835536,0.24175546,0.9880338,0.025258597,0.15215522,9.86441,0.1878357,1.5792694,9.687763,0.23384339,1.504314,-0.050460815,-0.00630188,-0.013427734,-38.819885,23.339844,-1.0787964,1,0.0,0.0,0.0,0.0
