Time,Rot1,Rot2,Rot3,Rot4,Rot5,Rot6,Rot7,Rot8,Rot9,FRot1,FRot2,FRot3,FRot4,FRot5,FRot6,FRot7,FRot8,FRot9,AccX,AccY,AccZ,GravX,GravY,GravZ,GyroX,GyroY,GyroZ,MagX,MagY,MagZ,Imid
0.0,0.0,0.0,0.0,0.0,0.0,0.0,0.0,0.0,0.0,1.0,0.0,0.0,0.0,1.0,0.0,0.0,0.0,1.0,9.994827,0.1040802,-0.2859497,9.800699,0.20250997,-0.27509198,-0.051376343,0.0065307617,-0.0146484375,0.0,0.0,0.0,0,0.0,0.0,0.0,0.0
0.008300781,0.0,0.0,0.0,0.0,0.0,0.0,0.0,0.0,0.0,1.0,0.0,0.0,0.0,1.0,0.0,0.0,0.0,1.0,9.974487,0.12921143,-0.26200867,9.800716,0.20289828,-0.27416754,-0.051986694,0.001953125,-0.013580322,0.0,0.0,0.0,0,0.0,0.0,0.0,0.0
0.016601562,-0.032661233,0.28089744,-0.9591819,-0.01201657,0.9595142,0.2814039,0.99939424,0.020717075,-0.027963491,1.0,0.0,0.0,0.0,1.0,0.0,0.0,0.0,1.0,10.000809,0.13639832,-0.27757263,9.80071,0.20316511,-0.2742282,-0.046951294,-0.012710571,-0.013122559,-38.75885,22.738647,7.978821,0,0.0,0.0,0.0,0.0
0.024902343,-0.03273945,0.28077573,-0.95921487,-0.012022636,0.95954925,0.28128397,0.9993916,0.020741371,-0.028039448,0.99793243,0.011277505,-0.06327412,-0.01130682,0.99993604,-1.0524236E-4,0.06326889,8.20454E-4,0.99799615,10.000809,0.13639832,-0.27757263,9.800684,0.20340337,-0.27497306,-0.051376343,-0.013626099,-0.013580322,-38.75885,22.738647,7.978821,0,0.0,0.0,0.0,0.0
0.033203125,-0.03270603,0.26915932,-0.96254015,-0.0123705305,0.96287256,0.26967263,0.99938846,0.020727053,-0.028162098,0.9954417,0.016744697,-0.09389054,-0.016785169,0.9998591,3.5870215E-4,0.09388332,0.0012189015,0.99558246,9.979263,0.10647583,-0.2871399,9.8006525,0.20326294,-0.27617583,-0.051376343,-0.018203735,-0.015106201,-39.05945,22.499084,7.6187134,0,0.0,0.0,0.0,0.0
0.041503906,-0.032593317,0.25173524,-0.9672472,-0.012923668,0.9675743,0.25225586,0.9993851,0.020722235,-0.028283112,0.9878589,0.026873244,-0.15301183,-0.02686145,0.9996369,0.002144677,0.1530139,0.0019914813,0.988222,9.973282,0.1375885,-0.34336853,9.80062,0.2032157,-0.27736259,-0.047714233,-0.010269165,-0.016326904,-38.938904,22.619629,7.1990967,0,0.0,0.0,0.0,0.0
0.049804687,-0.032801706,0.25140187,-0.9673268,-0.012884927,0.96766084,0.25192562,0.9993788,0.020727525,-0.028501634,0.97720134,0.03588371,-0.20926037,-0.03566078,0.9993522,0.0048394464,0.20929848,0.0027332748,0.97784793,9.992432,0.10887146,-0.38285828,9.800559,0.2032676,-0.27950558,-0.04510498,-0.0069122314,-0.016326904,-38.938904,22.619629,7.1990967,0,0.0,0.0,0.0,0.0
0.058105468,-0.03286629,0.25129852,-0.96735144,-0.0128840525,0.96768737,0.2518235,0.9993767,0.020739915,-0.028566554,0.97084665,0.040246334,-0.23629847,-0.039836615,0.999185,0.00650993,0.23636788,0.0030931877,0.9716587,9.991226,0.102890015,-0.3062744,9.800537,0.20338908,-0.2801422,-0.04510498,0.0014953613,-0.02243042,-38.938904,22.619629,7.1990967,0,0.0,0.0,0.0,0.0
0.06640625,-0.033078752,0.26190782,-0.9645259,-0.012558453,0.96486884,0.26243165,0.9993738,0.020793863,-0.028627496,0.9563327,0.048705038,-0.28819376,-0.047728673,0.998806,0.010417978,0.28835705,0.003792052,0.9575154,9.958923,0.11843872,-0.3481598,9.800509,0.20391813,-0.28073984,-0.053512573,0.008666992,-0.015716553,-38.75885,22.499084,7.4386597,0,0.0,0.0,0.0,0.0
0.074707031,-0.033101056,0.26187232,-0.96453476,-0.012595901,0.96487767,0.2623977,0.99937266,0.020834822,-0.02863995,0.93969244,0.057259526,-0.33719352,-0.055404875,0.99834937,0.015129193,0.3375032,0.0044653765,0.9413138,9.973282,0.114852905,-0.35772705,9.800498,0.20431982,-0.28086197,-0.050308228,0.0332489,-0.020446777,-38.75885,22.499084,7.4386597,0,0.0,0.0,0.0,0.0
0.083007812,-0.032977685,0.2596112,-0.96514994,-0.012726388,0.96548784,0.2601369,0.9993751,0.020861588,-0.028535645,0.9306886,0.061406646,-0.36062142,-0.058992792,0.9981013,0.017708687,0.36102417,0.004792792,0.9325441,9.973282,0.114852905,-0.35772705,9.800522,0.2045823,-0.2798391,-0.051376343,0.038146973,-0.0146484375,-38.69934,22.738647,7.4386597,0,0.0,0.0,0.0,0.0
0.091308593,-0.033037666,0.27994555,-0.95944715,-0.012104616,0.95978874,0.28046203,0.9993808,0.020879554,-0.028320553,0.9014194,0.07321328,-0.42671168,-0.068633966,0.99729985,0.026124435,0.4274721,0.0057378397,0.9040103,9.968506,0.107681274,-0.33738708,9.800578,0.20475848,-0.27772975,-0.048477173,0.040283203,-0.01586914,-38.519287,22.799683,7.978821,0,0.0,0.0,0.0,0.0
0.099609375,-0.03273917,0.28040633,-0.95932287,-0.012178013,0.9596543,0.28091878,0.99938977,0.020879695,-0.028003493,0.89099634,0.077411525,-0.44736233,-0.07189839,0.99698097,0.029319908,0.4482814,0.0060406984,0.8938721,9.976868,0.10647583,-0.29670715,9.800666,0.20475987,-0.27462047,-0.05458069,0.044708252,-0.020751953,-38.519287,22.799683,7.978821,0,0.0,0.0,0.0,0.0
0.107910156,-0.032431744,0.28088084,-0.95919454,-0.012293929,0.9595146,0.28139025,0.9993983,0.020918246,-0.027665604,0.8582536,0.08952922,-0.5053566,-0.0806687,0.99596024,0.0394441,0.5068465,0.006913418,0.86200863,9.979263,0.093322754,-0.3134613,9.80075,0.20513792,-0.2713069,-0.042510986,0.032943726,-0.02029419,-38.519287,22.799683,7.978821,0,0.0,0.0,0.0,0.0
0.116210937,-0.032109514,0.27597007,-0.96062976,-0.012537546,0.9609385,0.27647784,0.9994057,0.020921508,-0.02739528,0.84694374,0.09341506,-0.5234118,-0.08326103,0.9956013,0.042961847,0.5251227,0.007193537,0.85099614,9.979263,0.093322754,-0.3134613,9.800822,0.2051699,-0.26865593,-0.04725647,0.02897644,-0.016479492,-38.398743,22.679138,7.798767,0,0.0,0.0,0.0,0.0
0.124511718,-0.03190485,0.27628756,-0.96054536,-0.012587832,0.9608473,0.27679253,0.99941164,0.020922204,-0.027177826,0.84694374,0.09341506,-0.5234118,-0.08326103,0.9956013,0.042961847,0.5251227,0.007193537,0.85099614,9.979263,0.093322754,-0.3134613,9.80088,0.20517674,-0.26652342,-0.04725647,0.02897644,-0.016479492,-38.398743,22.679138,7.798767,0,0.0,0.0,0.0,0.0
0.1328125,-0.03156391,0.26787063,-0.9629378,-0.012987025,0.96322656,0.26837668,0.99941736,0.020976713,-0.026924355,0.82390845,0.100762494,-0.55769324,-0.087800495,0.99488044,0.050040156,0.55988026,0.0077372347,0.8285374,9.988831,0.13400269,-0.2416687,9.800937,0.20571129,-0.26403773,-0.05168152,0.010803223,-0.01663208,-38.879395,22.37854,7.499695,0,0.0,0.0,0.0,0.0
0.141113281,-0.03156411,0.2772583,-0.96027684,-0.012767643,0.9605653,0.27776128,0.9994202,0.021027757,-0.026779452,0.80047274,0.107469305,-0.5896556,-0.0914528,0.994174,0.057046402,0.592351,0.008261559,0.8056376,9.985245,0.122039795,-0.2536316,9.800964,0.20621186,-0.26261672,-0.048324585,-6.4086914E-4,-0.020904541,-38.879395,22.37854,7.739258,0,0.0,0.0,0.0,0.0
0.149414062,-0.03154026,0.27729622,-0.96026665,-0.012817953,0.9605534,0.27780002,0.9994203,0.021070538,-0.026741734,0.78862613,0.11091466,-0.6047866,-0.093225084,0.9937934,0.06069337,0.6077647,0.008516903,0.79407144,9.985245,0.122039795,-0.2536316,9.800964,0.20663138,-0.26224682,-0.04649353,-0.0043182373,-0.019989014,-38.879395,22.37854,7.739258,0,0.0,0.0,0.0,0.0
0.157714843,-0.03158273,0.2772287,-0.96028477,-0.012813993,0.9605728,0.2777333,0.999419,0.021076657,-0.026785105,0.76479906,0.117597684,-0.6334455,-0.09635328,0.9930204,0.0680185,0.63702315,0.009014064,0.77079195,9.981659,0.09211731,-0.2644043,9.800953,0.20669141,-0.2626722,-0.05015564,-0.022491455,-0.016479492,-38.879395,22.37854,7.739258,0,0.0,0.0,0.0,0.0
0.166015625,-0.031506404,0.263131,-0.9642455,-0.013273394,0.9645293,0.26364213,0.99941546,0.021105228,-0.02689621,0.74090004,0.1240082,-0.6600675,-0.09895121,0.9922358,0.07534444,0.66428596,0.00949178,0.7474183,9.98645,0.12322998,-0.2536316,9.800918,0.20697159,-0.26376173,-0.048934937,-0.026611328,-0.014801025,-38.938904,22.37854,7.3791504,0,0.0,0.0,0.0,0.0
0.174316406,-0.031675693,0.26285905,-0.9643141,-0.013240254,0.9646032,0.26337275,0.99941045,0.02111028,-0.027074153,0.72898805,0.12682524,-0.67267513,-0.099850304,0.9918774,0.07879794,0.67720485,0.009724067,0.73573035,9.98645,0.12322998,-0.2536316,9.800869,0.20702113,-0.26550674,-0.048934937,-0.029205322,-0.010986328,-38.938904,22.37854,7.3791504,0,0.0,0.0,0.0,0.0
0.182617187,-0.03207027,0.2683392,-0.96279055,-0.012950661,0.96309364,0.26885504,0.99940175,0.021091027,-0.027411502,0.7052434,0.13227734,-0.696516,-0.10132302,0.9911606,0.08564151,0.7016876,0.010174993,0.7124122,9.974487,0.122039795,-0.33021545,9.800783,0.20683232,-0.268815,-0.05091858,-0.037750244,-0.012512207,-39.179993,22.439575,7.559204,0,0.0,0.0,0.0,0.0
0.190917968,-0.032326344,0.26103082,-0.9647891,-0.013077493,0.96510047,0.26155326,0.9993918,0.021072082,-0.027784541,0.6816511,0.13773268,-0.71859694,-0.10255336,0.99041265,0.09255061,0.7244547,0.0106073,0.68924075,9.979263,0.10169983,-0.3756714,9.800686,0.20664655,-0.27247328,-0.054885864,-0.024780273,-0.016326904,-39.35852,22.619629,7.4386597,0,0.0,0.0,0.0,0.0
0.19921875,-0.032670423,0.26047748,-0.964927,-0.012976939,0.96525043,0.26100418,0.9993819,0.021048915,-0.02815494,0.66995925,0.14022718,-0.7290343,-0.1029222,0.9900603,0.0958524,0.735229,0.010816612,0.6777325,9.979263,0.10169983,-0.3756714,9.800589,0.20641935,-0.27610564,-0.05152893,-0.016525269,-0.014343262,-39.35852,22.619629,7.4386597,0,0.0,0.0,0.0,0.0
0.207519531,-0.03288228,0.2601367,-0.9650117,-0.012922692,0.96534246,0.26066616,0.99937564,0.021041848,-0.028380994,0.6467973,0.1450424,-0.74874294,-0.10339241,0.9893618,0.10233885,0.75562114,0.011221839,0.6549128,9.974487,0.102890015,-0.37208557,9.800528,0.20635004,-0.2783225,-0.050613403,0.0036315918,-0.016021729,-39.35852,22.619629,7.4386597,0,0.0,0.0,0.0,0.0
0.215820312,-0.033168286,0.27553824,-0.96071774,-0.012378718,0.96105963,0.27606365,0.99937314,0.021049011,-0.028465891,0.6239859,0.14964984,-0.76697236,-0.10354551,0.9886709,0.1086656,0.774545,0.011610738,0.63241225,9.978073,0.110076904,-0.32901,9.800503,0.20642029,-0.27915505,-0.0443573,0.017669678,-0.022277832,-39.479065,22.439575,7.798767,0,0.0,0.0,0.0,0.0
0.224121093,-0.03312252,0.27561197,-0.9606982,-0.0124260355,0.96103776,0.2761378,0.99937403,0.021084048,-0.028407227,0.6015121,0.15469727,-0.7837423,-0.103802234,0.98788923,0.11532551,0.79209113,0.011984519,0.6102852,9.98645,0.102890015,-0.29312134,9.800511,0.20676388,-0.27857974,-0.04664612,0.010803223,-0.019073486,-39.479065,22.439575,7.798767,0,0.0,0.0,0.0,0.0
0.232421875,-0.03291478,0.26674262,-0.96320564,-0.012781588,0.9635367,0.26727107,0.9993764,0.021108463,-0.028305199,0.5904423,0.15714556,-0.7916333,-0.10382086,0.9875005,0.11859165,0.8003744,0.012166522,0.59937704,9.973282,0.11366272,-0.3062744,9.800535,0.20700331,-0.2775792,-0.04786682,0.0056152344,-0.01739502,-39.35852,22.439575,7.559204,0,0.0,0.0,0.0,0.0
0.240722656,-0.032743238,0.25664887,-0.9659499,-0.01314629,0.9662739,0.2571806,0.9993773,0.021119583,-0.028264957,0.5686988,0.1615333,-0.80652875,-0.103447594,0.9867878,0.124693096,0.8160149,0.012520647,0.5778953,9.997208,0.10887146,-0.29193115,9.800544,0.20711237,-0.27718455,-0.050613403,-0.002166748,-0.015716553,-39.65912,22.259521,7.258606,0,0.0,0.0,0.0,0.0
0.249023437,-0.032750405,0.25663704,-0.96595275,-0.013139779,0.9662771,0.2571687,0.9993772,0.021114789,-0.028273819,0.55803347,0.16345406,-0.8135609,-0.10305832,0.9864693,0.12750416,0.823394,0.012692636,0.5673282,9.997208,0.10887146,-0.29193115,9.800543,0.20706536,-0.27727145,-0.049087524,-0.0027923584,-0.012969971,-39.65912,22.259521,7.258606,0,0.0,0.0,0.0,0.0
0.257324218,-0.03281374,0.25653258,-0.9659784,-0.013114395,0.9663051,0.25706482,0.99937534,0.02110348,-0.028343813,0.53708524,0.16717872,-0.8267954,-0.102142595,0.98584056,0.13298607,0.8373209,0.013026174,0.5465565,9.949356,0.11126709,-0.32183838,9.800525,0.20695446,-0.27795786,-0.047409058,-0.0040130615,-0.0146484375,-39.65912,22.259521,7.258606,0,0.0,0.0,0.0,0.0
0.265625,-0.033014487,0.26498276,-0.96368784,-0.012779284,0.9640227,0.26551262,0.99937314,0.021081004,-0.028440427,0.5166614,0.17074938,-0.83899087,-0.101059735,0.9852241,0.13827652,0.85020465,0.0133460555,0.52628314,9.982849,0.1040802,-0.33857727,9.800504,0.20673405,-0.27890533,-0.044799805,0.0014953613,-0.01586914,-39.29901,22.37854,7.499695,0,0.0,0.0,0.0,0.0
0.273925781,-0.03308508,0.26486853,-0.9637168,-0.012750379,0.96405435,0.265399,0.9993712,0.021068502,-0.02851864,0.5066324,0.17265297,-0.84469795,-0.100551315,0.9848902,0.14099914,0.85627866,0.013500763,0.5163377,9.982849,0.1040802,-0.33857727,9.800484,0.20661144,-0.27967232,-0.05168152,0.0014953613,-0.01586914,-39.29901,22.37854,7.499695,0,0.0,0.0,0.0,0.0
0.282226562,-0.032741085,0.24183649,-0.9697645,-0.01354877,0.97008806,0.24237461,0.99937195,0.021074723,-0.028485147,0.48698542,0.17634021,-0.85542345,-0.099417806,0.9842325,0.14629567,0.8677334,0.013800464,0.49683824,9.960129,0.10647583,-0.29193115,9.800491,0.20667244,-0.27934387,-0.057785034,0.009429932,-0.016479492,-39.479065,22.079468,6.8389893,0,0.0,0.0,0.0,0.0
0.290527343,-0.032683562,0.24193257,-0.9697425,-0.013556604,0.9700643,0.24246976,0.9993738,0.021071188,-0.02842537,0.47741818,0.17765912,-0.86052835,-0.09857215,0.98399323,0.14846142,0.87312967,0.013945957,0.4872885,9.960129,0.10647583,-0.29193115,9.800509,0.20663777,-0.27875766,-0.05229187,0.0057678223,-0.010375977,-39.479065,22.079468,6.8389893,0,0.0,0.0,0.0,0.0
0.298828125,-0.032725096,0.249144,-0.9679134,-0.013296057,0.9682379,0.24967706,0.99937594,0.021040136,-0.028373042,0.45870116,0.18022129,-0.8701227,-0.096830875,0.9835232,0.15266281,0.88329893,0.01422813,0.46859422,9.9673,0.095718384,-0.3134613,9.80053,0.20633325,-0.2782445,-0.049240112,0.015533447,-0.015258789,-39.959717,22.019958,7.019043,0,0.0,0.0,0.0,0.0
0.307128906,-0.032662414,0.24924977,-0.96788836,-0.01330552,0.9682108,0.24978182,0.9993779,0.021036731,-0.0283077,0.44051424,0.18297046,-0.87890214,-0.09515981,0.98301154,0.156949,0.892688,0.014497899,0.45044202,9.973282,0.110076904,-0.33140564,9.8005495,0.20629987,-0.27760372,-0.049545288,0.01828003,-0.018463135,-39.959717,22.019958,7.019043,0,0.0,0.0,0.0,0.0
0.315429687,-0.03241546,0.23695807,-0.970979,-0.013756748,0.97129166,0.23749363,0.99937975,0.02105598,-0.028225094,0.4316313,0.18430558,-0.8830208,-0.09430129,0.98276013,0.15902768,0.8971074,0.014628682,0.4415703,9.973282,0.110076904,-0.33140564,9.800568,0.20648862,-0.27679363,-0.051223755,0.017227173,-0.023040771,-40.25879,21.77887,6.6589355,0,0.0,0.0,0.0,0.0
0.323730468,-0.03231117,0.23713842,-0.9709384,-0.013794461,0.9712473,0.23767292,0.9993827,0.021073062,-0.02811094,0.41433236,0.18640217,-0.8908327,-0.09233689,0.98236084,0.16260742,0.90542954,0.014883217,0.42423564,9.968506,0.09690857,-0.30867004,9.800596,0.20665614,-0.27567416,-0.051376343,0.017669678,-0.019836426,-40.25879,21.77887,6.6589355,0,0.0,0.0,0.0,0.0
0.33203125,-0.032156244,0.23290242,-0.97196835,-0.013986802,0.9722712,0.23343773,0.999385,0.021101208,-0.028007029,0.3975865,0.18842214,-0.8980101,-0.09035686,0.98197156,0.16603436,0.91310495,0.015128348,0.40744388,9.991226,0.110076904,-0.31704712,9.800619,0.20693217,-0.27465513,-0.05519104,0.012481689,-0.013885498,-40.25879,21.479797,6.478882,0,0.0,0.0,0.0,0.0
0.340332031,-0.032086223,0.23302543,-0.9719411,-0.014010626,0.9722415,0.23355997,0.99938697,0.021111563,-0.027930725,0.3894277,0.18931606,-0.90139085,-0.089328796,0.9817978,0.16761094,0.916715,0.015247812,0.39925066,9.991226,0.110076904,-0.31704712,9.800638,0.20703371,-0.27390686,-0.051071167,0.008514404,-0.016021729,-40.25879,21.479797,6.478882,0,0.0,0.0,0.0,0.0
0.348632812,-0.031609774,0.2055997,-0.9781256,-0.014940113,0.978408,0.20614189,0.9993886,0.021129403,-0.027855571,0.37351593,0.19105506,-0.9077356,-0.08727639,0.9814573,0.170659,0.92350894,0.015480027,0.3832645,9.993622,0.12322998,-0.2763672,9.800654,0.20720866,-0.27316985,-0.051223755,-0.0030975342,-0.01449585,-40.438843,21.1792,5.758667,0,0.0,0.0,0.0,0.0
0.356933593,-0.03162974,0.20556344,-0.97813255,-0.0149232205,0.9784159,0.20610556,0.9993882,0.021115953,-0.027879376,0.35823286,0.19163202,-0.91375405,-0.08483264,0.9813412,0.17254815,0.92977023,0.01570375,0.3678053,9.984055,0.10169983,-0.3026886,9.800651,0.20707676,-0.2734033,-0.05168152,-0.008590698,-0.0146484375,-40.438843,21.1792,5.758667,0,0.0,0.0,0.0,0.0
0.365234375,-0.03145878,0.18982747,-0.9813133,-0.015390056,0.9815908,0.19037452,0.99938655,0.02109142,-0.027958198,0.3507842,0.19191113,-0.9165809,-0.08363266,0.981285,0.17345166,0.93271434,0.015812,0.3602693,9.984055,0.10169983,-0.3026886,9.800634,0.20683618,-0.27417627,-0.04801941,-0.010116577,-0.012512207,-40.559387,20.878601,5.3390503,0,0.0,0.0,0.0,0.0
0.373535156,-0.031604383,0.1895568,-0.981361,-0.015381452,0.9816429,0.19010662,0.9993821,0.02110296,-0.028108561,0.3363164,0.19182871,-0.9220049,-0.08106305,0.9812977,0.17459585,0.93825376,0.016021075,0.34557673,9.985245,0.11605835,-0.33021545,9.8005905,0.20694934,-0.27565083,-0.047409058,-0.0096588135,-0.01876831,-40.559387,20.878601,5.3390503,0,0.0,0.0,0.0,0.0
0.381835937,-0.031569753,0.17927381,-0.9832925,-0.015710585,0.98357236,0.17982924,0.9993781,0.021125268,-0.02823464,0.32233787,0.19173883,-0.927003,-0.078576595,0.9813119,0.17564927,0.9433578,0.016222326,0.33138016,9.970886,0.095718384,-0.29551697,9.800551,0.20716812,-0.27688724,-0.045578003,-0.0124053955,-0.017547607,-40.79895,20.458984,5.039978,0,0.0,0.0,0.0,0.0
0.390136718,-0.031672664,0.17907661,-0.9833251,-0.015692694,0.98360837,0.17963365,0.9993751,0.021120498,-0.028343301,0.3155444,0.19148985,-0.9293887,-0.077299625,0.9813589,0.17595306,0.94575715,0.01632039,0.3244644,9.970886,0.095718384,-0.29551697,9.800522,0.20712134,-0.27795285,-0.05000305,-0.01637268,-0.015258789,-40.79895,20.458984,5.039978,0,0.0,0.0,0.0,0.0
0.3984375,-0.031595074,0.1652189,-0.9857508,-0.016132567,0.98603034,0.16578284,0.9993705,0.021140607,-0.028488291,0.3023089,0.19099888,-0.93387836,-0.07481783,0.9814514,0.1765091,0.9502692,0.016510483,0.3109916,9.951752,0.117248535,-0.29910278,9.800477,0.20731854,-0.27937472,-0.050460815,-0.017288208,-0.016021729,-41.218567,20.039368,4.6798706,0,0.0,0.0,0.0,0.0
0.406738281,-0.031774793,0.16486186,-0.9858047,-0.016123716,0.98608977,0.16542923,0.999365,0.021151315,-0.028674614,0.2895723,0.18998036,-0.9381127,-0.07227254,0.981646,0.17648768,0.95442367,0.016693844,0.29798782,9.957733,0.119644165,-0.33259583,9.800423,0.20742355,-0.2812019,-0.049545288,-0.0067596436,-0.009765625,-41.218567,20.039368,4.6798706,0,0.0,0.0,0.0,0.0
0.415039062,-0.031763557,0.15651238,-0.98716515,-0.016349584,0.98744994,0.1570836,0.99936163,0.021129273,-0.028806007,0.28336987,0.18947913,-0.9401059,-0.07104064,0.9817413,0.17645746,0.95637584,0.016782995,0.2916566,9.957733,0.119644165,-0.33259583,9.80039,0.20720738,-0.28249043,-0.04878235,-0.0014190674,-0.00730896,-41.39862,19.979858,4.499817,0,0.0,0.0,0.0,0.0
0.423339843,-0.03182365,0.15639171,-0.9871822,-0.0163453,0.9874689,0.15696405,0.9993598,0.021130962,-0.0288686,0.27131426,0.1881774,-0.9439162,-0.068567894,0.98198867,0.17605868,0.9600453,0.016955115,0.27933046,9.9673,0.12802124,-0.32063293,9.800372,0.20722395,-0.28310427,-0.042373657,-0.0053863525,-0.023803711,-41.39862,19.979858,4.499817,0,0.0,0.0,0.0,0.0
0.431640625,-0.031734176,0.14823924,-0.9884422,-0.016598336,0.98872566,0.14881465,0.9993585,0.02112901,-0.028915873,0.25968572,0.18692218,-0.9474299,-0.06621213,0.9822255,0.17563874,0.9634206,0.017120484,0.2674465,9.976868,0.09211731,-0.33259583,9.800359,0.20720482,-0.28356785,-0.045272827,0.012481689,-0.017700195,-41.218567,19.979858,4.319763,0,0.0,0.0,0.0,0.0
0.439941406,-0.031733386,0.14824083,-0.98844206,-0.016602699,0.9887255,0.14881636,0.9993585,0.021133251,-0.028914407,0.25403863,0.18615113,-0.9491112,-0.06503483,0.98237056,0.17526715,0.9650051,0.017200658,0.2616664,9.976868,0.09211731,-0.33259583,9.800359,0.20724641,-0.28355348,-0.052749634,0.009124756,-0.018920898,-41.218567,19.979858,4.319763,0,0.0,0.0,0.0,0.0
0.448242187,-0.031687357,0.14990221,-0.988193,-0.016589448,0.9884744,0.15047686,0.99936014,0.021161787,-0.028835343,0.2430505,0.18465468,-0.95227575,-0.06277011,0.98265016,0.17452367,0.9679806,0.017356392,0.2504244,9.980469,0.12083435,-0.29551697,9.800376,0.20752627,-0.28277814,-0.05229187,0.012329102,-0.01876831,-40.919495,20.219421,4.3792725,0,0.0,0.0,0.0,0.0
0.456542968,-0.031622373,0.15002993,-0.9881756,-0.0166134,0.9884545,0.15060392,0.99936175,0.021179412,-0.028764773,0.23245905,0.18328252,-0.95518076,-0.060636684,0.98290443,0.17384526,0.9707142,0.017507093,0.23959868,9.962524,0.11126709,-0.30389404,9.800391,0.20769908,-0.28208607,-0.052139282,0.0095825195,-0.016937256,-40.919495,20.219421,4.3792725,0,0.0,0.0,0.0,0.0
0.46484375,-0.031640455,0.15541743,-0.98734206,-0.016478484,0.9876213,0.15598945,0.9993635,0.021205477,-0.028687742,0.22731023,0.18261935,-0.95654595,-0.059611276,0.9830265,0.17350906,0.9719961,0.017580543,0.23433815,9.962524,0.11126709,-0.30389404,9.800408,0.2079547,-0.28133065,-0.050613403,0.011566162,-0.022735596,-41.09955,20.219421,4.499817,0,0.0,0.0,0.0,0.0
0.473144531,-0.03157586,0.1555447,-0.98732406,-0.016502498,0.9876008,0.15611608,0.9993651,0.021222813,-0.028617468,0.21728723,0.18154465,-0.9590765,-0.057685513,0.983223,0.1730462,0.9744017,0.017724095,0.22411428,9.957733,0.098098755,-0.30508423,9.800425,0.20812473,-0.28064153,-0.051223755,0.007598877,-0.019836426,-41.09955,20.219421,4.499817,0,0.0,0.0,0.0,0.0
0.481445312,-0.03143799,0.15266424,-0.9877779,-0.016647384,0.98804927,0.15323603,0.999367,0.021261353,-0.028520824,0.20763677,0.18051727,-0.9614055,-0.0558535,0.9834096,0.17258605,0.9766101,0.017862648,0.21427453,9.96611,0.11126709,-0.275177,9.800443,0.20850265,-0.27969375,-0.04725647,-0.0018615723,-0.01739502,-41.279602,20.219421,4.4387817,0,0.0,0.0,0.0,0.0
0.489746093,-0.03139945,0.15274064,-0.9877674,-0.016675193,0.98803705,0.15331243,0.9993678,0.021285135,-0.028476838,0.20295194,0.17996153,-0.96250933,-0.054959603,0.9835102,0.17229946,0.9776451,0.017930623,0.20949593,9.96611,0.11126709,-0.275177,9.80045,0.20873587,-0.2792624,-0.046798706,-0.0040130615,-0.01739502,-41.279602,20.219421,4.4387817,0,0.0,0.0,0.0,0.0
0.498046875,-0.031780176,0.17032528,-0.98487526,-0.016111882,0.9851576,0.17089401,0.999365,0.021299236,-0.028564222,0.1938461,0.17888601,-0.9645846,-0.05323866,0.983704,0.17173275,0.9795863,0.018063465,0.20021085,9.973282,0.117248535,-0.32661438,9.800423,0.20887415,-0.28011933,-0.045578003,-0.011184692,-0.0119018555,-41.279602,20.399475,4.8599243,0,0.0,0.0,0.0,0.0
0.506347656,-0.031891473,0.17010814,-0.9849092,-0.016107649,0.9851949,0.17067906,0.99936146,0.02130778,-0.028679278,0.1850411,0.17854726,-0.96637505,-0.051731195,0.9837632,0.17185442,0.98136824,0.018191606,0.19127308,9.984055,0.13279724,-0.3062744,9.800388,0.20895794,-0.28124765,-0.053359985,-0.024017334,-0.012817383,-41.279602,20.399475,4.8599243,0,0.0,0.0,0.0,0.0
0.514648437,-0.032239012,0.18116166,-0.98292476,-0.015717864,0.9832225,0.18173206,0.9993566,0.02130834,-0.028850647,0.18076222,0.1783786,-0.9672156,-0.050999764,0.9837926,0.17190449,0.98220366,0.018253934,0.1869298,9.984055,0.13279724,-0.3062744,9.800341,0.20896344,-0.2829282,-0.05076599,-0.017593384,-0.016937256,-40.979004,20.698547,5.1589966,0,0.0,0.0,0.0,0.0
0.522949218,-0.032453828,0.18075334,-0.9829929,-0.015690181,0.9832976,0.18132739,0.9993501,0.021308104,-0.029075718,0.17242001,0.17848888,-0.9687172,-0.04965767,0.9837704,0.172424,0.983771,0.018374892,0.17848502,9.96611,0.11366272,-0.34576416,9.800277,0.20896111,-0.2851354,-0.05229187,-0.01423645,-0.016937256,-40.979004,20.698547,5.1589966,0,0.0,0.0,0.0,0.0
0.53125,-0.032673974,0.18128952,-0.98288685,-0.01561876,0.9831992,0.18186635,0.999344,0.02129377,-0.029293507,0.16438843,0.17857863,-0.97009593,-0.04835957,0.9837519,0.17289765,0.9852095,0.018491048,0.17035341,9.98764,0.10647583,-0.37088013,9.800218,0.20882058,-0.2872712,-0.05458069,-0.0040130615,-0.013885498,-40.79895,20.939636,5.218506,0,0.0,0.0,0.0,0.0
0.539550781,-0.03282516,0.18100671,-0.98293394,-0.015568624,0.98325205,0.1815852,0.9993399,0.021263491,-0.029457375,0.16048409,0.17863289,-0.9707395,-0.047729053,0.9837409,0.17313474,0.9858837,0.018547105,0.16640076,9.98764,0.10647583,-0.37088013,9.800177,0.20852363,-0.28887817,-0.048171997,0.0056152344,-0.015258789,-40.79895,20.939636,5.218506,0,0.0,0.0,0.0,0.0
0.547851562,-0.03329161,0.20615503,-0.97795284,-0.014704383,0.9782883,0.20672631,0.9993375,0.021262445,-0.029537411,0.15289535,0.17872696,-0.97194636,-0.04649835,0.98372185,0.17357773,0.9871479,0.018654676,0.15871699,9.968506,0.11366272,-0.38046265,9.800154,0.20851338,-0.28966308,-0.049087524,0.019821167,-0.017089844,-40.438843,21.359253,5.8792114,0,0.0,0.0,0.0,0.0
0.556152343,-0.033214085,0.20629443,-0.9779261,-0.014728464,0.97825867,0.20686482,0.9993397,0.021274175,-0.029453564,0.14554954,0.179816,-0.9728728,-0.045459844,0.9835214,0.17498302,0.988306,0.018757947,0.1513255,9.9673,0.122039795,-0.33259583,9.800175,0.2086284,-0.2888408,-0.051071167,0.02684021,-0.0146484375,-40.438843,21.359253,5.8792114,0,0.0,0.0,0.0,0.0
0.564453125,-0.033200398,0.21490638,-0.97607017,-0.01446716,0.9764028,0.21547171,0.99934393,0.02127471,-0.029307878,0.1419858,0.18034695,-0.9733011,-0.04495035,0.98342323,0.17566513,0.98884755,0.018808274,0.14773878,9.9673,0.122039795,-0.33259583,9.800217,0.20863363,-0.2874121,-0.04862976,0.02897644,-0.017852783,-40.078735,21.598816,6.1187744,0,0.0,0.0,0.0,0.0
0.572753906,-0.03300139,0.21525577,-0.9759999,-0.014512872,0.97632575,0.21581836,0.99935,0.021286868,-0.029096125,0.13848706,0.18104053,-0.97367644,-0.044471733,0.98329484,0.17650367,0.9893653,0.018857602,0.1442248,9.979263,0.11605835,-0.30389404,9.800276,0.20875287,-0.2853355,-0.05091858,0.025924683,-0.018920898,-40.078735,21.598816,6.1187744,0,0.0,0.0,0.0,0.0
0.581054687,-0.03279809,0.21561265,-0.975928,-0.01458711,0.97624606,0.21617316,0.99935555,0.021326035,-0.02887384,0.13170278,0.1824,-0.9743637,-0.04353138,0.9830417,0.17814046,0.99033296,0.018953802,0.13740945,9.961319,0.124420166,-0.3062744,9.80033,0.20913698,-0.28315565,-0.05458069,0.030960083,-0.017852783,-40.078735,21.598816,6.1187744,0,0.0,0.0,0.0,0.0
0.589355468,-0.03280088,0.2321954,-0.97211593,-0.01410485,0.9724349,0.23274751,0.99936235,0.021345872,-0.028621636,0.12203231,0.18435949,-0.9752537,-0.042161837,0.9826734,0.18048643,0.99163026,0.019093312,0.12769084,9.972092,0.13160706,-0.28355408,9.800397,0.20933151,-0.28068238,-0.047409058,0.04135132,-0.021972656,-39.959717,21.479797,6.478882,0,0.0,0.0,0.0,0.0
0.59765625,-0.032491807,0.23076452,-0.972467,-0.0142902285,0.97277397,0.23131484,0.9993698,0.021412611,-0.028309505,0.11892631,0.18532097,-0.9754551,-0.041756354,0.9824916,0.18156692,0.99202466,0.019138366,0.12458244,9.972092,0.13160706,-0.28355408,9.80047,0.20998599,-0.27762142,-0.047409058,0.037368774,-0.020751953,-39.779663,21.958923,6.539917,0,0.0,0.0,0.0,0.0
0.605957031,-0.032208655,0.23124616,-0.9723619,-0.014415943,0.972658,0.23179409,0.9993772,0.021483293,-0.02799438,0.11588924,0.18623416,-0.97564673,-0.041351784,0.9823181,0.18259574,0.992401,0.019183852,0.12154121,9.972092,0.13160706,-0.28355408,9.800543,0.21067914,-0.2745311,-0.05458069,0.034469604,-0.01953125,-39.779663,21.958923,6.539917,0,0.0,0.0,0.0,0.0
0.614257812,-0.032188702,0.24736702,-0.968387,-0.013998026,0.96868247,0.24790779,0.99938375,0.021535337,-0.027717981,0.1100063,0.18802486,-0.9759842,-0.04055693,0.98197514,0.18460773,0.9931031,0.019274915,0.11564916,9.964905,0.12562561,-0.27038574,9.800607,0.21118952,-0.27182055,-0.051376343,0.014465332,-0.018920898,-39.239502,22.138977,6.9595337,0,0.0,0.0,0.0,0.0
0.622558593,-0.03201049,0.24766119,-0.9683178,-0.014053056,0.96860707,0.24819973,0.9993888,0.021552816,-0.027525185,0.10714439,0.18921933,-0.97607183,-0.040200867,0.9817448,0.18590617,0.99343044,0.019320127,0.11279523,9.978073,0.10887146,-0.24526978,9.800656,0.21136093,-0.26992986,-0.046798706,0.001953125,-0.016937256,-39.239502,22.138977,6.9595337,0,0.0,0.0,0.0,0.0
0.630859375,-0.0319559,0.24775122,-0.9682965,-0.014073562,0.96858364,0.24828915,0.9993901,0.021561684,-0.027465224,0.10159859,0.19154802,-0.9762106,-0.039492756,0.98129135,0.18843475,0.99404126,0.01940854,0.10726258,9.969696,0.12921143,-0.3026886,9.80067,0.2114479,-0.26934186,-0.0443573,-0.004776001,-0.02243042,-39.239502,22.138977,6.9595337,0,0.0,0.0,0.0,0.0
0.639160156,-0.032053255,0.24899079,-0.96797526,-0.014047999,0.968265,0.2495305,0.99938744,0.021596381,-0.027538225,0.096275255,0.19378711,-0.9763081,-0.038788218,0.98084986,0.19086364,0.9945987,0.019493807,0.10194824,9.98645,0.1268158,-0.2871399,9.800643,0.21178816,-0.27005774,-0.04725647,-0.01576233,-0.014038086,-39.118958,22.019958,6.9595337,0,0.0,0.0,0.0,0.0
0.647460937,-0.03208081,0.2433418,-0.96940994,-0.014202451,0.9697002,0.24388468,0.99938434,0.021592015,-0.027652722,0.09369104,0.19489792,-0.9763385,-0.038440242,0.9806289,0.19206561,0.994859,0.01953586,0.09936807,9.956528,0.110076904,-0.28953552,9.800613,0.21174535,-0.2711806,-0.04786682,-0.014541626,-0.0132751465,-39.179993,22.079468,6.8389893,0,0.0,0.0,0.0,0.0
0.655761718,-0.03224822,0.24306457,-0.9694739,-0.014162292,0.96976995,0.24360988,0.9993796,0.021585958,-0.027831005,0.088681564,0.19682632,-0.9764195,-0.03772623,0.9802421,0.19417049,0.9953453,0.019617284,0.09435491,9.974487,0.12322998,-0.31585693,9.800566,0.21168594,-0.27292892,-0.054275513,-0.019119263,-0.016021729,-39.179993,22.079468,6.8389893,0,0.0,0.0,0.0,0.0
0.6640625,-0.032489147,0.24811049,-0.96818686,-0.013958554,0.9684911,0.24865685,0.99937457,0.021593135,-0.028002184,0.08386476,0.19866654,-0.9764724,-0.03701865,0.97986925,0.19617827,0.9957893,0.019695245,0.08953087,9.974487,0.12322998,-0.31585693,9.800517,0.21175632,-0.27460763,-0.053970337,-0.0069122314,-0.01020813,-39.179993,22.259521,7.019043,0,0.0,0.0,0.0,0.0
0.672363281,-0.032609683,0.24791294,-0.9682333,-0.013924396,0.96854174,0.24846089,0.9993711,0.021584297,-0.028131805,0.07922575,0.20063516,-0.9764573,-0.03633675,0.97946656,0.19830526,0.99619424,0.0197704,0.0848894,9.958923,0.1040802,-0.3397827,9.800484,0.21166967,-0.2758788,-0.047409058,-3.3569336E-4,-0.01373291,-39.179993,22.259521,7.019043,0,0.0,0.0,0.0,0.0
0.680664062,-0.032702126,0.2477615,-0.96826893,-0.013851311,0.9685817,0.24830934,0.99936914,0.02153204,-0.02824286,0.076973714,0.20158575,-0.9764417,-0.03599806,0.97927064,0.19933203,0.9963831,0.01980668,0.082634784,9.96611,0.10647583,-0.33380127,9.800464,0.21115719,-0.27696785,-0.05305481,-3.3569336E-4,-0.01373291,-39.179993,22.259521,7.019043,0,0.0,0.0,0.0,0.0
0.688964843,-0.032483365,0.23263334,-0.9720218,-0.01433707,0.9723265,0.23318538,0.99936944,0.021510595,-0.028249163,0.072601,0.20342368,-0.97639537,-0.035324614,0.97888905,0.20131662,0.9967353,0.019875003,0.078254186,9.969696,0.11126709,-0.31704712,9.800467,0.21094689,-0.27702966,-0.054122925,0.017669678,-0.016937256,-39.419556,22.31903,6.6589355,0,0.0,0.0,0.0,0.0
0.697265625,-0.032476943,0.23986101,-0.9702639,-0.014100309,0.97056943,0.24040852,0.999373,0.021488752,-0.028139008,0.068424076,0.20458406,-0.97645456,-0.03461879,0.97864586,0.2026173,0.9970555,0.019939775,0.07404539,9.972092,0.098098755,-0.28953552,9.800502,0.21073268,-0.27594942,-0.04664612,0.016921997,-0.016937256,-39.479065,22.31903,6.8389893,0,0.0,0.0,0.0,0.0
0.705566406,-0.03235273,0.24006641,-0.9702172,-0.014124105,0.97051865,0.24061199,0.9993767,0.021487903,-0.028008204,0.06639546,0.20529242,-0.976446,-0.034282587,0.9784969,0.2033925,0.9972043,0.019970754,0.072005704,9.9673,0.10647583,-0.29551697,9.800538,0.21072434,-0.27466667,-0.04664612,0.019515991,-0.016479492,-39.479065,22.31903,6.8389893,0,0.0,0.0,0.0,0.0
0.713867187,-0.032076944,0.2307533,-0.97248346,-0.014460977,0.9727751,0.23129949,0.9993807,0.02148244,-0.027866734,0.062464606,0.20667477,-0.97641367,-0.033623055,0.97820467,0.20490287,0.9974807,0.020030836,0.0680522,9.9673,0.10647583,-0.29551697,9.800577,0.21067077,-0.2732793,-0.045578003,0.01675415,-0.013885498,-39.59961,22.558594,6.6589355,0,0.0,0.0,0.0,0.0
0.722167968,-0.0319594,0.23094717,-0.9724412,-0.014456335,0.9727296,0.23149076,0.9993846,0.021456243,-0.027749207,0.060567375,0.20715763,-0.97643083,-0.033287834,0.97810185,0.2054473,0.99760884,0.020059867,0.06613689,9.98764,0.098098755,-0.30389404,9.800615,0.21041387,-0.27212676,-0.052444458,0.010498047,-0.016021729,-39.59961,22.558594,6.6589355,0,0.0,0.0,0.0,0.0
0.73046875,-0.0318483,0.23113045,-0.9724014,-0.014467214,0.9726864,0.23167203,0.99938804,0.021446299,-0.02763459,0.05689097,0.20810218,-0.9764512,-0.032632157,0.9779002,0.20650977,0.99784696,0.020115165,0.062424507,9.984055,0.11126709,-0.2715912,9.800649,0.21031636,-0.27100277,-0.052597046,0.0065307617,-0.014953613,-39.59961,22.558594,6.6589355,0,0.0,0.0,0.0,0.0
0.738769531,-0.03178388,0.22928043,-0.9728413,-0.014512109,0.97312456,0.22982131,0.99938935,0.021422595,-0.027602335,0.055110086,0.20856395,-0.9764548,-0.032311905,0.97780126,0.20702791,0.9979573,0.020141788,0.06062581,9.962524,0.10887146,-0.28355408,9.800662,0.21008389,-0.27068645,-0.047409058,-0.0040130615,-0.010513306,-39.59961,22.259521,6.539917,0,0.0,0.0,0.0,0.0
0.747070312,-0.031731497,0.22526194,-0.97378147,-0.014590032,0.9740639,0.2258027,0.99938995,0.021372557,-0.027621923,0.051658712,0.2093862,-0.9764675,-0.031680897,0.9776245,0.20795827,0.99816215,0.02019251,0.057136364,9.978073,0.095718384,-0.28953552,9.800667,0.20959318,-0.27087852,-0.052597046,-0.002166748,-0.018310547,-39.959717,22.37854,6.478882,0,0.0,0.0,0.0,0.0
0.755371093,-0.031770583,0.22519618,-0.97379535,-0.014567826,0.9740794,0.22573714,0.999389,0.02135788,-0.027666446,0.048349313,0.21001597,-0.97650176,-0.031059112,0.97748846,0.20869036,0.99834746,0.02023924,0.053783804,9.96611,0.105285645,-0.29431152,9.800658,0.20944926,-0.27131516,-0.043884277,-0.011795044,-0.021057129,-39.959717,22.37854,6.478882,0,0.0,0.0,0.0,0.0
0.763671875,-0.031869583,0.2250296,-0.9738306,-0.014551384,0.97411776,0.22557217,0.9993861,0.021359473,-0.027770234,0.04674334,0.21032007,-0.97651446,-0.03075531,0.9774226,0.20904349,0.9984334,0.020261614,0.052156456,9.96611,0.105285645,-0.29431152,9.80063,0.20946488,-0.27233297,-0.05229187,-0.016067505,-0.009597778,-39.959717,22.37854,6.478882,0,0.0,0.0,0.0,0.0
0.771972656,-0.03180267,0.21058784,-0.9770575,-0.014956381,0.9773423,0.21113604,0.99938226,0.021327933,-0.027932461,0.043623555,0.21090351,-0.97653306,-0.030161666,0.977296,0.20972092,0.9985926,0.02030509,0.048994325,9.968506,0.0993042,-0.3146515,9.800592,0.20915557,-0.27392387,-0.053207397,-0.0096588135,-0.018310547,-40.078735,22.619629,6.1798096,0,0.0,0.0,0.0,0.0
0.780273437,-0.031949785,0.21034041,-0.97710603,-0.0149223525,0.9773958,0.21089073,0.9993781,0.021318633,-0.028088812,0.040638775,0.21089104,-0.9766644,-0.029561346,0.9772978,0.20979775,0.9987365,0.020345593,0.04595041,9.954147,0.0993042,-0.3146515,9.800551,0.20906438,-0.27545714,-0.045578003,-0.015151978,-0.019378662,-40.078735,22.619629,6.1798096,0,0.0,0.0,0.0,0.0
0.788574218,-0.032215543,0.21817604,-0.97537756,-0.014632719,0.97567654,0.2187262,0.9993738,0.02131881,-0.028239442,0.039188,0.21088006,-0.9767261,-0.029269058,0.9772998,0.20982957,0.9988031,0.020365054,0.044470683,9.9756775,0.107681274,-0.32183838,9.800509,0.20906612,-0.27693433,-0.045578003,-0.008590698,-0.010375977,-39.779663,22.558594,6.3598633,0,0.0,0.0,0.0,0.0
0.796875,-0.032195807,0.21124978,-0.9769017,-0.01484276,0.9771997,0.21180339,0.9993714,0.021319099,-0.028326202,0.036357846,0.2111692,-0.9767731,-0.02871216,0.97723657,0.21020065,0.9989263,0.020402823,0.041593343,9.981659,0.119644165,-0.30747986,9.800486,0.20906894,-0.27778515,-0.049545288,0.0010375977,-0.014953613,-39.718628,22.799683,6.239319,0,0.0,0.0,0.0,0.0
0.805175781,-0.03225568,0.2111508,-0.97692114,-0.014839295,0.9772208,0.21170552,0.99936944,0.021325527,-0.028387593,0.03364423,0.21117242,-0.97686964,-0.028165335,0.9772351,0.21028137,0.9990369,0.020439107,0.038826063,10.001999,0.124420166,-0.33140564,9.800467,0.20913199,-0.2783872,-0.04710388,0.0031738281,-0.013427734,-39.718628,22.799683,6.239319,0,0.0,0.0,0.0,0.0
0.813476562,-0.03228855,0.21109645,-0.9769318,-0.0148314815,0.97723264,0.21165165,0.99936855,0.021323271,-0.028422553,0.032326773,0.211172,-0.97691417,-0.02789983,0.9772348,0.21031807,0.9990878,0.020456836,0.03748251,9.978073,0.122039795,-0.32063293,9.800458,0.20910986,-0.27873003,-0.04710388,0.0028686523,-0.012664795,-39.718628,22.799683,6.239319,0,0.0,0.0,0.0,0.0
0.821777343,-0.03243958,0.22164528,-0.9745876,-0.01448906,0.97489405,0.22219725,0.99936867,0.021328844,-0.028413722,0.02976886,0.211169,-0.9769962,-0.027384043,0.9772347,0.2103862,0.9991816,0.020491146,0.034873825,9.969696,0.12083435,-0.3397827,9.800459,0.20916452,-0.27864343,-0.050308228,0.015533447,-0.0146484375,-39.538574,22.439575,6.4193726,0,0.0,0.0,0.0,0.0
0.830078125,-0.032404892,0.221703,-0.9745757,-0.014518386,0.97488046,0.22225507,0.9993693,0.021351416,-0.028372124,0.02730091,0.21158436,-0.9769783,-0.026900517,0.9771442,0.21086857,0.99926525,0.02052432,0.032368653,9.969696,0.12083435,-0.3397827,9.800466,0.20938586,-0.2782355,-0.05091858,0.023025513,-0.023345947,-39.538574,22.439575,6.4193726,0,0.0,0.0,0.0,0.0
0.838378906,-0.032334916,0.22157578,-0.97460693,-0.0145876,0.97490835,0.22212829,0.99937063,0.021399673,-0.028291317,0.026104618,0.21178696,-0.9769672,-0.026665822,0.97709996,0.21110325,0.9993035,0.020540861,0.031154294,9.962524,0.12562561,-0.31944275,9.800478,0.2098591,-0.27744305,-0.05366516,0.015686035,-0.022277832,-39.718628,22.439575,6.4193726,0,0.0,0.0,0.0,0.0
0.846679687,-0.032144822,0.21453167,-0.97618794,-0.014909839,0.976481,0.21508704,0.99937195,0.02146874,-0.028190177,0.023786195,0.21217503,-0.9769421,-0.02621128,0.9770151,0.21155266,0.9993734,0.020574873,0.028800853,9.970886,0.10647583,-0.3014984,9.800491,0.21053642,-0.2764512,-0.047714233,0.0138549805,-0.016326904,-39.718628,22.439575,6.239319,0,0.0,0.0,0.0,0.0
0.854980468,-0.032063197,0.21466853,-0.9761605,-0.014934783,0.9764507,0.2152229,0.9993742,0.02147948,-0.028102104,0.021570515,0.21226837,-0.97697335,-0.025770236,0.97699404,0.21170391,0.9994351,0.02061027,0.026544468,9.991226,0.110076904,-0.2979126,9.800514,0.21064177,-0.27558753,-0.045425415,0.0042419434,-0.015258789,-39.718628,22.439575,6.239319,0,0.0,0.0,0.0,0.0
0.86328125,-0.032019928,0.21474107,-0.976146,-0.0149309775,0.97643495,0.2152944,0.99937564,0.021468526,-0.028059086,0.02049746,0.21231636,-0.976986,-0.025556762,0.9769832,0.2117796,0.9994632,0.020627653,0.025451794,9.979263,0.11366272,-0.30029297,9.800528,0.21053432,-0.27516565,-0.049850464,0.003479004,-0.014190674,-39.718628,22.439575,6.239319,0,0.0,0.0,0.0,0.0
0.871582031,-0.03207154,0.21671112,-0.9757088,-0.014849557,0.97599995,0.21726389,0.9993753,0.021456832,-0.028083757,0.018416876,0.21241245,-0.9770065,-0.025142124,0.9769617,0.21192874,0.9995142,0.020660954,0.023333082,9.991226,0.110076904,-0.29193115,9.800524,0.21041964,-0.27540758,-0.057937622,-0.01210022,-0.0146484375,-39.59961,22.499084,6.298828,0,0.0,0.0,0.0,0.0
0.879882812,-0.032144792,0.21658908,-0.97573346,-0.01480953,0.97602755,0.21714225,0.9993735,0.02143015,-0.028166626,0.017406283,0.21249846,-0.9770063,-0.024941191,0.9769426,0.21204025,0.99953735,0.02067687,0.022304904,9.991226,0.110076904,-0.29193115,9.800506,0.21015798,-0.27622023,-0.052597046,-0.014541626,-0.010375977,-39.59961,22.499084,6.298828,0,0.0,0.0,0.0,0.0
0.888183593,-0.03220522,0.21141787,-0.976865,-0.014928653,0.9771612,0.21197414,0.9993698,0.021409955,-0.02831351,0.015442431,0.21266052,-0.9770041,-0.0245489,0.9769067,0.21225129,0.99957937,0.020706698,0.020306395,9.963715,0.124420166,-0.3146515,9.80047,0.20995994,-0.2776607,-0.05091858,-0.011184692,-0.01020813,-39.35852,22.558594,6.1798096,0,0.0,0.0,0.0,0.0
0.896484375,-0.032584462,0.22749595,-0.9732337,-0.014350167,0.9735439,0.22804892,0.9993659,0.021396918,-0.028457802,0.013555919,0.21261133,-0.9770428,-0.02416657,0.97691685,0.21224862,0.999616,0.020734549,0.018381093,9.964905,0.11605835,-0.30029297,9.800432,0.20983209,-0.2790757,-0.042678833,-0.015304565,-0.015106201,-39.35852,22.079468,6.478882,0,0.0,0.0,0.0,0.0
0.904785156,-0.032690827,0.22731756,-0.97327185,-0.014323408,0.9735857,0.22787197,0.9993628,0.021389892,-0.028571358,0.012630185,0.21290953,-0.9769903,-0.02398446,0.97685164,0.21256924,0.9996326,0.020747798,0.017444337,9.964905,0.11605835,-0.30029297,9.800402,0.2097632,-0.2801893,-0.047561646,-0.0066070557,-0.014343262,-39.35852,22.079468,6.478882,0,0.0,0.0,0.0,0.0
0.913085937,-0.032823265,0.22709538,-0.9733193,-0.014298863,0.97363764,0.22765186,0.99935883,0.021389633,-0.028710758,0.010830037,0.21348102,-0.97688717,-0.02362813,0.9767263,0.21318392,0.99966216,0.020773226,0.015622141,9.974487,0.114852905,-0.34457397,9.800363,0.20976065,-0.28155637,-0.053359985,-0.0026397705,-0.018615723,-39.35852,22.079468,6.478882,0,0.0,0.0,0.0,0.0
0.921386718,-0.032635644,0.21126345,-0.9768842,-0.014828156,0.97719485,0.21182603,0.9993573,0.021398468,-0.028758738,0.009096454,0.21402097,-0.9767867,-0.023282604,0.9766076,0.2137649,0.9996875,0.020797636,0.013866632,9.980469,0.110076904,-0.31704712,9.800347,0.20984729,-0.2820269,-0.04664612,0.0030212402,-0.016937256,-39.839172,22.138977,6.1187744,0,0.0,0.0,0.0,0.0
0.9296875,-0.03265017,0.21123865,-0.9768891,-0.014844332,0.9771999,0.211802,0.9993566,0.021416636,-0.028770043,0.008262271,0.21396583,-0.9768063,-0.023111593,0.9766195,0.21372946,0.99969876,0.020809654,0.013014185,9.980469,0.110076904,-0.31704712,9.800341,0.21002546,-0.28213775,-0.04862976,0.004699707,-0.020141602,-39.839172,22.138977,6.1187744,0,0.0,0.0,0.0,0.0
0.937988281,-0.032623336,0.2105061,-0.977048,-0.014918881,0.97735685,0.21107079,0.9993564,0.021462299,-0.028744133,0.0066429195,0.21385789,-0.97684216,-0.022780562,0.9766426,0.21365926,0.9997184,0.020833692,0.01135956,9.973282,0.117248535,-0.32183838,9.800339,0.21047325,-0.28188366,-0.050613403,0.016296387,-0.016937256,-40.319824,21.598816,5.999756,0,0.0,0.0,0.0,0.0
0.946289062,-0.032433722,0.1998332,-0.979293,-0.015290555,0.9795945,0.20040114,0.99935687,0.021473689,-0.028716339,0.005088725,0.2137252,-0.9768806,-0.022464715,0.9766711,0.21356234,0.9997347,0.020858584,0.0097712865,9.988831,0.095718384,-0.3481598,9.8003435,0.21058495,-0.28161108,-0.047409058,0.016296387,-0.01663208,-40.79895,21.598816,5.758667,0,0.0,0.0,0.0,0.0
0.954589843,-0.03239931,0.19989514,-0.97928154,-0.015279799,0.9795823,0.20046207,0.9993582,0.021458056,-0.028683433,0.0043402584,0.21344776,-0.97694486,-0.022311056,0.97673154,0.21330202,0.9997417,0.020870885,0.009001512,9.988831,0.095718384,-0.3481598,9.800357,0.21043167,-0.28128842,-0.057022095,0.009735107,-0.015411377,-40.79895,21.598816,5.758667,0,0.0,0.0,0.0,0.0
0.962890625,-0.032349344,0.19998509,-0.9792648,-0.015305449,0.9795636,0.2005517,0.9993594,0.021475801,-0.028627371,0.0028889258,0.21291181,-0.9770672,-0.022013739,0.97684795,0.21279897,0.9997535,0.02089414,0.007509027,9.984055,0.122039795,-0.3146515,9.800368,0.21060567,-0.28073862,-0.04588318,0.008056641,-0.018310547,-40.79895,21.598816,5.758667,0,0.0,0.0,0.0,0.0
0.971191406,-0.032241195,0.19368958,-0.98053294,-0.015534427,0.9808274,0.19425854,0.9993594,0.021495145,-0.02861419,0.0014968677,0.21240059,-0.9771815,-0.021730853,0.97695875,0.2123189,0.9997627,0.020917173,0.006078024,9.970886,0.12322998,-0.30747986,9.800368,0.21079537,-0.28060934,-0.04786682,-0.005844116,-0.012359619,-40.618896,21.479797,5.5786133,0,0.0,0.0,0.0,0.0
0.979492187,-0.032282762,0.19361444,-0.9805464,-0.015530642,0.9808421,0.19418414,0.99935806,0.021497315,-0.028657336,8.244668E-4,0.2120271,-0.9772635,-0.021594472,0.9770397,0.21196033,0.99976647,0.020928733,0.0053841495,9.970886,0.12322998,-0.30747986,9.800355,0.21081665,-0.28103247,-0.046188354,-0.0067596436,-0.012969971,-40.618896,21.479797,5.5786133,0,0.0,0.0,0.0,0.0
0.987792968,-0.032549605,0.20642783,-0.97792035,-0.01509,0.97822577,0.20699456,0.9993562,0.021494405,-0.028725859,-4.8225792E-4,0.21129932,-0.9774213,-0.021330992,0.9771968,0.21126132,0.9997723,0.020951247,0.0040359627,9.964905,0.12322998,-0.28355408,9.800337,0.21078812,-0.28170446,-0.05366516,-0.01789856,-0.015258789,-40.67993,21.71936,5.9387207,0,0.0,0.0,0.0,0.0
0.99609375,-0.032550782,0.19891699,-0.9794756,-0.015326802,0.9797803,0.19948822,0.9993525,0.021505725,-0.028843852,-0.0017512909,0.21110651,-0.97746146,-0.021078136,0.97723806,0.21109602,0.9997763,0.020972755,0.0027383033,9.954147,0.107681274,-0.34695435,9.800302,0.21089913,-0.2828616,-0.05595398,-0.01713562,-0.011123657,-40.919495,21.659851,5.758667,0,0.0,0.0,0.0,0.0
1.004394531,-0.03275437,0.19855034,-0.97954315,-0.015264303,0.9798553,0.19912404,0.99934685,0.02147423,-0.029063813,-0.0029684897,0.2106244,-0.9775625,-0.020836087,0.9773416,0.21064006,0.99977845,0.020993862,0.0014873598,9.954147,0.107681274,-0.34695435,9.800245,0.21059026,-0.28501865,-0.05152893,-0.016983032,-0.005630493,-40.919495,21.659851,5.758667,0,0.0,0.0,0.0,0.0
1.012695312,-0.032938838,0.19821809,-0.97960436,-0.015195425,0.9799236,0.19879363,0.99934185,0.021433532,-0.029265532,-0.0035629913,0.21038322,-0.9776125,-0.020717591,0.9773933,0.21041156,0.99977905,0.02100347,8.7618956E-4,9.972092,0.119644165,-0.35055542,9.800196,0.21019116,-0.28699684,-0.05152893,-0.0043182373,-0.02166748,-40.919495,21.659851,5.758667,0,0.0,0.0,0.0,0.0
1.020996093,-0.033291485,0.21039115,-0.97705024,-0.014719625,0.9773829,0.21096432,0.9993373,0.02140513,-0.029441651,-0.0047236434,0.2099021,-0.97771096,-0.020485343,0.97749645,0.20995499,0.999779,0.0210205,-3.174279E-4,9.9756775,0.10169983,-0.37208557,9.800151,0.20991261,-0.28872395,-0.045578003,-0.002166748,-0.016479492,-41.09955,21.359253,5.999756,0,0.0,0.0,0.0,0.0
1.029296875,-0.033400916,0.21019158,-0.97708946,-0.014695391,0.97742593,0.2107663,0.9993339,0.021398501,-0.029558077,-0.0058552325,0.20992143,-0.9777007,-0.020257879,0.977492,0.20999794,0.9997777,0.02103573,-0.0014708795,10.003189,0.100494385,-0.34336853,9.800118,0.20984761,-0.28986573,-0.05015564,0.007904053,-0.015106201,-41.09955,21.359253,5.999756,0,0.0,0.0,0.0,0.0
1.037597656,-0.033438068,0.213097,-0.97645867,-0.014577246,0.97679716,0.21367006,0.9993345,0.021378793,-0.029555844,-0.006406404,0.20992683,-0.97769606,-0.020146899,0.9774906,0.21001472,0.9997765,0.021042986,-0.0020328257,9.969696,0.1040802,-0.32302856,9.800124,0.20965435,-0.28984383,-0.048324585,0.008514404,-0.014343262,-41.279602,21.839905,6.1798096,0,0.0,0.0,0.0,0.0
1.045898437,-0.033418246,0.2131325,-0.9764517,-0.014569161,0.9767898,0.21370491,0.9993353,0.021367723,-0.029537437,-0.006947461,0.20999026,-0.9776788,-0.020037372,0.9774769,0.21008928,0.9997751,0.0210497,-0.0025833296,9.969696,0.1040802,-0.32302856,9.800132,0.20954579,-0.2896633,-0.048934937,7.324219E-4,-0.019226074,-41.279602,21.839905,6.1798096,0,0.0,0.0,0.0,0.0
1.054199218,-0.033583116,0.2243965,-0.9739191,-0.014194323,0.97426337,0.22496527,0.9993351,0.021379158,-0.029533645,-0.007996552,0.21011473,-0.9776441,-0.019824332,0.97744983,0.21023515,0.9997715,0.021062294,-0.0036508446,9.958923,0.11366272,-0.30747986,9.80013,0.20965792,-0.28962612,-0.047561646,-0.0035552979,-0.015716553,-41.038513,21.71936,6.4193726,0,0.0,0.0,0.0,0.0
1.0625,-0.033645242,0.22428602,-0.9739424,-0.014192805,0.9742887,0.22485606,0.9993331,0.02138831,-0.029596925,-0.009012952,0.21068119,-0.9775133,-0.019615809,0.97732764,0.21082205,0.999767,0.02107484,-0.0046759257,9.98645,0.114852905,-0.3146515,9.80011,0.20974766,-0.2902467,-0.04573059,-0.010726929,-0.016021729,-41.038513,21.71936,6.4193726,0,0.0,0.0,0.0,0.0
1.070800781,-0.03385228,0.23056985,-0.97246677,-0.013949528,0.97282064,0.23113935,0.99932945,0.021390045,-0.029715851,-0.009991376,0.21122074,-0.97738737,-0.019414278,0.9772109,0.2113811,0.9997616,0.021087257,-0.0056629833,9.980469,0.105285645,-0.3014984,9.800075,0.20976469,-0.29141295,-0.053207397,-0.021118164,-0.0146484375,-40.499878,22.138977,6.6589355,0,0.0,0.0,0.0,0.0
1.079101562,-0.033988092,0.2303366,-0.9725173,-0.013907142,0.9728763,0.23090766,0.99932545,0.021373047,-0.029862883,-0.010940304,0.21198861,-0.9772109,-0.019215984,0.97704434,0.21216762,0.9997555,0.021099247,-0.0066155917,9.969696,0.10647583,-0.36131287,9.800035,0.20959799,-0.29285485,-0.050460815,-0.01637268,-0.013122559,-40.499878,22.138977,6.6589355,0,0.0,0.0,0.0,0.0
1.087402343,-0.034248803,0.2329971,-0.97187424,-0.01374462,0.9722429,0.23356985,0.9993188,0.021357527,-0.030095695,-0.011403215,0.21235634,-0.97712576,-0.019118354,0.97696435,0.21254438,0.99975216,0.021104725,-0.007080631,9.942184,0.11605835,-0.35414124,9.79997,0.2094458,-0.29513794,-0.049545288,-0.004928589,-0.018005371,-40.078735,22.138977,6.7199707,0,0.0,0.0,0.0,0.0
1.095703125,-0.03437099,0.23278965,-0.97191954,-0.013735875,0.9722922,0.23336467,0.99931467,0.02137114,-0.030221077,-0.011862317,0.21277012,-0.9770303,-0.01902039,0.97687423,0.21296708,0.9997487,0.02110978,-0.0075410204,9.942184,0.11605835,-0.35414124,9.79993,0.20957929,-0.29636753,-0.039916992,0.010192871,-0.019378662,-40.078735,22.138977,6.7199707,0,0.0,0.0,0.0,0.0
1.104003906,-0.034349795,0.2281949,-0.97300935,-0.013917793,0.9733802,0.22877322,0.99931294,0.021400455,-0.030259443,-0.013191996,0.21395,-0.97675556,-0.01873528,0.9766162,0.2141725,0.99973744,0.02112515,-0.008875105,9.960129,0.12322998,-0.43190002,9.799912,0.20986678,-0.29674378,-0.03152466,0.04837036,-0.016326904,-40.25879,22.079468,6.5994263,0,0.0,0.0,0.0,0.0
1.112304687,-0.034154303,0.22852993,-0.9729376,-0.013949365,0.97330177,0.22910516,0.99931926,0.021396788,-0.030054595,-0.013616521,0.21423534,-0.9766872,-0.018645048,0.9765535,0.21446596,0.99973345,0.021130659,-0.009302832,9.94696,0.102890015,-0.4127655,9.799974,0.20983082,-0.2947349,-0.03152466,0.0847168,-0.024871826,-40.25879,22.079468,6.5994263,0,0.0,0.0,0.0,0.0
1.120605468,-0.033637322,0.22232623,-0.9743919,-0.0142811285,0.9747371,0.222898,0.999332,0.021413108,-0.029612476,-0.014028629,0.21452166,-0.9766184,-0.018557085,0.9764905,0.21476011,0.99972934,0.021135982,-0.009717925,9.94696,0.102890015,-0.4127655,9.8001,0.20999087,-0.29039922,-0.009231567,0.10014343,-0.017852783,-40.019226,22.079468,6.4193726,0,0.0,0.0,0.0,0.0
1.12890625,-0.03292952,0.2235357,-0.9741394,-0.014447709,0.97445965,0.22409756,0.9993532,0.021453505,-0.02885891,-0.014806705,0.214831,-0.976539,-0.018393805,0.97642225,0.21508422,0.99972117,0.021146957,-0.010506038,9.943375,0.11605835,-0.35653687,9.800307,0.21038702,-0.28300923,0.006958008,0.11740112,-0.020751953,-40.019226,22.079468,6.4193726,0,0.0,0.0,0.0,0.0
1.137207031,-0.03214964,0.2364753,-0.9711055,-0.014263425,0.9714003,0.2370193,0.9993813,0.021471374,-0.027857218,-0.01552576,0.21517603,-0.9764519,-0.018243792,0.976346,0.21544279,0.999713,0.021159098,-0.011232886,10.00679,0.08494568,-0.30029297,9.800583,0.21056224,-0.273186,0.02330017,0.15679932,-0.04197693,-40.13977,22.138977,6.7199707,0,0.0,0.0,0.0,0.0
1.145507812,-0.0310609,0.23832293,-0.9706892,-0.014596274,0.970946,0.23885305,0.99941087,0.021587435,-0.026679829,-0.015859814,0.21560305,-0.9763522,-0.018171297,0.97625166,0.215876,0.99970907,0.021165343,-0.0115653835,10.00679,0.08494568,-0.30029297,9.800873,0.21170042,-0.26163974,0.030166626,0.16992188,-0.05114746,-40.13977,22.138977,6.7199707,0,0.0,0.0,0.0,0.0
1.153808593,-0.02957235,0.22396411,-0.9741486,-0.01558125,0.9743531,0.22448413,0.9994412,0.021816978,-0.025324272,-0.016464725,0.2165051,-0.97614264,-0.018043142,0.9760517,0.21678925,0.9997016,0.021182057,-0.012163991,9.976868,0.10887146,-0.275177,9.80117,0.21395147,-0.24834628,0.04071045,0.17939758,-0.047470093,-40.019226,22.37854,6.3598633,0,0.0,0.0,0.0,0.0
1.162109375,-0.02822805,0.22623056,-0.97366476,-0.016027782,0.9738253,0.22673254,0.99947304,0.0220059,-0.023863211,-0.01698459,0.21680072,-0.9760681,-0.0179495,0.9759855,0.2170947,0.9996946,0.021207199,-0.012685248,10.045074,0.06700134,-0.26200867,9.801482,0.21580417,-0.23401816,0.05001831,0.19451904,-0.062286377,-40.019226,22.37854,6.3598633,0,0.0,0.0,0.0,0.0
1.170410156,-0.026486188,0.20836844,-0.97769165,-0.017110523,0.97779703,0.20885442,0.9995028,0.022260575,-0.022332827,-0.01720992,0.2169895,-0.9760222,-0.017913185,0.9759432,0.21728778,0.99969137,0.021223173,-0.012908931,10.045074,0.06700134,-0.26200867,9.801774,0.21830167,-0.21901022,0.05445862,0.20230103,-0.07481384,-40.019226,22.499084,5.8792114,0,0.0,0.0,0.0,0.0
1.178710937,-0.025007034,0.21086946,-0.97719437,-0.017891506,0.9772491,0.21133913,0.99952716,0.02276844,-0.020665327,-0.017577002,0.2166484,-0.97609144,-0.017878298,0.97601813,0.21695405,0.99968565,0.021264255,-0.013282167,9.955338,0.19502258,-0.1758728,9.802013,0.22328213,-0.20265764,0.047424316,0.18946838,-0.059539795,-40.019226,22.499084,5.8792114,0,0.0,0.0,0.0,0.0
1.187011718,-0.023740266,0.21984638,-0.9752456,-0.018458772,0.9752579,0.22029848,0.9995478,0.023231782,-0.019094786,-0.018013969,0.21630877,-0.9761588,-0.017876662,0.9760915,0.21662374,0.9996779,0.021352716,-0.0137164015,10.004395,0.14476013,-0.100494385,9.802216,0.22782597,-0.18725589,0.036895752,0.13618469,-0.048080444,-39.959717,23.098755,6.1798096,0,0.0,0.0,0.0,0.0
1.1953125,-0.022431303,0.22198921,-0.97479105,-0.019041184,0.97476465,0.22242136,0.99956703,0.023550378,-0.017638303,-0.018128479,0.21637957,-0.976141,-0.017888715,0.97607493,0.21669714,0.9996756,0.021390298,-0.013824002,9.908676,0.20936584,-0.017944336,9.802404,0.23095033,-0.17297268,0.040252686,0.11663818,-0.033584595,-39.959717,23.098755,6.1798096,0,0.0,0.0,0.0,0.0
1.203613281,-0.021016207,0.21090038,-0.9772816,-0.019882636,0.97721606,0.2113138,0.99958146,0.02387195,-0.01634412,-0.018298633,0.21660188,-0.9760885,-0.017935291,0.9760238,0.21692374,0.9996717,0.021475838,-0.013975085,9.963715,0.17228699,-0.0047912598,9.802546,0.23410387,-0.16028108,0.04345703,0.07279968,-0.016021729,-40.019226,22.979736,5.819702,0,0.0,0.0,0.0,0.0
1.211914062,-0.020139553,0.21235213,-0.9769856,-0.02016026,0.97689885,0.21274886,0.9995939,0.023980953,-0.015393233,-0.018406725,0.21637623,-0.9761365,-0.018011784,0.9760717,0.21670152,0.9996683,0.021570725,-0.014068961,9.991226,0.15074158,-0.008377075,9.802668,0.23517281,-0.15095605,0.014144897,-0.046157837,-0.005630493,-40.019226,22.979736,5.819702,0,0.0,0.0,0.0,0.0
1.220214843,-0.019705895,0.21061794,-0.97736984,-0.020240443,0.9772753,0.21100566,0.9996009,0.023940453,-0.014995082,-0.018441506,0.21629582,-0.97615373,-0.018054621,0.9760885,0.21662246,0.99966687,0.02161893,-0.014095402,10.000809,0.11605835,-0.13160706,9.802736,0.23477565,-0.14705153,0.009857178,-0.07196045,-0.0036468506,-39.839172,23.278809,5.819702,0,0.0,0.0,0.0,0.0
1.228515625,-0.019972177,0.2101842,-0.97745776,-0.020052109,0.97737193,0.21057546,0.99959946,0.023805741,-0.015305609,-0.01849202,0.21607111,-0.9762025,-0.018140899,0.97613615,0.21640009,0.99966437,0.021710865,-0.014131006,10.003189,0.12322998,-0.13400269,9.802722,0.23345457,-0.15009676,-0.0061798096,-0.091659546,0.005508423,-39.839172,23.278809,5.819702,0,0.0,0.0,0.0,0.0
1.236816406,-0.020485558,0.20700996,-0.9781243,-0.019821139,0.9780533,0.20741005,0.9995937,0.02363645,-0.015932795,-0.018521812,0.21595345,-0.97622794,-0.018178947,0.9761613,0.21628362,0.9996631,0.021752764,-0.01415447,10.003189,0.12322998,-0.13400269,9.802666,0.23179439,-0.15624735,-0.0061798096,-0.10876465,0.0027618408,-39.59961,23.579407,5.819702,0,0.0,0.0,0.0,0.0
1.245117187,-0.02120687,0.20585494,-0.97835267,-0.019495448,0.9783016,0.20626676,0.99958503,0.023447698,-0.01673348,-0.018561415,0.21577477,-0.97626674,-0.018211417,0.9762,0.21610627,0.9996618,0.021790437,-0.014190089,10.003189,0.12322998,-0.13400269,9.802581,0.22994338,-0.1640994,-0.01411438,-0.1264801,4.7302246E-4,-39.59961,23.579407,5.819702,0,0.0,0.0,0.0,0.0
1.253417968,-0.02213653,0.20427227,-0.97866374,-0.019117637,0.97863805,0.20469934,0.9995721,0.023241073,-0.017758451,-0.018666588,0.21538237,-0.9763514,-0.018261224,0.97628516,0.2157169,0.99965894,0.02185607,-0.014290766,10.017548,0.086135864,-0.17347717,9.802454,0.22791708,-0.17415091,-0.024963379,-0.15611267,-0.016326904,-39.779663,23.278809,5.758667,0,0.0,0.0,0.0,0.0
1.26171875,-0.023462847,0.20210923,-0.97908187,-0.018832121,0.97908837,0.20256187,0.9995473,0.023190867,-0.019166054,-0.018804256,0.21494289,-0.97644556,-0.018293614,0.97638077,0.21528094,0.9996558,0.021910915,-0.014428032,9.944565,0.13877869,-0.32183838,9.802211,0.22742473,-0.18795478,-0.04878235,-0.15382385,-0.013122559,-39.779663,23.278809,5.758667,0,0.0,0.0,0.0,0.0
1.270019531,-0.02480065,0.19790593,-0.97990716,-0.018644314,0.97994655,0.19838576,0.9995185,0.023189796,-0.020613495,-0.018897494,0.21468656,-0.97650015,-0.018303167,0.9764366,0.21502681,0.9996539,0.021936513,-0.014522762,9.944565,0.13877869,-0.32183838,9.8019285,0.22741422,-0.20214935,-0.049545288,-0.14556885,-0.012207031,-39.419556,23.278809,5.6991577,0,0.0,0.0,0.0,0.0
1.278320312,-0.026148973,0.19572157,-0.9803108,-0.018402224,0.9803857,0.19622739,0.99948865,0.023171045,-0.02203437,-0.01913133,0.2140232,-0.97664124,-0.018312752,0.97658116,0.21436876,0.9996493,0.021986147,-0.014763943,9.955338,0.13160706,-0.41874695,9.801636,0.22723034,-0.21608335,-0.051071167,-0.08250427,-0.014038086,-39.419556,23.278809,5.6991577,0,0.0,0.0,0.0,0.0
1.286621093,-0.027177326,0.19500528,-0.98042554,-0.018209642,0.9805285,0.19553052,0.99946475,0.023167197,-0.023097167,-0.019409219,0.21329981,-0.976794,-0.018311191,0.97673833,0.21365151,0.99964386,0.02203307,-0.015051953,9.956528,0.1375885,-0.4402771,9.801401,0.2271926,-0.22650583,-0.046798706,-0.0040130615,-0.020599365,-39.419556,23.15979,5.6991577,0,0.0,0.0,0.0,0.0
1.294921875,-0.02770885,0.19413924,-0.9805826,-0.01814733,0.98069996,0.19467528,0.99945134,0.023189183,-0.023650957,-0.019564413,0.21293461,-0.9768706,-0.018306278,0.9768175,0.2132897,0.999641,0.022055753,-0.015212821,9.956528,0.1375885,-0.4402771,9.80127,0.22740822,-0.23193666,-0.039001465,0.029129028,-0.022888184,-39.419556,23.15979,5.6991577,0,0.0,0.0,0.0,0.0
1.303222656,-0.027837757,0.1999988,-0.9794006,-0.01802641,0.9795205,0.20053566,0.9994499,0.02323754,-0.023662392,-0.019886602,0.21219175,-0.9770256,-0.018293954,0.97697806,0.21255377,0.9996348,0.022100637,-0.015546947,9.940979,0.14955139,-0.36849976,9.801256,0.22788244,-0.23204882,-0.020217896,0.059829712,-0.009902954,-39.239502,22.738647,5.758667,0,0.0,0.0,0.0,0.0
1.311523437,-0.027386704,0.2007419,-0.97926134,-0.018073741,0.9793692,0.20126948,0.99946153,0.023211021,-0.023193534,-0.02020126,0.2117095,-0.97712386,-0.018279577,0.97708166,0.2120783,0.99962884,0.022145657,-0.015868321,9.991226,0.12921143,-0.20578003,9.80137,0.22762236,-0.22745088,-0.0035858154,0.04547119,-0.009597778,-39.239502,22.738647,5.758667,0,0.0,0.0,0.0,0.0
1.319824218,-0.026699835,0.18938096,-0.9815406,-0.01842473,0.9816306,0.18989952,0.9994737,0.023154907,-0.022720085,-0.020344831,0.21149042,-0.9771683,-0.018273886,0.9771287,0.2118623,0.99962604,0.022166966,-0.016014768,9.991226,0.12921143,-0.20578003,9.801489,0.22707208,-0.22280793,-0.0074005127,0.042266846,-0.015563965,-39.29901,22.439575,5.3985596,0,0.0,0.0,0.0,0.0
1.328125,-0.026534555,0.18965861,-0.9814915,-0.018406551,0.981578,0.19017294,0.99947834,0.023112029,-0.022554776,-0.020596433,0.21061684,-0.97735167,-0.018274238,0.97731644,0.21099435,0.99962085,0.02220609,-0.01628037,9.974487,0.12083435,-0.3637085,9.801535,0.22665158,-0.2211868,-0.033355713,0.040893555,-0.019378662,-39.29901,22.439575,5.3985596,0,0.0,0.0,0.0,0.0
1.336425781,-0.026320592,0.190018,-0.9814277,-0.018471908,0.9815077,0.19052888,0.9994828,0.023143675,-0.022323867,-0.020715117,0.21019858,-0.9774392,-0.01827433,0.9774061,0.21057874,0.9996184,0.02222421,-0.016405843,9.98764,0.14715576,-0.2979126,9.8015785,0.22696193,-0.21892236,-0.053207397,0.040893555,-0.019378662,-39.29901,22.439575,5.3985596,0,0.0,0.0,0.0,0.0
1.344726562,-0.026003014,0.18308806,-0.9827526,-0.018728819,0.9828233,0.18359679,0.99948645,0.023179865,-0.022127341,-0.020936947,0.20940103,-0.9776057,-0.018277654,0.97757643,0.2097862,0.99961376,0.02226062,-0.016640106,9.98764,0.14715576,-0.2979126,9.801614,0.22731683,-0.2169951,-0.070617676,0.011566162,-0.015411377,-39.65912,22.37854,5.218506,0,0.0,0.0,0.0,0.0
1.353027343,-0.02580781,0.18518688,-0.9823643,-0.018687066,0.9824306,0.1856903,0.9994923,0.02314977,-0.021893784,-0.021038318,0.20887618,-0.9777158,-0.018283889,0.9776883,0.20926373,0.9996115,0.022279004,-0.01674985,10.013962,0.107681274,-0.13877869,9.801671,0.2270217,-0.21470469,-0.07519531,-0.019729614,-0.016479492,-39.779663,22.138977,5.218506,0,0.0,0.0,0.0,0.0
1.361328125,-0.025897006,0.1850329,-0.98239106,-0.018655173,0.9824601,0.18553767,0.9994905,0.023131544,-0.021990953,-0.02122721,0.20794027,-0.97791123,-0.018295297,0.977887,0.20833226,0.9996073,0.022313487,-0.016953483,10.005585,0.107681274,-0.13877869,9.801654,0.22684295,-0.21565758,-0.09321594,-0.06600952,-0.018463135,-39.779663,22.138977,5.218506,0,0.0,0.0,0.0,0.0
1.369628906,-0.02642945,0.18653898,-0.982092,-0.018560722,0.9821743,0.1870541,0.99947834,0.023172073,-0.022496024,-0.02141205,0.20703521,-0.97809917,-0.018305246,0.9780783,0.20743151,0.99960315,0.02234588,-0.01715283,9.970886,0.13877869,-0.19023132,9.801535,0.22724041,-0.22061065,-0.106658936,-0.10067749,-0.018157959,-40.19928,21.77887,5.218506,0,0.0,0.0,0.0,0.0
1.377929687,-0.027180417,0.18520826,-0.9823233,-0.018496519,0.9824249,0.18573922,0.9994594,0.023218032,-0.02327701,-0.021512406,0.20662613,-0.97818345,-0.018308226,0.97816443,0.20702474,0.999601,0.022362404,-0.017259711,9.969696,0.1531372,-0.23928833,9.801349,0.22769111,-0.2282695,-0.111083984,-0.1055603,-0.01020813,-40.19928,21.77887,5.218506,0,0.0,0.0,0.0,0.0
1.386230468,-0.028009173,0.1837391,-0.98257595,-0.018357405,0.98270124,0.18428582,0.99943906,0.023199236,-0.024151674,-0.021736793,0.20577978,-0.97835684,-0.018310824,0.978342,0.20618348,0.99959606,0.022396289,-0.017498022,9.969696,0.12322998,-0.31106567,9.801149,0.22750679,-0.23684701,-0.090774536,-0.07777405,-0.012054443,-40.19928,21.77887,5.218506,0,0.0,0.0,0.0,0.0
1.39453125,-0.028804222,0.18824764,-0.9816991,-0.018072028,0.981848,0.18880644,0.99942166,0.023179717,-0.024879351,-0.02198492,0.20490885,-0.9785341,-0.018307162,0.9785241,0.20531805,0.9995907,0.022428084,-0.017761474,9.939789,0.12921143,-0.34695435,9.800979,0.22731538,-0.24398309,-0.069244385,-0.022644043,-0.0119018555,-40.019226,21.71936,5.3390503,0,0.0,0.0,0.0,0.0
1.402832031,-0.029024955,0.17940164,-0.98334765,-0.01823669,0.98350334,0.17996831,0.9994123,0.02315658,-0.025274446,-0.022121176,0.20457618,-0.9786006,-0.018300142,0.9785933,0.20498832,0.9995878,0.022443116,-0.017903863,9.952942,0.13519287,-0.33857727,9.800887,0.22708848,-0.24785766,-0.059310913,0.0025634766,-0.009765625,-40.379333,21.418762,5.0994873,0,0.0,0.0,0.0,0.0
1.411132812,-0.029089201,0.17928511,-0.983367,-0.018212337,0.9835249,0.17985265,0.99941087,0.023141181,-0.025344756,-0.022394316,0.20358174,-0.9788018,-0.018290663,0.97880006,0.20399983,0.99958193,0.02247137,-0.018195914,9.952942,0.13519287,-0.324234,9.800873,0.22693747,-0.24854715,-0.04206848,0.032333374,-0.017242432,-40.379333,21.418762,5.0994873,0,0.0,0.0,0.0,0.0
1.419433593,-0.029064063,0.1868025,-0.9819675,-0.01800566,0.9821253,0.18736544,0.99941534,0.023126572,-0.025181046,-0.022659041,0.20262186,-0.97899485,-0.01828107,0.9789986,0.20304576,0.99957615,0.022497894,-0.018479025,9.973282,0.112457275,-0.324234,9.800917,0.2267942,-0.24694172,-0.03579712,0.053253174,-0.021209717,-40.319824,21.479797,5.279541,0,0.0,0.0,0.0,0.0
1.427734375,-0.028677963,0.1874975,-0.9818464,-0.018114168,0.9819916,0.18805432,0.9994246,0.023178343,-0.024765154,-0.022786988,0.20230597,-0.9790572,-0.018273503,0.97906363,0.2027326,0.99957335,0.022510469,-0.018613072,9.949356,0.14715576,-0.23568726,9.801007,0.2273019,-0.24286321,-0.026031494,0.056762695,-0.016784668,-40.319824,21.479797,5.279541,0,0.0,0.0,0.0,0.0
1.436035156,-0.02820614,0.18834653,-0.98169756,-0.018168353,0.9818295,0.18889385,0.99943703,0.023163794,-0.024271673,-0.0230201,0.20172039,-0.9791725,-0.018263744,0.97918385,0.20215207,0.99956816,0.022536919,-0.01885674,9.997208,0.12921143,-0.19502258,9.801129,0.22715922,-0.2380238,-0.019454956,0.044555664,-0.008987427,-40.319824,21.479797,5.279541,0,0.0,0.0,0.0,0.0
1.444335937,-0.027934695,0.1919795,-0.9810013,-0.018089624,0.98112655,0.19251913,0.9994461,0.023123907,-0.023934633,-0.023225358,0.20119147,-0.97927654,-0.01825722,0.97929204,0.20162766,0.9995635,0.02256174,-0.019071212,10.003189,0.12083435,-0.21296692,9.801218,0.22676806,-0.23471858,-0.03945923,0.016616821,-0.016479492,-40.319824,21.71936,5.3985596,0,0.0,0.0,0.0,0.0
1.452636718,-0.027977772,0.2044664,-0.9784737,-0.017754227,0.9786008,0.20500062,0.99945086,0.023107503,-0.023748923,-0.023319567,0.2010074,-0.9793121,-0.018252974,0.9793296,0.20144564,0.9995614,0.022572985,-0.01916856,9.984055,0.12802124,-0.22851563,9.801265,0.2266072,-0.23289739,-0.047714233,-3.0517578E-5,-0.014038086,-40.25879,21.479797,5.6396484,0,0.0,0.0,0.0,0.0
1.4609375,-0.027974175,0.20447278,-0.9784725,-0.017737672,0.97859985,0.20500652,0.9994512,0.02309071,-0.023748653,-0.023504175,0.20114444,-0.9792795,-0.01823384,0.979301,0.20158648,0.99955744,0.022594152,-0.019350026,9.976868,0.12322998,-0.22372437,9.801269,0.22644253,-0.23289473,-0.05747986,-0.028289795,-0.015716553,-40.25879,21.479797,5.6396484,0,0.0,0.0,0.0,0.0
1.469238281,-0.028402822,0.21802011,-0.9755309,-0.017282026,0.9756717,0.21855474,0.99944717,0.02306672,-0.023943998,-0.023681141,0.20127627,-0.9792482,-0.018214798,0.9792735,0.20172194,0.9995536,0.022613814,-0.019524105,9.976868,0.12322998,-0.22372437,9.801229,0.22620726,-0.23481041,-0.06542969,-0.050430298,-0.012512207,-40.019226,21.359253,5.9387207,0,0.0,0.0,0.0,0.0
1.477539062,-0.028710734,0.21747454,-0.97564363,-0.017191093,0.97579426,0.21801399,0.99943995,0.023031723,-0.024277145,-0.023775816,0.20161173,-0.9791768,-0.018197682,0.9792042,0.20205921,0.99955165,0.022622874,-0.019612513,9.984055,0.13279724,-0.28833008,9.801158,0.22586405,-0.23807748,-0.07336426,-0.056991577,-0.008987427,-40.019226,21.359253,5.9387207,0,0.0,0.0,0.0,0.0
1.485839843,-0.029131843,0.21672824,-0.9757972,-0.017090568,0.97596085,0.21727481,0.99942946,0.023006545,-0.02472753,-0.023971684,0.20224096,-0.9790423,-0.0181608,0.97907406,0.20269217,0.99954766,0.022639064,-0.019797198,9.96611,0.124420166,-0.3254242,9.801055,0.22561714,-0.24249424,-0.07595825,-0.028442383,-0.01586914,-40.019226,21.359253,5.9387207,0,0.0,0.0,0.0,0.0
1.494140625,-0.029312493,0.20683202,-0.9779372,-0.017270964,0.97810674,0.20738555,0.99942106,0.022968909,-0.025098559,-0.024075186,0.20253116,-0.9789798,-0.01814085,0.9790139,0.20298433,0.9995455,0.022646412,-0.019895855,9.96611,0.105285645,-0.37208557,9.800973,0.22524805,-0.24613279,-0.07229614,-0.018203735,-0.008224487,-40.13977,21.539307,5.758667,0,0.0,0.0,0.0,0.0
1.502441406,-0.029653877,0.21469508,-0.9762308,-0.016981252,0.9764111,0.21525057,0.99941593,0.022960637,-0.025308585,-0.024282705,0.20270155,-0.9789394,-0.018107286,0.97897834,0.20315877,0.9995411,0.02265918,-0.020101868,9.982849,0.14117432,-0.33499146,9.800922,0.22516693,-0.24819244,-0.07168579,0.006378174,-0.016021729,-39.779663,21.238708,5.8792114,0,0.0,0.0,0.0,0.0
1.510742187,-0.029722337,0.21457367,-0.9762554,-0.01698928,0.9764374,0.21513091,0.9994138,0.022980072,-0.02537655,-0.024495792,0.2031771,-0.9788355,-0.018065173,0.9788795,0.2036383,0.9995367,0.022671117,-0.020308,9.972092,0.10647583,-0.31225586,9.800901,0.22535753,-0.24885896,-0.057785034,0.02180481,-0.025177002,-39.779663,21.238708,5.8792114,0,0.0,0.0,0.0,0.0
1.519042968,-0.029601876,0.21478727,-0.9762121,-0.0170266,0.97639,0.21534272,0.9994167,0.022996124,-0.025245883,-0.024600558,0.20340532,-0.9787856,-0.01804483,0.978832,0.20386851,0.99953455,0.022677295,-0.020409398,9.972092,0.10647583,-0.31225586,9.80093,0.22551495,-0.24757753,-0.0443573,0.045318604,-0.025177002,-39.779663,21.238708,5.8792114,0,0.0,0.0,0.0,0.0
1.52734375,-0.028935052,0.19336414,-0.9807003,-0.01775796,0.98085696,0.19391896,0.9994236,0.023026291,-0.024947394,-0.02479905,0.20385657,-0.97868663,-0.018006679,0.97873783,0.20432352,0.9995303,0.022689924,-0.02060099,9.963715,0.1483612,-0.3134613,9.800998,0.22581078,-0.24465036,-0.035949707,0.06074524,-0.01953125,-39.839172,21.418762,5.3985596,0,0.0,0.0,0.0,0.0
1.535644531,-0.028423015,0.1942749,-0.9805352,-0.017870907,0.980676,0.19482082,0.99943626,0.023060452,-0.024401903,-0.024962727,0.2034415,-0.9787688,-0.017995108,0.97882384,0.2039119,0.99952644,0.022703245,-0.020773161,9.984055,0.13519287,-0.22492981,9.801122,0.22614579,-0.23930094,-0.005874634,0.07234192,-0.016174316,-39.839172,21.418762,5.3985596,0,0.0,0.0,0.0,0.0
1.543945312,-0.027735349,0.19114652,-0.98116964,-0.01810724,0.98129016,0.19168185,0.99945134,0.023082633,-0.023755288,-0.025031868,0.20325834,-0.9788051,-0.017991979,0.9788617,0.20373023,0.9995248,0.022710389,-0.02084572,9.994827,0.13998413,-0.1878357,9.80127,0.2263633,-0.23295979,-0.005874634,0.06745911,-0.019683838,-39.59961,21.659851,5.3390503,0,0.0,0.0,0.0,0.0
1.552246093,-0.027367465,0.19994387,-0.9794251,-0.017953614,0.97953564,0.20046811,0.99946415,0.023070524,-0.023217693,-0.025139011,0.20277926,-0.97890174,-0.017995201,0.9789607,0.20325361,0.999522,0.02272513,-0.020961054,9.972092,0.12083435,-0.21774292,9.801395,0.22624455,-0.22768779,0.0115356445,0.04348755,-0.018310547,-39.718628,21.598816,5.519104,0,0.0,0.0,0.0,0.0
1.560546875,-0.026979676,0.2006242,-0.97929674,-0.017986093,0.97939736,0.20114031,0.99947417,0.023040421,-0.022815377,-0.025227247,0.20266701,-0.9789227,-0.017993312,0.97898364,0.20314334,0.9995198,0.022738809,-0.02105041,9.988831,0.10887146,-0.22372437,9.801494,0.22594936,-0.22374241,0.0020751953,0.018447876,-0.018157959,-39.718628,21.598816,5.519104,0,0.0,0.0,0.0,0.0
1.568847656,-0.026711673,0.20109424,-0.97920763,-0.018022943,0.97930104,0.20160505,0.99948066,0.023033412,-0.02253446,-0.025262378,0.20262617,-0.97893023,-0.017993078,0.978992,0.20310327,0.99951893,0.02274484,-0.021085797,10.000809,0.124420166,-0.16870117,9.801558,0.22588062,-0.22098756,-0.02709961,-6.4086914E-4,-0.014038086,-39.718628,21.598816,5.519104,0,0.0,0.0,0.0,0.0
1.577148437,-0.0267425,0.19747618,-0.9799428,-0.018100785,0.98003703,0.19798912,0.99947846,0.023032462,-0.022634167,-0.025319943,0.20256549,-0.9789414,-0.01799414,0.97900426,0.20304394,0.99951744,0.022756265,-0.02114334,9.972092,0.13519287,-0.24047852,9.801536,0.2258713,-0.22196536,-0.05885315,-0.056228638,-0.010818481,-39.65912,21.418762,5.3985596,0,0.0,0.0,0.0,0.0
1.585449218,-0.027126735,0.19679655,-0.98006904,-0.01802217,0.9801742,0.19731648,0.9994695,0.023015521,-0.023042224,-0.025376225,0.20236406,-0.97898155,-0.017998086,0.9790457,0.20284384,0.99951595,0.022767205,-0.021202317,9.972092,0.13519287,-0.24047852,9.801449,0.22570519,-0.22596705,-0.063446045,-0.082351685,-0.01020813,-39.65912,21.418762,5.3985596,0,0.0,0.0,0.0,0.0
1.59375,-0.027628781,0.19026954,-0.981343,-0.018046182,0.9814628,0.19080085,0.99945533,0.02298109,-0.023682984,-0.025411243,0.20225275,-0.9790036,-0.017998366,0.9790685,0.20273334,0.99951506,0.02277217,-0.02123913,9.978073,0.12083435,-0.279953,9.801309,0.22536752,-0.23225074,-0.067108154,-0.09150696,-0.009597778,-39.59961,21.479797,5.279541,0,0.0,0.0,0.0,0.0
1.602050781,-0.028107014,0.17195079,-0.98470455,-0.01836376,0.9848387,0.17249839,0.99943626,0.022931289,-0.02452321,-0.025498973,0.20177877,-0.97909915,-0.017999185,0.97916615,0.20226134,0.9995128,0.022780444,-0.02133588,9.981659,0.13040161,-0.33499146,9.801122,0.22487913,-0.24049054,-0.078552246,-0.08128357,-0.009597778,-39.839172,21.659851,4.9194336,0,0.0,0.0,0.0,0.0
1.610351562,-0.028826658,0.1706729,-0.984906,-0.018233415,0.98506176,0.17123356,0.99941814,0.02289429,-0.025284087,-0.02560214,0.20060097,-0.97933847,-0.018010307,0.979408,0.20108604,0.99951,0.022786418,-0.021462057,9.994827,0.1268158,-0.33499146,9.800944,0.22451629,-0.24795221,-0.06863403,-0.051956177,-0.017089844,-39.839172,21.659851,4.9194336,0,0.0,0.0,0.0,0.0
1.618652343,-0.029410994,0.16963492,-0.9850681,-0.018148247,0.9852413,0.17020659,0.9994026,0.022883201,-0.025898345,-0.025666436,0.20000413,-0.9794588,-0.018012697,0.97953,0.2004907,0.99950826,0.022788577,-0.02153843,9.963715,0.114852905,-0.37327576,9.800792,0.22440755,-0.25397602,-0.0664978,-0.029510498,-0.019989014,-39.839172,21.659851,4.9194336,0,0.0,0.0,0.0,0.0
1.626953125,-0.030105706,0.18667485,-0.9819603,-0.01756942,0.98215497,0.18725052,0.9993923,0.022889785,-0.026288705,-0.025814341,0.19880496,-0.979699,-0.018013349,0.979774,0.19929479,0.99950445,0.022792324,-0.021711078,9.949356,0.114852905,-0.38046265,9.800691,0.22447212,-0.25780413,-0.053512573,0.0068359375,-0.02029419,-39.839172,21.659851,5.3390503,0,0.0,0.0,0.0,0.0
1.635253906,-0.030266803,0.18639061,-0.9820094,-0.017562443,0.98220867,0.18696973,0.9993875,0.02290546,-0.026454842,-0.025900088,0.19856264,-0.9797459,-0.018003395,0.9798231,0.19905421,0.9995024,0.022794273,-0.021802703,9.949356,0.114852905,-0.38046265,9.800644,0.22462583,-0.2594334,-0.046951294,0.016448975,-0.02166748,-39.839172,21.659851,5.3390503,0,0.0,0.0,0.0,0.0
1.643554687,-0.030257037,0.18814462,-0.98167515,-0.017565912,0.981873,0.18872397,0.99938774,0.022954248,-0.026403638,-0.026072808,0.19808118,-0.9798387,-0.01798381,0.9799204,0.19857623,0.99949825,0.022798676,-0.021987025,9.955338,0.13400269,-0.3409729,9.800647,0.2251043,-0.25893125,-0.045425415,0.034317017,-0.018615723,-39.839172,22.079468,5.4595947,0,0.0,0.0,0.0,0.0
1.651855468,-0.030439094,0.21035469,-0.97715116,-0.01692191,0.9773556,0.21092582,0.99939334,0.022955654,-0.026190216,-0.02623818,0.19768809,-0.9799137,-0.017965648,0.97999966,0.19818647,0.99949425,0.02280484,-0.022161815,9.982849,0.11843872,-0.31944275,9.800701,0.22511807,-0.2568383,-0.030456543,0.052337646,-0.016174316,-40.019226,22.079468,5.999756,0,0.0,0.0,0.0,0.0
1.66015625,-0.03012712,0.21089134,-0.9770452,-0.016951226,0.97724044,0.21145618,0.9994023,0.022932677,-0.025866574,-0.02632239,0.19794177,-0.97986025,-0.01794582,0.9799484,0.19844164,0.9994924,0.022807855,-0.022242358,9.982849,0.11843872,-0.31944275,9.800789,0.22489274,-0.25366443,-0.023284912,0.05218506,-0.01373291,-40.019226,22.079468,5.999756,0,0.0,0.0,0.0,0.0
1.668457031,-0.029740162,0.2115568,-0.9769131,-0.016969498,0.9770977,0.2121134,0.9994136,0.022886012,-0.025469031,-0.026473397,0.19845526,-0.9797524,-0.017908312,0.97984445,0.1989578,0.9994891,0.022812799,-0.022385811,9.998413,0.0993042,-0.29670715,9.8008995,0.22443512,-0.24976587,-0.031066895,0.06333923,-0.020751953,-40.019226,22.079468,5.999756,0,0.0,0.0,0.0,0.0
1.676757812,-0.029466664,0.22770655,-0.9732839,-0.016638033,0.97346014,0.2282515,0.9994273,0.022919336,-0.02489603,-0.026603049,0.1989748,-0.97964346,-0.017872764,0.97973895,0.19947957,0.9994863,0.022815699,-0.022507817,9.978073,0.13160706,-0.1878357,9.801034,0.22476192,-0.24414665,-0.03793335,0.045928955,-0.022583008,-40.019226,22.259521,6.4193726,0,0.0,0.0,0.0,0.0
1.685058593,-0.029025003,0.22845392,-0.97312194,-0.016770776,0.97328377,0.22899213,0.999438,0.022966508,-0.024418214,-0.0266608,0.19955121,-0.9795246,-0.017849572,0.9796217,0.2000568,0.99948514,0.022817772,-0.022555593,9.978073,0.13160706,-0.1878357,9.801139,0.22522451,-0.23946089,-0.049697876,0.023330688,-0.01663208,-40.019226,22.259521,6.4193726,0,0.0,0.0,0.0,0.0
1.693359375,-0.028680095,0.22123632,-0.9747984,-0.017079376,0.97494864,0.22177292,0.99944264,0.02300942,-0.024183044,-0.026755264,0.20069925,-0.9792875,-0.017809208,0.97938704,0.2012062,0.99948335,0.02282366,-0.022629464,9.991226,0.1375885,-0.18424988,9.801185,0.22564533,-0.23715465,-0.057022095,-0.008743286,-0.018310547,-39.89868,22.31903,6.239319,0,0.0,0.0,0.0,0.0
1.701660156,-0.028890636,0.2323642,-0.9721997,-0.016781272,0.9723558,0.2329002,0.9994417,0.023043383,-0.02419261,-0.02683167,0.20151427,-0.97911805,-0.017781734,0.9792195,0.20202243,0.9994818,0.022831015,-0.02269082,10.009171,0.10647583,-0.22372437,9.801175,0.2259784,-0.23724848,-0.081451416,-0.0415802,-0.019683838,-39.959717,22.138977,6.478882,0,0.0,0.0,0.0,0.0
1.709960937,-0.029113185,0.23198693,-0.9722831,-0.016730705,0.972446,0.23252678,0.9994361,0.023036577,-0.024429696,-0.026913844,0.20274,-0.97886264,-0.01774427,0.97896624,0.2032493,0.99948025,0.022839425,-0.02275027,9.96611,0.15553284,-0.28355408,9.80112,0.22591165,-0.23957348,-0.07382202,-0.049209595,-0.024261475,-39.959717,22.138977,6.478882,0,0.0,0.0,0.0,0.0
1.718261718,-0.029535523,0.23127082,-0.972441,-0.016748609,0.97261435,0.23182075,0.9994234,0.023133978,-0.024853207,-0.026958179,0.20332679,-0.9787398,-0.01772514,0.97884446,0.20383675,0.9994794,0.022843366,-0.022783866,9.963715,0.11843872,-0.26560974,9.800996,0.22686683,-0.24372672,-0.082229614,-0.05378723,-0.027618408,-39.959717,22.138977,6.478882,0,0.0,0.0,0.0,0.0
1.7265625,-0.029642249,0.21398143,-0.97638786,-0.017241307,0.97656226,0.21454309,0.9994118,0.023193743,-0.025258183,-0.027060986,0.2044367,-0.9785057,-0.017688984,0.97861296,0.2049483,0.99947727,0.022854876,-0.022865955,9.955338,0.14356995,-0.33499146,9.800882,0.22745293,-0.24769817,-0.06970215,-0.029968262,-0.015716553,-40.19928,22.079468,6.059265,0,0.0,0.0,0.0,0.0
1.734863281,-0.030017937,0.2133332,-0.9765183,-0.017224235,0.9767031,0.21390305,0.999401,0.023240708,-0.025644107,-0.027112719,0.2046278,-0.9784643,-0.017680502,0.97857285,0.20514043,0.999476,0.022861654,-0.022913847,9.955338,0.14356995,-0.33499146,9.800776,0.22791348,-0.25148278,-0.062057495,-0.013015747,-0.010986328,-40.19928,22.079468,6.059265,0,0.0,0.0,0.0,0.0
1.743164062,-0.030468922,0.22723927,-0.9733622,-0.016706914,0.97356254,0.227809,0.9993961,0.023202972,-0.025866931,-0.027228046,0.2049728,-0.9783889,-0.017663358,0.97850025,0.2054877,0.99947315,0.022876661,-0.023022143,9.952942,0.114852905,-0.35653687,9.800728,0.22754343,-0.25366795,-0.049545288,0.017227173,-0.019683838,-39.959717,22.138977,6.4193726,0,0.0,0.0,0.0,0.0
1.751464843,-0.030248946,0.21302038,-0.9765794,-0.017128821,0.97677255,0.21359307,0.9993956,0.023188619,-0.02589755,-0.027356967,0.20585665,-0.97819966,-0.017628122,0.9783144,0.2063738,0.99947023,0.022889584,-0.023134848,9.976868,0.13519287,-0.3026886,9.800723,0.22740267,-0.2539682,-0.05091858,0.037368774,-0.016479492,-39.89868,21.839905,5.999756,0,0.0,0.0,0.0,0.0
1.759765625,-0.030045344,0.21337293,-0.97650874,-0.017194308,0.9766949,0.21394263,0.9994006,0.023218373,-0.025676334,-0.027414888,0.20600004,-0.9781679,-0.01761854,0.97828406,0.2065183,0.99946886,0.022895565,-0.023190128,9.976868,0.13519287,-0.3026886,9.800772,0.22769444,-0.2517988,-0.05229187,0.041503906,-0.018615723,-39.89868,21.839905,5.999756,0,0.0,0.0,0.0,0.0
1.768066406,-0.029826205,0.21375233,-0.97643244,-0.017256733,0.9766113,0.21431862,0.9994061,0.023242343,-0.02543994,-0.0275191,0.20629224,-0.9781034,-0.017602488,0.97822225,0.20681255,0.99946624,0.022908349,-0.023288537,9.979263,0.13519287,-0.3361969,9.800826,0.22792953,-0.2494806,-0.045425415,0.050811768,-0.019226074,-39.89868,21.839905,5.999756,0,0.0,0.0,0.0,0.0
1.776367187,-0.029555121,0.21481878,-0.97620666,-0.01731875,0.9763766,0.2153805,0.9994131,0.023272276,-0.025136538,-0.027610512,0.20658788,-0.9780384,-0.01758945,0.9781595,0.20711003,0.999464,0.022921573,-0.02337372,9.9756775,0.14476013,-0.29193115,9.800895,0.22822307,-0.24650523,-0.037475586,0.060897827,-0.017242432,-39.59961,21.539307,5.9387207,0,0.0,0.0,0.0,0.0
1.784667968,-0.02914914,0.21552554,-0.97606295,-0.017426891,0.9762199,0.21608064,0.99942315,0.023308313,-0.024700034,-0.027649436,0.20675266,-0.9780024,-0.017584344,0.9781245,0.2072756,0.99946296,0.022928586,-0.023408981,9.9756775,0.14476013,-0.29193115,9.800993,0.22857647,-0.2422246,-0.035186768,0.06669617,-0.017089844,-39.59961,21.539307,5.9387207,0,0.0,0.0,0.0,0.0
1.79296875,-0.02867248,0.21780607,-0.97557086,-0.01746283,0.975714,0.21835127,0.9994363,0.023296898,-0.024172626,-0.027708814,0.20710039,-0.9779272,-0.017578602,0.97805065,0.2076246,0.9994615,0.022943625,-0.023460088,9.972092,0.12921143,-0.2368927,9.801123,0.22846453,-0.2370525,-0.038848877,0.060287476,-0.014343262,-39.35852,21.418762,5.9387207,0,0.0,0.0,0.0,0.0
1.801269531,-0.02820635,0.21861613,-0.9754032,-0.01752476,0.9755333,0.21915208,0.9994485,0.023275187,-0.02368504,-0.027728122,0.20731477,-0.97788125,-0.017576465,0.97800505,0.2078394,0.99946094,0.02295069,-0.023474382,9.972092,0.12921143,-0.2368927,9.801242,0.22825162,-0.2322709,-0.03289795,0.05065918,-0.015258789,-39.35852,21.418762,5.9387207,0,0.0,0.0,0.0,0.0
1.809570312,-0.02752684,0.20339394,-0.97871,-0.018018482,0.9788209,0.20392376,0.9994586,0.023248244,-0.023278998,-0.027747119,0.20776287,-0.9777856,-0.017574556,0.9779097,0.20828795,0.99946046,0.02296354,-0.023482835,9.979263,0.13279724,-0.22612,9.801341,0.2279874,-0.228289,-0.051986694,0.028213501,-0.0068511963,-39.29901,21.238708,5.519104,0,0.0,0.0,0.0,0.0
1.817871093,-0.027236864,0.20390497,-0.9786117,-0.018010879,0.9787159,0.20442796,0.9994668,0.023193635,-0.022984644,-0.027738541,0.20758991,-0.9778226,-0.01759215,0.97794616,0.20811518,0.9994604,0.022974813,-0.023474846,10.010376,0.117248535,-0.21296692,9.801421,0.22745186,-0.22540237,-0.04449463,0.01890564,-0.016174316,-39.29901,21.238708,5.519104,0,0.0,0.0,0.0,0.0
1.826171875,-0.027084045,0.20568216,-0.97824395,-0.017962882,0.9783448,0.20620067,0.9994717,0.023156831,-0.022802891,-0.027728563,0.20751624,-0.9778385,-0.017600551,0.9779616,0.20804146,0.9994605,0.022979189,-0.023465073,10.010376,0.117248535,-0.21296692,9.80147,0.22709094,-0.22361998,-0.04801941,0.006378174,-0.0132751465,-39.419556,21.058655,5.519104,0,0.0,0.0,0.0,0.0
1.834472656,-0.027006805,0.20581971,-0.97821724,-0.017939318,0.9783168,0.20633593,0.9994743,0.023121022,-0.022728942,-0.027703073,0.20744364,-0.9778546,-0.017614944,0.97797686,0.20796861,0.99946094,0.022986224,-0.023438856,9.984055,0.117248535,-0.18185425,9.801495,0.22673976,-0.22289479,-0.045578003,-0.023712158,-0.012054443,-39.419556,21.058655,5.519104,0,0.0,0.0,0.0,0.0
1.842773437,-0.026979772,0.19643597,-0.9801454,-0.018146079,0.9802445,0.19695534,0.99947125,0.023099605,-0.02288223,-0.027675511,0.20737934,-0.977869,-0.017627833,0.9779903,0.20790397,0.9994615,0.022991562,-0.023410736,9.992432,0.12562561,-0.24047852,9.801465,0.22652975,-0.22439803,-0.0544281,-0.033935547,-0.018463135,-39.29901,21.539307,5.3985596,0,0.0,0.0,0.0,0.0
1.851074218,-0.027238233,0.19598526,-0.9802285,-0.01811023,0.98033464,0.19650973,0.9994649,0.02310474,-0.023153245,-0.027661644,0.20716073,-0.9779158,-0.017638337,0.97803664,0.20768528,0.9994617,0.022993723,-0.02340013,9.992432,0.12562561,-0.24047852,9.801402,0.22658008,-0.22705576,-0.05656433,-0.0345459,-0.018463135,-39.29901,21.539307,5.3985596,0,0.0,0.0,0.0,0.0
1.859375,-0.027917167,0.2155051,-0.9761036,-0.017470922,0.9762298,0.21603264,0.99945754,0.023084449,-0.023488495,-0.027645133,0.2067187,-0.9780097,-0.017657135,0.9781301,0.20724323,0.9994618,0.022998117,-0.023390478,9.982849,0.0993042,-0.2907257,9.801331,0.22638111,-0.23034346,-0.05305481,-0.02722168,-0.019683838,-39.05945,21.299744,5.819702,0,0.0,0.0,0.0,0.0
1.867675781,-0.028218301,0.21498197,-0.9762102,-0.01746891,0.9763438,0.21551636,0.9994491,0.023134839,-0.023795268,-0.027655974,0.20706695,-0.97793585,-0.017649818,0.9780563,0.20759162,0.99946165,0.023001537,-0.023394408,9.964905,0.14356995,-0.30508423,9.801248,0.22687528,-0.23335187,-0.05229187,-0.006149292,-0.024261475,-39.05945,21.299744,5.819702,0,0.0,0.0,0.0,0.0
1.875976562,-0.028501533,0.21880296,-0.9753527,-0.01737915,0.9754931,0.2193423,0.99944264,0.023202395,-0.024000442,-0.027667196,0.2072254,-0.97790194,-0.017646283,0.9780227,0.20775026,0.9994614,0.0230042,-0.023402387,9.964905,0.14356995,-0.30508423,9.801185,0.22753777,-0.23536393,-0.053512573,-0.006149292,-0.021514893,-39.05945,21.11969,5.8792114,0,0.0,0.0,0.0,0.0
1.884277343,-0.028644957,0.2185522,-0.97540474,-0.01742605,0.9755476,0.21909598,0.9994377,0.023273446,-0.024136016,-0.02771653,0.20790707,-0.97775584,-0.017631011,0.9778778,0.20843278,0.99946034,0.023015857,-0.023437768,9.960129,0.13998413,-0.3517456,9.801136,0.22823454,-0.23669347,-0.050613403,0.03477478,-0.01449585,-39.05945,21.11969,5.8792114,0,0.0,0.0,0.0,0.0
1.892578125,-0.028488448,0.21372211,-0.976479,-0.017565195,0.97661763,0.21426491,0.9994398,0.023256117,-0.02406825,-0.027735084,0.20812021,-0.97770995,-0.017627096,0.9778323,0.20864627,0.99945986,0.023021009,-0.023451706,9.961319,0.112457275,-0.31106567,9.801156,0.22806461,-0.23602891,-0.045578003,0.041809082,-0.012207031,-39.239502,21.359253,5.819702,0,0.0,0.0,0.0,0.0
1.900878906,-0.028261498,0.21411727,-0.97639906,-0.017549083,0.97653246,0.21465449,0.9994466,0.023201365,-0.023840705,-0.027750086,0.2082323,-0.97768563,-0.017625947,0.97780836,0.2087587,0.99945945,0.02302571,-0.023463974,9.961319,0.112457275,-0.31106567,9.801223,0.22752768,-0.23379746,-0.04710388,0.052337646,-0.008377075,-39.239502,21.359253,5.819702,0,0.0,0.0,0.0,0.0
1.909179687,-0.027829736,0.21249892,-0.976765,-0.017642194,0.9768868,0.21302809,0.99945694,0.023160791,-0.023437552,-0.02777031,0.20846549,-0.97763544,-0.017623018,0.97775847,0.20899235,0.99945897,0.023032667,-0.023478864,9.990036,0.12921143,-0.25483704,9.801325,0.22712977,-0.22984387,-0.042373657,0.058303833,-0.014801025,-39.479065,21.299744,5.758667,0,0.0,0.0,0.0,0.0
1.917480468,-0.027320312,0.21339421,-0.9765841,-0.017684871,0.9766927,0.21391268,0.9994703,0.023114925,-0.0229097,-0.027772617,0.20862529,-0.97760123,-0.017623788,0.97772425,0.20915222,0.99945885,0.023037741,-0.023477193,9.973282,0.122039795,-0.17706299,9.8014555,0.22668,-0.22466743,-0.03778076,0.043029785,-0.0119018555,-39.479065,21.299744,5.758667,0,0.0,0.0,0.0,0.0
1.92578125,-0.026773382,0.20799345,-0.9777637,-0.017888226,0.977858,0.20850334,0.99948144,0.023072798,-0.022459934,-0.027763586,0.20872071,-0.97758114,-0.017624952,0.97770387,0.20924747,0.99945915,0.023039281,-0.023465874,9.973282,0.122039795,-0.17706299,9.801565,0.22626686,-0.22025672,-0.041152954,0.03187561,-0.015106201,-39.65912,21.11969,5.5786133,0,0.0,0.0,0.0,0.0
1.934082031,-0.026476044,0.2085241,-0.97765887,-0.017900353,0.97774595,0.20902742,0.9994891,0.023034656,-0.022154188,-0.027724305,0.20869192,-0.9775883,-0.017635422,0.97770995,0.20921801,0.99946,0.02304061,-0.023425959,9.997208,0.110076904,-0.19621277,9.8016405,0.22589281,-0.21725836,-0.037017822,0.014160156,-0.019226074,-39.65912,21.11969,5.5786133,0,0.0,0.0,0.0,0.0
1.942382812,-0.026534844,0.21947189,-0.9752579,-0.017636543,0.97534674,0.21997175,0.9994923,0.023037095,-0.022009948,-0.027674958,0.20868531,-0.97759116,-0.017645903,0.9777114,0.20921052,0.9994612,0.023040373,-0.023375679,10.000809,0.117248535,-0.1986084,9.801671,0.22591673,-0.21584387,-0.034576416,-0.01210022,-0.019073486,-39.718628,21.058655,5.819702,0,0.0,0.0,0.0,0.0
1.950683593,-0.026559873,0.2194273,-0.97526735,-0.017641662,0.9753567,0.21992785,0.9994916,0.023046589,-0.022034286,-0.027652156,0.2089013,-0.97754574,-0.017645445,0.97766525,0.209426,0.9994618,0.023040308,-0.023348395,10.000809,0.117248535,-0.1986084,9.801664,0.22600983,-0.21608253,-0.04496765,-0.028137207,-0.017700195,-39.718628,21.058655,5.819702,0,0.0,0.0,0.0,0.0
1.958984375,-0.026659438,0.21290374,-0.97670937,-0.017795194,0.97680074,0.21340936,0.99948615,0.023070108,-0.022252299,-0.027608935,0.20931858,-0.97745764,-0.017644791,0.977576,0.20984231,0.999463,0.02304056,-0.02329645,9.976868,0.1483612,-0.20817566,9.801611,0.22624049,-0.21822052,-0.049240112,-0.05470276,-0.009155273,-39.65912,21.1792,5.6991577,0,0.0,0.0,0.0,0.0
1.967285156,-0.027134536,0.21206002,-0.9768799,-0.017661188,0.9769854,0.2125735,0.9994757,0.023020942,-0.02276481,-0.027571194,0.20946062,-0.97742826,-0.017650632,0.97754556,0.20998363,0.999464,0.023041729,-0.023254987,9.998413,0.12083435,-0.31585693,9.801509,0.22575833,-0.22324653,-0.046951294,-0.041122437,-0.021057129,-39.65912,21.1792,5.6991577,0,0.0,0.0,0.0,0.0
1.975585937,-0.027688999,0.2161914,-0.9759583,-0.017423641,0.97607994,0.21671267,0.99946475,0.023005303,-0.023259835,-0.027562374,0.20951262,-0.97741735,-0.017650839,0.9775344,0.21003546,0.9994642,0.023041314,-0.023245096,9.998413,0.12083435,-0.31585693,9.801401,0.22560495,-0.22810107,-0.049545288,-0.033325195,-0.023803711,-39.959717,20.878601,5.758667,0,0.0,0.0,0.0,0.0
1.983886718,-0.02799008,0.21564607,-0.97607034,-0.01743493,0.97619903,0.21617447,0.9994561,0.02306846,-0.023564115,-0.02756732,0.2097773,-0.9773605,-0.017641883,0.97747767,0.21030006,0.9994642,0.023039887,-0.023245573,9.974487,0.14596558,-0.2632141,9.801316,0.22622432,-0.23108503,-0.046035767,-0.023101807,-0.01953125,-39.959717,20.878601,5.758667,0,0.0,0.0,0.0,0.0
1.9921875,-0.028242761,0.21358806,-0.9765155,-0.017506521,0.9766497,0.21412374,0.9994478,0.023142835,-0.0238441,-0.027583987,0.21000983,-0.97731006,-0.017633788,0.9774277,0.21053281,0.9994639,0.023041015,-0.023258084,9.9218445,0.1483612,-0.35055542,9.801235,0.22695369,-0.23383075,-0.022979736,0.04837036,-0.025024414,-40.13977,21.299744,5.819702,0,0.0,0.0,0.0,0.0
2.000488281,-0.028205175,0.2136552,-0.9765019,-0.017596114,0.976633,0.21419214,0.9994472,0.023223966,-0.023786603,-0.027597122,0.21008141,-0.9772943,-0.0176313,0.9774123,0.21060467,0.9994636,0.023043051,-0.02326976,9.9218445,0.1483612,-0.35055542,9.8012295,0.22774932,-0.23326689,0.013824463,0.09541321,-0.019226074,-40.13977,21.299744,5.819702,0,0.0,0.0,0.0,0.0
2.008789062,-0.027400622,0.19408666,-0.98060167,-0.01830339,0.9807081,0.19461918,0.99945694,0.023281021,-0.023319567,-0.027621223,0.21022299,-0.9772633,-0.017629983,0.9773817,0.21074678,0.99946296,0.023050217,-0.023290249,9.938583,0.15672302,-0.4019928,9.801325,0.22830883,-0.22868684,0.052322388,0.12411499,-0.017547607,-40.19928,21.299744,5.3390503,0,0.0,0.0,0.0,0.0
2.017089843,-0.026456729,0.1957897,-0.980289,-0.018402956,0.98037064,0.19630267,0.9994805,0.023233742,-0.022334289,-0.027612675,0.20958503,-0.9774004,-0.017656714,0.9775185,0.21010914,0.9994627,0.023059355,-0.023291316,10.011566,0.102890015,-0.18902588,9.801556,0.22784518,-0.21902455,0.0074157715,0.07203674,-0.019989014,-40.19928,21.299744,5.3390503,0,0.0,0.0,0.0,0.0
2.025390625,-0.026232557,0.22545035,-0.9739015,-0.017737921,0.97397846,0.22594593,0.9994985,0.023202123,-0.02155092,-0.027589666,0.20930952,-0.97746015,-0.01767193,0.97757745,0.20983344,0.99946314,0.023062842,-0.023272133,10.011566,0.102890015,-0.18902588,9.801732,0.22753511,-0.21134233,-0.01411438,0.037231445,-0.017089844,-39.839172,21.539307,6.059265,0,0.0,0.0,0.0,0.0
2.033691406,-0.02576372,0.2262677,-0.97372437,-0.017816626,0.97378904,0.22675414,0.9995093,0.023190513,-0.021057103,-0.027535869,0.2099498,-0.97732437,-0.01767357,0.97744,0.2104726,0.9994645,0.023068357,-0.023204096,10.003189,0.112457275,-0.11126709,9.801838,0.22742125,-0.20649964,-0.059310913,-0.015151978,-0.018310547,-39.839172,21.539307,6.059265,0,0.0,0.0,0.0,0.0
2.041992187,-0.025414914,0.20862266,-0.9776659,-0.01827674,0.97772133,0.2091096,0.9995099,0.02318305,-0.021035764,-0.027465532,0.21059714,-0.97718704,-0.017678002,0.97730064,0.21111847,0.9994664,0.023073195,-0.023119144,9.973282,0.11843872,-0.18304443,9.801844,0.22734806,-0.20629038,-0.065582275,-0.04585266,-0.012512207,-39.959717,21.839905,5.6991577,0,0.0,0.0,0.0,0.0
2.050292968,-0.025631305,0.20824623,-0.9777406,-0.018210433,0.9778024,0.20873676,0.9995056,0.023155274,-0.021270094,-0.027424507,0.21055765,-0.9771967,-0.017690064,0.97730905,0.21107833,0.9994674,0.02307539,-0.023077441,9.973282,0.11843872,-0.18304443,9.801802,0.22707568,-0.20858838,-0.0715332,-0.05973816,-0.010513306,-39.959717,21.839905,5.6991577,0,0.0,0.0,0.0,0.0
2.05859375,-0.025883421,0.1990508,-0.97964734,-0.01830335,0.9797171,0.19954856,0.9994974,0.023095824,-0.021715133,-0.02735339,0.21046616,-0.9772184,-0.017710865,0.97732866,0.21098566,0.99946886,0.023078555,-0.023005713,9.960129,0.10887146,-0.20219421,9.801722,0.22649266,-0.2129527,-0.07489014,-0.08280945,-0.014343262,-40.019226,21.958923,5.519104,0,0.0,0.0,0.0,0.0
2.066894531,-0.026506452,0.19796635,-0.9798503,-0.018176474,0.97993726,0.19847561,0.9994834,0.02307111,-0.022376332,-0.027295364,0.21001463,-0.97731715,-0.017734934,0.9774258,0.21053329,0.99947006,0.023079237,-0.022954598,9.988831,0.12802124,-0.25723267,9.801584,0.2262503,-0.21943687,-0.075653076,-0.09150696,-0.0132751465,-40.019226,21.958923,5.519104,0,0.0,0.0,0.0,0.0
2.075195312,-0.027365109,0.2059316,-0.97818375,-0.017794276,0.97829485,0.20645279,0.99946713,0.023055673,-0.023106739,-0.027279664,0.20977396,-0.9773692,-0.017743925,0.97747743,0.21029244,0.9994703,0.023079075,-0.022943042,9.988831,0.12802124,-0.25723267,9.801424,0.22609891,-0.2265997,-0.08068848,-0.08097839,-0.013580322,-40.13977,22.019958,5.758667,0,0.0,0.0,0.0,0.0
2.083496093,-0.028083334,0.20468542,-0.97842485,-0.017656134,0.97855663,0.20521978,0.9994497,0.023038456,-0.023867182,-0.027283117,0.20962188,-0.9774018,-0.017745888,0.97751015,0.21014045,0.99947023,0.02307815,-0.022949597,9.974487,0.122039795,-0.31585693,9.801253,0.22593008,-0.23405711,-0.0703125,-0.04951477,-0.016784668,-40.13977,22.019958,5.758667,0,0.0,0.0,0.0,0.0
2.091796875,-0.028491434,0.1935512,-0.98067635,-0.017870972,0.9808191,0.19409858,0.99943423,0.023055788,-0.024485998,-0.027314778,0.20942649,-0.9774428,-0.017742168,0.97755206,0.20994571,0.9994694,0.023076575,-0.022985937,9.970886,0.1375885,-0.33021545,9.801103,0.22610007,-0.24012563,-0.05580139,-0.027679443,-0.016784668,-40.379333,22.019958,5.519104,0,0.0,0.0,0.0,0.0
2.100097656,-0.028907208,0.19282176,-0.9808079,-0.017830372,0.98096234,0.19337763,0.999423,0.023078177,-0.0249188,-0.0273383,0.20910951,-0.97751,-0.017744318,0.9776199,0.20962928,0.9994687,0.023076158,-0.02301596,9.970886,0.1375885,-0.33021545,9.800993,0.22631963,-0.24436998,-0.039916992,-0.0070648193,-0.019836426,-40.379333,22.019958,5.519104,0,0.0,0.0,0.0,0.0
2.108398437,-0.029084254,0.19096023,-0.98116684,-0.017858218,0.9813261,0.19152057,0.99941736,0.023092123,-0.025130928,-0.027369697,0.20878433,-0.9775787,-0.017745469,0.97768945,0.20930481,0.99946785,0.023076199,-0.023054088,9.973282,0.124420166,-0.31585693,9.800937,0.22645637,-0.24645022,-0.045272827,8.8500977E-4,-0.019683838,-40.438843,22.198486,5.519104,0,0.0,0.0,0.0,0.0
2.116699218,-0.029134246,0.19087298,-0.9811822,-0.017898547,0.9813419,0.1914355,0.9994152,0.023139069,-0.025174312,-0.027403979,0.20842849,-0.97765356,-0.017747045,0.9777653,0.20894976,0.99946684,0.023076518,-0.02309567,9.973282,0.124420166,-0.31585693,9.800916,0.22691676,-0.24687567,-0.04878235,-0.0055389404,-0.023498535,-40.438843,22.198486,5.519104,0,0.0,0.0,0.0,0.0
2.125,-0.028932806,0.17703104,-0.9837799,-0.018295161,0.98393327,0.17759669,0.9994139,0.023136783,-0.02522914,-0.027505625,0.20739791,-0.97786987,-0.017754085,0.97798437,0.20792156,0.999464,0.023080198,-0.02321791,10.00798,0.11605835,-0.2632141,9.800902,0.22689435,-0.24741335,-0.053207397,-0.015457153,-0.01663208,-40.319824,22.079468,5.1589966,0,0.0,0.0,0.0,0.0
2.133300781,-0.029051822,0.17682171,-0.98381406,-0.01825542,0.9839715,0.17738909,0.99941117,0.023113415,-0.02535821,-0.027534269,0.20679241,-0.9779973,-0.017763859,0.9781125,0.20731689,0.99946296,0.023081327,-0.023258181,9.992432,0.14596558,-0.23449707,9.800876,0.22666517,-0.24867909,-0.05091858,-0.027679443,-0.015563965,-40.319824,22.079468,5.1589966,1,0.0,0.0,0.0,0.0
2.141601562,-0.029313853,0.17636073,-0.98388904,-0.018239707,0.9840538,0.17693369,0.99940383,0.023132453,-0.025629638,-0.027594535,0.20560907,-0.9782451,-0.017781219,0.97836196,0.20613521,0.99946105,0.023082595,-0.023341462,9.979263,0.1483612,-0.24526978,9.800804,0.22685188,-0.2513409,-0.054885864,-0.058380127,-0.014038086,-40.319824,22.079468,5.1589966,1,0.0,0.0,0.0,0.0
2.149902343,-0.030138943,0.1926703,-0.98080057,-0.017639464,0.98099095,0.19324976,0.99939007,0.02312514,-0.026167434,-0.027662583,0.20445414,-0.9784852,-0.01779714,0.9786039,0.20498209,0.99945885,0.023084572,-0.023432013,9.981659,0.12802124,-0.29551697,9.800669,0.22678016,-0.25661486,-0.07244873,-0.08494568,-0.016937256,-40.078735,22.439575,5.6396484,1,0.0,0.0,0.0,0.0
2.158203125,-0.030313047,0.16565782,-0.98571736,-0.018365318,0.9859117,0.16625527,0.99937165,0.023142714,-0.026843626,-0.02771201,0.20421875,-0.97853297,-0.017793385,0.978653,0.20474772,0.9994576,0.023085384,-0.0234867,9.992432,0.13998413,-0.2907257,9.800488,0.2269525,-0.26324606,-0.0874176,-0.09150696,-0.013122559,-40.25879,22.259521,4.978943,1,0.0,0.0,0.0,0.0
2.166503906,-0.03102985,0.16440338,-0.985905,-0.018286467,0.9861215,0.16501501,0.99935114,0.02314911,-0.027592845,-0.027815001,0.20269732,-0.9788463,-0.017811622,0.9789692,0.2032289,0.9994544,0.023087654,-0.023619663,9.992432,0.13998413,-0.2907257,9.800287,0.22701523,-0.27059337,-0.09794617,-0.09196472,-0.012512207,-40.25879,22.259521,4.978943,1,0.0,0.0,0.0,0.0
2.174804687,-0.03221813,0.18783796,-0.9816715,-0.017395869,0.9819272,0.18845782,0.99932945,0.023148786,-0.02836825,-0.027942164,0.20118636,-0.97915435,-0.017825142,0.9792808,0.20172103,0.99945056,0.023090087,-0.02377705,9.96611,0.12921143,-0.3529358,9.800075,0.22701205,-0.2781975,-0.08467102,-0.049819946,-0.013580322,-40.13977,21.958923,5.519104,1,0.0,0.0,0.0,0.0
2.183105468,-0.032816082,0.18679017,-0.98185164,-0.01734772,0.98212624,0.18742223,0.9993108,0.023183348,-0.028989151,-0.028027546,0.20091975,-0.97920674,-0.017815381,0.97933555,0.20145611,0.9994484,0.02309126,-0.023868911,9.936203,0.15553284,-0.41036987,9.799891,0.22735098,-0.28428647,-0.07443237,-0.016067505,-0.010375977,-40.13977,21.958923,5.519104,1,0.0,0.0,0.0,0.0
2.19140625,-0.033092257,0.1863061,-0.98193425,-0.017291259,0.98221856,0.18694279,0.99930274,0.023165239,-0.029282365,-0.028216692,0.20036098,-0.97931576,-0.017794203,0.9794499,0.20090114,0.9994434,0.023094907,-0.02407157,9.952942,0.13040161,-0.447464,9.799812,0.2271734,-0.28716192,-0.052749634,0.022720337,-0.014038086,-40.13977,21.958923,5.519104,1,0.0,0.0,0.0,0.0
2.199707031,-0.033168968,0.19682243,-0.9798779,-0.01691963,0.98016626,0.19745308,0.9993065,0.023128489,-0.029180942,-0.028409252,0.19980516,-0.9794237,-0.017771596,0.97956336,0.20034912,0.99943835,0.023097692,-0.024277806,9.960129,0.117248535,-0.39959717,9.7998495,0.226813,-0.2861673,-0.03503418,0.07510376,-0.012664795,-39.839172,22.259521,5.819702,1,0.0,0.0,0.0,0.0
2.208007812,-0.032550987,0.18850611,-0.98153245,-0.017309824,0.98179924,0.18913141,0.99932015,0.023146566,-0.028695524,-0.028504383,0.19974552,-0.9794331,-0.01775428,0.9795755,0.20029126,0.99943596,0.023098309,-0.02437586,9.984055,0.1603241,-0.30747986,9.799983,0.22699028,-0.28140697,-0.020370483,0.08807373,-0.01373291,-39.59961,21.899414,5.519104,1,0.0,0.0,0.0,0.0
2.216308593,-0.031832647,0.18975052,-0.9813161,-0.017404998,0.98155946,0.19036219,0.9993416,0.02313954,-0.027943034,-0.028664384,0.19930092,-0.97951907,-0.017734876,0.97966605,0.19984983,0.9994317,0.02310022,-0.024546945,9.968506,0.13639832,-0.2644043,9.800194,0.22692138,-0.27402756,-0.015945435,0.103652954,-0.019836426,-39.59961,21.899414,5.519104,1,0.0,0.0,0.0,0.0
2.224609375,-0.031323683,0.20833442,-0.977556,-0.016984196,0.97778374,0.20892718,0.999365,0.023147369,-0.027089393,-0.028789809,0.19892305,-0.9795921,-0.017720584,0.97974277,0.19947445,0.99942833,0.023101777,-0.024681574,9.968506,0.13639832,-0.2644043,9.800423,0.22699815,-0.2656562,-0.0061798096,0.10319519,-0.01449585,-39.419556,21.659851,5.8792114,1,0.0,0.0,0.0,0.0
2.232910156,-0.030473575,0.20980357,-0.9772686,-0.01714211,0.97746915,0.21038115,0.9993886,0.02316351,-0.026190504,-0.028890328,0.1992961,-0.97951335,-0.017692331,0.97966695,0.19984917,0.999426,0.023103582,-0.024776887,9.970886,0.13998413,-0.23568726,9.800654,0.22715645,-0.25684112,-0.003112793,0.08670044,-0.018463135,-39.419556,21.659851,5.8792114,1,0.0,0.0,0.0,0.0
2.241210937,-0.029757554,0.21104039,-0.9770243,-0.017269453,0.9772027,0.21160491,0.99940795,0.023169518,-0.025434608,-0.028922038,0.19950648,-0.9794696,-0.017681647,0.97962403,0.20006005,0.99942523,0.02310478,-0.024805121,9.985245,0.12921143,-0.26919556,9.800844,0.22721535,-0.2494283,0.005126953,0.07585144,-0.016784668,-39.419556,21.659851,5.8792114,1,0.0,0.0,0.0,0.0
2.249511718,-0.028947944,0.20087087,-0.97919,-0.017705683,0.9793438,0.20142587,0.9994241,0.023168089,-0.024793431,-0.028938726,0.19973744,-0.97942203,-0.017673587,0.979577,0.20029123,0.99942493,0.023106074,-0.02481763,9.979263,0.122039795,-0.25723267,9.8010025,0.22720134,-0.2431405,-0.0015869141,0.069747925,-0.018463135,-39.239502,21.539307,5.5786133,1,0.0,0.0,0.0,0.0
2.2578125,-0.028779663,0.22169645,-0.974691,-0.017175198,0.97484124,0.22223775,0.99943817,0.023136435,-0.02424792,-0.02893909,0.19978234,-0.97941285,-0.017674856,0.97956777,0.20033617,0.9994249,0.023108529,-0.024816675,9.997208,0.10887146,-0.20219421,9.801141,0.22689092,-0.23779087,-0.025878906,0.032333374,-0.019989014,-39.118958,21.299744,5.999756,1,0.0,0.0,0.0,0.0
2.266113281,-0.028475173,0.22222432,-0.9745797,-0.017209796,0.97472155,0.2227595,0.99944633,0.023115432,-0.023930928,-0.028932815,0.2006521,-0.97923523,-0.01765479,0.9793899,0.20120543,0.9994254,0.023109632,-0.024794038,9.984055,0.12083435,-0.18185425,9.80122,0.22668494,-0.23468222,-0.05366516,0.010803223,-0.018005371,-39.118958,21.299744,5.999756,1,0.0,0.0,0.0,0.0
2.274414062,-0.028357549,0.2224282,-0.97453654,-0.017237775,0.9746748,0.22296135,0.9994492,0.02312148,-0.023805223,-0.028932815,0.2006521,-0.97923523,-0.01765479,0.9793899,0.20120543,0.9994254,0.023109632,-0.024794038,9.984055,0.12083435,-0.18185425,9.801249,0.22674426,-0.2334495,-0.05366516,0.010803223,-0.018005371,-39.118958,21.299744,5.999756,1,0.0,0.0,0.0,0.0
2.282714843,-0.028281236,0.21522889,-0.97615397,-0.01743972,0.97628975,0.21576408,0.9994479,0.02312593,-0.023857152,-0.028899122,0.20193556,-0.9789724,-0.017629316,0.9791261,0.20248768,0.99942684,0.023110328,-0.024735898,9.96611,0.13040161,-0.24765015,9.801235,0.2267879,-0.23395872,-0.056411743,-0.036071777,-0.016937256,-39.239502,21.238708,5.819702,1,0.0,0.0,0.0,0.0
2.291015625,-0.02854967,0.21475919,-0.9762497,-0.017402388,0.97639304,0.21529964,0.9994409,0.023135807,-0.024138374,-0.028874775,0.20246267,-0.9788642,-0.017621404,0.97901726,0.20301414,0.9994277,0.023110949,-0.024701227,9.963715,0.124420166,-0.25602722,9.8011675,0.22688477,-0.2367166,-0.06817627,-0.04371643,-0.014190674,-39.239502,21.238708,5.819702,1,0.0,0.0,0.0,0.0
2.299316406,-0.02905321,0.22336696,-0.97430134,-0.017063087,0.97446,0.22391215,0.99943227,0.023129955,-0.02449986,-0.02886834,0.20270893,-0.9788134,-0.017616905,0.9789663,0.20326015,0.999428,0.023111446,-0.024690028,10.023529,0.110076904,-0.3026886,9.801083,0.22682738,-0.24026155,-0.06817627,-0.04524231,-0.018157959,-39.29901,21.058655,5.999756,1,0.0,0.0,0.0,0.0
2.307617187,-0.029265074,0.21182306,-0.97686976,-0.017302481,0.97703457,0.21237716,0.99942195,0.023117505,-0.024927929,-0.028876001,0.20352876,-0.97864306,-0.017594947,0.9787961,0.20407978,0.9994281,0.02311218,-0.02468264,9.962524,0.119644165,-0.30389404,9.8009815,0.22670528,-0.24445948,-0.07092285,-0.039901733,-0.018463135,-39.35852,21.11969,5.758667,1,0.0,0.0,0.0,0.0
2.315917968,-0.029665621,0.21111509,-0.9770109,-0.017259546,0.97718716,0.21167724,0.99941087,0.023142302,-0.025345117,-0.028891403,0.2038575,-0.9785742,-0.01758348,0.9787277,0.20440863,0.99942786,0.02311239,-0.024692291,9.996017,0.13160706,-0.3062744,9.800873,0.22694847,-0.2485507,-0.0753479,-0.03942871,-0.015258789,-39.35852,21.11969,5.758667,1,0.0,0.0,0.0,0.0
2.32421875,-0.03003943,0.21045423,-0.97714204,-0.017204948,0.97732955,0.21102354,0.9994007,0.023150705,-0.02573757,-0.02890685,0.20400278,-0.97854346,-0.01757712,0.9786974,0.20455413,0.9994275,0.02311299,-0.024705278,9.996017,0.13160706,-0.3062744,9.800773,0.22703086,-0.25239936,-0.063446045,-0.038986206,-0.013885498,-39.35852,21.11969,5.758667,1,0.0,0.0,0.0,0.0
2.332519531,-0.030229699,0.20162925,-0.9789953,-0.017389314,0.9791886,0.20220602,0.99939173,0.023136685,-0.026094383,-0.028951753,0.20425844,-0.9784888,-0.017562656,0.97864413,0.2048105,0.99942654,0.023114484,-0.024746142,9.990036,0.11366272,-0.30508423,9.800685,0.22689338,-0.25589848,-0.051376343,-0.032409668,-0.015258789,-39.479065,20.878601,5.519104,1,0.0,0.0,0.0,0.0
2.340820312,-0.030496633,0.2011485,-0.979086,-0.017302198,0.97928864,0.20172906,0.9993851,0.023092393,-0.026384687,-0.02900232,0.20415431,-0.97850895,-0.01755566,0.9786657,0.20470737,0.9994251,0.023115361,-0.024799515,9.976868,0.122039795,-0.30508423,9.80062,0.22645901,-0.2587454,-0.052597046,-0.008590698,-0.015106201,-39.479065,20.878601,5.519104,1,0.0,0.0,0.0,0.0
2.349121093,-0.030923678,0.21674232,-0.9757389,-0.016760983,0.975956,0.21732175,0.9993812,0.023074733,-0.026547337,-0.029032178,0.20409423,-0.9785207,-0.017550502,0.9786783,0.20464782,0.99942434,0.023114901,-0.024831207,9.978073,0.12562561,-0.34934998,9.800582,0.22628585,-0.26034045,-0.049697876,4.272461E-4,-0.017547607,-39.35852,21.11969,5.9387207,1,0.0,0.0,0.0,0.0
2.357421875,-0.030708069,0.2010282,-0.979104,-0.017243326,0.9793136,0.20161206,0.99937963,0.023074126,-0.026606437,-0.029107325,0.20459574,-0.9784137,-0.017520126,0.9785736,0.20515041,0.9994227,0.02311331,-0.02489912,9.98645,0.119644165,-0.33499146,9.800567,0.22627988,-0.26092002,-0.044052124,0.022262573,-0.021972656,-39.59961,21.418762,5.6396484,1,0.0,0.0,0.0,0.0
2.365722656,-0.030594291,0.20122865,-0.9790664,-0.01728387,0.979272,0.201811,0.9993825,0.023096321,-0.02648212,-0.029170614,0.20445453,-0.97844136,-0.01750895,0.97860324,0.20501034,0.99942106,0.023111757,-0.024966672,9.981659,0.12802124,-0.28474426,9.800594,0.22649755,-0.2597009,-0.043441772,0.025161743,-0.01953125,-39.59961,21.418762,5.6396484,1,0.0,0.0,0.0,0.0
2.374023437,-0.030394059,0.20158137,-0.97900003,-0.017368356,0.9791981,0.20216137,0.999387,0.023148127,-0.026260668,-0.029199023,0.20439003,-0.978454,-0.017504366,0.9786167,0.20494638,0.99942034,0.02311145,-0.024996934,9.990036,0.14955139,-0.23808289,9.800639,0.22700559,-0.2575292,-0.04573059,0.012634277,-0.017852783,-39.59961,21.418762,5.6396484,1,0.0,0.0,0.0,0.0
2.382324218,-0.030295473,0.20255962,-0.9788012,-0.017404813,0.9789953,0.20313852,0.99938947,0.023190029,-0.026133612,-0.029246323,0.20427883,-0.97847575,-0.017498847,0.97863984,0.20483612,0.99941903,0.023112902,-0.025046973,10.000809,0.12802124,-0.22492981,9.800663,0.2274165,-0.2562832,-0.05000305,-0.0055389404,-0.016174316,-39.718628,21.598816,5.6991577,1,0.0,0.0,0.0,0.0
2.390625,-0.030266555,0.20261025,-0.9787916,-0.017419979,0.9789846,0.20318887,0.99939007,0.023200357,-0.026101029,-0.029287957,0.20421076,-0.97848874,-0.017495036,0.978654,0.20476891,0.9994179,0.023115957,-0.0250901,10.000809,0.12802124,-0.22492981,9.800669,0.22751778,-0.25596365,-0.058547974,-0.009963989,-0.019989014,-39.718628,21.598816,5.6991577,1,0.0,0.0,0.0,0.0
2.398925781,-0.03034797,0.2006361,-0.97919565,-0.017503038,0.97938997,0.2012184,0.99938613,0.023245469,-0.026210759,-0.02930744,0.20417874,-0.9784948,-0.017493518,0.97866064,0.20473729,0.9994173,0.023117643,-0.025110232,10.003189,0.14356995,-0.28115845,9.80063,0.22796017,-0.25703973,-0.058547974,-0.019897461,-0.019836426,-39.959717,21.479797,5.6396484,1,0.0,0.0,0.0,0.0
2.407226562,-0.030513063,0.1980744,-0.9797119,-0.01757683,0.9799103,0.19866195,0.99937975,0.023282018,-0.02641855,-0.029348662,0.20403852,-0.9785229,-0.017493747,0.97868973,0.20459801,0.9994161,0.023122707,-0.025153834,9.970886,0.14117432,-0.31225586,9.800569,0.22831862,-0.2590775,-0.06098938,-0.018661499,-0.012664795,-40.078735,21.418762,5.5786133,1,0.0,0.0,0.0,0.0
2.415527343,-0.03072571,0.19769476,-0.9797819,-0.01755072,0.97998685,0.1982865,0.99937373,0.023288375,-0.02664111,-0.029372025,0.2039193,-0.978547,-0.017495247,0.97871447,0.20447937,0.9994154,0.023125893,-0.025179211,9.970886,0.14117432,-0.31225586,9.800509,0.22838096,-0.26126006,-0.054122925,-0.018661499,-0.012664795,-40.078735,21.418762,5.5786133,1,0.0,0.0,0.0,0.0
2.423828125,-0.030945264,0.19730273,-0.9798541,-0.017488396,0.98006666,0.19789784,0.9993681,0.023260076,-0.02687791,-0.029425628,0.20367298,-0.9785966,-0.0174971,0.97876567,0.20423426,0.9994138,0.023132326,-0.02523711,9.9756775,0.12562561,-0.34457397,9.800453,0.22810343,-0.26358226,-0.053512573,-0.01637268,-0.013885498,-40.078735,21.418762,5.5786133,1,0.0,0.0,0.0,0.0
2.432128906,-0.031375967,0.21497926,-0.9761146,-0.016870748,0.9763423,0.21557172,0.99936527,0.02323155,-0.027006818,-0.029515078,0.20329858,-0.9786718,-0.017495994,0.97884333,0.20386185,0.99941117,0.023139836,-0.025333725,9.968506,0.117248535,-0.28953552,9.800426,0.22782367,-0.2648464,-0.051986694,0.004852295,-0.022125244,-39.89868,21.418762,5.999756,1,0.0,0.0,0.0,0.0
2.440429687,-0.031441577,0.21486354,-0.9761379,-0.016863232,0.97636765,0.21545728,0.9993633,0.023235155,-0.027075244,-0.029552296,0.20353247,-0.978622,-0.017483925,0.97879463,0.20409635,0.9994103,0.023141671,-0.025367083,9.974487,0.12802124,-0.2907257,9.800406,0.22785905,-0.26551744,-0.052139282,0.0013427734,-0.022735596,-39.89868,21.418762,5.999756,1,0.0,0.0,0.0,0.0
2.448730468,-0.03131489,0.20548952,-0.9781582,-0.017207306,0.9783823,0.20608747,0.99936146,0.023285072,-0.027102014,-0.029590208,0.20375937,-0.97857374,-0.017471913,0.97874737,0.20432387,0.9994094,0.023143541,-0.025401274,9.974487,0.12802124,-0.2907257,9.800388,0.22834857,-0.26577997,-0.058547974,-0.006149292,-0.023651123,-39.718628,21.359253,5.758667,1,0.0,0.0,0.0,0.0
2.45703125,-0.031644393,0.22137737,-0.9746747,-0.016731586,0.97490907,0.22197382,0.99935913,0.02333208,-0.027146408,-0.02965837,0.20382789,-0.9785574,-0.017461583,0.978733,0.2043937,0.99940753,0.023149146,-0.025468467,9.98764,0.15672302,-0.27876282,9.800365,0.22880955,-0.26621532,-0.04664612,-0.0043182373,-0.022277832,-39.65912,21.539307,6.1798096,1,0.0,0.0,0.0,0.0
2.465332031,-0.031707443,0.2212678,-0.9746975,-0.01679226,0.9749322,0.22186735,0.9993561,0.023402222,-0.027197026,-0.02969828,0.20417954,-0.97848284,-0.01744762,0.97865963,0.20474598,0.99940664,0.023152804,-0.025502061,9.98764,0.15672302,-0.27876282,9.800336,0.2294974,-0.2667117,-0.053359985,-0.010879517,-0.015411377,-39.65912,21.539307,6.1798096,1,0.0,0.0,0.0,0.0
2.473632812,-0.031803276,0.22110131,-0.97473216,-0.016783765,0.9749698,0.22170283,0.9993532,0.023410551,-0.027296323,-0.029778047,0.20485745,-0.9783387,-0.017422922,0.9785178,0.20542523,0.99940467,0.023162682,-0.02556913,9.988831,0.13400269,-0.27876282,9.800307,0.22957909,-0.2676855,-0.05366516,-0.018966675,-0.019378662,-39.65912,21.539307,6.1798096,1,0.0,0.0,0.0,0.0
2.481933593,-0.03165702,0.20215881,-0.978841,-0.01738249,0.9790724,0.20276876,0.9993476,0.023433747,-0.027480492,-0.029858466,0.20550181,-0.97820115,-0.017398808,0.97838235,0.20607094,0.99940264,0.023172498,-0.02563751,9.997208,0.13160706,-0.3026886,9.800253,0.22980656,-0.26949158,-0.05671692,-0.026306152,-0.01876831,-39.718628,21.958923,5.819702,1,0.0,0.0,0.0,0.0
2.490234375,-0.03187936,0.20177566,-0.97891283,-0.017376292,0.9791507,0.20239057,0.99934065,0.023461958,-0.027708588,-0.029929604,0.20536949,-0.9782267,-0.017397944,0.9784099,0.20594023,0.99940056,0.023182845,-0.025710415,9.961319,0.12083435,-0.29431152,9.800185,0.23008324,-0.27172846,-0.06253052,-0.030883789,-0.018920898,-39.718628,21.958923,5.819702,1,0.0,0.0,0.0,0.0
2.498535156,-0.0322221,0.20616147,-0.9779873,-0.017180586,0.97823656,0.20678008,0.9993331,0.023465283,-0.027978864,-0.029968541,0.20529766,-0.97824067,-0.017397381,0.97842485,0.20586929,0.9993994,0.023188427,-0.025750324,9.961319,0.12083435,-0.29431152,9.80011,0.23011583,-0.27437893,-0.06253052,-0.04386902,-0.012512207,-39.479065,21.71936,5.8792114,1,0.0,0.0,0.0,0.0
2.506835937,-0.0327212,0.21445538,-0.97618556,-0.016816474,0.9764522,0.21507764,0.99932307,0.023453597,-0.028344302,-0.030143704,0.20536469,-0.9782212,-0.017380651,0.9784102,0.20593998,0.9993945,0.023209916,-0.025923535,9.979263,0.12802124,-0.31585693,9.800012,0.23000123,-0.27796265,-0.06802368,-0.04966736,-0.010818481,-39.59961,21.539307,6.059265,1,0.0,0.0,0.0,0.0
2.515136718,-0.033115283,0.21376947,-0.9763227,-0.016711915,0.9766034,0.21439776,0.99931175,0.023416065,-0.028768001,-0.030143704,0.20536469,-0.9782212,-0.017380651,0.9784102,0.20593998,0.9993945,0.023209916,-0.025923535,9.979263,0.12802124,-0.31585693,9.799901,0.22963315,-0.28211772,-0.06802368,-0.04966736,-0.010818481,-39.59961,21.539307,6.059265,1,0.0,0.0,0.0,0.0
2.5234375,-0.033497605,0.21310382,-0.9764551,-0.016610501,0.9767498,0.21373795,0.9993008,0.023379123,-0.029179022,-0.030203164,0.20553294,-0.97818404,-0.017367782,0.9783749,0.2061093,0.9993929,0.023214038,-0.025980363,9.9756775,0.13160706,-0.29193115,9.799793,0.22927088,-0.28614846,-0.06802368,-0.057296753,-0.012664795,-39.59961,21.539307,6.059265,1,0.0,0.0,0.0,0.0
2.531738281,-0.033681557,0.19806083,-0.97961086,-0.017021842,0.97991115,0.19870679,0.99928766,0.023367537,-0.029633572,-0.03033378,0.20583297,-0.97811687,-0.017338755,0.9783116,0.20641167,0.9993894,0.023220576,-0.026107002,9.973282,0.13998413,-0.3014984,9.7996645,0.22915727,-0.29060608,-0.0715332,-0.059906006,-0.009902954,-39.419556,21.77887,5.758667,1,0.0,0.0,0.0,0.0
2.540039062,-0.034139175,0.1972705,-0.9797545,-0.016936794,0.98007095,0.19792438,0.99927354,0.023350876,-0.030117683,-0.030466191,0.20552544,-0.9781775,-0.017325189,0.97837615,0.20610681,0.99938565,0.023226399,-0.026246626,9.974487,0.15434265,-0.36968994,9.799526,0.22899388,-0.2953536,-0.050613403,-0.057296753,-0.012207031,-39.419556,21.77887,5.758667,1,0.0,0.0,0.0,0.0
2.548339843,-0.034750853,0.20312877,-0.9785352,-0.016586369,0.9788745,0.20378825,0.9992584,0.02331216,-0.030647555,-0.0306115,0.2051988,-0.97824144,-0.017308611,0.9784445,0.20578302,0.9993815,0.02323133,-0.02639995,9.976868,0.12921143,-0.34934998,9.799377,0.22861421,-0.30054986,-0.05458069,-0.042495728,-0.012969971,-39.29901,21.598816,5.8792114,1,0.0,0.0,0.0,0.0
2.556640625,-0.035182357,0.2023816,-0.9786746,-0.016494274,0.97902983,0.203048,0.99924475,0.023286235,-0.03110644,-0.0306115,0.2051988,-0.97824144,-0.017308611,0.9784445,0.20578302,0.9993815,0.02323133,-0.02639995,9.976868,0.12921143,-0.34934998,9.799244,0.22835995,-0.30505,-0.05458069,-0.042495728,-0.012969971,-39.29901,21.598816,5.8792114,1,0.0,0.0,0.0,0.0
2.564941406,-0.035083063,0.17366247,-0.98418015,-0.017426485,0.9845303,0.17434545,0.9992324,0.023267372,-0.031514008,-0.030792482,0.20508726,-0.97825915,-0.017275857,0.9784679,0.2056748,0.9993765,0.023233503,-0.026586395,9.98645,0.12921143,-0.36849976,9.799123,0.22817497,-0.30904686,-0.05000305,-0.03652954,-0.01159668,-39.479065,21.598816,5.218506,1,0.0,0.0,0.0,0.0
2.573242187,-0.035414997,0.17307775,-0.9842712,-0.017385356,0.98463327,0.17376696,0.99922144,0.023265861,-0.031861767,-0.030961897,0.2038466,-0.9785131,-0.017276274,0.9787271,0.20443782,0.9993713,0.023234844,-0.026781539,9.985245,0.13279724,-0.38404846,9.799015,0.22816016,-0.3124572,-0.054885864,-0.017745972,-0.016021729,-39.479065,21.598816,5.218506,1,0.0,0.0,0.0,0.0
2.581542968,-0.03579428,0.1806452,-0.9828968,-0.017093383,0.98327255,0.18133675,0.999213,0.023291849,-0.032107696,-0.031050585,0.20323306,-0.97863793,-0.017275585,0.97885466,0.20382622,0.9993685,0.023235466,-0.026883038,9.985245,0.13279724,-0.38404846,9.798932,0.22841501,-0.31486893,-0.058547974,-0.011184692,-0.02456665,-39.538574,21.539307,5.3985596,1,0.0,0.0,0.0,0.0
2.58984375,-0.035943646,0.18038175,-0.9829397,-0.017147264,0.9833191,0.1810784,0.99920666,0.023363344,-0.032251023,-0.031237954,0.20234059,-0.97881687,-0.017264053,0.9790395,0.20293754,0.9993629,0.023237702,-0.027089974,9.976868,0.13877869,-0.3912201,9.79887,0.22911614,-0.3162745,-0.049850464,0.0053100586,-0.020904541,-39.538574,21.539307,5.3985596,1,0.0,0.0,0.0,0.0
2.598144531,-0.035914503,0.17419575,-0.9840559,-0.01744172,0.9844319,0.17489888,0.99920267,0.023445033,-0.03231711,-0.03142391,0.20147288,-0.97898984,-0.017255263,0.9792183,0.20207374,0.9993572,0.023242678,-0.027294403,9.972092,0.14237976,-0.40318298,9.798831,0.22991723,-0.3169226,-0.048934937,0.019973755,-0.027160645,-39.89868,21.598816,5.279541,1,0.0,0.0,0.0,0.0
2.606445312,-0.035916995,0.17419133,-0.9840566,-0.017526843,0.9844306,0.17489725,0.999201,0.023529189,-0.032304768,-0.031513527,0.20092879,-0.97909886,-0.017256433,0.97933,0.20153165,0.99935436,0.023246726,-0.027394827,9.972092,0.14237976,-0.40318298,9.798815,0.23074253,-0.31680155,-0.047561646,0.019515991,-0.025482178,-39.89868,21.598816,5.279541,1,0.0,0.0,0.0,0.0
2.614746093,-0.03562637,0.16427913,-0.9857703,-0.018005935,0.98613083,0.16498996,0.99920297,0.023627711,-0.03217427,-0.031687662,0.19987269,-0.9793093,-0.017262353,0.97954583,0.2004795,0.99934876,0.023257911,-0.027589245,9.976868,0.15434265,-0.33499146,9.798834,0.2317087,-0.3155218,-0.050460815,0.0054626465,-0.019073486,-40.379333,21.11969,4.978943,1,0.0,0.0,0.0,0.0
2.623046875,-0.035532117,0.16445333,-0.98574466,-0.018049372,0.986101,0.16516337,0.99920547,0.023660678,-0.032069977,-0.03184375,0.19846785,-0.97959,-0.017285954,0.97983104,0.19907862,0.9993434,0.023272555,-0.027770791,9.991226,0.12921143,-0.3026886,9.798859,0.232032,-0.31449905,-0.058395386,-0.011489868,-0.019226074,-40.379333,21.11969,4.978943,1,0.0,0.0,0.0,0.0
2.631347656,-0.035634704,0.16911516,-0.9849519,-0.017894533,0.9853119,0.16982438,0.9992047,0.023676895,-0.032085057,-0.031917643,0.19778976,-0.97972476,-0.017298516,0.979968,0.19840242,0.99934083,0.023280319,-0.027856799,9.991226,0.12921143,-0.3026886,9.79885,0.23219101,-0.31464693,-0.056106567,-0.019897461,-0.015563965,-40.438843,21.1792,5.0994873,1,0.0,0.0,0.0,0.0
2.639648437,-0.03582014,0.16877356,-0.9850037,-0.017898327,0.98536986,0.1694872,0.999198,0.023700975,-0.032275327,-0.03206497,0.1966573,-0.97994787,-0.017317705,0.9801955,0.19727364,0.99933577,0.02329602,-0.028024286,9.9673,0.15911865,-0.32901,9.798785,0.23242716,-0.31651282,-0.051834106,-0.04081726,-0.01159668,-40.438843,21.1792,5.0994873,1,0.0,0.0,0.0,0.0
2.647949218,-0.036154844,0.16829322,-0.98507375,-0.017811548,0.98545307,0.16901176,0.99918747,0.02365628,-0.032631338,-0.032213733,0.19555596,-0.9801634,-0.017336393,0.98041546,0.19617604,0.9993307,0.023312056,-0.028192606,9.98764,0.1268158,-0.36489868,9.798681,0.23198885,-0.32000408,-0.061904907,-0.05393982,-0.00730896,-40.078735,21.238708,5.0994873,1,0.0,0.0,0.0,0.0
2.65625,-0.03656052,0.16755433,-0.98518467,-0.017706914,0.9855803,0.16827874,0.99917454,0.023596939,-0.033066463,-0.032292627,0.19501208,-0.9802691,-0.017343607,0.98052365,0.19563407,0.99932796,0.02331894,-0.02828147,9.98764,0.1268158,-0.36489868,9.798555,0.23140693,-0.32427123,-0.056259155,-0.049057007,-0.005783081,-40.078735,21.238708,5.0994873,1,0.0,0.0,0.0,0.0
2.664550781,-0.037216756,0.17741399,-0.98343235,-0.017168488,0.9838554,0.17814003,0.99915975,0.02351384,-0.033569973,-0.03246164,0.19392751,-0.98047864,-0.017353185,0.98073846,0.19455342,0.99932235,0.023329949,-0.028471118,9.992432,0.102890015,-0.44386292,9.798409,0.230592,-0.32920897,-0.05168152,-0.022644043,-0.017852783,-40.25879,21.479797,5.3985596,1,0.0,0.0,0.0,0.0
2.672851562,-0.03748986,0.17692178,-0.9835106,-0.017149366,0.98394364,0.17765339,0.99914986,0.023526786,-0.033853818,-0.03264963,0.19327459,-0.9806013,-0.01734275,0.98086715,0.19390441,0.9993164,0.02333723,-0.028673036,9.988831,0.12562561,-0.4019928,9.798313,0.23071896,-0.33199254,-0.05458069,-0.007675171,-0.01953125,-40.25879,21.479797,5.3985596,1,0.0,0.0,0.0,0.0
2.681152343,-0.037807703,0.18527989,-0.9819582,-0.016842155,0.98240304,0.1860123,0.9991431,0.02357099,-0.03402189,-0.03274629,0.19294803,-0.9806624,-0.017337259,0.9809313,0.19357987,0.9993133,0.023341022,-0.028776674,9.988831,0.12562561,-0.4019928,9.798246,0.23115245,-0.33364075,-0.05595398,-0.008743286,-0.025634766,-39.89868,22.37854,5.758667,1,0.0,0.0,0.0,0.0
2.689453125,-0.037910443,0.18510424,-0.9819875,-0.016883124,0.9824349,0.18584037,0.9991385,0.023624303,-0.0341194,-0.03304362,0.1924974,-0.98074096,-0.017305957,0.98101956,0.19313514,0.99930406,0.023354547,-0.029085083,9.964905,0.13519287,-0.4295044,9.798202,0.23167527,-0.33459702,-0.05656433,0.026535034,-0.02960205,-39.89868,22.37854,5.758667,1,0.0,0.0,0.0,0.0
2.697753906,-0.038501665,0.22039649,-0.9746502,-0.015606354,0.9751218,0.22111963,0.9991366,0.02372421,-0.034104228,-0.03323635,0.19220483,-0.9807918,-0.01728778,0.9810766,0.19284648,0.99929804,0.023365228,-0.029284613,9.970886,0.119644165,-0.42591858,9.798183,0.23265503,-0.33444825,-0.034576416,0.05937195,-0.030380249,-39.59961,22.799683,6.7199707,1,0.0,0.0,0.0,0.0
2.706054687,-0.03833376,0.2206717,-0.97459453,-0.015755013,0.9750567,0.22139604,0.9991408,0.023841692,-0.0339009,-0.033342272,0.19277032,-0.98067725,-0.017257007,0.9809655,0.19341369,0.999295,0.023372406,-0.029380979,9.949356,0.17826843,-0.39720154,9.7982235,0.23380712,-0.33245426,-0.030761719,0.06227112,-0.022277832,-39.59961,22.799683,6.7199707,1,0.0,0.0,0.0,0.0
