Time,Rot1,Rot2,Rot3,Rot4,Rot5,Rot6,Rot7,Rot8,Rot9,FRot1,FRot2,FRot3,FRot4,FRot5,FRot6,FRot7,FRot8,FRot9,AccX,AccY,AccZ,GravX,GravY,GravZ,GyroX,GyroY,GyroZ,MagX,MagY,MagZ,Imid
0.0,0.0,0.0,0.0,0.0,0.0,0.0,0.0,0.0,0.0,1.0,0.0,0.0,0.0,1.0,0.0,0.0,0.0,1.0,0.0,0.0,0.0,9.70836,0.103324085,1.381113,0.0,0.0,0.0,0.0,0.0,0.0,0,0.0,0.0,0.0,0.0
0.008300781,-0.048296552,0.9626379,0.26645052,-0.13217025,-0.27057528,0.9535828,0.9900497,0.010837925,0.14029992,1.0,0.0,0.0,0.0,1.0,0.0,0.0,0.0,1.0,9.854843,0.23330688,1.3088684,9.709071,0.10628374,1.3758723,-0.011978149,-0.049362183,-0.02746582,-24.539185,-4.6188354,12.239075,0,0.0,0.0,0.0,0.0
0.016601563,-0.048554167,0.9627554,0.26597837,-0.13166362,-0.270138,0.9537768,0.9901047,0.011290163,0.1398762,0.99573225,0.07298917,-0.056478936,-0.072896406,0.99733263,0.003703728,0.056598615,4.2918982E-4,0.9983969,9.854843,0.27397156,1.3411713,9.70961,0.110718675,1.371717,-0.012130737,-0.02645874,-0.025634766,-24.539185,-4.6188354,12.239075,0,0.0,0.0,0.0,0.0
0.024902344,-0.047287393,0.96602756,0.25407615,-0.13185222,-0.25817162,0.9570592,0.9901408,0.0117563335,0.13958113,0.9836564,0.14270848,-0.109791964,-0.141924,0.9897644,0.014967442,0.110804155,8.5929333E-4,0.9938419,9.899109,0.32183838,1.3579254,9.709965,0.115290254,1.3688233,-0.028625488,-0.022033691,-0.018615723,-24.598694,-4.4387817,12.298584,0,0.0,0.0,0.0,0.0
0.033203125,-0.047563877,0.96614784,0.2535666,-0.13154049,-0.25770155,0.9572288,0.99016905,0.012175236,0.13934486,0.97507435,0.17604989,-0.1350425,-0.17453544,0.9843806,0.023067435,0.13699426,0.0010772392,0.99057126,9.907486,0.36849976,1.3615112,9.710242,0.11939829,1.3665063,-0.028320313,-0.02142334,-0.017242432,-24.598694,-4.4387817,12.298584,0,0.0,0.0,0.0,0.0
0.041503906,-0.047699876,0.96620697,0.25331593,-0.13123623,-0.25746834,0.9573334,0.99020284,0.012420458,0.13908255,0.95345193,0.24012019,-0.18240546,-0.23613636,0.97074205,0.04358461,0.18753418,0.0015167309,0.9822569,9.847656,0.23449707,1.3184509,9.710573,0.12180308,1.3639339,-0.052139282,-0.020950317,-0.012512207,-24.598694,-4.4387817,12.298584,0,0.0,0.0,0.0,0.0
0.049804688,-0.048956368,0.9639633,0.26149198,-0.1305386,-0.26573548,0.95516723,0.9902338,0.012626719,0.13884385,0.92673534,0.30067745,-0.2252879,-0.29265025,0.95372385,0.06904024,0.2356213,0.00194853,0.971843,9.847656,0.23449707,1.3184509,9.7108755,0.1238258,1.361593,-0.0652771,-0.016983032,-0.008224487,-24.719238,-4.559326,12.179565,0,0.0,0.0,0.0,0.0
0.058105469,-0.049286984,0.96350795,0.26310328,-0.13019288,-0.26737356,0.95475715,0.99026287,0.012802924,0.1386199,0.91171557,0.32979864,-0.24496473,-0.3190958,0.9440488,0.08336494,0.25875232,0.0021620998,0.9659413,9.835693,0.14237976,1.3411713,9.711162,0.1255538,1.3593968,-0.06159973,-0.020812988,-0.0119018555,-24.958801,-4.6188354,12.239075,0,0.0,0.0,0.0,0.0
0.06640625,-0.049266968,0.96349865,0.2631406,-0.12998438,-0.26740506,0.95477664,0.99029124,0.0128347855,0.13841403,0.878984,0.3854572,-0.28073102,-0.36803502,0.9227221,0.11460432,0.30321178,0.0025834888,0.9529197,9.891922,0.08973694,1.3674927,9.71144,0.12586625,1.357378,-0.072906494,-0.024169922,-0.011444092,-24.958801,-4.6188354,12.239075,0,0.0,0.0,0.0,0.0
0.074707031,-0.053104565,0.95478785,0.29250637,-0.12820834,-0.29701442,0.94622666,0.99032444,0.012747201,0.1381846,0.8433967,0.4376259,-0.31171387,-0.41163728,0.89915216,0.14859389,0.34530675,0.002989452,0.93848515,9.835693,0.061019897,1.3268127,9.711765,0.12500735,1.3551282,-0.08053589,-0.016525269,-0.01159668,-25.079346,-4.978943,11.698914,0,0.0,0.0,0.0,0.0
0.083007813,-0.05298649,0.9547251,0.29273278,-0.12801881,-0.29722008,0.9461878,0.99035525,0.012659872,0.13797142,0.82450974,0.46297148,-0.32533234,-0.43197483,0.8863675,0.16658477,0.365488,0.0031846128,0.93081063,9.821335,0.100494385,1.2873383,9.712068,0.12415093,1.3530375,-0.08023071,-0.022491455,-0.014953613,-25.079346,-4.978943,11.698914,0,0.0,0.0,0.0,0.0
0.091308594,-0.05291754,0.95468843,0.29286492,-0.12779604,-0.29733866,0.9461807,0.99038774,0.01264258,0.1377398,0.78546816,0.5110769,-0.34905615,-0.4687149,0.85952765,0.20376122,0.40416104,0.003559844,0.91468096,9.82373,0.08734131,1.3148499,9.712386,0.123981364,1.3507661,-0.06619263,-0.020507813,-0.01876831,-25.079346,-4.978943,11.698914,0,0.0,0.0,0.0,0.0
0.099609375,-0.054423157,0.95107555,0.30412722,-0.12687482,-0.3086965,0.9426607,0.9904246,0.012716485,0.13746779,0.7452798,0.555823,-0.36826447,-0.5003911,0.8312914,0.2419987,0.44064355,0.00391953,0.89767355,9.853638,0.12322998,1.2969055,9.712748,0.12470612,1.3480985,-0.04145813,-0.015914917,-0.019073486,-25.079346,-5.0994873,11.459351,0,0.0,0.0,0.0,0.0
0.107910156,-0.057556055,0.9431557,0.32732937,-0.12523186,-0.33210382,0.9348924,0.9904566,0.012816653,0.13722774,0.7248147,0.57716894,-0.37619102,-0.5145838,0.8166145,0.26142728,0.45809075,0.0040954743,0.888896,9.86441,0.14117432,1.2969055,9.713061,0.12568843,1.3457445,-0.029541016,-0.011184692,-0.01953125,-25.439453,-5.279541,10.739136,0,0.0,0.0,0.0,0.0
0.116210938,-0.05760349,0.9431865,0.32723215,-0.12501246,-0.33201113,0.93495476,0.99048156,0.012948563,0.13703509,0.6831672,0.61824036,-0.3886662,-0.5401484,0.7859766,0.30079982,0.49144912,0.0044408436,0.87089497,9.86441,0.14117432,1.2969055,9.713306,0.12698203,1.3438551,-0.015640259,-0.005996704,-0.015716553,-25.439453,-5.279541,10.739136,0,0.0,0.0,0.0,0.0
0.124511719,-0.0576672,0.94322795,0.32710162,-0.124835506,-0.3318881,0.93502206,0.99050015,0.01308621,0.1368874,0.662356,0.63758236,-0.39341235,-0.5512245,0.77036846,0.32044333,0.5073815,0.004611003,0.86170924,9.866806,0.13400269,1.3363953,9.713489,0.12833188,1.3424069,-0.015640259,-0.0030975342,-0.019073486,-25.439453,-5.279541,10.739136,0,0.0,0.0,0.0,0.0
0.1328125,-0.058757618,0.94056195,0.33450088,-0.124236315,-0.33936453,0.93241465,0.9905114,0.01322931,0.13679218,0.6210171,0.67397547,-0.4001186,-0.57017654,0.7387372,0.35939687,0.53780717,0.0049466314,0.8430534,9.854843,0.18544006,1.3722839,9.713599,0.12973522,1.3414731,0.0028381348,-0.008590698,-0.020599365,-25.498962,-5.519104,11.039734,0,0.0,0.0,0.0,0.0
0.141113281,-0.058919303,0.940666,0.3341795,-0.12410349,-0.33906624,0.9325408,0.99051845,0.013471808,0.13671748,0.5801598,0.7076753,-0.40324977,-0.5853384,0.7065182,0.39775756,0.56638646,0.0052746353,0.8241229,9.869202,0.2524414,1.3663025,9.713668,0.13211331,1.3407406,0.004211426,-0.012710571,-0.022888184,-25.498962,-5.519104,11.039734,0,0.0,0.0,0.0,0.0
0.149414063,-0.06266458,0.9307866,0.36015186,-0.1222091,-0.36530176,0.9228323,0.9905242,0.013815071,0.1366421,0.56007594,0.7234673,-0.4036212,-0.591524,0.6903373,0.4165739,0.5800123,0.005438584,0.8145895,9.840485,0.26560974,1.3746796,9.713724,0.13547957,1.3400012,0.004211426,-0.0056915283,-0.018920898,-26.098633,-5.819702,10.499573,0,0.0,0.0,0.0,0.0
0.157714844,-0.06614111,0.92088103,0.38419202,-0.12037313,-0.38958701,0.91308945,0.9905229,0.014146347,0.13661705,0.5200741,0.7537778,-0.40167397,-0.60190934,0.65710413,0.4537834,0.60599345,0.005770304,0.7954487,9.896713,0.19502258,1.3543396,9.713712,0.13872828,1.3397557,-0.031677246,-0.0069122314,-0.018005371,-26.098633,-6.1798096,10.319519,0,0.0,0.0,0.0,0.0
0.166015625,-0.06625764,0.92097265,0.3839522,-0.1202582,-0.38936347,0.91319984,0.99052906,0.014333064,0.13655281,0.48073032,0.7821005,-0.39650625,-0.60955244,0.6231225,0.4900655,0.6303524,0.006102007,0.7762852,9.9062805,0.1375885,1.380661,9.713772,0.14055935,1.3391256,-0.042373657,-0.009963989,-0.014953613,-26.098633,-6.1798096,10.319519,0,0.0,0.0,0.0,0.0
0.174316406,-0.066284165,0.92099345,0.3838976,-0.12017735,-0.3893118,0.91323245,0.9905371,0.014397056,0.13648778,0.46160418,0.79528743,-0.39298797,-0.61222494,0.6062002,0.5076436,0.641952,0.0062666335,0.76671934,9.9062805,0.1375885,1.380661,9.713851,0.1411869,1.338488,-0.042373657,-0.015304565,-0.011291504,-26.098633,-6.1798096,10.319519,0,0.0,0.0,0.0,0.0
0.182617188,-0.06529284,0.92407584,0.37659088,-0.120548226,-0.38193667,0.9162928,0.9905579,0.014429996,0.13633344,0.42452645,0.8198245,-0.38427213,-0.6154846,0.572577,0.5416034,0.6640451,0.00658861,0.7476635,9.882355,0.08135986,1.380661,9.714055,0.14150992,1.3369743,-0.063446045,-0.04508972,-0.008987427,-26.039124,-6.1187744,10.499573,0,0.0,0.0,0.0,0.0
0.190917969,-0.06514081,0.92396027,0.37690058,-0.12027319,-0.38221905,0.9162111,0.9906013,0.014351708,0.13602571,0.38929218,0.84188217,-0.37374598,-0.61610746,0.53961736,0.57378113,0.6847359,0.006899139,0.72875863,9.853638,0.06460571,1.3830566,9.71448,0.14074218,1.3339566,-0.07962036,-0.062805176,-0.013885498,-26.039124,-6.1187744,10.499573,0,0.0,0.0,0.0,0.0
0.19921875,-0.07030698,0.90557355,0.4183223,-0.11681029,-0.42394894,0.8981218,0.9906626,0.014279877,0.13558687,0.3723087,0.8521095,-0.36782554,-0.6155808,0.5233161,0.5892373,0.69458365,0.0070481957,0.7193774,9.835693,0.08734131,1.2514496,9.715081,0.14003776,1.329653,-0.078552246,-0.067230225,-0.016937256,-26.098633,-6.5994263,9.899902,0,0.0,0.0,0.0,0.0
0.207519531,-0.06996333,0.90584755,0.41778603,-0.11629749,-0.4233631,0.8984644,0.99074715,0.0142720975,0.13496771,0.3385344,0.8719367,-0.35372436,-0.6136332,0.48956376,0.6195011,0.71333635,0.0073345792,0.7007835,9.869202,0.114852905,1.2155609,9.715911,0.13996147,1.3235811,-0.07885742,-0.044326782,-0.023956299,-26.45874,-6.7199707,10.139465,0,0.0,0.0,0.0,0.0
0.215820313,-0.06982892,0.9057316,0.41806,-0.1157585,-0.42360896,0.8984183,0.9908198,0.014341585,0.1344263,0.30658227,0.88970935,-0.33826703,-0.60975397,0.45646396,0.6479512,0.7308949,0.0076093134,0.68244755,9.879959,0.1268158,1.1724854,9.716623,0.14064291,1.3182716,-0.08680725,-0.016067505,-0.02670288,-26.45874,-6.7199707,10.139465,0,0.0,0.0,0.0,0.0
0.224121094,-0.069763996,0.90567553,0.4181923,-0.1153343,-0.4237253,0.89841795,0.9908739,0.014445303,0.13401623,0.29128125,0.8978815,-0.33009702,-0.60717756,0.4401691,0.6615034,0.7392501,0.0077439635,0.67338645,9.879959,0.1268158,1.1724854,9.717154,0.14166003,1.3142503,-0.07992554,-0.008743286,-0.02885437,-26.45874,-6.7199707,10.139465,0,0.0,0.0,0.0,0.0
0.232421875,-0.07112915,0.9005144,0.4289691,-0.11420068,-0.43458253,0.89336234,0.9909081,0.014555536,0.13375084,0.2620275,0.9128871,-0.31301555,-0.6009057,0.40813357,0.6872694,0.75515157,0.008009345,0.6555013,9.859619,0.15434265,1.1868439,9.717489,0.14274105,1.3116477,-0.053512573,0.010955811,-0.026397705,-26.519775,-6.8389893,9.959412,0,0.0,0.0,0.0,0.0
0.240722656,-0.07123586,0.90061,0.42875054,-0.114045575,-0.43437767,0.8934817,0.9909182,0.014750833,0.13365385,0.23427503,0.92640233,-0.29477766,-0.5934476,0.37644425,0.71141386,0.7700228,0.008268583,0.63796276,9.853638,0.17468262,1.2155609,9.717588,0.14465626,1.3106966,-0.046798706,0.014465332,-0.029464722,-26.519775,-6.8389893,9.959412,0,0.0,0.0,0.0,0.0
0.249023438,-0.07229075,0.89728504,0.43549228,-0.11338408,-0.44119745,0.89021844,0.99091786,0.014976666,0.13363235,0.22106452,0.9325611,-0.2854123,-0.58928764,0.36091438,0.7228284,0.7770911,0.008398232,0.62933207,9.866806,0.1986084,1.3016968,9.717585,0.14687093,1.3104857,-0.046798706,0.022567749,-0.03251648,-26.818848,-7.1395874,10.258484,0,0.0,0.0,0.0,0.0
0.257324219,-0.07629216,0.88225067,0.464557,-0.11097346,-0.4705334,0.875376,0.9908907,0.015230831,0.13380444,0.19576383,0.94386667,-0.266068,-0.58029187,0.3302131,0.74446005,0.7905302,0.008658746,0.6123619,9.879959,0.19023132,1.3495483,9.717319,0.14936343,1.3121734,-0.05458069,0.005004883,-0.030685425,-27.178955,-7.499695,9.779358,0,0.0,0.0,0.0,0.0
0.265625,-0.076506175,0.8824605,0.46412313,-0.11102952,-0.47013253,0.8755843,0.990868,0.015456237,0.13394721,0.17141183,0.9541648,-0.24533162,-0.5706785,0.29914892,0.7647457,0.8030841,0.00891901,0.59579897,9.862015,0.1758728,1.3794556,9.717095,0.15157391,1.3135735,-0.059158325,-0.0024719238,-0.031600952,-27.178955,-7.499695,9.779358,0,0.0,0.0,0.0,0.0
0.273925781,-0.07665771,0.8826088,0.4638158,-0.11099301,-0.46984732,0.87574184,0.9908603,0.01565205,0.13398086,0.15987644,0.9587897,-0.2348654,-0.56558156,0.2839724,0.7742591,0.809047,0.009049758,0.5876743,9.867996,0.1531372,1.3627167,9.71702,0.15349418,1.3139033,-0.059158325,-0.0056915283,-0.03541565,-27.178955,-7.499695,9.779358,0,0.0,0.0,0.0,0.0
0.282226563,-0.07944039,0.87122047,0.48442158,-0.10899782,-0.49063525,0.8645211,0.9908626,0.015877,0.13393737,0.13803892,0.9670712,-0.21381927,-0.55490494,0.25433585,0.79208195,0.8203815,0.00931122,0.57174075,9.877579,0.16749573,1.360321,9.717043,0.15570018,1.313477,-0.08375549,-0.018203735,-0.035873413,-27.2995,-7.8598022,9.658813,0,0.0,0.0,0.0,0.0
0.290527344,-0.079534315,0.8713161,0.48423392,-0.10880292,-0.49045852,0.8646457,0.9908765,0.016082939,0.13381003,0.12745325,0.97087216,-0.20288637,-0.54942197,0.23941188,0.8005107,0.825767,0.009442539,0.56393236,9.877579,0.16749573,1.360321,9.717179,0.15771976,1.3122282,-0.0874176,-0.030731201,-0.030685425,-27.2995,-7.8598022,9.658813,0,0.0,0.0,0.0,0.0
0.298828125,-0.07935177,0.8724751,0.48217267,-0.10862143,-0.48838556,0.8658411,0.990911,0.016331738,0.13352376,0.107456915,0.9775882,-0.18103698,-0.5380937,0.21030258,0.8162279,0.83600736,0.009705508,0.5486325,9.871582,0.22013855,1.3040924,9.717518,0.16015963,1.3094208,-0.103759766,-0.040512085,-0.033737183,-27.418518,-7.798767,9.599304,0,0.0,0.0,0.0,0.0
0.307128906,-0.08123255,0.863812,0.49722245,-0.106728,-0.5035415,0.8573536,0.9909644,0.016577454,0.13309687,0.08900453,0.98319954,-0.15936376,-0.52637506,0.1822615,0.83048785,0.8455812,0.0099679185,0.5337538,9.893127,0.22372437,1.2502441,9.71804,0.16256928,1.3052344,-0.10223389,-0.041732788,-0.03465271,-27.659607,-7.9193115,9.239197,0,0.0,0.0,0.0,0.0
0.315429688,-0.08123275,0.86381227,0.49722198,-0.10623415,-0.50353277,0.85742,0.9910174,0.016828636,0.1326697,0.08012877,0.9856907,-0.14830083,-0.52043355,0.16826093,0.83716017,0.85013425,0.010100114,0.52646905,9.893127,0.22372437,1.2502441,9.718561,0.16503254,1.3010453,-0.10223389,-0.03868103,-0.035873413,-27.659607,-7.9193115,9.239197,0,0.0,0.0,0.0,0.0
0.323730469,-0.08121682,0.8637948,0.4972548,-0.10576227,-0.5035551,0.8574651,0.99106914,0.017049797,0.13225405,0.06341488,0.9899553,-0.12636068,-0.5083737,0.141,0.8495147,0.8587984,0.010366574,0.5122087,9.86441,0.20458984,1.2119598,9.719069,0.1672014,1.2969692,-0.09275818,-0.022033691,-0.030838013,-27.659607,-7.9193115,9.239197,0,0.0,0.0,0.0,0.0
0.33203125,-0.0779576,0.8787854,0.4708068,-0.107858524,-0.4769065,0.87231123,0.991105,0.017222757,0.13196295,0.048020963,0.99334145,-0.10472249,-0.4961592,0.114716135,0.8606197,0.86690253,0.01063124,0.49836424,9.870392,0.17347717,1.2155609,9.71942,0.16889755,1.2941146,-0.08818054,7.324219E-4,-0.03312683,-27.598572,-7.559204,9.539795,0,0.0,0.0,0.0,0.0
0.340332031,-0.07800896,0.878838,0.47069982,-0.107650325,-0.47680345,0.8723932,0.9911236,0.017383492,0.13180214,0.0410938,0.9946701,-0.094565935,-0.48999518,0.10254547,0.8656727,0.87075603,0.010763076,0.49159753,9.870392,0.17347717,1.2155609,9.719603,0.17047381,1.2925375,-0.08114624,0.0043945313,-0.023956299,-27.598572,-7.559204,9.539795,0,0.0,0.0,0.0,0.0
0.348632813,-0.078983895,0.874525,0.4785057,-0.10681161,-0.48466617,0.8681533,0.99113715,0.017460164,0.13169023,0.028093174,0.9968222,-0.074540414,-0.4776787,0.07889197,0.8749852,0.8780853,0.011025255,0.478377,9.876373,0.14596558,1.1988068,9.719735,0.17122571,1.29144,-0.054885864,0.007751465,-0.019836426,-27.479553,-7.4386597,9.059143,0,0.0,0.0,0.0,0.0
0.356933594,-0.0800369,0.8697014,0.4870457,-0.105934225,-0.49326754,0.86340314,0.99114686,0.017509306,0.13161075,0.016005062,0.99837947,-0.054610725,-0.46543464,0.055778608,0.88332283,0.8849375,0.011280088,0.46557313,9.900299,0.19502258,1.2466583,9.7198305,0.17170765,1.2906606,-0.035949707,0.007751465,-0.015411377,-27.659607,-7.6187134,9.059143,0,0.0,0.0,0.0,0.0
0.365234375,-0.0801127,0.8697848,0.48688433,-0.10587784,-0.49311632,0.8634965,0.99114674,0.017626783,0.13159582,0.010257567,0.99895054,-0.044638094,-0.4593528,0.044358883,0.8871456,0.8881947,0.011404677,0.45932576,9.900299,0.19502258,1.2466583,9.71983,0.1728597,1.2905141,-0.013656616,0.0065307617,-0.012817383,-27.659607,-7.6187134,9.059143,0,0.0,0.0,0.0,0.0
0.373535156,-0.08018662,0.869866,0.48672703,-0.10576164,-0.4929678,0.8635955,0.9911532,0.01777176,0.13152789,-4.945798E-4,0.9996858,-0.025059553,-0.4472894,0.022191847,0.89411396,0.89438915,0.011651083,0.44713786,9.865601,0.21534729,1.2095642,9.7198925,0.17428143,1.289848,-0.0035858154,0.015838623,-0.008987427,-27.659607,-7.6187134,9.059143,0,0.0,0.0,0.0,0.0
0.381835938,-0.07954867,0.8733072,0.48063132,-0.10630897,-0.48684186,0.8669967,0.99114597,0.017873023,0.13156801,-0.010315668,0.99992883,-0.005987448,-0.43539184,8.988498E-4,0.9002406,0.9001819,0.01189347,0.43535158,9.840485,0.20100403,1.2610168,9.719822,0.17527448,1.2902415,0.005584717,0.013244629,-0.0033416748,-27.598572,-7.499695,9.059143,0,0.0,0.0,0.0,0.0
0.390136719,-0.07962863,0.8733943,0.48045987,-0.106345825,-0.4866829,0.8670816,0.99113566,0.017949615,0.13163573,-0.01483874,0.99988467,0.0032279287,-0.42951998,-0.009289457,0.90300953,0.9029354,0.012013066,0.4296083,9.840485,0.20100403,1.2610168,9.71972,0.17602558,1.2909055,0.005584717,0.021347046,-0.007003784,-27.598572,-7.499695,9.059143,0,0.0,0.0,0.0,0.0
0.3984375,-0.079094686,0.87647367,0.47490814,-0.10695343,-0.48111194,0.8701104,0.991113,0.01802806,0.13179529,-0.023275502,0.999503,0.021261338,-0.41794834,-0.029047824,0.9080063,0.9081726,0.01224816,0.4184167,9.869202,0.19621277,1.3375854,9.719499,0.17679489,1.2924702,-0.0023498535,0.012329102,-0.011123657,-27.479553,-7.258606,8.81958,0,0.0,0.0,0.0,0.0
0.406738281,-0.07681243,0.8870233,0.4552906,-0.108722314,-0.4613684,0.88052183,0.9911001,0.018134777,0.13187805,-0.03085149,0.99878085,0.038535725,-0.4066363,-0.04776128,0.9123409,0.91306907,0.012477052,0.40761402,9.86322,0.20578003,1.3136597,9.719372,0.17784141,1.2932819,-0.022506714,-0.009048462,-0.012207031,-27.359009,-7.019043,9.059143,0,0.0,0.0,0.0,0.0
0.415039063,-0.076878645,0.8870926,0.4551443,-0.10867303,-0.46123096,0.8805998,0.99110025,0.018237416,0.13186187,-0.03419824,0.99832964,0.046565346,-0.40109655,-0.056385614,0.9142988,0.91539717,0.012590212,0.4023549,9.86322,0.20578003,1.3136597,9.719374,0.17884795,1.2931231,-0.031066895,-0.015914917,-0.0079193115,-27.359009,-7.019043,9.059143,0,0.0,0.0,0.0,0.0
0.423339844,-0.07675491,0.88696307,0.45541763,-0.10866418,-0.46148586,0.8804674,0.99111086,0.018092616,0.13180241,-0.040424604,0.9972422,0.062240407,-0.39023274,-0.07310145,0.9178096,0.91982836,0.012813849,0.3921117,9.839279,0.1483612,1.3639069,9.719478,0.17742795,1.2925402,-0.04786682,-0.020507813,-0.017852783,-27.359009,-7.019043,9.059143,0,0.0,0.0,0.0,0.0
0.431640625,-0.07615134,0.8893953,0.4507515,-0.108971305,-0.45677987,0.88288015,0.99112374,0.018113537,0.13170297,-0.04331541,0.9966135,0.06989586,-0.38491046,-0.08120803,0.91937435,0.9219369,0.012919429,0.38712448,9.839279,0.1483612,1.3639069,9.719604,0.17763312,1.291565,-0.05152893,-0.03225708,-0.018157959,-27.2995,-6.8984985,8.999634,0,0.0,0.0,0.0,0.0
0.439941406,-0.076178685,0.8894239,0.45069045,-0.1086943,-0.4567178,0.8829465,0.9911521,0.018274218,0.13146748,-0.048604343,0.9952257,0.08463672,-0.37449867,-0.09671343,0.9221698,0.9259527,0.0131251225,0.3774114,9.887146,0.23928833,1.3447723,9.719882,0.17920886,1.2892556,-0.06878662,-0.047836304,-0.015258789,-27.2995,-6.8984985,8.999634,0,0.0,0.0,0.0,0.0
0.448242188,-0.073819384,0.8983732,0.43298522,-0.10975419,-0.43885094,0.8918317,0.99121374,0.01831254,0.13099594,-0.0533886,0.99366605,0.09888091,-0.364386,-0.11158008,0.9245392,0.9297164,0.013329034,0.3680351,9.86441,0.16151428,1.2131653,9.720487,0.17958467,1.2846314,-0.08680725,-0.036834717,-0.019073486,-27.23999,-6.7199707,9.298706,0,0.0,0.0,0.0,0.0
0.456542969,-0.073692635,0.89824814,0.4332662,-0.10933997,-0.43910563,0.89175725,0.991269,0.01834263,0.13057329,-0.055458795,0.99287695,0.10545025,-0.35945958,-0.1183854,0.92562073,0.93151116,0.013428708,0.36346462,9.86441,0.16151428,1.2131653,9.721028,0.17987975,1.2804866,-0.08482361,-0.029968262,-0.016174316,-27.23999,-6.7199707,9.298706,0,0.0,0.0,0.0,0.0
0.46484375,-0.07724811,0.882759,0.46343204,-0.10647531,-0.46946704,0.8765065,0.9913101,0.018364407,0.13025749,-0.059290297,0.99121124,0.118258104,-0.34982818,-0.13158542,0.92752653,0.93493575,0.013623306,0.35455537,9.850052,0.16151428,1.2191467,9.721432,0.18009332,1.2773896,-0.06297302,-0.015151978,-0.015258789,-27.23999,-7.1395874,9.059143,0,0.0,0.0,0.0,0.0
0.473144531,-0.077248394,0.88275933,0.4634314,-0.10624488,-0.46946213,0.87653714,0.99133486,0.018473867,0.13005385,-0.063192815,0.9892506,0.13187096,-0.34041676,-0.14557655,0.928937,0.9381488,0.013811059,0.3459569,9.873978,0.22253418,1.2442627,9.721674,0.18116675,1.2753927,-0.055038452,-0.007369995,-0.0119018555,-27.23999,-7.1395874,9.059143,0,0.0,0.0,0.0,0.0
0.481445313,-0.077083424,0.8836436,0.4617706,-0.10621892,-0.46779102,0.8774332,0.9913504,0.018586777,0.1299186,-0.06499413,0.98822844,0.13849318,-0.33582282,-0.15235244,0.92952234,0.93968016,0.013904318,0.34177166,9.873978,0.22253418,1.2442627,9.721827,0.18227403,1.2740663,-0.03717041,-0.0012512207,-0.015411377,-27.178955,-7.1990967,9.239197,0,0.0,0.0,0.0,0.0
0.489746094,-0.07711917,0.8836805,0.46169415,-0.10609847,-0.46771753,0.8774871,0.9913606,0.018686032,0.12982713,-0.06829406,0.986125,0.15130608,-0.32686564,-0.16540582,0.93048364,0.9426,0.01408975,0.3336266,9.850052,0.19740295,1.2406769,9.721926,0.18324737,1.2731692,-0.03778076,-0.0029449463,-0.018157959,-27.178955,-7.1990967,9.239197,0,0.0,0.0,0.0,0.0
0.498046875,-0.07484955,0.89355296,0.44267437,-0.107574485,-0.44856438,0.8872529,0.9913755,0.01879002,0.12969835,-0.07124908,0.9839429,0.16364554,-0.3182103,-0.1779118,0.93117654,0.94533896,0.014271769,0.32577682,9.876373,0.18066406,1.2335052,9.722073,0.18426715,1.2719064,-0.035339355,-0.015151978,-0.021820068,-26.998901,-6.8984985,9.359741,0,0.0,0.0,0.0,0.0
0.506347656,-0.07486343,0.8935666,0.4426445,-0.107367024,-0.44853258,0.8872941,0.9913969,0.018900445,0.12951827,-0.07247195,0.9829066,0.16924085,-0.31402463,-0.18354395,0.93150425,0.9466448,0.014362137,0.32195866,9.876373,0.18066406,1.2335052,9.722282,0.18535005,1.2701404,-0.045272827,-0.016677856,-0.016784668,-26.998901,-6.8984985,9.359741,0,0.0,0.0,0.0,0.0
0.514648438,-0.07723664,0.88337696,0.46225494,-0.10550277,-0.46827835,0.8772597,0.99141496,0.018987412,0.12936696,-0.07471428,0.9808039,0.18011518,-0.30587152,-0.19445369,0.93200344,0.9491367,0.014541861,0.31452844,9.851257,0.19023132,1.2550354,9.72246,0.1862029,1.2686566,-0.049240112,-0.012557983,-0.010513306,-27.178955,-6.9595337,8.758545,0,0.0,0.0,0.0,0.0
0.522949219,-0.0772172,0.8833559,0.46229848,-0.10530647,-0.4683153,0.8772636,0.9914374,0.019056821,0.12918508,-0.07696642,0.9784897,0.19140048,-0.2979397,-0.20577015,0.93214303,0.9514768,0.01471791,0.3073683,9.873978,0.20578003,1.2394867,9.72268,0.1868836,1.266873,-0.05671692,-0.022644043,-0.011123657,-27.178955,-6.9595337,8.758545,0,0.0,0.0,0.0,0.0
0.53125,-0.07682966,0.88488466,0.45943043,-0.1053444,-0.46541765,0.8787998,0.9914635,0.019119464,0.12897553,-0.077995986,0.9773199,0.19688185,-0.29407862,-0.21125022,0.93214333,0.9525935,0.014804692,0.30388552,9.873978,0.20578003,1.2394867,9.722936,0.1874979,1.2648178,-0.06297302,-0.016067505,-0.014038086,-26.998901,-7.0785522,9.118652,0,0.0,0.0,0.0,0.0
0.539550781,-0.07677801,0.88483125,0.45954186,-0.10517004,-0.46551824,0.8787673,0.99148595,0.019139959,0.1287993,-0.07983801,0.9749913,0.20740747,-0.28657165,-0.2217379,0.9320456,0.95472646,0.014975563,0.297108,9.872787,0.16870117,1.2514496,9.723156,0.18769889,1.2630898,-0.06388855,-0.014389038,-0.018005371,-26.998901,-7.0785522,9.118652,0,0.0,0.0,0.0,0.0
0.547851563,-0.07503059,0.8921484,0.445468,-0.1062541,-0.4513367,0.8860052,0.99150413,0.019144693,0.12865847,-0.08146106,0.97264785,0.21753207,-0.27933645,-0.23179057,0.9317963,0.95673156,0.0151404785,0.2905779,9.867996,0.16270447,1.2418823,9.723334,0.18774532,1.2617086,-0.06297302,-0.009811401,-0.015563965,-27.178955,-6.77948,8.999634,0,0.0,0.0,0.0,0.0
0.556152344,-0.0750073,0.8921243,0.4455202,-0.10611077,-0.45138276,0.88599896,0.99152124,0.0191819,0.12852098,-0.08210791,0.97154933,0.22214909,-0.2758449,-0.23634775,0.93169165,0.95768887,0.015220566,0.28740296,9.867996,0.16270447,1.2418823,9.723502,0.18811019,1.2603602,-0.056411743,-0.01576233,-0.017700195,-27.178955,-6.77948,8.999634,0,0.0,0.0,0.0,0.0
0.564453125,-0.07712729,0.8828202,0.46333578,-0.10437682,-0.46931595,0.8768399,0.99154264,0.019266762,0.12834302,-0.08327319,0.9693563,0.23111457,-0.2690562,-0.24517727,0.9313952,0.9595178,0.01537744,0.281228,9.908676,0.19740295,1.2418823,9.723712,0.18894239,1.258615,-0.056869507,-0.020812988,-0.012359619,-27.359009,-7.019043,8.81958,0,0.0,0.0,0.0,0.0
0.572753906,-0.077144645,0.88283896,0.46329692,-0.10415676,-0.4692753,0.8768877,0.99156445,0.019391684,0.12815572,-0.084491156,0.9669712,0.24047433,-0.2624526,-0.25441194,0.93080246,0.9612387,0.015531462,0.27527967,9.9062805,0.23568726,1.257431,9.723926,0.19016746,1.2567784,-0.055343628,-0.015457153,-0.016021729,-27.359009,-7.019043,8.81958,0,0.0,0.0,0.0,0.0
0.581054688,-0.07805919,0.87874055,0.47087362,-0.10327687,-0.47690114,0.87286836,0.99158484,0.019505035,0.12798007,-0.0850395,0.9657828,0.24501394,-0.25924236,-0.25888205,0.9304696,0.96206117,0.015608668,0.272387,9.9062805,0.23568726,1.257431,9.724126,0.19127905,1.2550558,-0.05152893,-0.020812988,-0.0132751465,-27.539063,-7.1395874,8.758545,0,0.0,0.0,0.0,0.0
0.589355469,-0.0780677,0.87874997,0.47085458,-0.10304171,-0.4768787,0.8729084,0.9916087,0.01962829,0.12777671,-0.08611124,0.96332604,0.25414133,-0.25297117,-0.2678703,0.929651,0.963634,0.01576297,0.26676038,9.887146,0.23568726,1.2370911,9.7243595,0.19248778,1.2530615,-0.061447144,-0.021118164,-0.012817383,-27.539063,-7.1395874,8.758545,0,0.0,0.0,0.0,0.0
0.59765625,-0.074825376,0.8928465,0.44410157,-0.105166346,-0.44993195,0.88684905,0.9916356,0.019654283,0.12756374,-0.08703741,0.9608879,0.26290482,-0.24693431,-0.2764799,0.92875314,0.96511555,0.01591604,0.2613403,9.84407,0.16151428,1.2119598,9.724624,0.19274269,1.250973,-0.06297302,-0.01637268,-0.014190674,-27.83966,-6.7199707,8.81958,0,0.0,0.0,0.0,0.0
0.605957031,-0.07474658,0.89276147,0.44428557,-0.104960166,-0.4501006,0.88678783,0.99166346,0.019652072,0.1273479,-0.08730022,0.95984817,0.26658994,-0.24405368,-0.28006396,0.92844063,0.96582425,0.015990809,0.25870413,9.84407,0.16151428,1.2119598,9.724896,0.192721,1.2488563,-0.056259155,-0.016220093,-0.013427734,-27.83966,-6.7199707,8.81958,0,0.0,0.0,0.0,0.0
0.614257813,-0.07281816,0.9004979,0.4287202,-0.10611093,-0.43441662,0.8944399,0.99168444,0.01963957,0.12718609,-0.087750085,0.9577903,0.27374744,-0.23845454,-0.2870146,0.92777264,0.96718115,0.016135799,0.253575,9.869202,0.15434265,1.2227325,9.725102,0.19259839,1.2472695,-0.05076599,-0.0067596436,-0.016937256,-27.539063,-6.539917,9.059143,0,0.0,0.0,0.0,0.0
0.622558594,-0.07283103,0.9005111,0.42869055,-0.105977766,-0.4343861,0.8944705,0.99169767,0.019713538,0.12707092,-0.08794436,0.95596975,0.27997795,-0.23313206,-0.29301366,0.9272499,0.96846026,0.016274553,0.24863611,9.875183,0.19979858,1.2275238,9.725232,0.19332378,1.24614,-0.048171997,-0.009353638,-0.015716553,-27.539063,-6.539917,9.059143,0,0.0,0.0,0.0,0.0
0.630859375,-0.074223794,0.8948493,0.4401541,-0.10489199,-0.4459287,0.8889012,0.9917099,0.019808976,0.12696104,-0.08801566,0.95507324,0.2829987,-0.2305482,-0.29591876,0.92697334,0.9690721,0.016343335,0.2462359,9.875183,0.19979858,1.2275238,9.725352,0.1942597,1.2450625,-0.051071167,-0.010574341,-0.018463135,-27.659607,-6.77948,9.118652,0,0.0,0.0,0.0,0.0
0.639160156,-0.07425083,0.8948772,0.4400928,-0.10476447,-0.44586867,0.8889463,0.9917213,0.019898914,0.12685744,-0.08822727,0.95315486,0.28932968,-0.22548535,-0.30203328,0.92624635,0.97024345,0.016480578,0.24157006,9.876373,0.20219421,1.2311096,9.725464,0.19514169,1.2440466,-0.06726074,-0.00340271,-0.017547607,-27.659607,-6.77948,9.118652,0,0.0,0.0,0.0,0.0
0.647460938,-0.07009563,0.9117872,0.40463653,-0.10751396,-0.41017678,0.90564656,0.99172944,0.019977791,0.12678145,-0.08837264,0.9512764,0.29540405,-0.22061972,-0.30789152,0.92548895,0.97134817,0.016615948,0.2370795,9.900299,0.2033844,1.2466583,9.725544,0.1959152,1.2433013,-0.054885864,-0.014083862,-0.016174316,-27.479553,-6.478882,9.838867,0,0.0,0.0,0.0,0.0
0.655761719,-0.070122756,0.9118116,0.4045768,-0.10739899,-0.41011858,0.90568656,0.99174,0.020058097,0.12668629,-0.08825071,0.9505974,0.29761782,-0.21832822,-0.30997777,0.9253359,0.9718768,0.016683187,0.23489802,9.900299,0.2033844,1.2466583,9.725647,0.19670275,1.2423681,-0.059005737,-0.011795044,-0.019989014,-27.479553,-6.478882,9.838867,0,0.0,0.0,0.0,0.0
0.6640625,-0.07030353,0.9112768,0.40574867,-0.10717188,-0.41130093,0.9051772,0.99175173,0.0201523,0.12657915,-0.08798692,0.94926757,0.30190957,-0.21387905,-0.31401953,0.9250121,0.9728895,0.016816836,0.23065804,9.869202,0.20817566,1.2550354,9.725762,0.19762656,1.2413174,-0.05366516,-0.020507813,-0.016174316,-27.539063,-6.478882,9.779358,0,0.0,0.0,0.0,0.0
0.672363281,-0.07026664,0.9112433,0.4058304,-0.1069872,-0.4113737,0.90516603,0.9917743,0.020184316,0.1263972,-0.08771098,0.9479578,0.30607632,-0.2095985,-0.3179444,0.92465115,0.9738456,0.016948923,0.22657776,9.912262,0.16630554,1.228714,9.725984,0.19794053,1.2395332,-0.051071167,-0.029052734,-0.016784668,-27.539063,-6.478882,9.779358,0,0.0,0.0,0.0,0.0
0.680664063,-0.07153876,0.90596676,0.4172607,-0.105863646,-0.42286614,0.8999873,0.99180394,0.020211244,0.12616026,-0.087564304,0.9473162,0.30809832,-0.20751943,-0.31984782,0.9244637,0.97430396,0.017013634,0.22459374,9.912262,0.16630554,1.228714,9.7262745,0.1982046,1.2372096,-0.03869629,-0.02935791,-0.011123657,-27.359009,-6.7199707,9.899902,0,0.0,0.0,0.0,0.0
0.688964844,-0.071471274,0.9059054,0.41740558,-0.10555699,-0.42299533,0.89996266,0.9918415,0.0202614,0.12585664,-0.087355815,0.94589794,0.3124836,-0.20343366,-0.32401118,0.9239218,0.9751839,0.017140262,0.22073174,9.912262,0.18304443,1.2023926,9.726643,0.19869645,1.2342321,-0.035186768,-0.027832031,-0.016784668,-27.359009,-6.7199707,9.899902,0,0.0,0.0,0.0,0.0
0.697265625,-0.069262445,0.9144754,0.3986697,-0.106629595,-0.4041264,0.9084669,0.9918835,0.02041264,0.12550092,-0.087121405,0.9445168,0.31669837,-0.19949996,-0.3280091,0.92336875,0.9760173,0.017263865,0.2170077,9.854843,0.24526978,1.154541,9.727055,0.20017962,1.2307436,-0.02923584,-0.022338867,-0.012512207,-27.178955,-6.478882,10.139465,0,0.0,0.0,0.0,0.0
0.705566406,-0.06926625,0.9144786,0.39866152,-0.10627538,-0.40411144,0.9085149,0.99192125,0.020561526,0.12517786,-0.08691447,0.9439774,0.31835902,-0.19762135,-0.32955477,0.9232223,0.9764178,0.017326841,0.21519317,9.854843,0.24526978,1.154541,9.727425,0.2016397,1.2275755,-0.02999878,-0.015457153,-0.012512207,-27.178955,-6.478882,10.139465,0,0.0,0.0,0.0,0.0
0.713867188,-0.06808931,0.9188485,0.3886915,-0.10678113,-0.39406952,0.91285634,0.99194837,0.020650843,0.12494763,-0.0864965,0.9429238,0.3215792,-0.1939638,-0.33255097,0.92292356,0.977188,0.017454939,0.21165757,9.82373,0.21894836,1.1736755,9.727691,0.2025156,1.2253177,-0.038238525,2.746582E-4,-0.011123657,-27.119446,-6.298828,10.139465,0,0.0,0.0,0.0,0.0
0.722167969,-0.06804688,0.918813,0.38878298,-0.10661414,-0.3941516,0.91284055,0.9919693,0.020666188,0.12477926,-0.086243436,0.94248235,0.32293826,-0.19220454,-0.33379656,0.92284197,0.9775579,0.01751886,0.20993714,9.881165,0.1758728,1.1605225,9.727896,0.20266607,1.2236665,-0.03289795,1.2207031E-4,-0.011444092,-27.119446,-6.298828,10.139465,0,0.0,0.0,0.0,0.0
0.73046875,-0.06991946,0.91156745,0.40516177,-0.10534158,-0.4106319,0.9056956,0.991975,0.020645361,0.12473711,-0.08573794,0.9416199,0.3255779,-0.18878525,-0.33621523,0.92266977,0.9782684,0.017643495,0.20659035,9.876373,0.15194702,1.2107697,9.727952,0.20246184,1.2232533,-0.027404785,-9.460449E-4,-0.009155273,-26.939392,-6.5994263,10.198975,0,0.0,0.0,0.0,0.0
0.738769531,-0.069875695,0.91153014,0.40525323,-0.10524887,-0.4107154,0.90566856,0.99198794,0.020631777,0.12463654,-0.08555309,0.9410778,0.32719,-0.18709594,-0.33772656,0.9224619,0.97860914,0.017703533,0.20496537,9.858429,0.15911865,1.1665039,9.728079,0.20232862,1.2222669,-0.020523071,-6.4086914E-4,-0.008529663,-26.939392,-6.5994263,10.198975,0,0.0,0.0,0.0,0.0
0.747070313,-0.06988726,0.91154003,0.40522903,-0.10525456,-0.4106929,0.9056781,0.9919865,0.020643156,0.12464594,-0.08517775,0.9400177,0.3303202,-0.18381566,-0.3406599,0.9220426,0.97926325,0.017819498,0.20180662,9.836899,0.17945862,1.2191467,9.728065,0.2024402,1.2223592,-0.02281189,0.0095825195,-0.005935669,-26.939392,-6.5994263,10.198975,0,0.0,0.0,0.0,0.0
0.755371094,-0.07018705,0.9104628,0.40759212,-0.10512138,-0.41307545,0.90460944,0.9919795,0.020645218,0.12470164,-0.08479844,0.93899137,0.33332336,-0.18066756,-0.34347302,0.92162114,0.9798819,0.017931318,0.19877125,9.836899,0.17945862,1.2191467,9.727996,0.20246042,1.2229054,-0.021591187,0.003326416,-0.009765625,-26.998901,-6.539917,9.959412,0,0.0,0.0,0.0,0.0
0.763671875,-0.07038274,0.9097879,0.40906268,-0.10503901,-0.4145593,0.90393996,0.99197435,0.02065422,0.124741025,-0.08461751,0.9384724,0.33482745,-0.17913795,-0.34488562,0.9213921,0.98017824,0.017985597,0.19729938,9.88356,0.1603241,1.2430725,9.727945,0.20254871,1.2232916,-0.033355713,0.0043945313,-0.011749268,-26.998901,-6.539917,9.899902,0,0.0,0.0,0.0,0.0
0.771972656,-0.07044709,0.9098449,0.40892482,-0.105115116,-0.41443196,0.9039895,0.9919617,0.02069925,0.12483397,-0.08426563,0.9374369,0.33780372,-0.17616744,-0.34768483,0.92091274,0.9807468,0.01809128,0.19444373,9.912262,0.20458984,1.3172455,9.727821,0.20299031,1.2242031,-0.041900635,-0.015457153,-0.009155273,-26.998901,-6.539917,9.899902,0,0.0,0.0,0.0,0.0
0.780273438,-0.074867226,0.8912986,0.44719324,-0.101919994,-0.45294273,0.88569486,0.99197143,0.02073158,0.1247517,-0.08391304,0.9364365,0.34065422,-0.17331982,-0.35036504,0.92043716,0.9812843,0.018194558,0.1917032,9.930206,0.19381714,1.2669983,9.727917,0.20330735,1.2233963,-0.05015564,-0.029510498,-0.0119018555,-27.2995,-7.019043,9.4192505,0,0.0,0.0,0.0,0.0
0.788574219,-0.07483766,0.8912691,0.44725695,-0.10172537,-0.45299825,0.8856888,0.9919936,0.020785498,0.124565996,-0.08388318,0.9356474,0.34282282,-0.17186584,-0.35246417,0.9199082,0.9815425,0.018245298,0.19037163,9.860825,0.16390991,1.2275238,9.728134,0.2038361,1.2215751,-0.055038452,-0.035614014,-0.021820068,-27.2995,-7.019043,9.4192505,0,0.0,0.0,0.0,0.0
0.796875,-0.074734114,0.8911658,0.4474801,-0.10138588,-0.45319998,0.88562447,0.99203616,0.020818202,0.12422111,-0.083807394,0.93410194,0.34703013,-0.16903892,-0.35653475,0.9188628,0.98203975,0.01834589,0.18777981,9.808182,0.1651001,1.1820526,9.728552,0.20415683,1.2181929,-0.06159973,-0.03868103,-0.019073486,-27.2995,-7.019043,9.4192505,0,0.0,0.0,0.0,0.0
0.805175781,-0.07646421,0.8826368,0.46379486,-0.09971152,-0.46959397,0.87723386,0.992074,0.020831307,0.12391617,-0.08371033,0.9325977,0.35107562,-0.16631277,-0.36044604,0.9178337,0.98251337,0.0184438,0.18527597,9.808182,0.1651001,1.1820526,9.728923,0.20428534,1.2152026,-0.051071167,-0.019119263,-0.015106201,-27.359009,-7.319641,9.4192505,0,0.0,0.0,0.0,0.0
0.813476563,-0.0780246,0.87469214,0.47835732,-0.09823237,-0.48423034,0.86940855,0.99210006,0.02084508,0.12370498,-0.083714396,0.9317281,0.35337588,-0.16495463,-0.36268538,0.91719645,0.982742,0.01849155,0.18405485,9.866806,0.13040161,1.1449585,9.729178,0.2044204,1.2131314,-0.038848877,-0.0110321045,-0.022277832,-27.359009,-7.559204,9.359741,0,0.0,0.0,0.0,0.0
0.821777344,-0.07804348,0.874712,0.4783181,-0.097957574,-0.48418793,0.8694633,0.99212575,0.021001061,0.12347237,-0.08380931,0.92978317,0.3584399,-0.16225815,-0.3676381,0.91570437,0.98318267,0.01858475,0.18167642,9.912262,0.23091125,1.1509552,9.72943,0.20595007,1.2108504,-0.030914307,-0.015609741,-0.023956299,-27.359009,-7.559204,9.359741,0,0.0,0.0,0.0,0.0
0.830078125,-0.080613256,0.8620605,0.5003532,-0.09560774,-0.50635993,0.8570059,0.9921496,0.021248387,0.123238966,-0.083877325,0.9278911,0.36329424,-0.15966061,-0.37238306,0.91424245,0.9836021,0.018680438,0.17938215,9.887146,0.2871399,1.1473541,9.729664,0.2083755,1.2085614,-0.025421143,-0.014541626,-0.014190674,-27.539063,-7.798767,8.999634,0,0.0,0.0,0.0,0.0
0.838378906,-0.080669545,0.8621234,0.50023544,-0.095319,-0.5062435,0.85710657,0.9921727,0.021460455,0.123015195,-0.08398508,0.926773,0.36611235,-0.15835261,-0.37515447,0.9133365,0.9838043,0.018731799,0.17826429,9.838089,0.22612,1.138977,9.729891,0.21045518,1.206367,-0.030151367,-0.009353638,-0.0132751465,-27.539063,-7.798767,8.999634,0,0.0,0.0,0.0,0.0
0.846679688,-0.08058191,0.8620254,0.50041866,-0.09521528,-0.5064126,0.85701823,0.99218976,0.021412661,0.12288569,-0.084177256,0.92458177,0.37156785,-0.15580541,-0.38051745,0.9115542,0.9841945,0.018839855,0.17608576,9.856033,0.13040161,1.1724854,9.730058,0.20998648,1.205097,-0.039764404,-0.0067596436,-0.0066986084,-27.539063,-7.798767,8.999634,0,0.0,0.0,0.0,0.0
0.854980469,-0.08144351,0.85700077,0.50883853,-0.0943637,-0.5148715,0.85205805,0.99220085,0.02137871,0.1228027,-0.0843339,0.92244524,0.37680578,-0.15335669,-0.38566306,0.90980536,0.9845657,0.01894174,0.17398761,9.856033,0.16151428,1.1784668,9.730166,0.20965354,1.2042831,-0.044052124,0.0043945313,-0.009597778,-27.359009,-7.978821,9.059143,0,0.0,0.0,0.0,0.0
0.86328125,-0.080280736,0.86331266,0.49824318,-0.09543369,-0.50421745,0.85828733,0.9921932,0.021354757,0.12286806,-0.08442958,0.92132217,0.3795222,-0.15215194,-0.38833594,0.90887016,0.98474437,0.01899048,0.172968,9.889542,0.17108154,1.2646027,9.730092,0.20941864,1.2049241,-0.04449463,0.0054626465,-0.013580322,-27.479553,-7.6797485,8.879089,0,0.0,0.0,0.0,0.0
0.871582031,-0.08031204,0.86334807,0.49817693,-0.09550622,-0.504157,0.8583149,0.9921837,0.02135402,0.12294497,-0.08452374,0.9193138,0.38434097,-0.14985996,-0.39306238,0.9072177,0.9850877,0.019084105,0.17099144,9.889542,0.17108154,1.2646027,9.729999,0.2094114,1.2056783,-0.04006958,-0.0055389404,-0.015563965,-27.479553,-7.6797485,8.879089,0,0.0,0.0,0.0,0.0
0.879882813,-0.08067834,0.86136335,0.50154173,-0.09520262,-0.5075408,0.856352,0.99218315,0.02134097,0.1229516,-0.08459465,0.9173631,0.38895842,-0.14766417,-0.39758933,0.90560365,0.98541313,0.019173995,0.1690956,9.890732,0.15434265,1.2586212,9.729993,0.20928343,1.2057433,-0.0443573,-0.016677856,-0.016937256,-27.598572,-7.8598022,9.059143,0,0.0,0.0,0.0,0.0
0.888183594,-0.08063474,0.8613147,0.50163245,-0.095098324,-0.5076234,0.8563147,0.99219674,0.021344312,0.122841656,-0.08463322,0.9163776,0.3912664,-0.14659356,-0.3998536,0.9047803,0.98556966,0.019217335,0.16817595,9.860825,0.15553284,1.2107697,9.730126,0.2093162,1.2046652,-0.044052124,-0.01133728,-0.019836426,-27.598572,-7.8598022,9.059143,0,0.0,0.0,0.0,0.0
0.896484375,-0.08059575,0.86127114,0.5017134,-0.094901875,-0.50769484,0.85629416,0.99221873,0.021400122,0.12265429,-0.08469323,0.9144477,0.39574298,-0.14451352,-0.40424362,0.9031627,0.9858717,0.019301564,0.16638675,9.865601,0.17826843,1.1569366,9.730342,0.20986351,1.2028277,-0.051071167,-0.011947632,-0.01953125,-27.598572,-7.8598022,9.059143,0,0.0,0.0,0.0,0.0
0.904785156,-0.079664655,0.8660481,0.49357292,-0.09546958,-0.49949935,0.86103773,0.9922394,0.021473076,0.12247369,-0.084715515,0.91350335,0.39791325,-0.14350145,-0.40637115,0.902369,0.9860175,0.019343534,0.16551498,9.88356,0.18902588,1.1521454,9.730545,0.21057895,1.2010566,-0.051071167,-0.0110321045,-0.019073486,-27.539063,-7.798767,9.239197,0,0.0,0.0,0.0,0.0
0.913085938,-0.07711655,0.8790396,0.4704704,-0.09742799,-0.4762613,0.8738896,0.99225044,0.021554371,0.12237069,-0.08467676,0.91098446,0.40365487,-0.14062424,-0.41198102,0.90027577,0.98643535,0.019468773,0.16299169,9.869202,0.19740295,1.1652985,9.730653,0.21137618,1.2000465,-0.041763306,0.006072998,-0.019683838,-27.23999,-7.559204,9.658813,0,0.0,0.0,0.0,0.0
0.921386719,-0.07718175,0.8791049,0.4703376,-0.097387664,-0.47613633,0.8739621,0.99224925,0.021648841,0.122363016,-0.08458361,0.9103911,0.40501076,-0.13974677,-0.41328853,0.89981306,0.986568,0.019510485,0.16218166,9.907486,0.20219421,1.188034,9.730641,0.21230261,1.1999713,-0.041763306,0.004852295,-0.023498535,-27.23999,-7.559204,9.658813,0,0.0,0.0,0.0,0.0
0.9296875,-0.07726443,0.87918776,0.4701693,-0.09735994,-0.47597855,0.8740512,0.99224555,0.02175742,0.12237387,-0.08449129,0.9098089,0.40633607,-0.13888668,-0.41456658,0.8993581,0.9866973,0.019553255,0.16138761,9.907486,0.20219421,1.188034,9.730605,0.21336742,1.2000778,-0.04220581,0.007293701,-0.020446777,-27.23999,-7.559204,9.658813,0,0.0,0.0,0.0,0.0
0.937988281,-0.07562456,0.8873303,0.4548911,-0.098659486,-0.46061748,0.88209856,0.9922435,0.021828994,0.122377545,-0.08430867,0.90867704,0.40889868,-0.1372183,-0.41703758,0.89847136,0.9869464,0.019640543,0.15984699,9.873978,0.17108154,1.1820526,9.730585,0.2140693,1.2001138,-0.044799805,-6.4086914E-4,-0.019226074,-27.059937,-7.319641,9.779358,0,0.0,0.0,0.0,0.0
0.946289063,-0.0756354,0.8873407,0.45486894,-0.09861749,-0.4605959,0.8821146,0.9922469,0.021861058,0.122344665,-0.08403435,0.9078721,0.410739,-0.13567428,-0.41878292,0.8978939,0.9871832,0.019727206,0.15836704,9.872787,0.16390991,1.1736755,9.7306185,0.21438375,1.1997913,-0.051834106,-0.0011138916,-0.020751953,-27.059937,-7.319641,9.779358,0,0.0,0.0,0.0,0.0
0.954589844,-0.074254185,0.8938702,0.44213393,-0.099675104,-0.4477902,0.8885656,0.99224555,0.021909969,0.1223469,-0.0838995,0.90748066,0.41163066,-0.13492513,-0.4196285,0.8976119,0.98729736,0.019769883,0.15764855,9.828522,0.1758728,1.2047882,9.730605,0.2148634,1.1998132,-0.053359985,0.001953125,-0.024871826,-26.998901,-7.1395874,9.899902,0,0.0,0.0,0.0,0.0
0.962890625,-0.07305882,0.89933014,0.43112385,-0.10056211,-0.43671876,0.89395976,0.9922448,0.021956922,0.12234469,-0.08355966,0.90695846,0.4128488,-0.13351896,-0.4207519,0.8972962,0.98751736,0.019854633,0.15625404,9.8524475,0.1483612,1.2406769,9.7305975,0.21532385,1.1997916,-0.047714233,-0.0069122314,-0.014190674,-26.638794,-7.1395874,10.379028,0,0.0,0.0,0.0,0.0
0.971191406,-0.07307761,0.89934635,0.43108684,-0.10055656,-0.4366841,0.8939773,0.9922439,0.021981115,0.122347,-0.083166964,0.9066618,0.41357908,-0.13220899,-0.42138684,0.89719224,0.9877267,0.019937884,0.1549143,9.889542,0.18304443,1.2430725,9.730589,0.2155611,1.1998142,-0.05076599,-0.00920105,-0.015106201,-26.638794,-7.1395874,10.379028,0,0.0,0.0,0.0,0.0
0.979492188,-0.073079795,0.89934826,0.4310825,-0.1005115,-0.43667907,0.8939848,0.9922483,0.02200348,0.12230725,-0.08297615,0.906518,0.41393232,-0.13157363,-0.42169404,0.8971412,0.98782754,0.019978749,0.15426442,9.889542,0.18304443,1.2430725,9.730632,0.21578042,1.1994244,-0.05290222,-0.013473511,-0.015106201,-26.638794,-7.1395874,10.379028,0,0.0,0.0,0.0,0.0
0.987792969,-0.074130975,0.8946669,0.44054022,-0.09964754,-0.4461902,0.8893732,0.99225754,0.022031352,0.12222788,-0.08260479,0.9062389,0.4146173,-0.13033941,-0.4222898,0.8970413,0.9880223,0.02005893,0.1530018,9.90509,0.19142151,1.1940155,9.730722,0.21605377,1.1986461,-0.059158325,-0.021728516,-0.019073486,-26.638794,-7.258606,10.258484,0,0.0,0.0,0.0,0.0
0.99609375,-0.07409526,0.8946352,0.44061053,-0.099421114,-0.4462507,0.8893682,0.9922829,0.022091964,0.1220107,-0.082300395,0.9057928,0.4156514,-0.12911642,-0.42324218,0.8967692,0.98820823,0.02013704,0.15178572,9.917053,0.19381714,1.1700897,9.730971,0.21664816,1.1965163,-0.06037903,-0.019119263,-0.021972656,-26.638794,-7.258606,10.258484,0,0.0,0.0,0.0,0.0
1.004394531,-0.07617324,0.88499475,0.4593276,-0.09759466,-0.46507156,0.87987703,0.9923068,0.022195164,0.12179679,-0.08215128,0.9055754,0.41615427,-0.1285189,-0.42370525,0.8966363,0.98829854,0.02017614,0.15119147,9.857239,0.20936584,1.1676941,9.731207,0.21766022,1.1944185,-0.06037903,-0.021560669,-0.023956299,-26.638794,-7.6797485,10.379028,0,0.0,0.0,0.0,0.0
1.012695313,-0.07566448,0.88732314,0.4548985,-0.097779304,-0.46061018,0.8822004,0.99232763,0.02227158,0.12161365,-0.081966884,0.9047969,0.4178804,-0.12728179,-0.42536137,0.89602846,0.98847395,0.020256095,0.15002972,9.835693,0.18066406,1.1712799,9.73141,0.21840958,1.1926225,-0.064819336,-0.011489868,-0.02670288,-26.579285,-7.6797485,10.559082,0,0.0,0.0,0.0,0.0
1.020996094,-0.07565565,0.8873153,0.45491508,-0.0976095,-0.46062177,0.88221306,0.99234504,0.022340367,0.12145905,-0.08176012,0.90413153,0.4193585,-0.12610294,-0.4267701,0.8955252,0.9886422,0.020335909,0.14890641,9.847656,0.17108154,1.154541,9.73158,0.21908414,1.1911063,-0.06695557,-0.0055389404,-0.024719238,-26.579285,-7.6797485,10.559082,0,0.0,0.0,0.0,0.0
1.029296875,-0.07566644,0.8873248,0.45489478,-0.09749734,-0.46060038,0.88223666,0.9923552,0.022404678,0.1213638,-0.08165856,0.9038077,0.42007557,-0.12552807,-0.4274534,0.89528,0.98872375,0.020376,0.14835848,9.847656,0.17108154,1.154541,9.731681,0.21971484,1.1901723,-0.06695557,0.003479004,-0.023345947,-26.579285,-7.6797485,10.559082,0,0.0,0.0,0.0,0.0
1.037597656,-0.077618115,0.87818104,0.47198865,-0.09588756,-0.47779778,0.87322086,0.9923613,0.022519918,0.12129242,-0.0814596,0.9031785,0.4214652,-0.12440876,-0.42877743,0.894803,0.9888815,0.020456336,0.14729135,9.891922,0.2141571,1.1413727,9.73174,0.22084495,1.1894723,-0.061447144,-3.0517578E-5,-0.023956299,-26.638794,-7.739258,10.018921,0,0.0,0.0,0.0,0.0
1.045898438,-0.07767635,0.87823635,0.47187647,-0.09578587,-0.477691,0.87329066,0.9923666,0.022634923,0.12122792,-0.08141166,0.9027052,0.4224872,-0.12383213,-0.429771,0.8944062,0.9889579,0.020497609,0.14677228,9.891922,0.2141571,1.1413727,9.731792,0.22197278,1.1888398,-0.05458069,4.272461E-4,-0.022735596,-26.638794,-7.739258,10.018921,0,0.0,0.0,0.0,0.0
1.054199219,-0.079257,0.8705613,0.48563498,-0.09448492,-0.49153474,0.8657171,0.9923663,0.022728965,0.12121249,-0.08131764,0.90178555,0.42446464,-0.122709915,-0.43169338,0.8936348,0.9891055,0.020582248,0.14576231,9.900299,0.19979858,1.2047882,9.73179,0.22289501,1.1886885,-0.049545288,-0.005996704,-0.020141602,-26.69983,-7.9193115,9.838867,0,0.0,0.0,0.0,0.0
1.0625,-0.07850162,0.8746449,0.47836593,-0.09501982,-0.48422676,0.8697677,0.9923753,0.022823928,0.12112117,-0.08130246,0.9006265,0.4269214,-0.121579945,-0.43410236,0.89262164,0.9892463,0.020667257,0.1447917,9.865601,0.20817566,1.1724854,9.731877,0.22382627,1.1877929,-0.053207397,-0.010879517,-0.020446777,-26.998901,-7.739258,9.719849,0,0.0,0.0,0.0,0.0
1.070800781,-0.078512065,0.87465525,0.47834522,-0.094873816,-0.48420405,0.8697963,0.9923884,0.022907062,0.120997734,-0.08127375,0.90013474,0.4279627,-0.121043295,-0.43511903,0.8921995,0.9893145,0.02071039,0.14431904,9.865601,0.20817566,1.1724854,9.732006,0.22464153,1.1865824,-0.05290222,-0.015609741,-0.019073486,-26.998901,-7.739258,9.719849,0,0.0,0.0,0.0,0.0
1.079101563,-0.07848413,0.8746274,0.47840065,-0.094741605,-0.48425272,0.8697835,0.99240327,0.022939766,0.120869756,-0.08121561,0.8991776,0.42998087,-0.11999693,-0.43708923,0.8913774,0.9894467,0.02079738,0.14339703,9.873978,0.17228699,1.1772614,9.732152,0.22496226,1.1853274,-0.06893921,-0.0124053955,-0.018920898,-26.998901,-7.739258,9.719849,0,0.0,0.0,0.0,0.0
1.087402344,-0.07713189,0.8812059,0.46639767,-0.09568723,-0.4721746,0.8762962,0.9924186,0.022962078,0.12073987,-0.081154935,0.8982534,0.43191984,-0.118987225,-0.43898156,0.8905825,0.9895736,0.02088222,0.1425062,9.878769,0.14356995,1.1353912,9.732303,0.22518109,1.1840538,-0.06741333,-0.016525269,-0.027770996,-27.178955,-7.6187134,9.899902,0,0.0,0.0,0.0,0.0
1.095703125,-0.07706079,0.88113695,0.4665398,-0.09549842,-0.47230297,0.8762477,0.9924423,0.022970518,0.12054322,-0.081090726,0.89792466,0.43261486,-0.11851753,-0.43965158,0.8903146,0.9896352,0.020923818,0.14207147,9.878769,0.14356995,1.1353912,9.732534,0.22526383,1.1821252,-0.07946777,-0.012710571,-0.0309906,-27.178955,-7.6187134,9.899902,0,0.0,0.0,0.0,0.0
1.104003906,-0.07740612,0.8789484,0.4705932,-0.09498045,-0.4763637,0.8741032,0.99246514,0.02296378,0.12035638,-0.08096189,0.8972828,0.43396866,-0.11759903,-0.44095623,0.8897911,0.98975533,0.02100487,0.14122023,9.878769,0.14356995,1.1353912,9.7327585,0.22519776,1.180293,-0.0791626,-0.015914917,-0.023040771,-27.418518,-7.6187134,9.719849,0,0.0,0.0,0.0,0.0
1.112304688,-0.07781817,0.87639344,0.47526717,-0.09438446,-0.48104784,0.8715989,0.99248976,0.022968398,0.12015219,-0.08085355,0.8965837,0.4354313,-0.11669601,-0.44237226,0.8892068,0.9898711,0.021082444,0.1403951,9.877579,0.13040161,1.1294098,9.733,0.22524305,1.1782905,-0.06802368,-0.009506226,-0.022888184,-27.539063,-7.6187134,9.539795,0,0.0,0.0,0.0,0.0
1.120605469,-0.077733696,0.87630635,0.47544152,-0.09421783,-0.4812072,0.8715289,0.9925122,0.022952095,0.1199697,-0.08081075,0.89619654,0.43623552,-0.11624591,-0.44315434,0.8888763,0.98992753,0.021120165,0.13999082,9.877579,0.13040161,1.1294098,9.73322,0.22508316,1.1765009,-0.060836792,-0.007369995,-0.019226074,-27.539063,-7.6187134,9.539795,0,0.0,0.0,0.0,0.0
1.12890625,-0.07780539,0.87638026,0.47529352,-0.094034016,-0.48106432,0.87162757,0.99252397,0.023123568,0.11983895,-0.08072263,0.8954401,0.43780237,-0.115366116,-0.44467732,0.88823014,0.9900377,0.02119271,0.13919897,9.872787,0.2763672,1.1377869,9.7333355,0.22676474,1.1752187,-0.063583374,-0.007827759,-0.021057129,-27.539063,-7.6187134,9.539795,0,0.0,0.0,0.0,0.0
1.137207031,-0.07915511,0.8696786,0.48723048,-0.092807494,-0.4930704,0.86502504,0.99253273,0.02325252,0.119741745,-0.08063842,0.8947139,0.43930003,-0.11451467,-0.44613308,0.88761,0.99014336,0.021269172,0.13843334,9.876373,0.24765015,1.1652985,9.733421,0.22802934,1.1742654,-0.05656433,-0.005996704,-0.015258789,-27.418518,-7.739258,9.359741,0,0.0,0.0,0.0,0.0
1.145507813,-0.079203755,0.8697302,0.4871306,-0.09267503,-0.49297374,0.86509436,0.9925412,0.023373874,0.11964763,-0.08062939,0.8942378,0.44027,-0.11407671,-0.4470847,0.8871876,0.9901946,0.02130884,0.13805987,9.876373,0.24765015,1.1652985,9.733504,0.2292194,1.1733425,-0.051223755,-0.007827759,-0.019989014,-27.418518,-7.739258,9.359741,0,0.0,0.0,0.0,0.0
1.153808594,-0.08242309,0.8519677,0.51706624,-0.08967754,-0.5230672,0.8475604,0.9925544,0.023489306,0.11951518,-0.08061168,0.89331305,0.44214657,-0.11322246,-0.44892564,0.88636696,0.9902941,0.021390617,0.13733175,9.878769,0.2416687,1.1760712,9.733635,0.23035142,1.1720437,-0.04145813,-0.03164673,-0.018615723,-27.659607,-7.9193115,8.639526,0,0.0,0.0,0.0,0.0
1.162109375,-0.07967182,0.86665803,0.4925,-0.0917997,-0.4983501,0.8621021,0.9925851,0.023473885,0.1192634,-0.0807488,0.89179635,0.44517285,-0.112283885,-0.45192707,0.88496,0.99038976,0.021473726,0.13662693,9.832108,0.14955139,1.1413727,9.733935,0.23020017,1.1695745,-0.04862976,-0.01576233,-0.009292603,-27.539063,-7.6797485,9.059143,0,0.0,0.0,0.0,0.0
1.170410156,-0.079544604,0.86651754,0.49276766,-0.09161598,-0.49859685,0.8619789,0.9926123,0.023420382,0.11904755,-0.08074649,0.8913178,0.4461307,-0.11187091,-0.45286834,0.884531,0.99043673,0.02151373,0.13628006,9.832108,0.14955139,1.1413727,9.734201,0.2296755,1.1674577,-0.04573059,-0.0124053955,-0.013122559,-27.539063,-7.6797485,9.059143,0,0.0,0.0,0.0,0.0
1.178710938,-0.07947131,0.8664366,0.49292186,-0.09156079,-0.4987402,0.86190194,0.99262327,0.023364162,0.11896715,-0.08073524,0.89038116,0.44799915,-0.111062214,-0.45470354,0.883691,0.99052864,0.021589233,0.13559832,9.931412,0.22253418,1.1688995,9.734309,0.22912416,1.1666692,-0.048324585,-0.026916504,-0.019683838,-27.539063,-7.6797485,9.059143,0,0.0,0.0,0.0,0.0
1.187011719,-0.07892926,0.86892813,0.48860425,-0.09170682,-0.494384,0.86439246,0.992653,0.023417518,0.118708,-0.08071014,0.8890342,0.45067063,-0.109906375,-0.45732647,0.8824812,0.99065965,0.021693613,0.13462143,9.859619,0.20219421,1.1186371,9.734601,0.22964741,1.1641278,-0.06297302,-0.0035552979,-0.022277832,-27.598572,-7.499695,8.879089,0,0.0,0.0,0.0,0.0
1.1953125,-0.078878984,0.8688716,0.48871285,-0.09147596,-0.4944806,0.86436164,0.9926783,0.023474494,0.118484996,-0.08068837,0.8886475,0.4514366,-0.10953962,-0.45807588,0.882138,0.990702,0.021728093,0.13430351,9.86322,0.2632141,1.1198425,9.734849,0.23020615,1.1619409,-0.06436157,-0.0037078857,-0.021820068,-27.598572,-7.499695,8.879089,0,0.0,0.0,0.0,0.0
1.203613281,-0.08058987,0.8597378,0.5043373,-0.089839876,-0.51018894,0.85535717,0.99269027,0.023623519,0.118354805,-0.08064292,0.88789314,0.45292658,-0.108818956,-0.4595331,0.8814691,0.9907851,0.02179725,0.13367769,9.86322,0.2632141,1.1198425,9.734966,0.2316676,1.1606642,-0.07046509,0.0011901855,-0.018157959,-27.418518,-7.9193115,9.118652,0,0.0,0.0,0.0,0.0
1.211914063,-0.0806535,0.85980815,0.5042071,-0.08971652,-0.51006395,0.8554446,0.9926963,0.023758905,0.11827746,-0.08064292,0.88789314,0.45292658,-0.108818956,-0.4595331,0.8814691,0.9907851,0.02179725,0.13367769,9.86322,0.2632141,1.1198425,9.735025,0.23299527,1.1599057,-0.07046509,0.0011901855,-0.018157959,-27.418518,-7.9193115,9.118652,0,0.0,0.0,0.0,0.0
1.220214844,-0.07925279,0.8676303,0.49085313,-0.09083775,-0.496639,0.8631908,0.9927072,0.02382228,0.118173584,-0.080680616,0.8868367,0.45498487,-0.108057246,-0.4615648,0.8805008,0.9908654,0.021874933,0.13306846,9.876373,0.21534729,1.085144,9.735131,0.23361674,1.1588869,-0.066345215,0.0040893555,-0.021057129,-27.598572,-7.6797485,9.118652,0,0.0,0.0,0.0,0.0
1.228515625,-0.07926705,0.8676459,0.49082306,-0.090834156,-0.49661067,0.86320734,0.9927063,0.023840392,0.11817674,-0.080648184,0.8861029,0.4564182,-0.10737096,-0.46296847,0.8798475,0.99094266,0.02195205,0.13247928,9.902695,0.1758728,1.1533356,9.735124,0.23379439,1.158918,-0.05656433,0.0042419434,-0.016174316,-27.598572,-7.6797485,9.118652,0,0.0,0.0,0.0,0.0
1.236816406,-0.078402035,0.87225527,0.48272544,-0.09156522,-0.48846975,0.8677633,0.99270785,0.023833547,0.11816527,-0.08063194,0.8857465,0.45711237,-0.10703803,-0.4636482,0.87953013,0.99098,0.021989817,0.1321934,9.902695,0.1758728,1.1533356,9.735139,0.23372726,1.1588055,-0.047714233,-0.0066070557,-0.009155273,-27.659607,-7.499695,9.059143,0,0.0,0.0,0.0,0.0
1.245117188,-0.07822839,0.87206465,0.48309782,-0.091397,-0.48881564,0.86758614,0.99273705,0.023716183,0.11794336,-0.080559224,0.8852257,0.4581328,-0.106421895,-0.46463823,0.8790823,0.99105227,0.02206283,0.13163829,9.9062805,0.114852905,1.031311,9.735425,0.23257631,1.1566293,-0.027404785,-0.0029449463,-0.0132751465,-27.659607,-7.499695,9.059143,0,0.0,0.0,0.0,0.0
1.253417969,-0.07639019,0.8823761,0.46430278,-0.09309096,-0.4699411,0.8777754,0.99272287,0.02383103,0.118040115,-0.08048177,0.88471735,0.45912743,-0.10582365,-0.46560246,0.8786443,0.9911226,0.022128303,0.13109651,9.809372,0.27278137,1.2131653,9.735286,0.23370259,1.1575781,0.018875122,0.025314331,-0.0024261475,-27.659607,-7.319641,9.359741,0,0.0,0.0,0.0,0.0
1.26171875,-0.07654817,0.88254035,0.4639644,-0.093270764,-0.4696275,0.877924,0.9926938,0.023929171,0.11826433,-0.08040121,0.8846706,0.45923132,-0.10556872,-0.4656894,0.8786288,0.9911563,0.02216236,0.13083555,9.809372,0.27278137,1.2131653,9.735001,0.234665,1.1597769,0.020095825,0.029891968,0.0016937256,-27.659607,-7.319641,9.359741,0,0.0,0.0,0.0,0.0
1.270019531,-0.073335,0.8981607,0.4335082,-0.09612113,-0.43902037,0.8933206,0.9926644,0.023842365,0.118527785,-0.08025086,0.8845867,0.45941943,-0.10508141,-0.46584558,0.8786045,0.9912203,0.022232328,0.13033812,9.887146,0.1483612,1.2179413,9.734713,0.23381373,1.1623605,0.005279541,0.014770508,-0.008071899,-27.778625,-6.9595337,9.719849,0,0.0,0.0,0.0,0.0
1.278320313,-0.07337699,0.8982011,0.43341714,-0.09634823,-0.4389403,0.89333546,0.9926393,0.02379129,0.118748225,-0.07996565,0.88513964,0.4584029,-0.10473334,-0.46479094,0.87920433,0.99128014,0.022296084,0.12987095,9.923035,0.15434265,1.2454681,9.734467,0.23331288,1.1645223,-0.022201538,8.8500977E-4,-0.0076141357,-27.778625,-6.9595337,9.719849,0,0.0,0.0,0.0,0.0
1.286621094,-0.07149884,0.9065162,0.41607234,-0.09788227,-0.42150334,0.90152866,0.9926263,0.023732144,0.11886888,-0.079828605,0.8854082,0.45790792,-0.10456878,-0.46427774,0.8794951,0.99130857,0.022325989,0.1296487,9.923035,0.15434265,1.2454681,9.734339,0.23273283,1.1657056,-0.03060913,-0.0017242432,-0.007156372,-27.83966,-6.9595337,10.379028,0,0.0,0.0,0.0,0.0
1.294921875,-0.07149777,0.9065153,0.4160746,-0.0978662,-0.42150503,0.90152955,0.9926279,0.023737714,0.11885388,-0.07948354,0.88628274,0.45627314,-0.1043151,-0.46260336,0.880407,0.99136305,0.022381676,0.12922204,9.889542,0.21296692,1.1760712,9.734355,0.23278746,1.1655585,-0.04449463,-0.0041656494,-0.009902954,-27.83966,-6.9595337,10.379028,0,0.0,0.0,0.0,0.0
1.303222656,-0.07251203,0.90199655,0.4256106,-0.097022936,-0.4310894,0.8970778,0.99263716,0.023754941,0.118773505,-0.07915333,0.8871197,0.45470142,-0.10407018,-0.4609938,0.8812798,0.9914152,0.022435373,0.12881191,9.857239,0.19381714,1.1329956,9.734446,0.23295641,1.1647702,-0.044189453,-0.0012512207,-0.007156372,-27.83966,-7.0785522,10.258484,0,0.0,0.0,0.0,0.0
1.311523438,-0.07247141,0.9019597,0.42569542,-0.096975304,-0.43116778,0.8970452,0.9926448,0.023728183,0.118715145,-0.07901513,0.8874271,0.45412534,-0.103932664,-0.46040058,0.8816061,0.99144065,0.022461765,0.12861127,9.857239,0.19381714,1.1329956,9.73452,0.23269399,1.1641979,-0.05152893,5.79834E-4,-0.013580322,-27.83966,-7.0785522,10.258484,0,0.0,0.0,0.0,0.0
1.319824219,-0.0729002,0.8996925,0.43039402,-0.09657548,-0.43588227,0.8948071,0.99265236,0.023666097,0.11866414,-0.07874591,0.88802075,0.45301008,-0.103663504,-0.45925188,0.88223666,0.99149024,0.022511916,0.12821956,9.911072,0.16270447,1.1509552,9.734594,0.23208514,1.1636977,-0.05458069,-0.013015747,-0.015106201,-27.89917,-7.1395874,10.198975,0,0.0,0.0,0.0,0.0
1.328125,-0.072839834,0.899637,0.4305203,-0.09656547,-0.43600044,0.8947506,0.9926577,0.023600098,0.11863206,-0.07850653,0.8884946,0.45212173,-0.103387624,-0.4583323,0.8827471,0.99153805,0.022557622,0.12784141,9.887146,0.14715576,1.2035828,9.734647,0.2314379,1.1633831,-0.056411743,-0.027526855,-0.011749268,-27.89917,-7.1395874,10.198975,0,0.0,0.0,0.0,0.0
1.336425781,-0.0738297,0.8946157,0.44069484,-0.0956478,-0.44621578,0.8897995,0.9926735,0.023542134,0.118512,-0.07838944,0.8887229,0.45169315,-0.10325344,-0.45788842,0.8829931,0.9915613,0.02257847,0.12765731,9.887146,0.14715576,1.2035828,9.734802,0.23086947,1.1622057,-0.045425415,-0.02142334,-0.018615723,-28.138733,-7.1395874,9.779358,0,0.0,0.0,0.0,0.0
1.344726563,-0.0737591,0.8945464,0.44084743,-0.095437065,-0.44635418,0.8897527,0.992699,0.023554165,0.11829555,-0.07820491,0.88895935,0.45125964,-0.10295445,-0.45742732,0.88326705,0.991607,0.022616632,0.12729539,9.893127,0.18185425,1.1569366,9.735052,0.23098746,1.160083,-0.045272827,-0.023254395,-0.018463135,-28.138733,-7.1395874,9.779358,0,0.0,0.0,0.0,0.0
1.353027344,-0.076449074,0.88129264,0.46634626,-0.09296013,-0.47197774,0.87669575,0.99273056,0.023670968,0.11800733,-0.07802514,0.8891832,0.45084944,-0.10265869,-0.45699006,0.88352776,0.9916518,0.022653759,0.1269391,9.887146,0.23568726,1.1150513,9.735361,0.2321329,1.1572566,-0.042816162,-0.032562256,-0.017089844,-28.019714,-7.319641,9.239197,0,0.0,0.0,0.0,0.0
1.361328125,-0.07640273,0.88124305,0.46644747,-0.09262258,-0.47206488,0.87668455,0.99276567,0.023777526,0.11769006,-0.0779967,0.889028,0.4511605,-0.10246411,-0.4572911,0.88339454,0.9916742,0.022674104,0.12676066,9.887146,0.23568726,1.1150513,9.735705,0.23317789,1.1541452,-0.038238525,-0.027069092,-0.0119018555,-28.019714,-7.319641,9.239197,0,0.0,0.0,0.0,0.0
1.369628906,-0.0769513,0.8779143,0.47259384,-0.091839105,-0.47822547,0.87342197,0.99279606,0.02380837,0.11742694,-0.077939585,0.88872427,0.45176834,-0.10207312,-0.45787895,0.8831353,0.99171895,0.0227178,0.12640174,9.885941,0.20578003,1.1353912,9.736004,0.23348035,1.151565,-0.05595398,-0.02508545,-0.010070801,-28.079224,-7.499695,9.359741,1,0.0,0.0,0.0,0.0
1.377929688,-0.07688655,0.8778452,0.47273275,-0.091614895,-0.47835073,0.873377,0.9928219,0.023841582,0.11720242,-0.077908814,0.8883051,0.4525972,-0.101666376,-0.45868942,0.8827616,0.9917632,0.022760985,0.1260467,9.888336,0.22732544,1.1270142,9.736257,0.23380606,1.1493632,-0.054733276,-0.012252808,-0.014038086,-28.079224,-7.499695,9.359741,1,0.0,0.0,0.0,0.0
1.386230469,-0.07750711,0.8742579,0.47923452,-0.09086507,-0.4848743,0.8698508,0.99284244,0.023873938,0.11702071,-0.077892475,0.88810015,0.45300204,-0.101464614,-0.45908496,0.88257915,0.9917851,0.022782598,0.12587,9.888336,0.22732544,1.1270142,9.736459,0.23412336,1.1475812,-0.05015564,-0.017288208,-0.012969971,-28.138733,-7.559204,9.239197,1,0.0,0.0,0.0,0.0
1.39453125,-0.07745625,0.8742025,0.47934407,-0.090674385,-0.48497275,0.8698159,0.99286383,0.023908444,0.11683192,-0.0778878,0.88756645,0.4540477,-0.101043046,-0.4601139,0.8820916,0.99182856,0.022825817,0.12551968,9.887146,0.23330688,1.1126556,9.736669,0.23446174,1.1457298,-0.05809021,-0.010269165,-0.0065460205,-28.138733,-7.559204,9.239197,1,0.0,0.0,0.0,0.0
1.402832031,-0.07794759,0.8707738,0.48546594,-0.090044506,-0.49110636,0.8664332,0.9928827,0.023822831,0.116688944,-0.07788077,0.8870506,0.45505577,-0.100630775,-0.46110538,0.8816208,0.991871,0.02286869,0.12517583,9.86441,0.15792847,1.1222382,9.736854,0.23362218,1.1443276,-0.052139282,-0.0017242432,-0.012817383,-28.318787,-7.6187134,9.118652,1,0.0,0.0,0.0,0.0
1.411132813,-0.07786609,0.8706824,0.48564276,-0.0899949,-0.4912716,0.86634463,0.99289364,0.023753501,0.11661039,-0.07788837,0.8867352,0.45566887,-0.10041818,-0.46171078,0.88132817,0.9918919,0.022887772,0.12500623,9.86441,0.15792847,1.1222382,9.736961,0.2329423,1.1435574,-0.046188354,4.272461E-4,-0.011749268,-28.318787,-7.6187134,9.118652,1,0.0,0.0,0.0,0.0
1.419433594,-0.07711092,0.8746137,0.478649,-0.090622485,-0.48423955,0.87022966,0.9928955,0.02372784,0.11659981,-0.07789927,0.8861185,0.45686513,-0.10000363,-0.4628916,0.88075566,0.9919329,0.022922054,0.12467398,9.858429,0.18066406,1.1282196,9.736979,0.23269063,1.1434536,-0.02923584,0.009429932,-0.009155273,-28.138733,-7.4386597,9.059143,1,0.0,0.0,0.0,0.0
1.427734375,-0.0770694,0.8745675,0.47874007,-0.09063355,-0.4843256,0.8701806,0.9928977,0.023674386,0.116591826,-0.077875964,0.88567275,0.4577326,-0.09963061,-0.46374226,0.8803504,0.9919723,0.022953963,0.1243545,9.873978,0.16390991,1.0995026,9.737,0.23216642,1.1433753,-0.029693604,0.015838623,-0.0054779053,-28.138733,-7.4386597,9.059143,1,0.0,0.0,0.0,0.0
1.436035156,-0.07842967,0.86691165,0.49225295,-0.0894823,-0.4979025,0.8626041,0.99289554,0.023605824,0.11662358,-0.07786359,0.8854553,0.45815513,-0.09944986,-0.46415657,0.88015246,0.9919914,0.02296837,0.1241993,9.873978,0.16390991,1.0995026,9.7369795,0.23149405,1.1436867,-0.013046265,0.024551392,-0.0019683838,-28.199768,-7.559204,8.81958,1,0.0,0.0,0.0,0.0
1.444335938,-0.07846602,0.8669538,0.49217275,-0.0895396,-0.49782833,0.8626409,0.99288756,0.023619058,0.11668933,-0.07789856,0.8847457,0.459518,-0.09905363,-0.46550643,0.879484,0.9920283,0.022993615,0.123899564,9.911072,0.22132874,1.0803528,9.736901,0.23162383,1.1443315,-0.005264282,0.030197144,-0.012512207,-28.199768,-7.559204,8.81958,1,0.0,0.0,0.0,0.0
1.452636719,-0.07715289,0.8746614,0.478555,-0.09083686,-0.48415604,0.87025374,0.9928726,0.023672163,0.11680553,-0.07793248,0.88406396,0.46082255,-0.09867552,-0.46679872,0.87884134,0.99206334,0.02301838,0.12361425,9.870392,0.21894836,1.1306152,9.736754,0.23214462,1.145471,-0.0020446777,0.030960083,-0.013580322,-28.019714,-7.559204,9.298706,1,0.0,0.0,0.0,0.0
1.4609375,-0.0772914,0.87481093,0.47825918,-0.09100012,-0.48388186,0.8703892,0.99284697,0.023751963,0.117007814,-0.07791965,0.88387924,0.46117896,-0.09851809,-0.4671478,0.87867355,0.99208003,0.023031456,0.12347809,9.870392,0.21894836,1.1306152,9.736503,0.23292719,1.1474547,0.010467529,0.026382446,-0.012512207,-28.019714,-7.559204,9.298706,1,0.0,0.0,0.0,0.0
1.469238281,-0.075448096,0.8853887,0.4586878,-0.092865855,-0.46423876,0.88082826,0.992816,0.02386038,0.117248304,-0.077899784,0.88352627,0.46185827,-0.09821949,-0.46781373,0.87835264,0.9921112,0.023059988,0.12322208,9.879959,0.24287415,1.1712799,9.736198,0.23399039,1.149813,0.0019226074,0.022415161,-0.0063934326,-27.89917,-7.319641,9.539795,1,0.0,0.0,0.0,0.0
1.477539063,-0.07555862,0.88550174,0.45845133,-0.09315762,-0.46402347,0.8809109,0.9927802,0.023852177,0.1175522,-0.07780178,0.8836004,0.46173283,-0.09800781,-0.467672,0.8784517,0.99213976,0.023091685,0.12298545,9.877579,0.23330688,1.2023926,9.735848,0.23390995,1.1527933,-0.013809204,0.010345459,-0.009292603,-27.89917,-7.319641,9.539795,1,0.0,0.0,0.0,0.0
1.485839844,-0.0747993,0.88967884,0.45041823,-0.09406188,-0.45596448,0.88501334,0.99275243,0.02383119,0.117790684,-0.07775654,0.8836385,0.46166745,-0.097911,-0.46759915,0.87850124,0.99215287,0.023106895,0.12287683,9.900299,0.17945862,1.2478638,9.735576,0.23370415,1.155132,-0.020217896,0.0082092285,-0.013122559,-27.778625,-7.4386597,10.079956,1,0.0,0.0,0.0,0.0
1.494140625,-0.07487636,0.8897524,0.45026013,-0.09418232,-0.4558192,0.8850754,0.9927352,0.023864692,0.117929034,-0.077696316,0.88376087,0.46144342,-0.0978347,-0.46736726,0.8786332,0.99216515,0.023121381,0.1227752,9.866806,0.20936584,1.2239227,9.735407,0.23403269,1.1564888,-0.037322998,-3.0517578E-5,-0.013427734,-27.778625,-7.4386597,10.079956,1,0.0,0.0,0.0,0.0
1.502441406,-0.07491518,0.8897894,0.45018056,-0.09422496,-0.45574567,0.8851088,0.9927283,0.023889842,0.11798264,-0.07758262,0.88400084,0.4610027,-0.09769112,-0.46691173,0.8788913,0.99218816,0.023150815,0.12258326,9.866806,0.17468262,1.1784668,9.735339,0.23427932,1.1570145,-0.05519104,-0.01713562,-0.0119018555,-27.778625,-7.4386597,10.079956,1,0.0,0.0,0.0,0.0
1.510742188,-0.07521606,0.88792545,0.4537963,-0.0938318,-0.4593685,0.88327587,0.9927427,0.023856012,0.117867514,-0.077475086,0.8842327,0.4605759,-0.09755481,-0.46647108,0.8791404,0.99221,0.023180079,0.12240104,9.899109,0.17468262,1.1784668,9.735481,0.23394759,1.1558856,-0.06022644,-0.02432251,-0.018005371,-27.719116,-7.499695,10.079956,1,0.0,0.0,0.0,0.0
1.519042969,-0.07454772,0.8907026,0.44843236,-0.094165765,-0.45396182,0.8860314,0.99276155,0.023824641,0.1177155,-0.0774293,0.884307,0.4604409,-0.097480655,-0.4663295,0.8792237,0.9922209,0.023193598,0.12231039,9.882355,0.15792847,1.1928253,9.735665,0.23363993,1.1543947,-0.060073853,-0.025543213,-0.020599365,-27.89917,-7.3791504,10.018921,1,0.0,0.0,0.0,0.0
1.52734375,-0.07442174,0.89058137,0.44869393,-0.09393809,-0.45420173,0.8859325,0.99279255,0.023783196,0.117462,-0.07731315,0.8845635,0.45996746,-0.09735053,-0.46584147,0.87949675,0.9922427,0.023218589,0.122128405,9.882355,0.13160706,1.1234283,9.73597,0.23323348,1.1519088,-0.05580139,-0.021881104,-0.01953125,-27.89917,-7.3791504,10.018921,1,0.0,0.0,0.0,0.0
1.535644531,-0.07424264,0.8910825,0.4477275,-0.09380339,-0.45321602,0.8864514,0.99281865,0.023814136,0.11723452,-0.07719666,0.88480484,0.45952263,-0.09721653,-0.46538183,0.8797549,0.99226487,0.023240946,0.12194358,9.857239,0.17826843,1.1365967,9.736226,0.23353691,1.149678,-0.05229187,-0.024017334,-0.024108887,-27.778625,-7.3791504,10.079956,1,0.0,0.0,0.0,0.0
1.543945313,-0.0741945,0.8910367,0.44782662,-0.09358673,-0.45330375,0.8864293,0.9928427,0.023857554,0.117021866,-0.07713652,0.88493204,0.45928767,-0.09714888,-0.4651393,0.87989056,0.9922762,0.02325241,0.12184939,9.873978,0.17706299,1.1306152,9.736461,0.23396268,1.1475925,-0.047561646,-0.017593384,-0.021514893,-27.778625,-7.3791504,10.079956,1,0.0,0.0,0.0,0.0
1.552246094,-0.07415228,0.8909966,0.44791356,-0.09338425,-0.45338044,0.88641155,0.9928649,0.023901375,0.11682424,-0.077018,0.8851768,0.45883584,-0.09700905,-0.4646723,0.88015276,0.99229914,0.023276376,0.12165828,9.871582,0.21057129,1.0755768,9.736679,0.23439242,1.1456544,-0.048934937,-0.019119263,-0.019989014,-27.778625,-7.3791504,10.079956,1,0.0,0.0,0.0,0.0
1.560546875,-0.07436881,0.88980526,0.45023978,-0.09294355,-0.45570946,0.88526285,0.9928901,0.023989065,0.11659223,-0.07690261,0.88541,0.458405,-0.09686679,-0.46422645,0.8804037,0.99232197,0.023301125,0.121467054,9.871582,0.21057129,1.0755768,9.736926,0.23525237,1.1433792,-0.047561646,-0.009048462,-0.022735596,-27.659607,-7.1990967,9.658813,1,0.0,0.0,0.0,0.0
1.568847656,-0.070282094,0.9087151,0.41145757,-0.09587763,-0.4167216,0.9039638,0.9929088,0.024082892,0.11641351,-0.07685116,0.88549876,0.45824212,-0.096788816,-0.46405637,0.8805019,0.99233353,0.023314884,0.121369645,9.879959,0.19381714,1.1198425,9.737109,0.2361725,1.1416266,-0.047561646,-0.0029449463,-0.020599365,-27.598572,-6.77948,10.258484,1,0.0,0.0,0.0,0.0
1.577148438,-0.0703023,0.9087328,0.41141486,-0.09580217,-0.41667965,0.903991,0.9929146,0.024138222,0.116352126,-0.07658532,0.88646555,0.45641378,-0.09676085,-0.4622054,0.881478,0.99235684,0.023345297,0.121173315,9.893127,0.2141571,1.0827484,9.737166,0.2367151,1.1410246,-0.05015564,0.003479004,-0.017242432,-27.598572,-6.77948,10.258484,1,0.0,0.0,0.0,0.0
1.585449219,-0.06848574,0.9165047,0.39411777,-0.09710708,-0.39929333,0.911666,0.9929148,0.024164502,0.116345,-0.076331146,0.88739103,0.4546544,-0.09673039,-0.46042436,0.88241297,0.99237937,0.023376698,0.1209824,9.882355,0.18544006,1.1222382,9.737168,0.23697281,1.1409547,-0.047561646,0.008666992,-0.019226074,-27.89917,-6.4193726,10.079956,1,0.0,0.0,0.0,0.0
1.59375,-0.068509884,0.91652584,0.39406437,-0.097107686,-0.39924306,0.911688,0.9929131,0.02419296,0.11635381,-0.07617158,0.8880138,0.45346376,-0.09674411,-0.4592214,0.88303804,0.9923903,0.023392452,0.12088973,9.888336,0.19740295,1.159317,9.737151,0.23725186,1.141041,-0.051834106,0.001953125,-0.019836426,-27.89917,-6.4193726,10.079956,1,0.0,0.0,0.0,0.0
1.602050781,-0.06855138,0.91656214,0.39397267,-0.09711034,-0.39915678,0.9117255,0.99291,0.024241216,0.11637042,-0.07586314,0.8892183,0.4511493,-0.096769795,-0.4568832,0.88424736,0.99241143,0.023424154,0.12071006,9.871582,0.19502258,1.1449585,9.737122,0.23772514,1.141204,-0.051986694,-0.0056915283,-0.018310547,-27.89917,-6.4193726,10.079956,1,0.0,0.0,0.0,0.0
1.610351563,-0.06933241,0.91339505,0.40112644,-0.0964976,-0.40634897,0.9086081,0.9929155,0.024288252,0.1163136,-0.075568914,0.8903709,0.44891983,-0.0967936,-0.45463115,0.88540477,0.9924316,0.023456508,0.12053819,9.871582,0.19502258,1.1449585,9.737175,0.23818639,1.1406468,-0.04725647,-0.01210022,-0.017089844,-27.83966,-6.539917,10.079956,1,0.0,0.0,0.0,0.0
1.618652344,-0.067375444,0.9213792,0.38278064,-0.09772778,-0.38790196,0.916505,0.9929299,0.024341619,0.1161794,-0.07544191,0.89085656,0.44797656,-0.096791625,-0.45367774,0.8858938,0.99244136,0.023473144,0.12045378,9.88356,0.20578003,1.1102753,9.737316,0.23870975,1.1393307,-0.05305481,-0.0110321045,-0.016479492,-27.719116,-6.239319,10.139465,1,0.0,0.0,0.0,0.0
1.626953125,-0.067352705,0.92135996,0.38283092,-0.09757519,-0.3879456,0.9165028,0.99294645,0.024374133,0.11603105,-0.07511814,0.8921555,0.44543892,-0.09684141,-0.45111635,0.88719547,0.99246114,0.023507537,0.120284624,9.891922,0.21176147,1.1102753,9.737478,0.23902859,1.1378759,-0.055343628,-0.013168335,-0.014343262,-27.719116,-6.239319,10.139465,1,0.0,0.0,0.0,0.0
1.635253906,-0.06515974,0.92981553,0.3622118,-0.098910026,-0.36721382,0.9248626,0.9929607,0.024437426,0.11589562,-0.07480618,0.89339525,0.44299996,-0.096882276,-0.44865432,0.8884385,0.99248064,0.023541857,0.12011628,9.877579,0.22612,1.1018982,9.737618,0.23964928,1.1365478,-0.045272827,-0.0029449463,-0.015258789,-27.719116,-5.9387207,10.258484,1,0.0,0.0,0.0,0.0
1.643554688,-0.065161236,0.92981666,0.3622085,-0.0988336,-0.3672088,0.92487276,0.99296826,0.024467489,0.11582491,-0.07461149,0.8941944,0.44141755,-0.09693214,-0.44705847,0.8892372,0.9924905,0.02355977,0.12003188,9.86441,0.20100403,1.1162567,9.737692,0.23994409,1.1358542,-0.0443573,0.0010375977,-0.013885498,-27.719116,-5.9387207,10.258484,1,0.0,0.0,0.0,0.0
1.651855469,-0.0651725,0.9298257,0.36218327,-0.09880753,-0.36718437,0.9248852,0.99297005,0.024490643,0.1158041,-0.07423368,0.8957371,0.43834278,-0.0970248,-0.4439575,0.8907794,0.9925097,0.023595717,0.11986531,9.914658,0.20578003,1.1449585,9.73771,0.24017116,1.1356503,-0.051071167,-0.0029449463,-0.015106201,-27.719116,-5.9387207,10.258484,1,0.0,0.0,0.0,0.0
1.66015625,-0.0647603,0.93132305,0.35839015,-0.09901869,-0.36336884,0.92636836,0.992976,0.024504561,0.11575026,-0.07405068,0.8964818,0.43684882,-0.09706868,-0.44245088,0.8915239,0.99251914,0.023613617,0.119784094,9.909882,0.18664551,1.1306152,9.737768,0.24030766,1.1351223,-0.051071167,-0.013473511,-0.012817383,-27.2995,-5.9387207,10.499573,1,0.0,0.0,0.0,0.0
1.668457031,-0.06504958,0.9300493,0.3616309,-0.09868337,-0.36661762,0.9251233,0.9929905,0.024491927,0.11562871,-0.073679626,0.89799076,0.4338016,-0.09716277,-0.43937826,0.893032,0.99253756,0.023648897,0.1196245,9.853638,0.1878357,1.1485596,9.73791,0.24018376,1.1339303,-0.057785034,-0.02355957,-0.014953613,-27.359009,-5.8792114,10.198975,1,0.0,0.0,0.0,0.0
1.676757813,-0.06499627,0.9300069,0.3617495,-0.09854327,-0.366726,0.9250953,0.9930079,0.024479764,0.11548174,-0.07333435,0.8993698,0.43099427,-0.097237475,-0.43654686,0.8944114,0.9925558,0.02368228,0.11946633,9.853638,0.1878357,1.1485596,9.738081,0.24006447,1.1324891,-0.05885315,-0.011795044,-0.012664795,-27.359009,-5.8792114,10.198975,1,0.0,0.0,0.0,0.0
1.685058594,-0.06495732,0.92997587,0.36183605,-0.09843996,-0.36680505,0.9250749,0.9930207,0.024471262,0.11537347,-0.07316568,0.9000345,0.42963317,-0.097270556,-0.43517384,0.89507663,0.992565,0.02369823,0.11938664,9.865601,0.18304443,1.1365967,9.738207,0.23998111,1.1314273,-0.06159973,-0.014846802,-0.018310547,-27.359009,-5.8792114,10.198975,1,0.0,0.0,0.0,0.0
1.693359375,-0.06451338,0.9312904,0.3585195,-0.09849993,-0.36345616,0.9263894,0.99304366,0.02445037,0.11517983,-0.07283682,0.90131676,0.4269928,-0.097329944,-0.4325101,0.89636034,0.99258333,0.023728842,0.119227774,9.865601,0.18304443,1.1365967,9.738432,0.23977622,1.1295283,-0.062057495,-0.023254395,-0.01159668,-27.719116,-5.9387207,10.438538,1,0.0,0.0,0.0,0.0
1.701660156,-0.06443607,0.9312299,0.3586904,-0.09827927,-0.36361185,0.9263518,0.9930706,0.024438636,0.11495032,-0.07250332,0.9026022,0.4243261,-0.097389676,-0.42981964,0.89764714,0.99260193,0.023757417,0.119067475,9.879959,0.19381714,1.1018982,9.738696,0.23966116,1.1272776,-0.055496216,-0.018661499,-0.013122559,-27.719116,-5.9387207,10.438538,1,0.0,0.0,0.0,0.0
1.709960938,-0.06581934,0.9256252,0.37267384,-0.097109504,-0.37765285,0.9208409,0.9930949,0.024418969,0.114743866,-0.072339796,0.9032213,0.4230345,-0.09741389,-0.42851624,0.89826745,0.99261147,0.023771042,0.11898509,9.865601,0.18664551,1.0899353,9.7389345,0.23946829,1.125253,-0.052444458,-0.013015747,-0.013427734,-28.138733,-6.059265,10.079956,1,0.0,0.0,0.0,0.0
1.718261719,-0.06829855,0.91528195,0.3969814,-0.095174156,-0.4020732,0.91064745,0.9931148,0.024413537,0.11457221,-0.072076954,0.9041621,0.42106512,-0.09740996,-0.42652625,0.8992145,0.99263096,0.0237967,0.118817106,9.865601,0.2033844,1.0815582,9.73913,0.23941502,1.1235696,-0.049087524,-0.008590698,-0.012664795,-28.138733,-6.4193726,9.959412,1,0.0,0.0,0.0,0.0
1.7265625,-0.068294846,0.9152786,0.39698973,-0.095048666,-0.402078,0.9106585,0.9931271,0.024459936,0.11445587,-0.07192409,0.90461487,0.42011762,-0.09732397,-0.42556366,0.8996797,0.9926505,0.023821127,0.118649,9.907486,0.2416687,1.0839539,9.739251,0.23987006,1.1224288,-0.036865234,-1.8310547E-4,-0.01586914,-28.138733,-6.4193726,9.959412,1,0.0,0.0,0.0,0.0
1.734863281,-0.068333454,0.91531336,0.39690304,-0.09496237,-0.40199408,0.9107047,0.99313277,0.024540734,0.11438997,-0.07184993,0.90483403,0.41965806,-0.09727972,-0.42509675,0.8999052,0.9926602,0.023833904,0.11856518,9.907486,0.2416687,1.0839539,9.7393055,0.2406624,1.1217824,-0.03564453,0.005004883,-0.019378662,-28.138733,-6.4193726,9.959412,1,0.0,0.0,0.0,0.0
1.743164063,-0.066002235,0.92510676,0.37392667,-0.09662588,-0.3789083,0.9203759,0.9931299,0.02461588,0.114398055,-0.071707636,0.9052601,0.41876265,-0.097190246,-0.42418718,0.90034395,0.99267924,0.023861894,0.11839991,9.911072,0.22970581,1.1246338,9.739278,0.24139932,1.1218617,-0.029388428,0.0022583008,-0.010375977,-28.318787,-6.1187744,10.139465,1,0.0,0.0,0.0,0.0
1.751464844,-0.066045396,0.92514354,0.3738283,-0.09662,-0.37881526,0.92041504,0.9931277,0.024669882,0.114406355,-0.071477495,0.9060886,0.41700664,-0.097174235,-0.42241302,0.9011795,0.9926974,0.02389175,0.11824149,9.885941,0.21534729,1.1102753,9.739256,0.2419289,1.1219431,-0.032592773,0.0031738281,-0.013427734,-28.318787,-6.1187744,10.139465,1,0.0,0.0,0.0,0.0
1.759765625,-0.06806016,0.91724944,0.3924553,-0.09526391,-0.39754492,0.91262406,0.99312264,0.024726514,0.11443775,-0.07136687,0.9064899,0.41615233,-0.09716619,-0.42155007,0.90158427,0.9927062,0.023907313,0.11816488,9.870392,0.22612,1.1473541,9.739206,0.24248427,1.122251,-0.032592773,-0.0035552979,-0.017700195,-28.49884,-6.298828,9.779358,1,0.0,0.0,0.0,0.0
1.768066406,-0.06773907,0.9186992,0.38910574,-0.09542797,-0.39417952,0.91406566,0.99312884,0.024786389,0.11437094,-0.07123312,0.90692806,0.4152197,-0.09709298,-0.42060483,0.90203357,0.992723,0.023939755,0.11801734,9.865601,0.22132874,1.1090698,9.739267,0.24307145,1.1215959,-0.046035767,-0.011947632,-0.013580322,-28.559875,-6.298828,9.899902,1,0.0,0.0,0.0,0.0
1.776367188,-0.0677252,0.9186866,0.3891378,-0.09530226,-0.3942067,0.9140671,0.9931419,0.024819657,0.11425064,-0.07109188,0.9074087,0.41419235,-0.09702953,-0.4195648,0.9025246,0.99273926,0.023973284,0.1178731,9.889542,0.21894836,1.105484,9.739395,0.2433977,1.120416,-0.041152954,-0.005996704,-0.010070801,-28.559875,-6.298828,9.899902,1,0.0,0.0,0.0,0.0
1.784667969,-0.067696206,0.9186604,0.38920468,-0.09519995,-0.39426735,0.91405153,0.99315363,0.024825552,0.11414683,-0.07102307,0.90764123,0.4136945,-0.096996084,-0.4190607,0.9027624,0.9927474,0.02399021,0.11780062,9.889542,0.21894836,1.105484,9.739511,0.24345551,1.119398,-0.045578003,-0.0040130615,-0.008987427,-28.559875,-6.298828,9.899902,1,0.0,0.0,0.0,0.0
1.79296875,-0.06645169,0.9236073,0.3775364,-0.09597768,-0.38253495,0.91894245,0.9931628,0.024830211,0.11406578,-0.07088854,0.9080904,0.41273075,-0.09692716,-0.4180846,0.90322226,0.9927638,0.024023289,0.11765603,9.896713,0.22132874,1.1329956,9.7396,0.2435012,1.1186032,-0.04786682,-0.0056915283,-0.008987427,-28.799438,-6.1187744,9.899902,1,0.0,0.0,0.0,0.0
1.801269531,-0.06644292,0.9235995,0.37755704,-0.09592653,-0.38255325,0.9189402,0.99316835,0.024839338,0.114015654,-0.0707981,0.90841424,0.41203308,-0.09691018,-0.41737962,0.90355,0.9927719,0.024039427,0.117584266,9.896713,0.22132874,1.1329956,9.739655,0.2435907,1.1181116,-0.056106567,-0.007980347,-0.012512207,-28.799438,-6.1187744,9.899902,1,0.0,0.0,0.0,0.0
1.809570313,-0.063666396,0.93378544,0.35212412,-0.097625166,-0.35697514,0.9289984,0.9931847,0.02476981,0.11388827,-0.070622414,0.9090407,0.4106794,-0.09687505,-0.41601163,0.90418446,0.9927879,0.024071105,0.11744311,9.9039,0.15672302,1.1078796,9.739815,0.24290885,1.1168624,-0.05366516,-0.015914917,-0.01739502,-28.619385,-5.819702,10.258484,1,0.0,0.0,0.0,0.0
1.817871094,-0.0635968,0.93372893,0.35228628,-0.09750562,-0.35712555,0.9289531,0.9932009,0.024728553,0.113755874,-0.070343696,0.9100921,0.40839213,-0.09691426,-0.41370475,0.9052381,0.9928039,0.024098774,0.11730243,9.86441,0.18544006,1.056427,9.739974,0.24250427,1.1155641,-0.043121338,0.0016479492,-0.016479492,-28.619385,-5.819702,10.258484,1,0.0,0.0,0.0,0.0
1.826171875,-0.06420299,0.93131536,0.35851032,-0.09696103,-0.36337337,0.9265842,0.9932152,0.024727942,0.11363095,-0.07020705,0.91059875,0.40728486,-0.09693065,-0.4125877,0.905746,0.9928119,0.024111371,0.1172315,9.86441,0.18544006,1.056427,9.740114,0.24249828,1.114339,-0.049545288,-9.460449E-4,-0.011749268,-28.259277,-6.059265,10.679626,1,0.0,0.0,0.0,0.0
1.834472656,-0.06423002,0.93133634,0.35845077,-0.09697013,-0.36331743,0.9266051,0.9932126,0.024756849,0.113647714,-0.06996583,0.9114689,0.4053754,-0.096938975,-0.4106603,0.9066206,0.99282813,0.024135789,0.117089055,9.887146,0.22253418,1.1150513,9.740088,0.24278176,1.1145034,-0.039611816,0.012481689,-0.012054443,-28.259277,-6.059265,10.679626,1,0.0,0.0,0.0,0.0
1.842773438,-0.06469612,0.92990905,0.36205453,-0.09675805,-0.36695066,0.92519456,0.99320304,0.02482481,0.11371648,-0.06973539,0.9123018,0.40353748,-0.09694647,-0.40880534,0.90745777,0.9928436,0.024160385,0.116952635,9.896713,0.24765015,1.1186371,9.739995,0.24344821,1.1151778,-0.04145813,0.012329102,-0.019989014,-27.719116,-6.1798096,10.919189,1,0.0,0.0,0.0,0.0
1.851074219,-0.06479797,0.92998576,0.36183935,-0.09680903,-0.36674944,0.925269,0.99319136,0.024926245,0.11379564,-0.06963307,0.91267246,0.40271598,-0.096945204,-0.40797618,0.90783095,0.9928509,0.024173673,0.11688785,9.896713,0.24765015,1.1186371,9.739881,0.24444297,1.115954,-0.036102295,0.0071411133,-0.01876831,-27.719116,-6.1798096,10.919189,1,0.0,0.0,0.0,0.0
1.859375,-0.062140983,0.94004446,0.33534312,-0.09863261,-0.34013176,0.93519086,0.99318177,0.025037913,0.113855146,-0.0694388,0.91339296,0.4011128,-0.09694426,-0.40635872,0.9085562,0.9928646,0.024203474,0.11676527,9.909882,0.21655273,1.1365967,9.739786,0.24553806,1.1165376,-0.03656006,0.009735107,-0.013427734,-27.539063,-5.758667,11.039734,1,0.0,0.0,0.0,0.0
1.867675781,-0.06353441,0.9350394,0.34880465,-0.09779043,-0.35366178,0.9302474,0.9931769,0.02499296,0.1139076,-0.06914816,0.914538,0.39854586,-0.09702161,-0.40377328,0.9096999,0.99287736,0.024236517,0.116650134,9.8524475,0.14955139,1.1246338,9.739738,0.2450972,1.117052,-0.03717041,-0.0015563965,-0.01159668,-27.23999,-5.8792114,10.798645,1,0.0,0.0,0.0,0.0
1.875976563,-0.06348929,0.9350066,0.34890062,-0.09782274,-0.3537529,0.93020934,0.9931766,0.024927922,0.11392444,-0.06903482,0.9149746,0.3975623,-0.097040184,-0.4027821,0.91013724,0.99288344,0.024251645,0.11659529,9.8524475,0.14955139,1.1246338,9.739736,0.2444594,1.1172172,-0.037017822,7.324219E-4,-0.012359619,-27.23999,-5.8792114,10.798645,1,0.0,0.0,0.0,0.0
1.884277344,-0.063518815,0.93502814,0.34883788,-0.09776934,-0.35369256,0.9302381,0.99318004,0.024981964,0.1138832,-0.0688133,0.91581714,0.3956561,-0.09707718,-0.40086105,0.91098106,0.9928952,0.024278427,0.116489515,9.899109,0.24047852,1.0995026,9.739769,0.24498938,1.1168127,-0.03793335,7.324219E-4,-0.013427734,-27.23999,-5.8792114,10.798645,1,0.0,0.0,0.0,0.0
1.892578125,-0.06188066,0.94076025,0.33337814,-0.09878966,-0.3381512,0.9358923,0.9931824,0.024979323,0.1138624,-0.06860172,0.9166234,0.39382142,-0.09711,-0.39901218,0.9117889,0.9929066,0.024306286,0.11638622,9.895523,0.20578003,1.1030884,9.739793,0.24496348,1.1166087,-0.045272827,0.008361816,-0.008834839,-27.059937,-5.819702,11.399841,1,0.0,0.0,0.0,0.0
1.900878906,-0.06186975,0.9407531,0.33340034,-0.098793164,-0.3381721,0.93588436,0.9931828,0.024965264,0.11386259,-0.06846678,0.9171451,0.3926287,-0.097148135,-0.39781097,0.9123095,0.9929122,0.024319747,0.11633577,9.895523,0.20578003,1.1030884,9.739796,0.2448256,1.1166105,-0.0443573,0.0016479492,-0.013580322,-27.059937,-5.819702,11.399841,1,0.0,0.0,0.0,0.0
1.909179688,-0.06237449,0.93892366,0.3384255,-0.098496616,-0.34322143,0.9340758,0.9931807,0.024928737,0.11388907,-0.06820456,0.91815245,0.39031297,-0.09722184,-0.39547867,0.9133151,0.99292296,0.02434531,0.116237916,9.9015045,0.18902588,1.1497498,9.739776,0.24446741,1.1168703,-0.055343628,-0.0067596436,-0.011123657,-27.059937,-5.819702,11.158752,1,0.0,0.0,0.0,0.0
1.917480469,-0.06464649,0.93035054,0.36092758,-0.09696579,-0.365829,0.925617,0.99318606,0.024840262,0.11386173,-0.06797252,0.91903067,0.38828126,-0.09727886,-0.39343205,0.91419256,0.99293333,0.024368415,0.11614483,9.885941,0.14596558,1.1473541,9.739828,0.24359976,1.1166022,-0.06573486,-0.014846802,-0.018920898,-26.818848,-6.239319,11.279297,1,0.0,0.0,0.0,0.0
1.92578125,-0.06457001,0.93029684,0.3610797,-0.09691958,-0.36597046,0.92556584,0.9931955,0.024768103,0.11379469,-0.06790526,0.91926515,0.38773763,-0.09727376,-0.39288333,0.91442907,0.9929384,0.024377849,0.11609922,9.885941,0.14596558,1.1473541,9.739921,0.24289212,1.1159447,-0.058242798,-0.021255493,-0.014038086,-26.818848,-6.239319,11.279297,1,0.0,0.0,0.0,0.0
1.934082031,-0.06444522,0.93020904,0.36132792,-0.09677909,-0.36619967,0.9254898,0.99321723,0.024674406,0.11362462,-0.067771725,0.91971684,0.38668838,-0.09726183,-0.3918238,0.9148848,0.9929487,0.024393301,0.116007924,9.845276,0.18185425,1.1222382,9.740134,0.24197328,1.1142769,-0.058547974,-0.014083862,-0.011291504,-26.818848,-6.239319,11.279297,1,0.0,0.0,0.0,0.0
1.942382813,-0.06457462,0.9294822,0.3631708,-0.09656272,-0.36804262,0.9247813,0.99323,0.024648637,0.11351953,-0.067638576,0.9201458,0.38568988,-0.09724493,-0.39081463,0.91531813,0.99295944,0.024404433,0.11591367,9.894318,0.22970581,1.1210327,9.740258,0.24172054,1.1132462,-0.05809021,-0.010116577,-0.01953125,-26.939392,-6.4193726,11.639404,1,0.0,0.0,0.0,0.0
1.950683594,-0.06459555,0.92949647,0.36313024,-0.09644135,-0.3680016,0.9248102,0.9932404,0.024717849,0.11341318,-0.0675159,0.9205261,0.38480288,-0.097219735,-0.38991743,0.9157034,0.9929703,0.024414103,0.11581894,9.88475,0.25483704,1.0827484,9.740361,0.2423993,1.1122034,-0.052749634,-0.016677856,-0.018157959,-26.939392,-6.4193726,11.639404,1,0.0,0.0,0.0,0.0
1.958984375,-0.06273481,0.9365547,0.34486187,-0.09749334,-0.3496407,0.93179744,0.9932569,0.0248344,0.113242485,-0.067398876,0.9208913,0.3839488,-0.09719059,-0.38905355,0.91607386,0.9929811,0.024426134,0.11572373,9.88475,0.25483704,1.0827484,9.740523,0.24354228,1.1105294,-0.055496216,-0.011489868,-0.014038086,-26.69983,-6.1187744,11.759949,1,0.0,0.0,0.0,0.0
1.967285156,-0.06277067,0.9365778,0.3447925,-0.09729641,-0.3495708,0.93184423,0.99327403,0.02494542,0.113068454,-0.06730471,0.92122084,0.38317382,-0.097198814,-0.3882719,0.9164046,0.9929867,0.024434298,0.11567411,9.9062805,0.25004578,1.0648041,9.74069,0.24463099,1.1088227,-0.05152893,-0.010116577,-0.008377075,-26.69983,-6.1187744,11.759949,1,0.0,0.0,0.0,0.0
1.975585938,-0.058633212,0.9504594,0.30526882,-0.09967233,-0.30984065,0.94554967,0.99329126,0.025013754,0.11290146,-0.06712321,0.9218596,0.3816666,-0.09720671,-0.38675174,0.9170463,0.9929982,0.02445454,0.115570955,9.9062805,0.25004578,1.0648041,9.74086,0.24530114,1.1071851,-0.045272827,-0.0043182373,-0.0132751465,-26.399231,-5.5786133,12.298584,1,0.0,0.0,0.0,0.0
1.983886719,-0.0585884,0.9504349,0.3053539,-0.09954168,-0.30991694,0.9455385,0.993307,0.025002146,0.11276541,-0.06678685,0.92311174,0.37868762,-0.09731835,-0.38375214,0.9182938,0.9930099,0.024476685,0.115465306,9.88475,0.20578003,1.0612183,9.7410145,0.2451873,1.1058509,-0.05000305,-0.013015747,-0.008987427,-26.399231,-5.5786133,12.298584,1,0.0,0.0,0.0,0.0
1.9921875,-0.054799408,0.9612754,0.27008662,-0.1015036,-0.2744548,0.95622784,0.9933247,0.024985954,0.112612866,-0.06662262,0.9237149,0.3772429,-0.09736962,-0.38229722,0.91889495,0.9930159,0.024487194,0.11541141,9.891922,0.21057129,1.1401825,9.741188,0.24502851,1.104355,-0.05000305,-0.013168335,-0.0077667236,-25.738525,-5.1589966,13.139343,1,0.0,0.0,0.0,0.0
2.000488281,-0.05476388,0.96125954,0.27014998,-0.10143332,-0.27451208,0.95621884,0.9933339,0.024964042,0.11253709,-0.06615782,0.92543525,0.37308538,-0.09756012,-0.37811238,0.9206047,0.9930283,0.024506945,0.11530067,9.900299,0.23210144,0.99780273,9.741278,0.24481364,1.103612,-0.03717041,-0.011947632,-0.01373291,-25.738525,-5.1589966,13.139343,1,0.0,0.0,0.0,0.0
2.008789063,-0.051405165,0.9696684,0.23895729,-0.102891766,-0.24314263,0.96451783,0.9933633,0.024994468,0.11226969,-0.065709375,0.9270688,0.36908767,-0.0977383,-0.37408817,0.9222284,0.99304056,0.024525046,0.11519124,9.900299,0.23210144,0.99780273,9.741567,0.24511202,1.1009896,-0.051376343,0.0051574707,-0.0132751465,-25.2594,-4.798889,14.039612,1,0.0,0.0,0.0,0.0
2.017089844,-0.051397868,0.9696658,0.23896953,-0.10268195,-0.24314874,0.9645388,0.9933855,0.025037376,0.1120645,-0.06542677,0.9280965,0.36654645,-0.09786138,-0.37153065,0.9232487,0.9930471,0.024534434,0.115132846,9.871582,0.15911865,1.0743713,9.741783,0.24553278,1.0989773,-0.046188354,0.008972168,-0.0146484375,-25.2594,-4.798889,14.039612,1,0.0,0.0,0.0,0.0
2.025390625,-0.04787959,0.97724676,0.20663123,-0.104343995,-0.21063012,0.9719811,0.993388,0.024977326,0.1120547,-0.064876504,0.9300702,0.36160812,-0.09808956,-0.36656034,0.92520916,0.9930607,0.024554351,0.115011334,9.871582,0.15911865,1.0743713,9.741809,0.2449439,1.0988812,-0.04206848,0.0054626465,-0.011123657,-24.778748,-4.258728,14.399719,1,0.0,0.0,0.0,0.0
2.033691406,-0.04791209,0.9772563,0.20657814,-0.10442838,-0.2105831,0.9719822,0.9933776,0.024997082,0.11214277,-0.06421499,0.93241864,0.35562903,-0.09839119,-0.36054382,0.9275384,0.9930739,0.024571102,0.114894085,9.873978,0.21774292,1.1318054,9.741707,0.24513763,1.0997449,-0.031677246,-0.007675171,-0.013122559,-24.778748,-4.258728,14.399719,1,0.0,0.0,0.0,0.0
2.041992188,-0.044748798,0.9831851,0.1770441,-0.10585886,-0.18089059,0.9777896,0.99337375,0.025013221,0.11217349,-0.06389461,0.9335439,0.35272244,-0.09853749,-0.35761917,0.9286543,0.99308,0.024579622,0.11483902,9.893127,0.21655273,1.1641083,9.741669,0.24529591,1.1000462,-0.033355713,-0.0124053955,-0.014343262,-24.058533,-3.8391113,15.238953,1,0.0,0.0,0.0,0.0
2.050292969,-0.0447751,0.9831911,0.17700407,-0.105857,-0.18085368,0.97779655,0.99337274,0.025043821,0.112175405,-0.06315463,0.9361229,0.34595585,-0.09889524,-0.35081184,0.9312093,0.99309176,0.024596792,0.11473348,9.895523,0.22132874,1.1449585,9.741659,0.24559599,1.100065,-0.03274536,-0.019119263,-0.01739502,-24.058533,-3.8391113,15.238953,1,0.0,0.0,0.0,0.0
2.05859375,-0.040944785,0.98908263,0.14155962,-0.1072617,-0.14521083,0.9835694,0.99338734,0.025088111,0.1120363,-0.062443223,0.9385535,0.33943802,-0.09923337,-0.34425494,0.9336173,0.993103,0.024614496,0.11463221,9.876373,0.21057129,1.0983124,9.741803,0.24603035,1.0987009,-0.04573059,-0.017745972,-0.011123657,-23.699951,-3.239441,15.779114,1,0.0,0.0,0.0,0.0
2.066894531,-0.04095579,0.9890845,0.14154348,-0.10709455,-0.1451918,0.9835904,0.9934049,0.025125185,0.111871995,-0.062443223,0.9385535,0.33943802,-0.09923337,-0.34425494,0.9336173,0.993103,0.024614496,0.11463221,9.876373,0.21057129,1.0983124,9.741975,0.2463939,1.0970895,-0.04573059,-0.017745972,-0.011123657,-23.699951,-3.239441,15.779114,1,0.0,0.0,0.0,0.0
2.075195313,-0.038903702,0.99165434,0.1229147,-0.10770953,-0.12645274,0.9861075,0.9934209,0.025124153,0.11173012,-0.061614882,0.9413274,0.3318227,-0.09962929,-0.33659443,0.9363644,0.9931151,0.02463472,0.114523,9.873978,0.19621277,1.1162567,9.742131,0.24638379,1.0956982,-0.047714233,-0.020339966,-0.012054443,-23.15979,-2.8793335,15.899658,1,0.0,0.0,0.0,0.0
2.083496094,-0.038868748,0.9916496,0.12296478,-0.10750982,-0.1264936,0.9861243,0.99344397,0.025109494,0.11152871,-0.06074035,0.944179,0.32378474,-0.10004325,-0.3285089,0.9391875,0.99312735,0.024654103,0.114412494,9.879959,0.19262695,1.0743713,9.742357,0.24624002,1.093723,-0.048934937,-0.01713562,-0.016326904,-23.15979,-2.8793335,15.899658,1,0.0,0.0,0.0,0.0
2.091796875,-0.038538944,0.9919929,0.120269895,-0.10743263,-0.123774976,0.98647755,0.9934651,0.025096893,0.111342564,-0.06031371,0.945537,0.31987816,-0.100237474,-0.32457897,0.94053227,0.9931338,0.02466321,0.11435481,9.879959,0.19262695,1.0743713,9.742565,0.24611646,1.0918976,-0.059768677,-0.015457153,-0.013580322,-23.339844,-2.8198242,15.779114,1,0.0,0.0,0.0,0.0
2.100097656,-0.038525995,0.9919911,0.12028874,-0.10723729,-0.12378733,0.9864972,0.9934867,0.025106352,0.11114746,-0.05947055,0.94815964,0.3121804,-0.10060869,-0.31683472,0.9431297,0.9931471,0.024680384,0.11423543,9.890732,0.20698547,1.0492554,9.742777,0.2462092,1.0899843,-0.0544281,-0.0067596436,-0.01586914,-23.339844,-2.8198242,15.779114,1,0.0,0.0,0.0,0.0
2.108398438,-0.039868183,0.99034935,0.132736,-0.10659965,-0.13629909,0.9849158,0.9935024,0.02511719,0.111004874,-0.0586569,0.9506185,0.30476847,-0.10095106,-0.3093776,0.9455656,0.9931607,0.024697252,0.11411308,9.891922,0.20578003,1.0456696,9.74293,0.24631551,1.088586,-0.048171997,-5.0354004E-4,-0.014801025,-23.579407,-2.999878,15.299988,1,0.0,0.0,0.0,0.0
2.116699219,-0.039876327,0.99035066,0.13272372,-0.10651399,-0.13628562,0.98492694,0.99351126,0.02513833,0.11092076,-0.058286496,0.95171285,0.30140558,-0.101097286,-0.3059939,0.94665045,0.99316764,0.02470565,0.114050895,9.891922,0.20578003,1.0456696,9.743017,0.2465228,1.087761,-0.049850464,0.0014953613,-0.017547607,-23.579407,-2.999878,15.299988,1,0.0,0.0,0.0,0.0
2.125,-0.043149352,0.9857857,0.16237171,-0.105265975,-0.16610439,0.9804735,0.99350756,0.025214583,0.11093701,-0.05756665,0.9538021,0.2948688,-0.10137373,-0.2994166,0.9487218,0.99318147,0.024722785,0.11392689,9.870392,0.23449707,1.0971069,9.742981,0.24727058,1.0879204,-0.042678833,-0.0023345947,-0.015106201,-23.939514,-3.479004,14.759827,1,0.0,0.0,0.0,0.0
2.133300781,-0.043147575,0.98578537,0.16237448,-0.10528087,-0.16610731,0.9804715,0.9935061,0.025210043,0.11095147,-0.05699882,0.9554149,0.28971282,-0.10156624,-0.29422817,0.95032316,0.9931945,0.024742259,0.11380855,9.879959,0.17826843,1.1138611,9.742966,0.24722606,1.0880622,-0.05015564,-0.013320923,-0.017089844,-23.939514,-3.479004,14.759827,1,0.0,0.0,0.0,0.0
2.141601563,-0.04328992,0.9855253,0.16390793,-0.10516408,-0.16764534,0.9802222,0.9935122,0.025196511,0.110899225,-0.056723237,0.95618695,0.2872089,-0.10165866,-0.2917085,0.9510897,0.99320084,0.024751615,0.11375134,9.879959,0.17826843,1.1138611,9.743027,0.24709338,1.0875499,-0.04510498,-0.015304565,-0.017089844,-24.238586,-3.4194946,14.15863,1,0.0,0.0,0.0,0.0
2.149902344,-0.043274544,0.98552173,0.16393338,-0.10504252,-0.16766587,0.98023164,0.9935257,0.025199108,0.110777356,-0.055936344,0.9583486,0.2800699,-0.10191307,-0.2845243,0.95323646,0.99321944,0.024777777,0.11358349,9.869202,0.19381714,1.0468597,9.743158,0.24711882,1.0863547,-0.052139282,-0.012710571,-0.020446777,-24.238586,-3.4194946,14.15863,1,0.0,0.0,0.0,0.0
2.158203125,-0.045460813,0.98177534,0.18452752,-0.10393219,-0.18836439,0.9765843,0.9935449,0.025217969,0.11060127,-0.055436183,0.95969033,0.27553815,-0.10206653,-0.27996367,0.95456946,0.9932317,0.024794465,0.11347238,9.851257,0.18902588,1.0600128,9.743347,0.2473038,1.084628,-0.057022095,-0.007980347,-0.017242432,-24.539185,-3.718567,13.739014,1,0.0,0.0,0.0,0.0
2.166503906,-0.045448534,0.98177195,0.18454851,-0.10379937,-0.18838054,0.9765953,0.9935593,0.025228804,0.11046894,-0.055235863,0.9602164,0.27373978,-0.10211332,-0.27815336,0.95509344,0.9932381,0.024802933,0.113414936,9.866806,0.22851563,1.0145569,9.743488,0.24741006,1.0833303,-0.054885864,0.0018005371,-0.021057129,-24.539185,-3.718567,13.739014,1,0.0,0.0,0.0,0.0
2.174804688,-0.046306685,0.9802529,0.19224949,-0.10328195,-0.19612275,0.9751249,0.99357355,0.025298897,0.110324234,-0.054846324,0.96122724,0.27024832,-0.102197975,-0.27463838,0.9561011,0.99325097,0.024819799,0.11329838,9.893127,0.19023132,1.0181427,9.7436285,0.24809743,1.0819112,-0.05305481,0.007598877,-0.019073486,-24.958801,-3.779602,13.259888,1,0.0,0.0,0.0,0.0
2.183105469,-0.046313595,0.98025507,0.1922371,-0.10320878,-0.19610934,0.9751354,0.9935809,0.02532147,0.11025345,-0.05450537,0.962101,0.26719075,-0.1022545,-0.27155986,0.95697397,0.9932639,0.02483877,0.11318063,9.893127,0.19023132,1.0181427,9.7437,0.2483188,1.081217,-0.05961609,0.016143799,-0.016021729,-24.958801,-3.779602,13.259888,1,0.0,0.0,0.0,0.0
2.19140625,-0.047613155,0.9777136,0.2044727,-0.10260794,-0.20840941,0.9726444,0.9935817,0.025330143,0.110244215,-0.054340072,0.9625213,0.26570648,-0.10227994,-0.2700654,0.9573941,0.99327034,0.024848426,0.113121994,9.919449,0.21894836,1.0791626,9.743709,0.24840386,1.0811265,-0.06314087,0.011871338,-0.020751953,-25.138855,-3.9596558,13.079834,1,0.0,0.0,0.0,0.0
2.199707031,-0.047665868,0.9777311,0.20437671,-0.102695,-0.20832194,0.9726539,0.99357015,0.025373925,0.11033795,-0.054070663,0.9631972,0.26330125,-0.102301374,-0.267643,0.9580719,0.99328285,0.024867501,0.11300803,9.899109,0.18424988,1.0743713,9.743595,0.24883321,1.0820457,-0.061904907,0.01828003,-0.021972656,-25.138855,-3.9596558,13.079834,1,0.0,0.0,0.0,0.0
2.208007813,-0.048962876,0.9751579,0.21603152,-0.10225662,-0.22004858,0.9701145,0.9935524,0.025408948,0.11049057,-0.053814463,0.96384144,0.26098585,-0.102324784,-0.26531154,0.9587176,0.9932943,0.024887552,0.11290247,9.882355,0.19979858,1.1150513,9.743421,0.24917667,1.0835423,-0.06159973,0.015075684,-0.019683838,-25.379944,-4.0786743,12.658691,1,0.0,0.0,0.0,0.0
2.216308594,-0.049027026,0.9751816,0.21591052,-0.10240968,-0.21993922,0.9701233,0.99353343,0.025450926,0.11065099,-0.053716294,0.96408844,0.26009223,-0.1023257,-0.2644116,0.958966,0.99329954,0.024897983,0.11285425,9.914658,0.23330688,1.1138611,9.743235,0.24958833,1.0851156,-0.061447144,0.008361816,-0.019378662,-25.379944,-4.0786743,12.658691,1,0.0,0.0,0.0,0.0
2.224609375,-0.04962717,0.9741084,0.22056775,-0.10228599,-0.22463565,0.96905965,0.9935164,0.025530698,0.110785656,-0.053528763,0.96456647,0.25835285,-0.10233329,-0.26266044,0.9594464,0.9933089,0.02491988,0.11276715,9.908676,0.22013855,1.085144,9.743068,0.25037062,1.0864362,-0.04449463,5.79834E-4,-0.02243042,-25.2594,-4.1397095,12.599182,1,0.0,0.0,0.0,0.0
2.232910156,-0.049704976,0.9741375,0.22042131,-0.10230474,-0.22449909,0.9690892,0.99351054,0.025618415,0.11081761,-0.0534499,0.9647719,0.25760096,-0.10233375,-0.26190367,0.9596532,0.9933131,0.024932096,0.112727456,9.900299,0.23449707,1.0779724,9.7430105,0.25123084,1.0867496,-0.035491943,-0.005996704,-0.02319336,-25.2594,-4.1397095,12.599182,1,0.0,0.0,0.0,0.0
2.241210938,-0.04991287,0.9738922,0.22145602,-0.10219126,-0.22554857,0.96885747,0.99351174,0.025727589,0.11078104,-0.053374246,0.96497333,0.25686115,-0.102334544,-0.26115927,0.959856,0.99331707,0.024945822,0.11268929,9.900299,0.23449707,1.0779724,9.743022,0.25230145,1.0863909,-0.031677246,-0.008132935,-0.019073486,-25.498962,-4.1992188,12.719727,1,0.0,0.0,0.0,0.0
2.249511719,-0.05001279,0.9739298,0.22126812,-0.102146044,-0.22537154,0.9689035,0.9935114,0.025855899,0.11075452,-0.053235676,0.96535134,0.25546572,-0.10233114,-0.2597555,0.96023715,0.9933249,0.024976779,0.11261377,9.876373,0.24645996,1.1138611,9.743018,0.25355974,1.0861307,-0.026489258,-0.007980347,-0.017852783,-25.498962,-4.1992188,12.719727,1,0.0,0.0,0.0,0.0
2.2578125,-0.050083205,0.9739562,0.22113566,-0.102083266,-0.22524592,0.9689392,0.99351424,0.02595333,0.110705666,-0.05317044,0.96553487,0.25478482,-0.10232838,-0.25907084,0.9604224,0.99332863,0.02499436,0.11257654,9.876373,0.24645996,1.1138611,9.743047,0.25451523,1.0856518,-0.031829834,-0.013626099,-0.010375977,-25.498962,-4.1992188,12.719727,1,0.0,0.0,0.0,0.0
2.266113281,-0.04964003,0.9748927,0.21707183,-0.10219504,-0.22115685,0.96986896,0.993525,0.025960658,0.11060742,-0.05304667,0.96589077,0.2534583,-0.102320395,-0.25773713,0.960782,0.9933361,0.025032336,0.112502426,9.937393,0.20936584,1.1162567,9.743153,0.25458708,1.0846883,-0.04449463,-0.02142334,-0.010375977,-25.79956,-4.1992188,12.95929,1,0.0,0.0,0.0,0.0
2.274414063,-0.049194727,0.9757308,0.21337608,-0.10223127,-0.2174318,0.97070706,0.99354345,0.025939956,0.1104467,-0.052977763,0.9660843,0.25273412,-0.10231906,-0.257009,0.96097726,0.9933399,0.025050903,0.1124646,9.890732,0.20936584,1.1018982,9.743333,0.25438407,1.0831121,-0.052597046,-0.025848389,-0.008224487,-26.039124,-4.1992188,13.198853,1,0.0,0.0,0.0,0.0
2.282714844,-0.04910694,0.9756994,0.21353932,-0.10198919,-0.2175782,0.97069967,0.9935727,0.025889387,0.110195406,-0.05282618,0.9664969,0.25118345,-0.102318116,-0.25544944,0.96139306,0.99334806,0.025086109,0.11238456,9.867996,0.19381714,1.056427,9.74362,0.25388816,1.0806478,-0.070617676,-0.027526855,-0.013580322,-26.039124,-4.1992188,13.198853,1,0.0,0.0,0.0,0.0
2.291015625,-0.05044531,0.9725151,0.22730982,-0.10101598,-0.23140077,0.9675999,0.9936051,0.025848953,0.109912634,-0.05267697,0.9668894,0.24970002,-0.102307715,-0.2539568,0.96178955,0.9933571,0.025117919,0.112297915,9.899109,0.18902588,1.0372925,9.7439375,0.25349164,1.0778748,-0.0703125,-0.02003479,-0.016326904,-26.098633,-4.4387817,13.198853,1,0.0,0.0,0.0,0.0
2.299316406,-0.05037148,0.9724869,0.22744629,-0.100784056,-0.23152243,0.9675949,0.99363244,0.025816228,0.10967331,-0.05263146,0.96700704,0.24925366,-0.1022823,-0.25350702,0.96191084,0.9933621,0.025132539,0.11225015,9.891922,0.1651001,1.0181427,9.744205,0.25317073,1.0755278,-0.075042725,-0.015457153,-0.01449585,-26.098633,-4.4387817,13.198853,1,0.0,0.0,0.0,0.0
2.307617188,-0.050274413,0.97245,0.22762585,-0.10058183,-0.23168516,0.96757704,0.99365777,0.025749346,0.10945863,-0.05254019,0.9672334,0.24839279,-0.10222394,-0.25263897,0.96214545,0.993373,0.025159612,0.11214811,9.896713,0.16151428,1.0265198,9.744454,0.25251484,1.0734226,-0.06802368,-0.016677856,-0.017089844,-26.098633,-4.4387817,13.198853,1,0.0,0.0,0.0,0.0
2.315917969,-0.051035304,0.97048175,0.23571293,-0.1000128,-0.2398005,0.96565694,0.9936765,0.025708284,0.109298885,-0.05244866,0.96744865,0.24757282,-0.102159865,-0.2518114,0.96236914,0.99338436,0.025182966,0.112041585,9.896713,0.16151428,1.0265198,9.7446375,0.25211215,1.0718559,-0.05870056,0.010803223,-0.024719238,-26.039124,-4.6188354,13.378906,1,0.0,0.0,0.0,0.0
2.32421875,-0.04871608,0.9757171,0.21354818,-0.10111392,-0.21752134,0.970804,0.9936814,0.025701065,0.10925537,-0.052419793,0.96751076,0.24733606,-0.102117114,-0.25157157,0.9624364,0.9933903,0.025193473,0.111986734,9.9039,0.18185425,1.0037842,9.744685,0.25204134,1.0714291,-0.05656433,0.013397217,-0.02166748,-25.979614,-4.1992188,13.259888,1,0.0,0.0,0.0,0.0
2.332519531,-0.048775904,0.97573835,0.2134377,-0.10117442,-0.21741953,0.97082055,0.99367225,0.025758209,0.10932459,-0.052270606,0.9678584,0.24600385,-0.102079965,-0.25022867,0.96279037,0.993402,0.025213573,0.11187855,9.891922,0.2141571,1.051651,9.7445965,0.25260174,1.072108,-0.041152954,0.013702393,-0.015411377,-25.979614,-4.1992188,13.259888,1,0.0,0.0,0.0,0.0
2.340820313,-0.04891099,0.97553045,0.21435508,-0.10123956,-0.21834879,0.9706052,0.9936591,0.025772044,0.10944192,-0.05213,0.96819144,0.24471976,-0.10204646,-0.2489347,0.9631293,0.9934128,0.025235143,0.11177748,9.878769,0.19979858,1.0923309,9.744467,0.25273743,1.0732586,-0.040985107,0.007751465,-0.018310547,-26.039124,-4.258728,13.439941,1,0.0,0.0,0.0,0.0
2.349121094,-0.048954543,0.97554576,0.21427555,-0.10134263,-0.21827708,0.97061056,0.9936463,0.02580054,0.10955002,-0.052064642,0.9683477,0.24411489,-0.10203136,-0.2483253,0.9632882,0.9934178,0.02524588,0.11173079,9.869202,0.2033844,1.0959167,9.744342,0.25301686,1.0743188,-0.036865234,0.01675415,-0.01739502,-26.039124,-4.258728,13.439941,1,0.0,0.0,0.0,0.0
2.357421875,-0.04903859,0.97557527,0.21412203,-0.10142469,-0.21813571,0.9706338,0.99363387,0.025881255,0.10964447,-0.05193975,0.96865034,0.24293774,-0.10200587,-0.24713968,0.96359575,0.9934269,0.025267847,0.111644395,9.900299,0.23449707,1.0995026,9.74422,0.2538084,1.075245,-0.040222168,2.746582E-4,-0.018463135,-26.039124,-4.258728,13.439941,1,0.0,0.0,0.0,0.0
2.365722656,-0.048495583,0.9768897,0.20816946,-0.10175283,-0.21216227,0.9719225,0.99362695,0.025952118,0.10969024,-0.051823363,0.96894103,0.24180083,-0.10198446,-0.24599513,0.9638909,0.99343526,0.02529214,0.11156522,9.900299,0.23449707,1.0995026,9.744152,0.25450334,1.0756938,-0.047714233,-0.005996704,-0.0132751465,-26.039124,-4.258728,13.919067,1,0.0,0.0,0.0,0.0
2.374023438,-0.046085186,0.9817015,0.18476585,-0.10286157,-0.18864273,0.976644,0.99362755,0.026003515,0.10967298,-0.05175607,0.96911144,0.24113105,-0.101980925,-0.24532124,0.9640629,0.9934391,0.02530534,0.111527756,9.890732,0.20698547,1.1485596,9.744157,0.25500736,1.0755244,-0.05290222,-0.013626099,-0.017700195,-25.79956,-3.8986206,14.279175,1,0.0,0.0,0.0,0.0
2.382324219,-0.046109967,0.98170835,0.18472297,-0.10284521,-0.18860237,0.9766534,0.993628,0.026035583,0.10966045,-0.05153036,0.9696726,0.2389135,-0.10202186,-0.2430911,0.9646234,0.99344665,0.025332987,0.111454375,9.876373,0.22851563,1.1641083,9.744163,0.25532186,1.0754017,-0.059310913,-0.02508545,-0.014343262,-25.79956,-3.8986206,14.279175,1,0.0,0.0,0.0,0.0
2.390625,-0.045205154,0.9833639,0.17593168,-0.10308473,-0.17976338,0.97829384,0.99364483,0.026088051,0.10949603,-0.05131463,0.970207,0.23678094,-0.10206007,-0.24094655,0.9651572,0.99345386,0.025360808,0.111383475,9.909882,0.2368927,1.1066742,9.744328,0.2558364,1.0737892,-0.06314087,-0.027069092,-0.021209717,-25.318909,-3.718567,14.279175,1,0.0,0.0,0.0,0.0
2.398925781,-0.04523421,0.98337144,0.17588215,-0.102888055,-0.17971213,0.97832394,0.9936639,0.026157537,0.109306306,-0.05119188,0.9705076,0.23557247,-0.10208418,-0.23973128,0.9654572,0.99345773,0.025375353,0.111345775,9.895523,0.2524414,1.0935211,9.744514,0.25651783,1.0719287,-0.067108154,-0.03439331,-0.018463135,-25.318909,-3.718567,14.279175,1,0.0,0.0,0.0,0.0
2.407226563,-0.045268286,0.9833802,0.17582396,-0.10260049,-0.17965038,0.9783654,0.9936921,0.026249303,0.109027766,-0.050954416,0.971087,0.23322445,-0.10212265,-0.23737,0.96603644,0.99346596,0.025406325,0.11126503,9.90509,0.24885559,1.0540314,9.74479,0.2574177,1.069197,-0.07183838,-0.029205322,-0.021820068,-25.318909,-3.718567,14.279175,1,0.0,0.0,0.0,0.0
2.415527344,-0.043931127,0.98556155,0.16351917,-0.10287218,-0.1672698,0.9805295,0.993724,0.026254194,0.10873521,-0.050727174,0.9716385,0.23096597,-0.10214764,-0.23509859,0.9665891,0.993475,0.025439708,0.11117647,9.909882,0.19262695,1.0337067,9.745104,0.2574657,1.0663282,-0.067871094,-0.026000977,-0.018005371,-24.899292,-3.479004,14.279175,1,0.0,0.0,0.0,0.0
2.423828125,-0.04230944,0.9880078,0.14849462,-0.10327052,-0.15215626,0.9829465,0.9937531,0.0262528,0.10846971,-0.050590087,0.971963,0.2296272,-0.102166675,-0.233752,0.9669137,0.9934801,0.025455998,0.11112775,9.867996,0.17347717,1.0253296,9.745389,0.25745204,1.0637245,-0.067871094,-0.02218628,-0.022735596,-24.899292,-3.239441,14.4592285,1,0.0,0.0,0.0,0.0
2.432128906,-0.042266805,0.98799884,0.14856604,-0.103028215,-0.1522163,0.98296255,0.99378,0.026240192,0.10822545,-0.05025973,0.9727271,0.2264418,-0.102223255,-0.23054786,0.96767664,0.99349105,0.02548755,0.111022614,9.867996,0.17347717,1.0253296,9.745653,0.2573284,1.0613291,-0.07015991,-0.0256958,-0.019989014,-24.899292,-3.239441,14.4592285,1,0.0,0.0,0.0,0.0
2.440429688,-0.04226158,0.9879977,0.1485748,-0.10274889,-0.15221708,0.98299164,0.9938091,0.026276879,0.10794861,-0.050098322,0.9730937,0.2248973,-0.1022455,-0.228994,0.96804315,0.99349684,0.025502602,0.11096667,9.881165,0.2033844,0.9762726,9.745938,0.25768816,1.0586143,-0.0594635,-0.0110321045,-0.021209717,-24.899292,-3.239441,14.4592285,1,0.0,0.0,0.0,0.0
2.448730469,-0.042299494,0.9879145,0.14911617,-0.10251233,-0.15275355,0.9829331,0.99383193,0.02629133,0.10773482,-0.049784243,0.9737979,0.22189896,-0.102276966,-0.22597714,0.9687485,0.9935094,0.025533263,0.1108472,9.859619,0.18424988,1.0193481,9.746162,0.25782987,1.0565177,-0.052749634,-0.0037078857,-0.012969971,-25.19989,-3.1799316,13.919067,1,0.0,0.0,0.0,0.0
2.45703125,-0.042304337,0.9879156,0.14910766,-0.102407694,-0.15274283,0.9829457,0.99384254,0.026313094,0.10763185,-0.04948378,0.9744606,0.2190385,-0.1022969,-0.22309868,0.96941334,0.99352235,0.025563281,0.11072406,9.900299,0.22013855,1.002594,9.746266,0.25804332,1.0555079,-0.0493927,0.005004883,-0.019226074,-25.19989,-3.1799316,13.919067,1,0.0,0.0,0.0,0.0
2.465332031,-0.04602249,0.98168916,0.1848464,-0.10074232,-0.18866023,0.97686136,0.9938475,0.026335742,0.107580274,-0.049338076,0.97477907,0.21765009,-0.10230407,-0.2217015,0.9697331,0.9935289,0.025578277,0.11066219,9.893127,0.23091125,1.0612183,9.746315,0.2582654,1.0550021,-0.048324585,0.0066833496,-0.012207031,-25.439453,-3.779602,13.739014,1,0.0,0.0,0.0,0.0
2.473632813,-0.047693532,0.9783873,0.20120557,-0.100057416,-0.2051012,0.97361284,0.9938379,0.026302924,0.1076769,-0.049138717,0.9752163,0.2157281,-0.1022154,-0.21976511,0.97018313,0.9935479,0.02562282,0.11048109,9.891922,0.19023132,1.0899353,9.746221,0.25794357,1.0559497,-0.031829834,-0.0026397705,-0.017852783,-25.498962,-4.019165,13.499451,1,0.0,0.0,0.0,0.0
2.481933594,-0.04769157,0.97838664,0.20120908,-0.10005767,-0.20510451,0.9736121,0.993838,0.026300574,0.10767684,-0.04910907,0.9752819,0.21543817,-0.102172464,-0.21947229,0.970254,0.9935538,0.025636423,0.110425025,9.930206,0.20578003,1.0444641,9.746222,0.25792053,1.0559491,-0.030761719,0.003479004,-0.010818481,-25.498962,-4.019165,13.499451,1,0.0,0.0,0.0,0.0
2.490234375,-0.0476902,0.9783862,0.20121151,-0.10002832,-0.20510599,0.9736148,0.993841,0.026305042,0.10764787,-0.049080007,0.97534597,0.21515411,-0.10213034,-0.21918538,0.9703232,0.99355954,0.025649708,0.11037003,9.930206,0.20578003,1.0444641,9.746251,0.25796434,1.055665,-0.037322998,5.79834E-4,-0.013427734,-25.498962,-4.019165,13.499451,1,0.0,0.0,0.0,0.0
2.498535156,-0.04953655,0.9745015,0.21884426,-0.09914999,-0.222829,0.9698022,0.99383867,0.026342254,0.10766,-0.049023643,0.97547024,0.21460299,-0.10204751,-0.21862872,0.9704575,0.99357086,0.02567566,0.1102623,9.871582,0.2368927,1.0947113,9.746228,0.25832927,1.055784,-0.037475586,-0.015609741,-0.010070801,-25.619507,-4.1992188,12.89978,1,0.0,0.0,0.0,0.0
2.506835938,-0.04939342,0.9744488,0.21911134,-0.09911863,-0.22307853,0.96974814,0.993849,0.026181163,0.107604645,-0.049044423,0.9754322,0.214771,-0.10193287,-0.21879521,0.970432,0.9935816,0.025702056,0.11015929,9.834503,0.11126709,1.0731812,9.746329,0.2567495,1.0552411,-0.043441772,-0.0053863525,-0.0053253174,-25.619507,-4.1992188,12.89978,1,0.0,0.0,0.0,0.0
2.515136719,-0.05213451,0.9673941,0.24785213,-0.0976124,-0.25193763,0.962808,0.99385804,0.026002081,0.1075643,-0.049051642,0.9754127,0.21485786,-0.10187661,-0.21888097,0.9704186,0.99358696,0.025711639,0.11010821,9.875183,0.12083435,1.1114655,9.746418,0.25499332,1.0548455,-0.043441772,-0.0067596436,-0.012054443,-25.559998,-4.559326,12.419128,1,0.0,0.0,0.0,0.0
2.5234375,-0.05309872,0.96519446,0.25608632,-0.09709074,-0.26022312,0.9606547,0.9938581,0.02614592,0.10752896,-0.04917813,0.9751166,0.2161691,-0.1017096,-0.22019513,0.9701388,0.99359787,0.025723139,0.11000751,9.954147,0.31704712,1.1018982,9.746419,0.2564039,1.0544989,-0.03869629,-0.025543213,-0.019073486,-25.79956,-4.6188354,12.059021,1,0.0,0.0,0.0,0.0
2.531738281,-0.053198308,0.9652407,0.255891,-0.09680943,-0.260032,0.9607347,0.9938802,0.026336802,0.10727768,-0.04933898,0.97475517,0.217757,-0.101529695,-0.22178796,0.9697948,0.9936083,0.02573988,0.10990938,9.915863,0.32063293,0.9990082,9.746635,0.2582758,1.0520346,-0.040985107,-0.029815674,-0.012054443,-25.79956,-4.6188354,12.059021,1,0.0,0.0,0.0,0.0
2.540039063,-0.05326078,0.9652698,0.25576848,-0.09649526,-0.2599084,0.9607999,0.99390745,0.026492503,0.10698689,-0.049419023,0.97457963,0.218523,-0.101436794,-0.22255647,0.96962833,0.9936138,0.025751818,0.109856755,9.915863,0.32063293,0.9990082,9.746902,0.2598027,1.049183,-0.049240112,-0.01713562,-0.0051727295,-25.79956,-4.6188354,12.059021,1,0.0,0.0,0.0,0.0
2.548339844,-0.057947304,0.95137113,0.30254784,-0.09353566,-0.3068979,0.9471351,0.99392813,0.026584903,0.10677102,-0.049576946,0.97423834,0.22000389,-0.101244085,-0.2240422,0.9693063,0.9936256,0.02578115,0.1097432,9.881165,0.2368927,0.9690857,9.747106,0.26070884,1.0470661,-0.047409058,-0.007827759,-0.0036468506,-26.219177,-5.279541,11.579895,1,0.0,0.0,0.0,0.0
2.556640625,-0.05786749,0.9513251,0.30270755,-0.09338465,-0.30704436,0.9471025,0.993947,0.026538204,0.10660705,-0.04975333,0.9738511,0.2216722,-0.10109707,-0.22571766,0.96893287,0.9936317,0.025797227,0.1096837,9.881165,0.2368927,0.9690857,9.747291,0.2602509,1.0454581,-0.048171997,2.746582E-4,-0.0034942627,-26.219177,-5.279541,11.579895,1,0.0,0.0,0.0,0.0
2.564941406,-0.05922924,0.9464119,0.31748447,-0.09242952,-0.32187596,0.9422593,0.993956,0.02646436,0.106540866,-0.05009194,0.9730902,0.22491401,-0.1008048,-0.22897272,0.96819925,0.9936444,0.025826572,0.109561846,9.908676,0.19381714,1.0253296,9.747379,0.25952673,1.044809,-0.043121338,0.0054626465,-0.011123657,-26.45874,-5.4595947,11.338806,1,0.0,0.0,0.0,0.0
2.573242188,-0.060529523,0.94170594,0.33094725,-0.09160839,-0.33539686,0.9376123,0.99395376,0.026435686,0.10656958,-0.05047459,0.97220534,0.22862436,-0.10048988,-0.23269823,0.9673434,0.99365693,0.02585183,0.10944214,9.894318,0.20698547,1.0468597,9.747357,0.25924554,1.0450907,-0.037322998,0.0031738281,-0.010375977,-26.278687,-5.758667,11.579895,1,0.0,0.0,0.0,0.0
2.581542969,-0.06051247,0.94169533,0.33098072,-0.0916426,-0.33542928,0.93759745,0.9939517,0.026404401,0.10659705,-0.0506879,0.9717038,0.23069984,-0.10032278,-0.23478237,0.9668571,0.993663,0.025863506,0.109384656,9.894318,0.20698547,1.0468597,9.747336,0.25893873,1.04536,-0.035491943,0.0069885254,-0.008682251,-26.278687,-5.758667,11.579895,1,0.0,0.0,0.0,0.0
2.58984375,-0.06048525,0.94167835,0.33103397,-0.091670364,-0.33548015,0.9375765,0.9939507,0.026363539,0.106615596,-0.051099673,0.9707176,0.2347257,-0.099998645,-0.23882483,0.96590006,0.9936745,0.025884928,0.10927431,9.873978,0.21057129,1.051651,9.747327,0.258538,1.0455419,-0.034118652,-0.004623413,-0.005935669,-26.278687,-5.758667,11.579895,1,0.0,0.0,0.0,0.0
2.598144531,-0.059285942,0.9456638,0.3196954,-0.09251736,-0.32408553,0.941493,0.99394447,0.026239926,0.106704034,-0.051492263,0.9697541,0.23859045,-0.09968685,-0.24270526,0.96496457,0.9936856,0.02590388,0.109169185,9.895523,0.15434265,1.1294098,9.747266,0.25732577,1.0464091,-0.037017822,1.2207031E-4,-0.009597778,-26.219177,-5.5786133,11.639404,1,0.0,0.0,0.0,0.0
2.606445313,-0.059212472,0.9456196,0.31983975,-0.09260583,-0.32422373,0.94143677,0.9939407,0.026125772,0.106767975,-0.051656075,0.9693404,0.24023095,-0.09954979,-0.24435198,0.96456313,0.99369085,0.025910601,0.10911989,9.895523,0.15434265,1.1294098,9.747229,0.2562063,1.0470362,-0.036254883,-0.01210022,-0.0062408447,-26.219177,-5.5786133,11.639404,1,0.0,0.0,0.0,0.0
2.614746094,-0.059618104,0.94381386,0.32505566,-0.092319645,-0.32945246,0.939648,0.99394304,0.026011007,0.10677388,-0.051969852,0.9685282,0.2434181,-0.0992863,-0.24755089,0.9637742,0.99370086,0.02591912,0.10902677,9.938583,0.15911865,1.0241241,9.7472515,0.25508085,1.0470941,-0.031066895,-0.03012085,-0.008834839,-26.159668,-5.5786133,11.399841,1,0.0,0.0,0.0,0.0
2.623046875,-0.05875737,0.9465431,0.31718078,-0.09267703,-0.32152975,0.9423532,0.99396104,0.025974821,0.10661505,-0.052287444,0.9676833,0.24668805,-0.0990221,-0.2508326,0.96295255,0.9937106,0.02592276,0.108937435,9.866806,0.20698547,1.0576324,9.747428,0.254726,1.0455365,-0.036712646,-0.013320923,-0.0010528564,-26.399231,-5.519104,11.579895,1,0.0,0.0,0.0,0.0
2.631347656,-0.05867579,0.94649374,0.31734326,-0.09255714,-0.32167968,0.9423139,0.99397707,0.025918622,0.10647956,-0.052423015,0.96731186,0.24811208,-0.098899536,-0.25226125,0.9625919,0.99371564,0.025923803,0.108890995,9.866806,0.20698547,1.0576324,9.747585,0.25417486,1.0442078,-0.038238525,-0.013320923,-0.0050201416,-26.399231,-5.519104,11.579895,1,0.0,0.0,0.0,0.0
2.639648438,-0.05858334,0.9464378,0.31752732,-0.092442915,-0.32185012,0.9422669,0.9939931,0.025847992,0.10634651,-0.052682504,0.96658355,0.25088033,-0.09865623,-0.25503793,0.961885,0.9937261,0.025923597,0.108795516,9.9015045,0.18664551,1.0648041,9.747743,0.25348222,1.0429031,-0.036865234,-0.0027923584,-0.008529663,-26.399231,-5.519104,11.579895,1,0.0,0.0,0.0,0.0
2.647949219,-0.05955564,0.94263756,0.3284625,-0.09169166,-0.3328213,0.9385215,0.99400485,0.025776971,0.10625338,-0.052927446,0.96587473,0.2535444,-0.0984171,-0.25770953,0.9611971,0.99373674,0.025920602,0.108698495,9.9266205,0.19142151,1.0325012,9.747858,0.25278574,1.0419897,-0.04801941,-0.016830444,-0.013122559,-26.339722,-5.6991577,11.579895,1,0.0,0.0,0.0,0.0
2.65625,-0.059482172,0.9425918,0.32860708,-0.09158653,-0.33295473,0.93848443,0.994019,0.025727114,0.10613358,-0.053203303,0.9650673,0.25654325,-0.098159574,-0.26071718,0.9604121,0.9937475,0.025914917,0.108601615,9.9266205,0.19142151,1.0325012,9.747996,0.2522968,1.0408149,-0.05000305,-0.015609741,-0.014190674,-26.339722,-5.6991577,11.579895,1,0.0,0.0,0.0,0.0
2.664550781,-0.06117725,0.9360676,0.34646028,-0.090281315,-0.35087708,0.9320592,0.9940355,0.025741931,0.105975114,-0.053335425,0.9646716,0.25800002,-0.09803217,-0.26217797,0.9600273,0.99375296,0.025911162,0.108552225,9.920639,0.22132874,1.0325012,9.748158,0.25244212,1.0392609,-0.041290283,-0.019897461,-0.013427734,-26.45874,-6.059265,11.698914,1,0.0,0.0,0.0,0.0
2.672851563,-0.0607789,0.9375922,0.34238428,-0.09034248,-0.34677786,0.9335864,0.99405444,0.02581051,0.10578115,-0.05366382,0.96369696,0.26155007,-0.09773774,-0.265739,0.9590778,0.99376434,0.02590446,0.10845013,9.897903,0.25125122,1.0073853,9.748344,0.25311464,1.0373588,-0.051376343,-0.010574341,-0.014953613,-26.219177,-6.059265,11.938477,1,0.0,0.0,0.0,0.0
2.681152344,-0.06079355,0.93760127,0.3423567,-0.090169884,-0.34674746,0.9336143,0.99406916,0.02588746,0.1056234,-0.05381435,0.96324277,0.2631869,-0.09759523,-0.26738063,0.95863587,0.9937702,0.02590258,0.10839682,9.897903,0.25125122,1.0073853,9.748488,0.25386927,1.0358118,-0.04786682,-0.0043182373,-0.01876831,-26.219177,-6.059265,11.938477,1,0.0,0.0,0.0,0.0
2.689453125,-0.06077095,0.93758714,0.34239918,-0.09011397,-0.34678593,0.9336054,0.99407566,0.02588114,0.105564214,-0.0541066,0.9623538,0.26635975,-0.09731118,-0.27056262,0.9577716,0.99378216,0.025901983,0.10828701,9.891922,0.20578003,1.0169525,9.748552,0.25380728,1.0352314,-0.041152954,0.005004883,-0.0076141357,-26.219177,-6.059265,11.938477,1,0.0,0.0,0.0,0.0
2.697753906,-0.061024044,0.9364895,0.3453453,-0.089952216,-0.34974208,0.9325176,0.99407476,0.025841428,0.10558199,-0.054385323,0.96148974,0.26940617,-0.09703515,-0.27361757,0.9569313,0.9937939,0.025901156,0.10817908,9.920639,0.20458984,1.036087,9.748544,0.25341785,1.0354056,-0.037322998,0.0054626465,-0.010375977,-26.098633,-6.059265,11.819458,1,0.0,0.0,0.0,0.0
2.706054688,-0.061003745,0.93647677,0.34538355,-0.08998247,-0.34977883,0.9325009,0.99407333,0.025807584,0.10560432,-0.05452556,0.9610498,0.27094322,-0.096898206,-0.27515897,0.95650315,0.9937996,0.025899962,0.1081272,9.920639,0.20458984,1.036087,9.748529,0.25308594,1.0356246,-0.036102295,0.0027160645,-0.010986328,-26.098633,-6.059265,11.819458,1,0.0,0.0,0.0,0.0
2.714355469,-0.05975634,0.9410491,0.33295026,-0.09087125,-0.3372897,0.93700486,0.99406815,0.025736373,0.1056695,-0.0547959,0.96018875,0.27392516,-0.09663298,-0.2781492,0.95566475,0.9938106,0.025896301,0.10802734,9.90509,0.16630554,1.0731812,9.748479,0.2523876,1.0362638,-0.032440186,0.001953125,-0.009902954,-26.399231,-5.8792114,11.878967,1,0.0,0.0,0.0,0.0
2.72265625,-0.059720214,0.9410268,0.33301952,-0.09092464,-0.3373562,0.93697566,0.99406546,0.025676709,0.105709516,-0.054899946,0.9598421,0.2751166,-0.09652031,-0.2793433,0.9553277,0.9938158,0.025893101,0.10798019,9.90509,0.16630554,1.0731812,9.748452,0.2518025,1.0366563,-0.023422241,-0.0037078857,-0.013580322,-26.399231,-5.8792114,11.878967,1,0.0,0.0,0.0,0.0
2.730957031,-0.05885979,0.943793,0.32525414,-0.09138125,-0.32954505,0.93970704,0.9940749,0.025588831,0.10564194,-0.055196412,0.9588339,0.27855155,-0.096198164,-0.2827858,0.9543469,0.99383056,0.025880378,0.10784683,9.887146,0.15194702,1.0145569,9.748545,0.2509407,1.0359936,-0.04573059,-0.013320923,-0.010681152,-26.399231,-5.6991577,11.759949,1,0.0,0.0,0.0,0.0
2.739257813,-0.05881297,0.94376445,0.32534543,-0.09130992,-0.32962915,0.9396845,0.99408424,0.025558377,0.10556153,-0.055272974,0.95855564,0.27949238,-0.096103214,-0.28372803,0.9540768,0.99383557,0.02587455,0.10780277,9.890732,0.18902588,1.051651,9.748636,0.25064206,1.035205,-0.04573059,-0.004623413,-0.017242432,-26.399231,-5.6991577,11.759949,1,0.0,0.0,0.0,0.0
2.747558594,-0.05724383,0.94917864,0.30948833,-0.092236966,-0.31369895,0.9450319,0.99409026,0.02555098,0.105506696,-0.05534701,0.9582816,0.28041595,-0.09600864,-0.28465283,0.9538108,0.9938406,0.025868226,0.10775801,9.890732,0.18902588,1.051651,9.748695,0.25056952,1.0346673,-0.051223755,-0.0052337646,-0.019378662,-26.638794,-5.519104,11.999512,1,0.0,0.0,0.0,0.0
2.755859375,-0.057256013,0.94918567,0.30946454,-0.09216961,-0.3136748,0.9450464,0.9940958,0.025586361,0.10544585,-0.055425487,0.95793796,0.28157204,-0.095859826,-0.28580812,0.9534803,0.9938506,0.02585566,0.107668824,9.895523,0.20817566,1.0372925,9.748751,0.2509165,1.0340706,-0.05732727,-0.0069122314,-0.016326904,-26.638794,-5.519104,11.999512,1,0.0,0.0,0.0,0.0
2.764160156,-0.056452766,0.9519029,0.30115426,-0.09262772,-0.30532783,0.94773155,0.9940992,0.025606837,0.105409205,-0.055501167,0.957607,0.28268108,-0.095714256,-0.28691638,0.95316195,0.99386036,0.025844995,0.107580826,9.923035,0.21655273,1.0576324,9.748783,0.2511173,1.0337112,-0.05580139,-0.0070648193,-0.008377075,-26.69983,-5.3985596,12.059021,1,0.0,0.0,0.0,0.0
