Time,Rot1,Rot2,Rot3,Rot4,Rot5,Rot6,Rot7,Rot8,Rot9,FRot1,FRot2,FRot3,FRot4,FRot5,FRot6,FRot7,FRot8,FRot9,AccX,AccY,AccZ,GravX,GravY,GravZ,GyroX,GyroY,GyroZ,MagX,MagY,MagZ,Imid
0.0,0.0,0.0,0.0,0.0,0.0,0.0,0.0,0.0,0.0,0.0,0.0,0.0,0.0,0.0,0.0,0.0,0.0,0.0,9.572006,-0.12449646,2.0829468,9.577255,-0.07885742,2.1062927,0.0,0.0,0.0,0.0,0.0,0.0,0,0.0,0.0,0.0,0.0
0.004425049,0.0,0.0,0.0,0.0,0.0,0.0,0.0,0.0,0.0,1.0,0.0,0.0,0.0,1.0,0.0,0.0,0.0,1.0,9.567215,-0.1197052,2.087738,9.577545,-0.07914734,2.1046448,0.0,0.0,0.0,0.0,0.0,0.0,0,0.0,0.0,0.0,0.0
0.00881958,0.027924469,0.9955952,-0.08950077,-0.21276376,0.09340379,0.9726291,0.97670454,-0.008117628,0.21443483,1.0,0.0,0.0,0.0,1.0,0.0,0.0,0.0,1.0,9.572006,-0.0909729,1.9584503,9.578003,-0.0796051,2.1028442,0.005340576,-0.036209106,0.0010681152,-110.42328,4.147339,11.682129,0,0.0,0.0,0.0,0.0
0.013244629,0.02792694,0.9955972,-0.08947806,-0.21253176,0.09338019,0.97268194,0.9767549,-0.008147106,0.21420385,0.99912846,0.028279612,-0.030702356,-0.028248316,0.9995999,0.0014527267,0.030731155,-5.8417063E-4,0.9995275,9.5767975,-0.05265808,1.8961945,9.578598,-0.07989502,2.1006012,-0.003189087,-0.027694702,0.009597778,-110.42328,4.147339,11.682129,0,0.0,0.0,0.0,0.0
0.017669678,0.027932696,0.9956018,-0.0894253,-0.21254656,0.09333001,0.9726836,0.9767516,-0.008162638,0.21421869,0.99672943,0.05723192,-0.057052523,-0.057096288,0.99836063,0.0040060203,0.05718826,-7.3543104E-4,0.99836314,9.634262,-0.11491394,2.1595612,9.578598,-0.08004761,2.1007538,-0.010650635,-0.03515625,0.004272461,-110.42328,4.147339,11.682129,0,0.0,0.0,0.0,0.0
0.022094727,0.024330009,0.99702704,-0.0731115,-0.21292639,0.07662323,0.9740592,0.9767653,-0.008131503,0.21415758,0.9928951,0.08555971,-0.08269715,-0.0851908,0.99633265,0.007985752,0.083077125,-8.839768E-4,0.9965427,9.62468,0.028717041,1.953659,9.578751,-0.07974243,2.1001587,0.017044067,-0.015975952,-0.0010528564,-110.24475,3.6102295,12.545776,0,0.0,0.0,0.0,0.0
0.026519776,0.024335517,0.9970303,-0.07306405,-0.21292633,0.07657806,0.9740628,0.9767652,-0.008147062,0.21415757,0.9876867,0.11358733,-0.107577614,-0.112807296,0.9935275,0.013328589,0.10839527,-0.0010289289,0.9941073,9.60553,-0.14364624,2.0925293,9.578751,-0.07989502,2.1001587,-0.003189087,-0.0053253174,-0.012771606,-110.24475,3.6102295,12.545776,0,0.0,0.0,0.0,0.0
0.030914307,0.024329199,0.9970265,-0.073118456,-0.21289662,0.07662961,0.97406524,0.97677183,-0.008131557,0.2141279,0.9812224,0.14096798,-0.13164607,-0.1395587,0.9900134,0.019917654,0.13313913,-0.0011712932,0.9910966,9.653412,-0.04788208,2.015915,9.578751,-0.07974243,2.0998535,0.007461548,0.0032043457,-0.0053253174,-110.24475,3.6102295,12.545776,0,0.0,0.0,0.0,0.0
0.035339356,0.019964047,0.9983903,-0.053085756,-0.21333586,0.05612739,0.97536516,0.9767748,-0.008147142,0.214113,0.97359914,0.16769592,-0.15486397,-0.16540492,0.98583794,0.027655901,0.15730855,-0.0013105001,0.98754865,9.490601,-0.10055542,2.0446472,9.578751,-0.07989502,2.099701,-0.006378174,0.0010681152,-0.004257202,-111.320496,2.8930664,12.545776,0,0.0,0.0,0.0,0.0
0.039764404,0.019982496,0.9983986,-0.052923948,-0.21344194,0.05597416,0.9753509,0.9767513,-0.0081937555,0.21421863,0.9648328,0.1941735,-0.17718457,-0.19071317,0.9809661,0.036523078,0.18090387,-0.0014472345,0.98349965,9.548065,-0.08139038,2.0829468,9.578598,-0.08035278,2.1007538,0.0021362305,0.019165039,-0.007446289,-111.320496,2.8930664,12.545776,0,0.0,0.0,0.0,0.0
0.044189453,0.01999227,0.99840295,-0.052838232,-0.21341233,0.055892274,0.9753622,0.9767577,-0.0082233725,0.2141889,0.95507485,0.21998812,-0.1985885,-0.21505094,0.9755013,0.046372086,0.20392466,-0.0015821664,0.9789853,9.706085,-0.17237854,2.0446472,9.578598,-0.0806427,2.1004486,0.0,0.026626587,0.009597778,-111.320496,2.8930664,12.545776,0,0.0,0.0,0.0,0.0
0.048583985,0.024173347,0.9971295,-0.07175395,-0.21313475,0.075265154,0.9741196,0.97672373,-0.008254468,0.21434231,0.94441473,0.2451395,-0.21906033,-0.23839958,0.9694863,0.057113554,0.22637677,-0.0017149921,0.9740383,9.548065,-0.22026062,2.2170258,9.578293,-0.080947876,2.1019592,-0.010650635,0.020233154,0.0,-111.67908,3.6102295,12.545776,0,0.0,0.0,0.0,0.0
0.053009033,0.024160815,0.99712175,-0.07186331,-0.21327528,0.07537048,0.97408044,0.97669333,-0.008207913,0.21448247,0.9330415,0.26925492,-0.23861119,-0.26038456,0.9630671,0.06856763,0.24826078,-0.0018457832,0.96869147,9.461884,-0.0909729,2.039856,9.57785,-0.08049011,2.103302,0.012786865,0.028747559,-0.0053253174,-111.67908,3.6102295,12.545776,0,0.0,0.0,0.0,0.0
0.057434082,0.024167018,0.99712557,-0.07180917,-0.21330354,0.07531917,0.9740783,0.976687,-0.008223419,0.21451065,0.9209516,0.29272345,-0.257218,-0.28137794,0.95619506,0.080730096,0.26958218,-0.0019730274,0.9629753,9.548065,-0.1197052,1.8818359,9.57785,-0.0806427,2.103592,0.0010681152,0.034072876,-0.007446289,-111.67908,3.6102295,12.545776,0,0.0,0.0,0.0,0.0
0.061859131,0.024163418,0.99713045,-0.07174276,-0.21344338,0.0752547,0.9740528,0.9766566,-0.008223426,0.21464929,0.90822124,0.3155538,-0.2748816,-0.30138254,0.94890535,0.09352628,0.29034925,-0.0020980365,0.9569185,9.485825,-0.09576416,2.1164703,9.577545,-0.0806427,2.10495,0.0032043457,0.026626587,-0.0021209717,-112.75482,3.6102295,12.200928,0,0.0,0.0,0.0,0.0
0.06628418,0.024162091,0.9971296,-0.07175473,-0.21359545,0.07526738,0.9740184,0.97662336,-0.008207834,0.21480097,0.90822124,0.3155538,-0.2748816,-0.30138254,0.94890535,0.09352628,0.29034925,-0.0020980365,0.9569185,9.485825,-0.09576416,2.1164703,9.577255,-0.08049011,2.1064453,0.0032043457,0.026626587,-0.0021209717,-112.75482,3.6102295,12.200928,0,0.0,0.0,0.0,0.0
0.070678711,0.02416661,0.9971325,-0.07171382,-0.213766,0.07522982,0.9739839,0.9765859,-0.008207913,0.21497105,0.90822124,0.3155538,-0.2748816,-0.30138254,0.94890535,0.09352628,0.29034925,-0.0020980365,0.9569185,9.485825,-0.09576416,2.1164703,9.5767975,-0.08049011,2.1080933,0.0032043457,0.026626587,-0.0021209717,-112.75482,3.6102295,12.200928,0,0.0,0.0,0.0,0.0
0.07510376,0.02336224,0.9974109,-0.06801388,-0.21396013,0.071444474,0.9742263,0.976563,-0.00820785,0.21507522,0.86691284,0.38028717,-0.32224798,-0.35553,0.9248652,0.13499187,0.3493716,-0.0024573503,0.93698096,9.533707,-0.15800476,2.1452026,9.576645,-0.08049011,2.1091309,0.010665894,0.03514099,-0.0021209717,-110.42328,3.4301758,12.373352,0,0.0,0.0,0.0,0.0
0.079528809,0.023370095,0.99741524,-0.067944996,-0.21405408,0.07137968,0.97421026,0.97654223,-0.008223484,0.21516898,0.86691284,0.38028717,-0.32224798,-0.35553,0.9248652,0.13499187,0.3493716,-0.0024573503,0.93698096,9.533707,-0.15800476,2.1452026,9.576355,-0.0806427,2.1100311,0.010665894,0.03514099,-0.0021209717,-110.42328,3.4301758,12.373352,0,0.0,0.0,0.0,0.0
0.083953858,0.023381695,0.997422,-0.06784331,-0.21408379,0.071283095,0.97421086,0.9765354,-0.008254547,0.21519859,0.83736545,0.42053273,-0.34924394,-0.3869866,0.9072734,0.16460964,0.38608345,-0.0026856917,0.9224599,9.643829,-0.16279602,2.1930847,9.576355,-0.080947876,2.1103363,0.018112183,0.019165039,0.0,-110.42328,3.4301758,12.373352,0,0.0,0.0,0.0,0.0
0.088348389,0.023393255,0.9974286,-0.067741975,-0.21411203,0.07118686,0.9742118,0.976529,-0.008285612,0.21522674,0.8221787,0.4397681,-0.3614224,-0.40133175,0.898107,0.17982386,0.40367678,-0.0027970702,0.9148974,9.62468,-0.15322876,2.2170258,9.576355,-0.08125305,2.1106262,-0.003189087,0.015960693,-0.0063934326,-110.42328,3.4301758,12.373352,0,0.0,0.0,0.0,0.0
0.092773438,0.023415662,0.99744135,-0.06754557,-0.21415986,0.071000256,0.97421485,0.976518,-0.008346334,0.21527442,0.8067861,0.45842683,-0.37274772,-0.41478333,0.88872737,0.1952393,0.42077404,-0.0029068422,0.9071608,9.524124,-0.24420166,2.202652,9.576202,-0.081848145,2.111084,0.007461548,0.013839722,0.0010681152,-110.42328,3.4301758,12.373352,0,0.0,0.0,0.0,0.0
0.097198486,0.023404803,0.99743515,-0.06764075,-0.21415986,0.07109088,0.9742081,0.97651815,-0.008315216,0.21527445,0.7912352,0.47652173,-0.38324133,-0.4273657,0.87915754,0.21080941,0.43738478,-0.0030156332,0.89926946,9.519333,-0.07661438,2.0254822,9.576202,-0.08154297,2.111084,0.0032043457,0.011703491,0.0021362305,-110.42328,3.4301758,12.373352,0,0.0,0.0,0.0,0.0
0.101623535,0.023404066,0.9974348,-0.067647204,-0.21413013,0.07109677,0.9742143,0.9765247,-0.008315272,0.21524478,0.7912352,0.47652173,-0.38324133,-0.4273657,0.87915754,0.21080941,0.43738478,-0.0030156332,0.89926946,9.519333,-0.07661438,2.0254822,9.576202,-0.08154297,2.1107788,0.0032043457,0.011703491,0.0021362305,-110.42328,3.4301758,12.373352,0,0.0,0.0,0.0,0.0
0.106018067,0.024009805,0.9972536,-0.070062995,-0.21423304,0.07358762,0.9740067,0.97648746,-0.008375903,0.21541148,0.75983614,0.51105344,-0.40183768,-0.45001066,0.8595429,0.24223214,0.46919027,-0.0032255014,0.8830912,9.595947,-0.11012268,2.3271637,9.575897,-0.08213806,2.1124268,-0.008514404,0.0010681152,-0.013839722,-111.320496,3.6102295,13.238525,0,0.0,0.0,0.0,0.0
0.110443115,0.024005124,0.997251,-0.07010165,-0.21424794,0.07362449,0.9740007,0.9764843,-0.008361872,0.21542634,0.7440915,0.5274736,-0.40999937,-0.46008995,0.8495649,0.25798592,0.48440182,-0.0033285106,0.8748393,9.533707,-0.07182312,2.1404114,9.575897,-0.08200073,2.1125793,0.01171875,0.02128601,0.011703491,-111.320496,3.6102295,13.238525,0,0.0,0.0,0.0,0.0
0.114868164,0.030006912,0.99480194,-0.09730736,-0.21355231,0.101483904,0.9716463,0.9764707,-0.008375893,0.21548747,0.72834885,0.54337585,-0.41743323,-0.46940285,0.8394825,0.27373356,0.49916813,-0.0034291788,0.8664983,9.572006,-0.10055542,2.269699,9.575745,-0.08213806,2.1131744,0.008529663,0.0053253174,-0.007446289,-111.49902,4.5059204,11.682129,0,0.0,0.0,0.0,0.0
0.119293213,0.030002708,0.99479824,-0.097346075,-0.21356736,0.10152094,0.97163916,0.9764676,-0.008361862,0.21550234,0.71290785,0.5583092,-0.42432675,-0.47757855,0.8296255,0.28920636,0.5134989,-0.0035281142,0.85808307,9.476242,-0.22984314,2.2601166,9.575745,-0.08200073,2.113327,0.0021362305,-0.003189087,0.0,-111.49902,4.5059204,11.682129,0,0.0,0.0,0.0,0.0
0.123718262,0.030025283,0.9948179,-0.09713816,-0.21362783,0.101323254,0.9716465,0.97645366,-0.008422546,0.21556304,0.71290785,0.5583092,-0.42432675,-0.47757855,0.8296255,0.28920636,0.5134989,-0.0035281142,0.85808307,9.476242,-0.22984314,2.2601166,9.575607,-0.082595825,2.113922,0.0021362305,-0.003189087,0.0,-111.49902,4.5059204,11.682129,0,0.0,0.0,0.0,0.0
0.128112793,0.024226697,0.99717,-0.071169645,-0.21425407,0.07471538,0.9739162,0.97647744,-0.008346386,0.21545783,0.68224835,0.5867767,-0.4361539,-0.49190372,0.80974025,0.31992406,0.54089534,-0.0037219357,0.8410816,9.5767975,-0.10055542,2.1068878,9.575745,-0.081848145,2.1128693,0.0138549805,-0.015975952,-0.01171875,-112.75482,3.6102295,12.200928,0,0.0,0.0,0.0,0.0
0.132537842,0.024248648,0.99718356,-0.070970796,-0.21430157,0.07452632,0.97392017,0.9764665,-0.008407097,0.21550518,0.66681135,0.6007594,-0.44096583,-0.4984609,0.79942083,0.3353552,0.553985,-0.0038144258,0.83251786,9.567215,-0.24420166,2.2601166,9.575607,-0.08244324,2.113327,0.0138549805,-0.022369385,-0.017044067,-112.75482,3.6102295,12.200928,0,0.0,0.0,0.0,0.0
0.136962891,0.024235554,0.99717546,-0.07108938,-0.2142076,0.0746385,0.9739323,0.97648746,-0.008375903,0.21541148,0.65150785,0.61428934,-0.44518098,-0.50439143,0.7890712,0.3506508,0.5666805,-0.0039062803,0.82392836,9.581589,-0.15800476,2.173935,9.575897,-0.08213806,2.1124268,-0.008514404,-0.02130127,-0.0021209717,-112.75482,3.6102295,12.200928,0,0.0,0.0,0.0,0.0
0.14138794,0.026184727,0.99642015,-0.08038146,-0.21378909,0.084130466,0.9732503,0.9765288,-0.008299614,0.21522671,0.63635886,0.62737405,-0.44883087,-0.50971824,0.7787078,0.36578885,0.5789945,-0.0039956737,0.8153216,9.60553,-0.009567261,2.0494232,9.576355,-0.08139038,2.1106262,0.0032043457,-0.027694702,-0.012771606,-111.49902,3.7887573,10.644531,0,0.0,0.0,0.0,0.0
0.145782471,0.026176589,0.9964137,-0.0804644,-0.21365187,0.08420856,0.97327375,0.9765591,-0.0082856165,0.21508993,0.6214777,0.6398811,-0.45201498,-0.5143511,0.768463,0.38066712,0.5909385,-0.0040817535,0.80670625,9.595947,-0.10533142,2.1835022,9.576645,-0.08125305,2.1092834,0.005340576,-0.034088135,-0.010650635,-111.49902,3.7887573,10.644531,0,0.0,0.0,0.0,0.0
0.15020752,0.026156938,0.9963981,-0.08066467,-0.21346968,0.08439842,0.97329736,0.97659945,-0.008239015,0.21490836,0.6041231,0.65135163,-0.45910373,-0.51672816,0.7587724,0.3965557,0.60665244,-0.0023366527,0.79496366,9.62468,-0.028717041,2.0063324,9.57695,-0.08079529,2.107483,0.014923096,-0.039413452,-0.003189087,-111.49902,3.7887573,10.644531,0,0.0,0.0,0.0,0.0
0.154632569,0.034752473,0.99217355,-0.11993271,-0.21203996,0.124593146,0.9692861,0.97664285,-0.008254561,0.21471037,0.58964944,0.6630625,-0.4611524,-0.52027637,0.74855995,0.41106015,0.6177588,-0.002454701,0.7863637,9.581589,-0.04309082,2.0685883,9.577393,-0.080947876,2.105545,0.0138549805,-0.031951904,-0.0053253174,-110.961914,5.403137,12.545776,0,0.0,0.0,0.0,0.0
0.159057617,0.034758765,0.99217975,-0.119879745,-0.21193309,0.12454186,0.9693161,0.9766659,-0.008285744,0.21460465,0.57581276,0.67378676,-0.46308866,-0.52286917,0.7389214,0.42497408,0.628528,-0.0025707,0.7777827,9.543274,-0.1819458,2.1930847,9.577545,-0.08125305,2.1044922,0.0010681152,-0.04260254,0.007461548,-110.961914,5.403137,12.545776,0,0.0,0.0,0.0,0.0
0.163452149,0.034775503,0.9921962,-0.119738795,-0.2118238,0.12440681,0.9693574,0.976689,-0.008346359,0.21449707,0.56219614,0.68416137,-0.464606,-0.52502906,0.7293257,0.43866664,0.63896793,-0.002685002,0.76922876,9.567215,-0.11491394,2.1835022,9.57785,-0.081848145,2.1034546,0.009597778,-0.029830933,-0.0010528564,-110.961914,5.403137,12.545776,0,0.0,0.0,0.0,0.0
0.167877197,0.026009476,0.9964865,-0.07961221,-0.212845,0.08333332,0.9735258,0.97673976,-0.008375838,0.21426463,0.548807,0.69419783,-0.4657255,-0.52677894,0.7197788,0.45213097,0.64908767,-0.0027982304,0.76070845,9.5767975,-0.10055542,1.8243713,9.578445,-0.08213806,2.1011963,-0.0095825195,-0.03302002,0.009597778,-112.57477,3.7887573,10.644531,0,0.0,0.0,0.0,0.0
0.172302246,0.026009476,0.9964865,-0.07961221,-0.212845,0.08333332,0.9735258,0.97673976,-0.008375838,0.21426463,0.5352155,0.7044909,-0.4660868,-0.5285803,0.7097071,0.46574533,0.6588984,-0.002909784,0.7522263,9.46666,-0.0909729,2.0590057,9.578445,-0.08213806,2.1011963,-0.017028809,-0.027694702,-0.004257202,-112.57477,3.7887573,10.644531,0,0.0,0.0,0.0,0.0
0.176727295,0.026018893,0.99649405,-0.07951531,-0.21283157,0.083240554,0.9735368,0.97674245,-0.008406981,0.2142512,0.5218725,0.71443635,-0.46607915,-0.5299842,0.699694,0.4791087,0.6684054,-0.0030191063,0.743791,9.500183,-0.15322876,2.0829468,9.578445,-0.08244324,2.101059,-0.0053253174,-0.007461548,0.0,-112.57477,3.7887573,10.644531,0,0.0,0.0,0.0,0.0
0.181152344,0.020041794,0.9984396,-0.052121446,-0.21346304,0.05520307,0.97539026,0.97674555,-0.0084225675,0.21423633,0.50878257,0.72404605,-0.4657227,-0.5310128,0.68974453,0.4922173,0.67761767,-0.0031268653,0.7354077,9.552856,-0.10533142,2.0542145,9.578445,-0.082595825,2.1009064,0.0138549805,-0.017044067,-0.0095825195,-112.39624,2.8930664,12.200928,0,0.0,0.0,0.0,0.0
0.185546875,0.0200305,0.9984345,-0.052224237,-0.21342988,0.055300787,0.97539204,0.97675306,-0.008391378,0.21420345,0.49565163,0.7337112,-0.46475512,-0.5319652,0.67945373,0.5053273,0.68654394,-0.0032327806,0.7270811,9.629471,-0.03829956,2.0207062,9.578598,-0.08229065,2.1006012,0.01171875,-0.018112183,-0.010650635,-112.39624,2.8930664,12.200928,0,0.0,0.0,0.0,0.0
0.189971924,0.020007392,0.9984239,-0.0524346,-0.2133073,0.05550029,0.9754073,0.9767802,-0.008330675,0.21408154,0.49565163,0.7337112,-0.46475512,-0.5319652,0.67945373,0.5053273,0.68654394,-0.0032327806,0.7270811,9.629471,-0.03829956,2.0207062,9.578888,-0.08169556,2.099411,0.01171875,-0.018112183,-0.010650635,-112.39624,2.8930664,12.200928,0,0.0,0.0,0.0,0.0
0.194396973,0.027455853,0.9958828,-0.08639231,-0.21243334,0.0902637,0.9729978,0.97678983,-0.008361877,0.21403697,0.47019407,0.75203884,-0.46190375,-0.5328211,0.65910983,0.5307314,0.7035759,-0.0034346594,0.7106118,9.533707,-0.16279602,1.9680328,9.578888,-0.08200073,2.0989532,0.009597778,-0.022369385,-0.0095825195,-111.49902,4.147339,12.373352,0,0.0,0.0,0.0,0.0
0.198822022,0.027454335,0.99588174,-0.08640564,-0.21238688,0.090275995,0.97300684,0.97679996,-0.00836183,0.21399066,0.4582428,0.7602737,-0.46043184,-0.5324491,0.6495933,0.54270303,0.7116962,-0.003533205,0.70247847,9.595947,-0.07182312,1.9728088,9.579041,-0.08200073,2.0985107,0.007461548,-0.01171875,-0.003189087,-111.49902,4.147339,12.373352,0,0.0,0.0,0.0,0.0
0.203216553,0.027459236,0.9958854,-0.0863627,-0.21238676,0.090235084,0.97301066,0.9767998,-0.008375833,0.21399061,0.44655558,0.76822686,-0.45871082,-0.53180486,0.6401674,0.55440897,0.71956354,-0.003629779,0.69441706,9.485825,-0.13885498,2.0781555,9.579041,-0.08213806,2.0985107,-0.007446289,0.013839722,-0.003189087,-111.49902,4.147339,12.373352,0,0.0,0.0,0.0,0.0
0.207641602,0.024129484,0.99719197,-0.07089476,-0.21279255,0.07441345,0.9742598,0.9767994,-0.008422509,0.21399054,0.43513256,0.7759081,-0.45675626,-0.5309064,0.630835,0.5658494,0.727185,-0.003724701,0.6864314,9.60553,-0.18673706,2.111679,9.579041,-0.082595825,2.0985107,0.0032043457,0.0021362305,-0.003189087,-111.320496,3.6102295,12.892151,0,0.0,0.0,0.0,0.0
0.212066651,0.024113696,0.9971827,-0.07102849,-0.21282567,0.074541,0.9742427,0.9767926,-0.0083759045,0.21402356,0.42380574,0.7835231,-0.454401,-0.52990425,0.62135094,0.57716936,0.734568,-0.0038186582,0.6785243,9.639053,-0.05265808,2.0111237,9.578888,-0.08213806,2.098816,0.004272461,0.019165039,0.0010681152,-111.320496,3.6102295,12.892151,0,0.0,0.0,0.0,0.0
0.216491699,0.024125986,0.9971899,-0.070924364,-0.21286876,0.07444227,0.9742409,0.9767829,-0.008406941,0.21406658,0.41274703,0.79087174,-0.45184273,-0.5286701,0.61196953,0.58821875,0.74171954,-0.0039098044,0.67069876,9.648621,-0.1484375,2.2409668,9.578888,-0.08244324,2.0992584,-0.014892578,0.018096924,-0.01171875,-111.320496,3.6102295,12.892151,0,0.0,0.0,0.0,0.0
0.220916748,0.02598546,0.9965227,-0.07916528,-0.21280415,0.08289119,0.97357243,0.97674924,-0.008452029,0.21421815,0.4019534,0.7979656,-0.4490928,-0.52722085,0.6026897,0.5990019,0.74864656,-0.003999748,0.6629573,9.572006,-0.08139038,2.0446472,9.578598,-0.08288574,2.1007538,0.004272461,0.013839722,-0.003189087,-109.706116,3.7887573,11.682129,0,0.0,0.0,0.0,0.0
0.225311279,0.025979484,0.99651855,-0.079220034,-0.21276104,0.08294303,0.9735775,0.97675884,-0.008438108,0.21417515,0.39151427,0.80471134,-0.4462692,-0.52550554,0.5936522,0.60944325,0.7553546,-0.004088795,0.65530354,9.528915,-0.04309082,1.9728088,9.578598,-0.08274841,2.1003113,0.018112183,0.04046631,0.013839722,-109.706116,3.7887573,11.682129,0,0.0,0.0,0.0,0.0
0.229736328,0.025978593,0.99651796,-0.07922819,-0.21291356,0.08295212,0.9735434,0.9767256,-0.008422529,0.21432716,0.3813338,0.8112223,-0.44328657,-0.52360713,0.58472306,0.61962456,0.7618531,-0.0041757817,0.6477364,9.509766,-0.10055542,2.1404114,9.578293,-0.082595825,2.1018066,-0.0095825195,0.02128601,-0.003189087,-109.706116,3.7887573,11.682129,0,0.0,0.0,0.0,0.0
0.234161377,0.034903426,0.9921725,-0.11989757,-0.21180624,0.124589235,0.96933776,0.9766883,-0.008438157,0.21449693,0.37141037,0.8175068,-0.4401557,-0.52154183,0.57590324,0.62954706,0.7681461,-0.0042607174,0.64026046,9.557648,-0.12449646,2.2313843,9.57785,-0.08274841,2.1034546,0.0032043457,0.029815674,-0.004257202,-111.67908,5.403137,12.200928,0,0.0,0.0,0.0,0.0
0.238586426,0.034912333,0.99218154,-0.11982006,-0.21189578,0.12451618,0.9693275,0.9766685,-0.008452124,0.21458624,0.36217612,0.82309735,-0.43742347,-0.5190194,0.56788373,0.6388481,0.7742399,-0.0043442673,0.6328774,9.552856,-0.16279602,2.1404114,9.577698,-0.08288574,2.1043396,-0.008514404,0.029815674,0.0010681152,-111.67908,5.403137,12.200928,0,0.0,0.0,0.0,0.0
0.242980957,0.03492676,0.99219626,-0.11969447,-0.21185161,0.124396205,0.96935266,0.9766776,-0.008498883,0.21454312,0.35317844,0.82850057,-0.43457088,-0.51637566,0.5599708,0.6479112,0.7801418,-0.0044264253,0.6255871,9.500183,-0.1819458,1.9488678,9.577698,-0.083343506,2.103897,0.019180298,0.018096924,-0.0010528564,-111.67908,5.403137,12.200928,0,0.0,0.0,0.0,0.0
0.247406006,0.02028816,0.9984132,-0.05252941,-0.21373811,0.05565682,0.97530425,0.97668034,-0.008559591,0.21452816,0.34441248,0.83372325,-0.43160814,-0.5136193,0.55216414,0.6567419,0.7858596,-0.004507875,0.6183886,9.648621,-0.26335144,2.0925293,9.577698,-0.0839386,2.1037445,-0.007446289,-0.0063934326,-0.0095825195,-111.67908,2.8930664,11.854553,0,0.0,0.0,0.0,0.0
0.251800537,0.020289617,0.99841386,-0.052515876,-0.21381426,0.05564458,0.97528815,0.9766636,-0.008559581,0.21460415,0.33517078,0.83952105,-0.42762712,-0.51122266,0.5433078,0.66593397,0.7913987,-0.0045889104,0.61128306,9.481033,-0.0909729,2.2936401,9.577545,-0.0839386,2.1044922,-0.0010528564,0.010635376,-0.010650635,-111.67908,2.8930664,11.854553,0,0.0,0.0,0.0,0.0
0.256225586,0.020290691,0.99841446,-0.052505895,-0.21387227,0.05563557,0.97527605,0.9766509,-0.00855947,0.21466205,0.3261762,0.8451118,-0.42355064,-0.5087008,0.5345692,0.6748772,0.79676384,-0.0046683247,0.6042728,9.58638,-0.07661438,2.2553253,9.577545,-0.0839386,2.1050873,0.007461548,-0.019165039,-0.010650635,-111.67908,2.8930664,11.854553,0,0.0,0.0,0.0,0.0
0.260650635,0.029696424,0.99497736,-0.09559375,-0.21274062,0.0997362,0.9720052,0.97665733,-0.008528406,0.2146339,0.31742448,0.85050255,-0.41938895,-0.50606394,0.52594954,0.68357617,0.80196065,-0.0047461484,0.5973579,9.58638,-0.19152832,2.202652,9.577545,-0.08363342,2.1047974,-0.012756348,-0.015975952,-0.0053253174,-111.14044,4.5059204,12.373352,0,0.0,0.0,0.0,0.0
0.265045166,0.029680045,0.9949642,-0.095736064,-0.21257344,0.09987026,0.972028,0.9766942,-0.008498892,0.21446711,0.30935538,0.855242,-0.41576475,-0.50304776,0.51820636,0.69166833,0.8069958,-0.004821794,0.59053755,9.572006,-0.07661438,2.1212616,9.57785,-0.083343506,2.1031494,0.015991211,-0.013839722,-0.013839722,-111.14044,4.5059204,12.373352,0,0.0,0.0,0.0,0.0
0.269439697,0.029681094,0.99496496,-0.09572692,-0.21260323,0.09986181,0.9720223,0.9766877,-0.008498836,0.2144968,0.30150533,0.85981697,-0.41207924,-0.49995214,0.5105789,0.6995406,0.8118759,-0.004895337,0.5838096,9.720444,-0.0909729,2.2553253,9.57785,-0.083343506,2.1034546,-0.0010528564,-0.040481567,-0.0095825195,-111.14044,4.5059204,12.373352,0,0.0,0.0,0.0,0.0
0.273803711,0.022250438,0.99782693,-0.062019642,-0.21343075,0.06534584,0.97477037,0.9767048,-0.00845217,0.2144209,0.29387054,0.8642345,-0.4083366,-0.49678838,0.50306463,0.7071968,0.81660354,-0.0049674073,0.5771776,9.495392,-0.06703186,2.2936401,9.578003,-0.08288574,2.102707,-0.003189087,-0.019165039,-0.01171875,-109.88617,3.251648,12.892151,0,0.0,0.0,0.0,0.0
0.278167725,0.022242755,0.99782306,-0.062084127,-0.21332186,0.06540625,0.97479016,0.97672874,-0.008438117,0.21431229,0.28610316,0.8688431,-0.40405026,-0.4937612,0.49506187,0.714922,0.821185,-0.0050371033,0.5706398,9.562439,-0.21546936,2.1452026,9.578293,-0.08274841,2.101654,0.0021362305,-0.03727722,-0.010650635,-109.88617,3.251648,12.892151,0,0.0,0.0,0.0,0.0
0.282531738,0.022234151,0.99781877,-0.062156405,-0.21319784,0.065473944,0.9748128,0.97675604,-0.008422524,0.21418855,0.27507374,0.8740644,-0.40043223,-0.48928773,0.4857989,0.7242907,0.8276062,-0.0033067684,0.56129944,9.514557,-0.15800476,2.1882935,9.578598,-0.082595825,2.1004486,-0.0021209717,-0.026626587,-0.018096924,-109.88617,3.251648,12.892151,0,0.0,0.0,0.0,0.0
0.286895752,0.02762576,0.99580455,-0.087236814,-0.2124257,0.0911251,0.97291917,0.9767867,-0.00834629,0.21405184,0.26781178,0.87832206,-0.39601424,-0.48611146,0.47805732,0.73154414,0.83184886,-0.0034090849,0.5549918,9.595947,-0.004776001,1.9919739,9.578888,-0.081848145,2.0991058,-0.003189087,-0.036209106,-0.013839722,-110.42328,4.147339,12.373352,0,0.0,0.0,0.0,0.0
0.291259766,0.027626239,0.9958048,-0.08723264,-0.21244055,0.09112124,0.97291607,0.97678334,-0.008346261,0.21406667,0.26100284,0.88218576,-0.3919513,-0.48274818,0.47088853,0.7383889,0.8359616,-0.00350783,0.5487768,9.619888,-0.08618164,2.1643524,9.578888,-0.081848145,2.0992584,0.0021362305,-0.022369385,-0.010650635,-110.42328,4.147339,12.373352,0,0.0,0.0,0.0,0.0
0.295623779,0.027649624,0.99582195,-0.08702967,-0.2123339,0.09092704,0.97295773,0.976806,-0.008422566,0.21396086,0.25438756,0.8859154,-0.387867,-0.4793499,0.46383277,0.7450388,0.8399468,-0.0036045995,0.5426568,9.533707,-0.17237854,2.0829468,9.579041,-0.082595825,2.0982056,0.0,-0.022369385,-0.0063934326,-110.42328,4.147339,12.373352,0,0.0,0.0,0.0,0.0
0.299987793,0.027624205,0.99580336,-0.0872503,-0.21221165,0.09113611,0.9729647,0.97683316,-0.008361848,0.21383864,0.24795969,0.8895176,-0.38376355,-0.47592095,0.45688596,0.7515015,0.84380996,-0.0037009602,0.5366293,9.595947,0.028717041,2.0925293,9.579346,-0.08200073,2.0970154,-0.0021209717,-0.024505615,0.0063934326,-110.42328,4.147339,12.373352,0,0.0,0.0,0.0,0.0
0.304351807,0.027630098,0.99580765,-0.087199144,-0.21224134,0.09108765,0.97296286,0.9768266,-0.008375796,0.21386832,0.24171628,0.8929929,-0.37965357,-0.47246516,0.45005468,0.757778,0.8475552,-0.003794179,0.5306936,9.42836,-0.08618164,2.15477,9.579346,-0.08213806,2.0973206,-0.004257202,-0.025558472,-0.003189087,-110.42328,4.147339,12.373352,0,0.0,0.0,0.0,0.0
0.30871582,0.027641647,0.9958162,-0.08709895,-0.21225776,0.09099236,0.9729682,0.9768227,-0.008407015,0.21388486,0.23565261,0.89634824,-0.3755364,-0.4689906,0.44333354,0.7638738,0.85118484,-0.0038858124,0.5248516,9.524124,-0.17237854,2.111679,9.579193,-0.08244324,2.097458,-0.0053253174,-0.018112183,0.007461548,-110.42328,4.147339,12.373352,0,0.0,0.0,0.0,0.0
0.313079834,0.030842176,0.9943432,-0.101638034,-0.21180078,0.10587886,0.9715607,0.9768262,-0.008438031,0.21386822,0.22976391,0.8995883,-0.37141544,-0.46550205,0.4367208,0.76979405,0.8547025,-0.003976237,0.5191029,9.610321,-0.18673706,2.0590057,9.579346,-0.08274841,2.0973206,-0.003189087,-0.0063934326,-0.0095825195,-111.49902,4.864502,13.755798,0,0.0,0.0,0.0,0.0
0.317443848,0.030841574,0.99434274,-0.101642706,-0.21178587,0.10588316,0.97156346,0.9768294,-0.008438059,0.21385336,0.22418445,0.9025875,-0.36752853,-0.4619356,0.43048733,0.7754329,0.8581124,-0.004065474,0.51344585,9.533707,-0.07182312,2.1164703,9.579346,-0.08274841,2.097168,0.004272461,-0.0053253174,-0.015975952,-111.49902,4.864502,13.755798,0,0.0,0.0,0.0,0.0
0.321807861,0.0308279,0.99433225,-0.10174981,-0.21173842,0.10598447,0.97156274,0.9768401,-0.008406897,0.21380562,0.22418445,0.9025875,-0.36752853,-0.4619356,0.43048733,0.7754329,0.8581124,-0.004065474,0.51344585,9.533707,-0.07182312,2.1164703,9.579498,-0.08244324,2.0967102,0.004272461,-0.0053253174,-0.015975952,-111.49902,4.864502,13.755798,0,0.0,0.0,0.0,0.0
0.326171875,0.030795978,0.99430764,-0.101999916,-0.21180287,0.10622257,0.9715227,0.9768271,-0.008315117,0.21386842,0.22418445,0.9025875,-0.36752853,-0.4619356,0.43048733,0.7754329,0.8581124,-0.004065474,0.51344585,9.533707,-0.07182312,2.1164703,9.579346,-0.08154297,2.0973206,0.004272461,-0.0053253174,-0.015975952,-111.49902,4.864502,13.755798,0,0.0,0.0,0.0,0.0
0.330535889,0.028598156,0.99533933,-0.09209652,-0.21218573,0.09607929,0.97249466,0.97681075,-0.008269987,0.2139445,0.20840101,0.9109792,-0.35592964,-0.45123905,0.4124297,0.7913817,0.8677283,-0.004315389,0.49702018,9.528915,-0.12927246,2.0350647,9.579193,-0.081100464,2.0980682,0.018112183,0.011703491,-0.017044067,-111.320496,4.3273926,12.200928,0,0.0,0.0,0.0,0.0
0.334899903,0.028597105,0.9953385,-0.09210586,-0.2123116,0.09608926,0.9724663,0.9767835,-0.008254579,0.21406978,0.20335126,0.9136721,-0.35192558,-0.44772932,0.4064284,0.7964637,0.87073916,-0.004394482,0.4917255,9.60553,-0.16279602,1.9967499,9.578751,-0.080947876,2.0992584,0.010665894,0.023422241,-0.013839722,-111.320496,4.3273926,12.200928,0,0.0,0.0,0.0,0.0
0.339294434,0.029996037,0.9947052,-0.09829452,-0.21227303,0.10243496,0.97182673,0.9767499,-0.008285678,0.21422173,0.19845006,0.91627264,-0.34793967,-0.4442303,0.4005302,0.80139565,0.8736572,-0.0044716843,0.4865213,9.524124,-0.22026062,2.178711,9.578445,-0.08125305,2.1007538,0.0063934326,0.039398193,-0.0053253174,-111.14044,4.5059204,11.682129,0,0.0,0.0,0.0,0.0
0.343658447,0.030002974,0.9947112,-0.09823088,-0.21233428,0.1023748,0.9718197,0.9767364,-0.008299699,0.21428286,0.1937504,0.91873384,-0.3440768,-0.44072014,0.3948511,0.8061379,0.8764853,-0.004547965,0.48140708,9.610321,-0.14364624,1.9680328,9.578293,-0.08139038,2.1013489,0.0,0.027679443,-0.0063934326,-111.14044,4.5059204,11.682129,0,0.0,0.0,0.0,0.0
0.348022461,0.030001307,0.99470985,-0.09824621,-0.21228778,0.102389015,0.9718284,0.9767465,-0.0082996525,0.21423653,0.1891885,0.92111224,-0.34023523,-0.43722683,0.38926974,0.81074154,0.8792272,-0.0046230005,0.47638032,9.615112,-0.06703186,2.0015411,9.578445,-0.08139038,2.1009064,-0.003189087,0.026626587,-0.0053253174,-111.14044,4.5059204,11.682129,0,0.0,0.0,0.0,0.0
0.352386475,0.021034896,0.99813884,-0.05723788,-0.21334797,0.06041322,0.97510654,0.97674984,-0.008299681,0.21422172,0.18476014,0.92341,-0.33641893,-0.4337506,0.38378632,0.81521076,0.8818867,-0.004696534,0.47143805,9.639053,-0.11491394,2.087738,9.578445,-0.08139038,2.1007538,0.0138549805,0.007461548,-0.0010528564,-111.14044,3.0715942,12.719727,0,0.0,0.0,0.0,0.0
0.356750488,0.021035526,0.9981392,-0.057232436,-0.2133777,0.060408287,0.97510034,0.9767433,-0.0082996255,0.21425138,0.18009923,0.9259485,-0.33193922,-0.4304462,0.37761968,0.8198289,0.8844661,-0.0047685974,0.46658,9.557648,-0.0622406,2.1452026,9.578445,-0.08139038,2.101059,0.0032043457,0.0010681152,0.0010681152,-111.14044,3.0715942,12.719727,0,0.0,0.0,0.0,0.0
0.361114502,0.02104757,0.9981449,-0.05712858,-0.21342419,0.060309805,0.97509634,0.9767329,-0.008330789,0.21429765,0.17557757,0.9283964,-0.32749453,-0.42715418,0.37155986,0.8243073,0.8869678,-0.0048392187,0.461806,9.552856,-0.1484375,2.221817,9.578293,-0.08169556,2.1015015,0.010665894,0.0,0.0010681152,-111.14044,3.0715942,12.719727,0,0.0,0.0,0.0,0.0
0.365478516,0.025083002,0.9968153,-0.07569748,-0.21284902,0.07931028,0.9738609,0.976763,-0.0083152205,0.21416049,0.17119105,0.9307576,-0.32308513,-0.42387745,0.36560398,0.82865053,0.8893939,-0.004909051,0.45711526,9.519333,-0.08618164,2.1020966,9.578598,-0.08154297,2.1001587,-0.0053253174,-0.008514404,0.0010681152,-111.14044,3.7887573,13.064575,0,0.0,0.0,0.0,0.0
0.369842529,0.02507277,0.99680907,-0.075782716,-0.21269378,0.07939006,0.97388834,0.97679716,-0.008299568,0.21400562,0.16709487,0.93289727,-0.31903282,-0.42055136,0.36010814,0.8327416,0.8917488,-0.004977175,0.45250344,9.490601,-0.0622406,2.0542145,9.579041,-0.08139038,2.0986633,0.0021362305,-0.030883789,-0.004257202,-111.14044,3.7887573,13.064575,0,0.0,0.0,0.0,0.0
0.374206543,0.02506279,0.9968031,-0.07586585,-0.21252656,0.07946772,0.9739187,0.9768338,-0.008285611,0.21383877,0.16311993,0.9349622,-0.31501994,-0.41724554,0.3547115,0.83671135,0.89403474,-0.005043623,0.44796932,9.485825,-0.08139038,2.1308289,9.579346,-0.08125305,2.0970154,0.007461548,-0.034088135,-0.003189087,-111.14044,3.7887573,13.064575,0,0.0,0.0,0.0,0.0
0.378570557,0.024810618,0.99689764,-0.074696206,-0.21241897,0.07827009,0.974039,0.9768637,-0.008299617,0.2137019,0.1592626,0.936955,-0.3110479,-0.41396138,0.34941277,0.8405633,0.8962541,-0.005108463,0.44351158,9.485825,-0.0909729,2.0685883,9.579636,-0.08139038,2.0956726,0.020248413,-0.041549683,-0.0010528564,-111.857605,3.7887573,13.41095,0,0.0,0.0,0.0,0.0
0.38293457,0.024805145,0.9968945,-0.074740954,-0.21223354,0.07831107,0.9740762,0.97690415,-0.008299564,0.21351695,0.1555096,0.938887,-0.30709606,-0.41070476,0.34418672,0.8443086,0.89840883,-0.0051722866,0.4391297,9.46666,-0.11491394,2.1068878,9.580093,-0.08139038,2.093872,-0.010650635,-0.030883789,0.0,-111.857605,3.7887573,13.41095,0,0.0,0.0,0.0,0.0
0.387298584,0.024789827,0.9968854,-0.074866146,-0.2120816,0.07842883,0.97409976,0.9769375,-0.008270033,0.21336529,0.1555096,0.938887,-0.30709606,-0.41070476,0.34418672,0.8443086,0.89840883,-0.0051722866,0.4391297,9.46666,-0.11491394,2.1068878,9.580383,-0.081100464,2.0923767,-0.010650635,-0.030883789,0.0,-111.857605,3.7887573,13.41095,0,0.0,0.0,0.0,0.0
0.391662598,0.026634272,0.99616045,-0.083396815,-0.2117197,0.08715515,0.9734366,0.97696745,-0.008270023,0.2132281,0.14833315,0.9425506,-0.2993252,-0.40426338,0.33402136,0.8514698,0.9025344,-0.0052949586,0.43058518,9.60553,-0.10055542,2.1499786,9.580688,-0.081100464,2.091034,0.0021362305,-0.039413452,-0.0095825195,-111.320496,3.968811,11.854553,0,0.0,0.0,0.0,0.0
0.396026611,0.026640564,0.9961651,-0.0833393,-0.21159531,0.087099224,0.97346866,0.9769942,-0.008299549,0.21310423,0.1449739,0.9442303,-0.29565442,-0.40105948,0.32924196,0.8548398,0.9045075,-0.00535446,0.42642403,9.58638,-0.15800476,2.039856,9.580994,-0.08139038,2.0898285,0.026641846,-0.03515625,0.0021362305,-111.320496,3.968811,11.854553,0,0.0,0.0,0.0,0.0
0.400390625,0.026635941,0.99616164,-0.083381586,-0.2114431,0.08713828,0.97349817,0.9770273,-0.008299579,0.21295251,0.14171366,0.9458534,-0.29202485,-0.3978863,0.32454887,0.858111,0.90642357,-0.0054133623,0.42233512,9.46666,-0.15322876,2.0446472,9.581284,-0.08139038,2.0883331,-0.006378174,-0.022369385,0.0,-111.320496,3.968811,11.854553,0,0.0,0.0,0.0,0.0
0.404754639,0.032256745,0.993511,-0.1090656,-0.21050751,0.11342788,0.97098947,0.9770599,-0.008361831,0.21280035,0.1385496,0.94742113,-0.28843933,-0.39474416,0.31994265,0.8612861,0.90828466,-0.005471087,0.41831687,9.524124,-0.12927246,1.929718,9.581589,-0.08200073,2.0868378,0.022384644,-0.034088135,-0.004257202,-111.49902,4.864502,11.335754,0,0.0,0.0,0.0,0.0
0.40914917,0.032267045,0.99352133,-0.1089687,-0.21038397,0.1133343,0.97102726,0.9770862,-0.008406913,0.21267793,0.1356865,0.94876885,-0.285354,-0.39156196,0.3159227,0.8642176,0.91009253,-0.005528903,0.41436824,9.658203,-0.2106781,2.173935,9.581894,-0.08244324,2.0856476,0.020248413,-0.02130127,0.014907837,-111.49902,4.864502,11.335754,0,0.0,0.0,0.0,0.0
0.413513184,0.03225311,0.9935074,-0.1090998,-0.21029338,0.11345869,0.9710323,0.97710615,-0.008375845,0.21258743,0.13290633,0.9500736,-0.28230482,-0.38841727,0.3119758,0.8670658,0.9118486,-0.0055864635,0.41048858,9.514557,-0.1197052,2.1930847,9.582031,-0.08213806,2.0847473,0.01171875,-0.03302002,0.0,-111.49902,4.864502,11.335754,0,0.0,0.0,0.0,0.0
0.417877197,0.022406867,0.9977028,-0.063930675,-0.21144302,0.06722945,0.9750754,0.97713345,-0.008330689,0.21246368,0.12739472,0.9515539,-0.2798495,-0.38204664,0.3074545,0.87149984,0.9153201,-0.0041089137,0.4027061,9.591171,-0.004776001,2.13562,9.582336,-0.08169556,2.0835419,0.0,-0.03302002,-0.012771606,-110.961914,3.251648,11.854553,0,0.0,0.0,0.0,0.0
0.422241211,0.022419017,0.99770963,-0.063818805,-0.21130556,0.06712151,0.9751126,0.9771629,-0.008375797,0.21232639,0.12448778,0.9530501,-0.27604035,-0.37914243,0.30278355,0.87439865,0.9169262,-0.00419335,0.3990346,9.519333,-0.12449646,2.0925293,9.582642,-0.08213806,2.082199,0.0,-0.031951904,-0.003189087,-110.961914,3.251648,11.854553,0,0.0,0.0,0.0,0.0
0.426605225,0.022436013,0.9977193,-0.063662365,-0.21112381,0.06697067,0.97516245,0.9772019,-0.008438118,0.21214484,0.12166715,0.95449483,-0.27228066,-0.37626922,0.29819685,0.8772116,0.91848713,-0.004277,0.3954278,9.615112,-0.22505188,2.0733643,9.5829315,-0.08274841,2.0803986,0.0021362305,-0.034088135,0.0053253174,-110.961914,3.251648,11.854553,0,0.0,0.0,0.0,0.0
0.430969238,0.024634812,0.9969704,-0.073777564,-0.21081752,0.07732117,0.97446257,0.97721493,-0.0084521,0.21208361,0.11893,0.95589006,-0.26857007,-0.37342674,0.29369238,0.87994164,0.9200045,-0.004360223,0.39188373,9.46666,-0.07661438,2.1930847,9.583084,-0.08288574,2.0798035,0.009597778,-0.03727722,0.0021362305,-110.60333,3.6102295,11.854553,0,0.0,0.0,0.0,0.0
0.435333252,0.024615597,0.9969579,-0.07395302,-0.21068,0.07748742,0.9744792,0.97724515,-0.008406969,0.21194647,0.116351634,0.9571767,-0.26509443,-0.37059355,0.28947026,0.8825346,0.9214785,-0.0044420618,0.38840383,9.591171,-0.11491394,2.1164703,9.583389,-0.08244324,2.0784607,-0.008514404,-0.027694702,0.0010681152,-110.60333,3.6102295,11.854553,0,0.0,0.0,0.0,0.0
0.439697266,0.024603257,0.9969498,-0.07406565,-0.21061902,0.07759436,0.9744838,0.97725856,-0.008375844,0.21188568,0.1138497,0.9584186,-0.26167178,-0.36779416,0.28533038,0.88505036,0.9229116,-0.00452136,0.3849855,9.476242,-0.12449646,2.2122345,9.583527,-0.08213806,2.0778656,0.012786865,-0.031951904,-0.0095825195,-110.60333,3.6102295,11.854553,0,0.0,0.0,0.0,0.0
0.444061279,0.026812015,0.9960921,-0.08415284,-0.2103205,0.08791988,0.9736711,0.9772647,-0.008407016,0.21185589,0.11142203,0.9596176,-0.25830057,-0.36503044,0.28127018,0.88749075,0.924304,-0.004598451,0.38162935,9.562439,-0.16758728,2.015915,9.583527,-0.08244324,2.0775604,0.009597778,-0.028762817,-0.0095825195,-111.320496,3.968811,11.509705,0,0.0,0.0,0.0,0.0
0.448425293,0.02682189,0.9960996,-0.084059924,-0.2103022,0.087831,0.973683,0.9772684,-0.008438034,0.21183775,0.10914186,0.9607185,-0.25516272,-0.36228043,0.2774853,0.8898061,0.9256571,-0.0046746233,0.3783348,9.528915,-0.14364624,1.9919739,9.583679,-0.08274841,2.0774078,-0.0053253174,-0.004257202,-0.010650635,-111.320496,3.968811,11.509705,0,0.0,0.0,0.0,0.0
0.452789307,0.02681494,0.9960943,-0.08412533,-0.21024413,0.087892964,0.97369003,0.97728115,-0.008422584,0.21177983,0.10692869,0.96178335,-0.25206944,-0.35956866,0.27377033,0.8920539,0.9269718,-0.0047498927,0.37510106,9.533707,-0.028717041,1.9345093,9.583679,-0.082595825,2.0768127,-0.010650635,-0.008514404,-0.007446289,-111.320496,3.968811,11.509705,0,0.0,0.0,0.0,0.0
0.45715332,0.031433523,0.99395007,-0.10523876,-0.20960568,0.109504774,0.97163475,0.97728056,-0.008483263,0.2117797,0.104780555,0.96281266,-0.24902374,-0.35689443,0.27012688,0.8942359,0.92824966,-0.004823347,0.37192652,9.581589,-0.27293396,2.063797,9.583679,-0.08319092,2.0768127,-0.0010528564,-0.0095825195,-0.0063934326,-113.1134,4.685974,10.472107,0,0.0,0.0,0.0,0.0
0.461517334,0.03143723,0.993954,-0.10520044,-0.20957246,0.10946783,0.9716462,0.9772877,-0.008498749,0.21174675,0.102850474,0.96369207,-0.24641296,-0.35421386,0.26697117,0.89624715,0.9294914,-0.004896546,0.36881122,9.461884,-0.09576416,1.9776001,9.583832,-0.083343506,2.0765076,0.0032043457,-0.008514404,0.004272461,-113.1134,4.685974,10.472107,0,0.0,0.0,0.0,0.0
0.465881348,0.03143622,0.99395293,-0.10521089,-0.2096821,0.10947878,0.9716213,0.97726417,-0.008483255,0.21185575,0.100976065,0.96454406,-0.24384138,-0.35157385,0.26387516,0.89820135,0.93069845,-0.0049685906,0.36575356,9.46666,-0.15322876,2.0781555,9.583527,-0.08319092,2.0775604,-0.007446289,0.0,0.0021362305,-113.1134,4.685974,10.472107,0,0.0,0.0,0.0,0.0
0.470245361,0.02576202,0.99655217,-0.078866936,-0.210437,0.08253149,0.9741174,0.9772679,-0.008498712,0.21183765,0.09915609,0.9653693,-0.24130939,-0.348977,0.26083857,0.9000991,0.9318708,-0.0050388845,0.3627554,9.500183,-0.12449646,1.9919739,9.583679,-0.083343506,2.0774078,-0.007446289,0.023422241,-0.012771606,-111.857605,3.7887573,11.335754,0,0.0,0.0,0.0,0.0
0.474609375,0.025767174,0.996556,-0.07881736,-0.21043697,0.082484126,0.97412145,0.9772678,-0.008514271,0.21183762,0.097201094,0.9663082,-0.23832834,-0.34647292,0.25733703,0.90207213,0.93301046,-0.0051080817,0.35981306,9.528915,-0.13885498,2.1020966,9.583679,-0.083496094,2.0774078,0.0,0.007461548,-0.012771606,-111.857605,3.7887573,11.335754,0,0.0,0.0,0.0,0.0
0.479003906,0.025767716,0.9965564,-0.07881217,-0.21045512,0.08247932,0.974118,0.97726387,-0.008514373,0.2118557,0.09530322,0.96721625,-0.2353932,-0.34400627,0.2539013,0.9039877,0.9341183,-0.005176206,0.35692608,9.543274,-0.07661438,2.0781555,9.583527,-0.083496094,2.0775604,0.0010681152,-0.0063934326,0.009597778,-111.857605,3.7887573,11.335754,0,0.0,0.0,0.0,0.0
0.48336792,0.028196204,0.99555016,-0.08991599,-0.21014471,0.09384516,0.9731559,0.9772637,-0.008543935,0.21185566,0.09346088,0.96809435,-0.23250455,-0.3415774,0.25053105,0.90584713,0.9351951,-0.0052429703,0.354094,9.457092,-0.1771698,2.0781555,9.583527,-0.08378601,2.0775604,0.010665894,-0.0021209717,-0.017044067,-111.67908,4.3273926,12.892151,0,0.0,0.0,0.0,0.0
0.487731934,0.028171455,0.99553204,-0.09012429,-0.21006575,0.09404284,0.9731538,0.97728133,-0.008483134,0.2117765,0.0917502,0.96888703,-0.22986911,-0.33916464,0.2474464,0.90759987,0.9362421,-0.00530899,0.3513155,9.533707,-0.11012268,2.087738,9.583832,-0.08319092,2.0768127,0.008529663,-0.010650635,-0.012771606,-111.67908,4.3273926,12.892151,0,0.0,0.0,0.0,0.0
0.492095947,0.02814271,0.99551094,-0.0903662,-0.20987049,0.09427153,0.9731738,0.977324,-0.008422552,0.2115814,0.09008878,0.9696533,-0.22728045,-0.33678842,0.2444249,0.90930194,0.9372607,-0.0053724735,0.34858796,9.610321,-0.10533142,1.9584503,9.584137,-0.082595825,2.0748749,0.004272461,-0.020233154,-0.019165039,-111.67908,4.3273926,12.892151,0,0.0,0.0,0.0,0.0
0.496459961,0.029552212,0.99484986,-0.09695653,-0.20956701,0.10100972,0.972563,0.9773476,-0.0084224995,0.21147273,0.08847475,0.970394,-0.22473894,-0.33444622,0.24146603,0.9109555,0.93825257,-0.005433476,0.34590825,9.552856,-0.10055542,2.1595612,9.584427,-0.082595825,2.073822,0.010665894,-0.034088135,-0.014907837,-111.320496,4.3273926,10.472107,0,0.0,0.0,0.0,0.0
0.500823975,0.029552622,0.9948502,-0.09695232,-0.20942906,0.1010045,0.97259337,0.97737724,-0.008438046,0.21133548,0.0869516,0.9710789,-0.22236274,-0.332128,0.2386956,0.91253245,0.939218,-0.005493257,0.34327745,9.581589,-0.19152832,2.0542145,9.584732,-0.08274841,2.0724792,-0.003189087,-0.030883789,-0.0010528564,-111.320496,4.3273926,10.472107,0,0.0,0.0,0.0,0.0
0.505187988,0.029532775,0.9948309,-0.09715528,-0.20927688,0.10119743,0.97260594,0.97741044,-0.008391398,0.21118379,0.08547152,0.97174233,-0.2200258,-0.32984513,0.2359786,0.9140658,0.94015783,-0.005552153,0.34069395,9.600739,-0.12449646,2.0350647,9.585022,-0.08229065,2.070984,0.0,-0.031951904,-0.008514404,-111.320496,4.3273926,10.472107,0,0.0,0.0,0.0,0.0
0.509552002,0.029529782,0.99482816,-0.09718597,-0.20918557,0.101226,0.9726226,0.9774299,-0.008391432,0.21109283,0.08403328,0.97238433,-0.21773167,-0.32759702,0.23331784,0.91555613,0.9410731,-0.0056089386,0.33815667,9.581589,-0.08618164,2.0302734,9.585175,-0.08229065,2.0700836,0.0063934326,-0.030883789,-0.012771606,-111.320496,4.3273926,10.472107,0,0.0,0.0,0.0,0.0
0.513916016,0.029544141,0.994842,-0.09703906,-0.20917031,0.10108527,0.9726405,0.9774328,-0.008438136,0.21107788,0.082635716,0.97300625,-0.21547665,-0.32538453,0.23070925,0.917005,0.9419641,-0.005664589,0.335666,9.634262,-0.17237854,2.0494232,9.585175,-0.08274841,2.069931,-0.024475098,-0.015975952,-0.0063934326,-111.320496,4.3273926,10.472107,0,0.0,0.0,0.0,0.0
0.518280029,0.029545933,0.99484366,-0.097020686,-0.2090906,0.10106701,0.9726595,0.97744983,-0.008452019,0.21099861,0.081277594,0.97360957,-0.21325663,-0.32320884,0.22814846,0.918414,0.94283086,-0.0057200603,0.33322257,9.538498,-0.12449646,1.8531036,9.58548,-0.08288574,2.0691833,0.0032043457,-0.007461548,0.0021362305,-111.320496,4.3273926,10.472107,0,0.0,0.0,0.0,0.0
0.522644043,0.032318197,0.9934122,-0.10994485,-0.20863502,0.114284284,0.9712933,0.97745943,-0.008452102,0.21095401,0.07995765,0.9741943,-0.21107382,-0.3210682,0.22563693,0.9197843,0.94367474,-0.0057746996,0.33082426,9.543274,-0.08618164,1.9105682,9.58548,-0.08288574,2.0687256,-0.0021209717,-0.015975952,0.0,-112.57477,5.2230835,14.102173,0,0.0,0.0,0.0,0.0
0.527008057,0.032311372,0.99340653,-0.109997205,-0.20860371,0.11433376,0.9712941,0.97746634,-0.008438024,0.21092258,0.07875961,0.97470176,-0.20917316,-0.31894222,0.22343348,0.92106104,0.94449604,-0.005828248,0.3284711,9.533707,-0.03829956,2.015915,9.585632,-0.08274841,2.0684357,0.005340576,-0.0063934326,0.004272461,-112.57477,5.2230835,14.102173,0,0.0,0.0,0.0,0.0
0.53137207,0.032306265,0.9934024,-0.11003648,-0.2086222,0.11437124,0.9712858,0.9774626,-0.008422566,0.21094069,0.07759474,0.975194,-0.20730597,-0.31685245,0.22127387,0.9223027,0.9452955,-0.0058804434,0.3261623,9.600739,-0.07182312,2.087738,9.58548,-0.082595825,2.0685883,0.009597778,-0.017044067,-0.012771606,-112.57477,5.2230835,14.102173,0,0.0,0.0,0.0,0.0
0.535736084,0.02674576,0.9960862,-0.08424456,-0.2093889,0.087987535,0.97386587,0.97746664,-0.008406906,0.21092264,0.0764622,0.9756715,-0.20547159,-0.31479952,0.21915716,0.9235104,0.94607335,-0.005931286,0.32389817,9.552856,-0.0143585205,2.0254822,9.585632,-0.08244324,2.0684357,-0.010650635,-0.0095825195,0.0,-112.21619,4.147339,13.41095,0,0.0,0.0,0.0,0.0
0.540100098,0.02674157,0.9960833,-0.08427875,-0.20943546,0.088020466,0.9738527,0.9774567,-0.008391394,0.21096897,0.07519472,0.9762501,-0.20317851,-0.31282225,0.21656403,0.92479306,0.9468305,-0.005980799,0.3216772,9.528915,-0.05744934,2.1835022,9.58548,-0.08229065,2.0688782,0.005340576,-0.018112183,0.011703491,-112.21619,4.147339,13.41095,0,0.0,0.0,0.0,0.0
0.544464111,0.026759926,0.99609554,-0.08412893,-0.20931251,0.08787682,0.97389233,0.9774827,-0.008452047,0.21084683,0.07396301,0.9768103,-0.20092571,-0.31087926,0.21402177,0.9260393,0.94756716,-0.0060290117,0.31949976,9.572006,-0.16758728,2.197876,9.58577,-0.08288574,2.067688,0.005340576,-0.02130127,0.0063934326,-112.21619,4.147339,13.41095,0,0.0,0.0,0.0,0.0
0.548858643,0.023937283,0.9971736,-0.07121763,-0.2094369,0.07465926,0.97496784,0.9775291,-0.008422482,0.21063206,0.0727657,0.97735345,-0.19870937,-0.3089671,0.21152619,0.9272519,0.948285,-0.006077473,0.3173619,9.600739,-0.07661438,2.0685883,9.586227,-0.082595825,2.0655823,0.010665894,-0.040481567,0.0063934326,-112.03766,3.6102295,12.892151,0,0.0,0.0,0.0,0.0
0.553222656,0.023958122,0.9971857,-0.0710399,-0.20919481,0.074487776,0.9750328,0.97758037,-0.008498778,0.21039066,0.06972912,0.97783655,-0.19741715,-0.30136117,0.20930079,0.9302551,0.95095706,-0.0053720074,0.3092763,9.567215,-0.13885498,2.015915,9.58667,-0.083343506,2.063202,0.005340576,-0.047927856,-0.004257202,-112.03766,3.6102295,12.892151,0,0.0,0.0,0.0,0.0
0.55758667,0.023940977,0.99717575,-0.0711861,-0.20897953,0.07462527,0.97506857,0.9776269,-0.008467657,0.2101759,0.06856608,0.9784031,-0.19500245,-0.29962993,0.20663428,0.9314097,0.95158845,-0.0054345434,0.30732697,9.528915,-0.13885498,2.221817,9.587128,-0.08303833,2.0610962,-0.0095825195,-0.052200317,0.009597778,-112.03766,3.6102295,12.892151,0,0.0,0.0,0.0,0.0
0.561950684,0.028768683,0.99514574,-0.094112776,-0.20815255,0.09805189,0.97316915,0.9776732,-0.008406984,0.20996296,0.06743514,0.9789508,-0.19263382,-0.29792395,0.20402229,0.93253213,0.9522047,-0.005495206,0.30541116,9.514557,-0.10055542,2.1020966,9.58757,-0.08244324,2.0590057,0.010665894,-0.06391907,-0.01171875,-112.03766,4.3273926,11.509705,0,0.0,0.0,0.0,0.0
0.566314697,0.028734012,0.9951159,-0.09443905,-0.2078913,0.09836146,0.9731938,0.9777298,-0.008330706,0.20970225,0.06647333,0.97938585,-0.19074738,-0.29621208,0.20192184,0.93353415,0.9528062,-0.005553442,0.30352834,9.667786,0.0,2.0781555,9.588165,-0.08169556,2.0564575,0.0063934326,-0.05432129,-0.015975952,-112.03766,4.3273926,11.509705,0,0.0,0.0,0.0,0.0
0.570678711,0.02872571,0.99510866,-0.09451715,-0.20764722,0.09843403,0.97323865,0.977782,-0.008330752,0.20945914,0.0655374,0.9798066,-0.18890148,-0.2945255,0.1998686,0.9345091,0.9533937,-0.0056089875,0.30167696,9.5767975,-0.04788208,2.0542145,9.588623,-0.08169556,2.054062,0.019180298,-0.05859375,-0.0053253174,-112.03766,4.3273926,11.509705,0,0.0,0.0,0.0,0.0
0.575042725,0.028696269,0.9950833,-0.0947942,-0.20738731,0.09869663,0.9732676,0.97783804,-0.00827003,0.20919985,0.0655374,0.9798066,-0.18890148,-0.2945255,0.1998686,0.9345091,0.9533937,-0.0056089875,0.30167696,9.5767975,-0.04788208,2.0542145,9.589218,-0.081100464,2.051529,0.019180298,-0.05859375,-0.0053253174,-112.03766,4.3273926,11.509705,0,0.0,0.0,0.0,0.0
0.579406738,0.020903654,0.99808675,-0.05818868,-0.2080562,0.061269924,0.97619617,0.9778936,-0.008299549,0.2089389,0.06373964,0.9806082,-0.18532328,-0.29122296,0.19589488,0.93638366,0.9545294,-0.0057143657,0.29806194,9.481033,-0.11012268,1.9967499,9.589813,-0.08139038,2.0489807,-0.01914978,-0.06071472,-0.019165039,-112.21619,3.0715942,12.373352,0,0.0,0.0,0.0,0.0
0.58404541,0.020881811,0.9980758,-0.05838405,-0.20778258,0.06145413,0.9762427,0.9779521,-0.008254526,0.20866603,0.06265954,0.9811366,-0.18287902,-0.28965807,0.19322966,0.93742234,0.955077,-0.00576607,0.2963018,9.653412,-0.03829956,1.9967499,9.590271,-0.080947876,2.04628,-0.010650635,-0.057525635,0.0021362305,-112.21619,3.0715942,12.373352,0,0.0,0.0,0.0,0.0
0.588684082,0.020849237,0.9980594,-0.05867541,-0.20752242,0.06173014,0.9762806,0.97800803,-0.0081782425,0.20840672,0.06265954,0.9811366,-0.18287902,-0.28965807,0.19322966,0.93742234,0.955077,-0.00576607,0.2963018,9.653412,-0.03829956,1.9967499,9.590866,-0.080200195,2.043747,-0.010650635,-0.057525635,0.0021362305,-112.21619,3.0715942,12.373352,0,0.0,0.0,0.0,0.0
0.593322754,0.01569102,0.9992804,-0.034532093,-0.20777532,0.037041117,0.977475,0.9780507,-0.008162662,0.20820703,0.060585726,0.9821378,-0.1781424,-0.2865877,0.18807176,0.9394129,0.95613647,-0.0058615925,0.29286304,9.528915,-0.17237854,2.063797,9.591309,-0.08004761,2.0417938,0.017044067,-0.053253174,-0.01171875,-110.961914,2.1759033,12.545776,0,0.0,0.0,0.0,0.0
0.597961426,0.015667163,0.99927354,-0.034741912,-0.20760742,0.037240002,0.9775032,0.97808677,-0.00810202,0.20804003,0.059449855,0.9827053,-0.17537393,-0.28511766,0.18508214,0.9404534,0.9566471,-0.005907614,0.29118973,9.567215,-0.03829956,2.0063324,9.591614,-0.079452515,2.0401459,-0.0010528564,-0.047927856,-0.014907837,-110.961914,2.1759033,12.545776,0,0.0,0.0,0.0,0.0
0.602600098,0.029484304,0.9945375,-0.10012953,-0.20591317,0.10406781,0.9730209,0.978126,-0.008070853,0.20785673,0.05834521,0.9832519,-0.17266022,-0.28366888,0.18215458,0.9414625,0.9571457,-0.005951503,0.2895458,9.600739,-0.07182312,1.8674622,9.592056,-0.07914734,2.0383606,0.010665894,-0.038345337,-0.007446289,-111.14044,4.5059204,12.028503,0,0.0,0.0,0.0,0.0
0.60723877,0.02947223,0.9945269,-0.1002371,-0.20586868,0.104170166,0.97301924,0.97813565,-0.008041368,0.2078121,0.057648383,0.983538,-0.17125939,-0.2821638,0.1806023,0.94221354,0.95763266,-0.00599389,0.28793025,9.610321,-0.009567261,1.9488678,9.592056,-0.07885742,2.0379028,0.0021362305,-0.026626587,-0.007446289,-111.14044,4.5059204,12.028503,0,0.0,0.0,0.0,0.0
0.611877442,0.029471518,0.9945264,-0.10024348,-0.2058506,0.10417612,0.9730226,0.9781396,-0.008041273,0.20779407,0.05697003,0.9838155,-0.16988663,-0.28068572,0.17908275,0.9429448,0.9581075,-0.0060348394,0.28634533,9.509766,-0.08139038,1.9440765,9.592209,-0.07885742,2.0377502,0.007461548,-0.01171875,-0.0063934326,-111.14044,4.5059204,12.028503,0,0.0,0.0,0.0,0.0
0.616485596,0.022977212,0.99732226,-0.06942772,-0.2066639,0.07268441,0.9757084,0.9781422,-0.008070858,0.20778063,0.056309655,0.9840852,-0.16853932,-0.27923477,0.17759328,0.94365704,0.95857036,-0.0060749683,0.284791,9.567215,-0.13406372,2.0063324,9.592209,-0.07914734,2.037613,0.005340576,-0.008514404,-0.01171875,-111.49902,3.4301758,12.373352,0,0.0,0.0,0.0,0.0
0.621124268,0.022965446,0.99731535,-0.06953184,-0.20661603,0.072783425,0.9757112,0.9781526,-0.008041251,0.20773284,0.05549159,0.9844585,-0.16661954,-0.27784556,0.17551067,0.94445634,0.9590216,-0.006114886,0.28326678,9.543274,-0.02394104,1.9153595,9.592361,-0.07885742,2.0371552,0.0032043457,-0.014907837,-0.0053253174,-111.49902,3.4301758,12.373352,0,0.0,0.0,0.0,0.0
0.62576294,0.022965062,0.99731517,-0.06953524,-0.20660113,0.072786555,0.97571427,0.9781558,-0.0080412775,0.20771797,0.054695576,0.98481977,-0.16473746,-0.27648038,0.17347094,0.9452335,0.9594618,-0.0061534136,0.28177145,9.62468,-0.07661438,2.0111237,9.592361,-0.07885742,2.0370026,-0.008514404,0.012771606,-0.0095825195,-111.49902,3.4301758,12.373352,0,0.0,0.0,0.0,0.0
0.630401611,0.03285827,0.99267596,-0.116252154,-0.20523205,0.12053771,0.97126216,0.9781616,-0.008055329,0.20768963,0.053921055,0.98516965,-0.16289037,-0.2751395,0.17147134,0.9459894,0.959891,-0.006191171,0.28030497,9.490601,-0.10055542,1.9345093,9.592361,-0.07899475,2.0367126,0.004272461,0.008529663,-0.0010528564,-111.67908,5.0445557,11.509705,0,0.0,0.0,0.0,0.0
0.635040283,0.03286219,0.9926802,-0.11621597,-0.20519872,0.12050285,0.9712737,0.9781685,-0.008070817,0.20765668,0.05343037,0.98534554,-0.161986,-0.27377123,0.17045665,0.9465695,0.9603096,-0.0062284544,0.27886683,9.591171,-0.1197052,1.9488678,9.592514,-0.07914734,2.0364075,0.0010681152,0.014907837,-0.017044067,-111.67908,5.0445557,11.509705,0,0.0,0.0,0.0,0.0
0.639678955,0.03285765,0.9926754,-0.11625796,-0.20521714,0.120543145,0.97126484,0.9781648,-0.008055355,0.20767476,0.052952178,0.98551697,-0.16109774,-0.27242833,0.16946138,0.9471355,0.9607179,-0.0062653013,0.27745607,9.600739,-0.04788208,2.063797,9.592361,-0.07899475,2.03656,0.0021362305,0.004257202,0.0021362305,-111.67908,5.0445557,11.509705,0,0.0,0.0,0.0,0.0
0.644317627,0.024653537,0.9967031,-0.07729875,-0.20639464,0.080731064,0.97513276,0.9781583,-0.0080864215,0.2077045,0.052486125,0.9856838,-0.16022687,-0.27111137,0.16848662,0.9476871,0.96111596,-0.006301102,0.27607328,9.557648,-0.14364624,2.1068878,9.592361,-0.07929993,2.0368652,-0.011703491,0.008529663,-0.010650635,-113.29193,3.7887573,12.719727,0,0.0,0.0,0.0,0.0
0.648956299,0.024653928,0.9967033,-0.07729537,-0.20640807,0.08072795,0.97513014,0.97815543,-0.008086398,0.2077179,0.05181662,0.9859802,-0.15861313,-0.2698616,0.1667421,0.9483521,0.96150386,-0.006336809,0.27471823,9.567215,-0.0909729,2.087738,9.592361,-0.07929993,2.0370026,0.0032043457,-0.0010681152,-0.007446289,-113.29193,3.7887573,12.719727,0,0.0,0.0,0.0,0.0
0.653594971,0.024652675,0.99670255,-0.07730629,-0.20636477,0.08073801,0.9751384,0.9781645,-0.008086473,0.2076747,0.051164888,0.9862676,-0.15702954,-0.26863506,0.16503188,0.9489993,0.9618822,-0.0063718013,0.27338994,9.533707,-0.07182312,1.9249268,9.592361,-0.07929993,2.03656,-0.006378174,-0.014907837,0.0,-113.29193,3.7887573,12.719727,0,0.0,0.0,0.0,0.0
0.657806397,0.026629837,0.99588096,-0.08667172,-0.20607229,0.090309165,0.9743606,0.9781744,-0.008086426,0.20762837,0.05053034,0.9865465,-0.15547597,-0.26743037,0.16335562,0.94962937,0.96225137,-0.0064060953,0.27208692,9.595947,-0.13406372,2.1835022,9.592514,-0.07929993,2.0361176,0.0010681152,-0.0021209717,0.009597778,-110.961914,3.968811,11.509705,0,0.0,0.0,0.0,0.0
0.661895752,0.026629837,0.99588096,-0.08667172,-0.20607229,0.090309165,0.9743606,0.9781744,-0.008086426,0.20762837,0.04996354,0.9867858,-0.1541343,-0.2662374,0.16190204,0.9502133,0.9626117,-0.006439702,0.27080852,9.58638,-0.10533142,2.0254822,9.592514,-0.07929993,2.0361176,0.019180298,-0.0234375,-0.0021209717,-110.961914,3.968811,11.509705,0,0.0,0.0,0.0,0.0
0.665985108,0.026639998,0.99588895,-0.08657651,-0.20605712,0.090217985,0.9743721,0.9781772,-0.008117569,0.20761341,0.049411535,0.9870184,-0.15281792,-0.26506686,0.16047718,0.9507822,0.9629632,-0.006472637,0.26955527,9.62468,-0.13885498,1.9919739,9.592514,-0.0796051,2.035965,0.009597778,-0.01171875,0.0,-110.961914,3.968811,11.509705,0,0.0,0.0,0.0,0.0
0.670074463,0.02423375,0.99686724,-0.075288944,-0.20632021,0.078676924,0.97531635,0.9781844,-0.00810194,0.2075805,0.048873965,0.9872445,-0.15152465,-0.26391783,0.15907879,0.95133656,0.9633061,-0.0065055354,0.2683262,9.672562,-0.04309082,1.9919739,9.592667,-0.079452515,2.0356598,-0.003189087,-0.007461548,-0.013839722,-111.67908,3.6102295,11.854553,0,0.0,0.0,0.0,0.0
0.674163819,0.02422455,0.9968611,-0.075373724,-0.20618285,0.078756824,0.97533894,0.9782136,-0.008086378,0.2074435,0.048289064,0.9875006,-0.1500353,-0.2628012,0.15747917,0.9519116,0.9636408,-0.006537464,0.26712087,9.524124,-0.0909729,2.0302734,9.592957,-0.07929993,2.034317,0.004272461,-0.007461548,-0.007446289,-111.67908,3.6102295,11.854553,0,0.0,0.0,0.0,0.0
0.678253174,0.024215464,0.99685496,-0.07545749,-0.20604832,0.078835785,0.975361,0.97824216,-0.008070925,0.20730934,0.04771914,0.987749,-0.148576,-0.26170248,0.1559128,0.9524721,0.9639682,-0.0065684426,0.26593634,9.557648,-0.12927246,2.087738,9.593109,-0.07914734,2.0329742,0.0032043457,-0.031951904,-0.004257202,-111.67908,3.6102295,11.854553,0,0.0,0.0,0.0,0.0
0.682342529,0.029530272,0.9944663,-0.100820675,-0.20525782,0.10474819,0.97308636,0.9782623,-0.008041271,0.2072152,0.04716379,0.98798966,-0.14714605,-0.26062164,0.1543789,0.95301807,0.9642883,-0.006598492,0.26477262,9.600739,-0.13885498,2.087738,9.593414,-0.07885742,2.032074,0.0021362305,-0.036209106,-0.0095825195,-111.857605,4.5059204,11.682129,0,0.0,0.0,0.0,0.0
0.686431885,0.029525183,0.9944617,-0.10086768,-0.20512022,0.104792,0.9731107,0.97829133,-0.008041266,0.20707817,0.04446595,0.9882063,-0.14652985,-0.25660715,0.15305178,0.95432067,0.9654924,-0.004834173,0.2603864,9.4379425,-0.12927246,1.9105682,9.593704,-0.07885742,2.0307312,0.0010681152,-0.025558472,-0.013839722,-111.857605,4.5059204,11.682129,0,0.0,0.0,0.0,0.0
0.69052124,0.029532291,0.99446815,-0.100802034,-0.20518152,0.10472974,0.9731045,0.9782783,-0.008055291,0.20713939,0.044117667,0.98835456,-0.14563276,-0.25559404,0.15208969,0.95474625,0.9657771,-0.004898315,0.2593274,9.533707,-0.10533142,2.15477,9.593552,-0.07899475,2.0313263,0.010665894,-0.022369385,-0.0021209717,-111.857605,4.5059204,11.682129,0,0.0,0.0,0.0,0.0
0.694610596,0.026418427,0.9959322,-0.08614642,-0.20551343,0.089746736,0.9745306,0.97829765,-0.0080413185,0.20704839,0.043778446,0.98849905,-0.14475168,-0.25460166,0.15114558,0.9551613,0.9660546,-0.004961455,0.25829044,9.572006,-0.11491394,2.0207062,9.593704,-0.07885742,2.030426,0.010665894,-0.020233154,0.0021362305,-110.961914,3.968811,11.854553,0,0.0,0.0,0.0,0.0
0.698699951,0.026426287,0.99593806,-0.086074814,-0.2054368,0.08967767,0.974553,0.97831357,-0.008070885,0.20697221,0.043370966,0.98868495,-0.14359994,-0.25363982,0.14992249,0.9556098,0.9663259,-0.0050230525,0.25727218,9.519333,-0.13885498,2.1404114,9.593857,-0.07914734,2.0296783,-0.013824463,-0.019165039,-0.007446289,-110.961914,3.968811,11.854553,0,0.0,0.0,0.0,0.0
0.702789307,0.026430631,0.9959414,-0.08603526,-0.20540364,0.08963958,0.9745635,0.97832036,-0.008086372,0.20693925,0.04297397,0.9888659,-0.14246894,-0.25269473,0.14872228,0.9560476,0.9665912,-0.0050840094,0.2562724,9.543274,-0.10533142,1.9680328,9.594009,-0.07929993,2.0293732,-0.013824463,-0.028762817,-0.0021209717,-110.961914,3.968811,11.854553,0,0.0,0.0,0.0,0.0
0.706878662,0.021820001,0.99769557,-0.06424464,-0.20594388,0.06736726,0.9762421,0.9783205,-0.0080708135,0.20693927,0.042587217,0.9890419,-0.14135891,-0.25176716,0.14754508,0.95647466,0.96685034,-0.0051440573,0.25529185,9.600739,-0.04788208,2.0254822,9.594009,-0.07914734,2.0293732,0.0021362305,-0.014907837,0.007461548,-112.75482,3.251648,12.200928,0,0.0,0.0,0.0,0.0
0.710968018,0.021826958,0.99769956,-0.06418141,-0.20600678,0.06730735,0.97623307,0.9783071,-0.008086392,0.20700197,0.042098008,0.9892784,-0.13984282,-0.25087625,0.14594926,0.95695347,0.9671033,-0.0052025933,0.25433064,9.490601,-0.11491394,2.1595612,9.593857,-0.07929993,2.0299835,0.0138549805,0.007461548,-0.008514404,-112.75482,3.251648,12.200928,0,0.0,0.0,0.0,0.0
0.715637207,0.021830527,0.9977015,-0.06414896,-0.205929,0.0672757,0.97625166,0.97832346,-0.008101958,0.20692435,0.041621633,0.9895078,-0.13835451,-0.2500033,0.14438373,0.95741934,0.96735,-0.0052602696,0.2533897,9.706085,-0.10533142,2.0781555,9.594009,-0.079452515,2.0292206,0.009597778,0.0063934326,-0.0053253174,-112.75482,3.251648,12.200928,0,0.0,0.0,0.0,0.0
0.720306397,0.021836314,0.9977048,-0.06409635,-0.20594393,0.06722554,0.97625196,0.9783201,-0.0081174895,0.20693919,0.041621633,0.9895078,-0.13835451,-0.2500033,0.14438373,0.95741934,0.96735,-0.0052602696,0.2533897,9.706085,-0.10533142,2.0781555,9.594009,-0.0796051,2.0293732,0.009597778,0.0063934326,-0.0053253174,-112.75482,3.251648,12.200928,0,0.0,0.0,0.0,0.0
0.725006104,0.021846296,0.9977104,-0.0640056,-0.20592904,0.06713868,0.9762611,0.97832304,-0.008147078,0.20692426,0.040705446,0.98994625,-0.1354601,-0.24830359,0.14134176,0.95831513,0.96782666,-0.005373416,0.2515606,9.581589,-0.15800476,2.0111237,9.594009,-0.07989502,2.0292206,0.0010681152,0.010635376,-0.0010528564,-112.75482,3.251648,12.200928,0,0.0,0.0,0.0,0.0
0.729675293,0.021842724,0.99770844,-0.06403809,-0.20600681,0.06717038,0.97624254,0.9783068,-0.0081315115,0.2070019,0.040265005,0.9901558,-0.13405271,-0.24747734,0.13986395,0.95874554,0.9680567,-0.00542889,0.25067276,9.619888,-0.10055542,1.9967499,9.593857,-0.07974243,2.0299835,0.0063934326,0.017028809,-0.014907837,-112.75482,3.251648,12.200928,0,0.0,0.0,0.0,0.0
0.734375,0.0251213,0.99651897,-0.079491474,-0.20566498,0.082967445,0.9750991,0.9782999,-0.008147144,0.2070333,0.039835963,0.99035895,-0.13267328,-0.24666825,0.13841617,0.9591641,0.9682809,-0.005482943,0.24980406,9.557648,-0.09576416,2.087738,9.593704,-0.07989502,2.0302734,-0.008514404,0.022354126,-0.0053253174,-111.14044,3.7887573,12.373352,0,0.0,0.0,0.0,0.0
0.73904419,0.025125876,0.996522,-0.079451315,-0.20563336,0.08292884,0.97510904,0.9783065,-0.008162629,0.20700184,0.039496113,0.99051255,-0.13162428,-0.24586244,0.13731077,0.9595298,0.9684997,-0.005536227,0.24895307,9.600739,-0.12449646,1.9680328,9.593857,-0.08004761,2.0299835,-0.004257202,0.0053253174,0.009597778,-111.14044,3.7887573,12.373352,0,0.0,0.0,0.0,0.0
0.743743897,0.025136555,0.9965293,-0.07935765,-0.20561826,0.082839265,0.9751199,0.9783094,-0.008193773,0.2069869,0.03916489,0.9906619,-0.13059488,-0.24507159,0.13622656,0.95988655,0.9687136,-0.005588756,0.2481184,9.514557,-0.15322876,1.9584503,9.593857,-0.08035278,2.029831,-0.008514404,0.008529663,-0.012771606,-111.14044,3.7887573,12.373352,0,0.0,0.0,0.0,0.0
0.748413086,0.025142912,0.9965316,-0.079326145,-0.20560302,0.082809635,0.9751256,0.97831243,-0.008207802,0.20697197,0.03884213,0.9908074,-0.12958364,-0.24429555,0.13516217,0.96023476,0.96892256,-0.0056408565,0.24729984,9.538498,-0.13885498,1.9967499,9.593857,-0.08049011,2.0296783,0.0032043457,0.020233154,-0.003189087,-112.21619,3.7887573,12.028503,0,0.0,0.0,0.0,0.0
0.753112793,0.02516368,0.99654603,-0.07913689,-0.20575553,0.082630046,0.97510874,0.97827995,-0.008254469,0.20712417,0.038527556,0.9909489,-0.12859139,-0.24353412,0.13411829,0.96057445,0.96912676,-0.0056921956,0.24649715,9.548065,-0.16758728,2.1020966,9.593552,-0.080947876,2.0311737,0.005340576,0.018096924,-0.007446289,-112.21619,3.7887573,12.028503,0,0.0,0.0,0.0,0.0
0.757781983,0.02517496,0.9965539,-0.07903418,-0.20577034,0.082531996,0.97511387,0.9782765,-0.008285561,0.20713902,0.03822131,0.9910871,-0.12761465,-0.24279054,0.13309163,0.9609055,0.9693254,-0.005743441,0.24571349,9.615112,-0.12927246,2.0925293,9.593552,-0.08125305,2.0313263,-0.0095825195,0.028747559,0.0,-112.21619,3.7887573,12.028503,0,0.0,0.0,0.0,0.0
0.76248169,0.021945156,0.9977171,-0.06386843,-0.20618488,0.067027085,0.9762147,0.9782669,-0.008254479,0.20718507,0.037922874,0.9912216,-0.12665483,-0.24206151,0.13208337,0.96122843,0.9695195,-0.005794284,0.2449456,9.500183,-0.01914978,2.1020966,9.593414,-0.080947876,2.0317688,-0.011703491,0.014907837,-0.012771606,-111.320496,3.251648,12.545776,0,0.0,0.0,0.0,0.0
0.767150879,0.021941809,0.99771523,-0.06389768,-0.2062761,0.06705577,0.9761935,0.97824776,-0.008238888,0.20727612,0.0375563,0.9913933,-0.12541467,-0.24135922,0.13078673,0.96158236,0.9697089,-0.0058434885,0.24419378,9.667786,-0.11012268,2.0254822,9.593262,-0.08079529,2.032669,-0.0053253174,0.022354126,0.0,-111.320496,3.251648,12.545776,0,0.0,0.0,0.0,0.0
0.771850586,0.02193253,0.9977102,-0.06397869,-0.20635238,0.067133754,0.97617203,0.97823197,-0.008207766,0.2073523,0.037199013,0.99155974,-0.124199286,-0.24067222,0.12951648,0.9619264,0.9698934,-0.0058913967,0.24345878,9.524124,-0.03829956,2.0111237,9.593109,-0.08049011,2.0334167,0.009597778,0.024490356,-0.0053253174,-111.320496,3.251648,12.545776,0,0.0,0.0,0.0,0.0
0.776519776,0.034915507,0.9915288,-0.12510592,-0.20466918,0.12962326,0.97021043,0.9782083,-0.008270069,0.20746125,0.036850598,0.9917211,-0.12300912,-0.23999982,0.12827297,0.96226096,0.9700732,-0.005937724,0.24273983,9.572006,-0.08618164,2.0254822,9.592804,-0.081100464,2.0344696,0.026641846,0.020233154,0.0021362305,-110.961914,5.403137,11.854553,0,0.0,0.0,0.0,0.0
0.780944824,0.034906536,0.9915191,-0.1251855,-0.20471327,0.12969965,0.970191,0.9781994,-0.008238873,0.20750448,0.036812924,0.99171734,-0.12305086,-0.23929606,0.12830001,0.9624326,0.9702486,-0.0059843706,0.24203718,9.581589,-0.0143585205,2.1260376,9.592804,-0.08079529,2.034912,0.012786865,0.026626587,0.013839722,-110.961914,5.403137,11.854553,0,0.0,0.0,0.0,0.0
0.785339356,0.03491133,0.9915243,-0.12514293,-0.20469794,0.12965885,0.97019964,0.9782024,-0.008254459,0.20748955,0.036775872,0.99171346,-0.123093426,-0.23860729,0.1283281,0.9625998,0.9704195,-0.0060294615,0.24134943,9.509766,-0.11012268,1.9776001,9.592804,-0.080947876,2.0347595,0.010665894,0.018096924,-0.0010528564,-110.961914,5.403137,11.854553,0,0.0,0.0,0.0,0.0
0.789764404,0.029920874,0.9943716,-0.1016362,-0.2055156,0.105629325,0.9729367,0.9781963,-0.008223289,0.20751938,0.03673956,0.99170977,-0.12313428,-0.23793168,0.12835479,0.96276355,0.97058684,-0.0060739615,0.24067488,9.433151,-0.004776001,2.087738,9.592804,-0.0806427,2.0350647,-0.003189087,0.0021362305,-0.015975952,-110.0647,4.5059204,11.682129,0,0.0,0.0,0.0,0.0
0.794158936,0.029921576,0.9943722,-0.10162985,-0.2055334,0.10562341,0.9729336,0.9781926,-0.008223374,0.20753713,0.036588557,0.9917681,-0.12270831,-0.23728794,0.12790088,0.9629828,0.97075003,-0.006116948,0.24001431,9.528915,-0.10055542,2.087738,9.592667,-0.0806427,2.0352173,-0.012756348,0.0010681152,-0.014907837,-110.0647,4.5059204,11.682129,0,0.0,0.0,0.0,0.0
0.798583985,0.029921023,0.9943717,-0.10163488,-0.20551845,0.10562808,0.9729362,0.9781957,-0.008223401,0.20752224,0.036441177,0.99182516,-0.12229062,-0.23665719,0.12745595,0.963197,0.9709096,-0.006159077,0.2393672,9.567215,-0.08139038,1.9776001,9.592667,-0.0806427,2.0350647,0.0010681152,-0.010650635,-0.010650635,-110.0647,4.5059204,11.682129,0,0.0,0.0,0.0,0.0
0.802978516,0.027264435,0.995673,-0.08883703,-0.20588952,0.09255794,0.97418815,0.9781953,-0.008270077,0.20752215,0.03629729,0.99188083,-0.12188119,-0.23603867,0.12701997,0.9634063,0.9710655,-0.006200364,0.23873273,9.552856,-0.1771698,2.039856,9.592667,-0.081100464,2.0350647,-0.0010528564,-0.017044067,-0.0021209717,-111.14044,4.147339,12.373352,0,0.0,0.0,0.0,0.0
0.807373047,0.027270498,0.9956775,-0.0887841,-0.2059043,0.09250754,0.97418976,0.97819203,-0.008285609,0.20753701,0.03609587,0.9919684,-0.12122643,-0.23544176,0.1263321,0.9636427,0.9712179,-0.0062417584,0.23811086,9.600739,-0.1197052,2.0494232,9.592667,-0.08125305,2.0352173,0.007461548,-0.012786865,-0.0095825195,-111.14044,4.147339,12.373352,0,0.0,0.0,0.0,0.0
0.811798096,0.027277358,0.99568266,-0.08872419,-0.2057949,0.092449404,0.9742183,0.9782148,-0.008315115,0.2074282,0.035899356,0.9920539,-0.120583355,-0.23485672,0.12565683,0.9638738,0.9713668,-0.0062826355,0.23750153,9.514557,-0.16279602,2.1404114,9.592957,-0.08154297,2.0341644,-0.0095825195,-0.010650635,-0.0095825195,-111.14044,4.147339,12.373352,0,0.0,0.0,0.0,0.0
0.816192627,0.024553807,0.9968092,-0.075950906,-0.20603047,0.079388574,0.9753199,0.9782375,-0.008299616,0.20732236,0.035707634,0.9921374,-0.11995188,-0.23428099,0.124994025,0.96410006,0.971513,-0.0063232854,0.23690218,9.44751,-0.1197052,2.0781555,9.593109,-0.08139038,2.0331116,-0.004257202,-0.031951904,-0.003189087,-110.961914,3.6102295,11.509705,0,0.0,0.0,0.0,0.0
0.820617676,0.024550395,0.99680686,-0.07598306,-0.20590764,0.079418294,0.9753434,0.97826344,-0.008299572,0.20719989,0.034243487,0.99215835,-0.12020485,-0.22962075,0.12486835,0.96523684,0.9726776,-0.0054515474,0.23209609,9.5767975,-0.0909729,2.0207062,9.593414,-0.08139038,2.0319214,0.007461548,-0.03302002,-0.0053253174,-110.961914,3.6102295,11.509705,0,0.0,0.0,0.0,0.0
0.825012207,0.024546025,0.99680376,-0.07602422,-0.20592259,0.07945778,0.97533697,0.97826034,-0.008285542,0.2072148,0.034027718,0.9922717,-0.11932698,-0.22915241,0.12396156,0.965465,0.9727956,-0.0055085085,0.23159958,9.567215,-0.13885498,1.9201355,9.593414,-0.08125305,2.032074,0.0010681152,-0.024505615,-0.0021209717,-110.961914,3.6102295,11.509705,0,0.0,0.0,0.0,0.0
0.829437256,0.024536913,0.9967975,-0.07611011,-0.20578521,0.07953878,0.97535944,0.97828954,-0.00826998,0.2070778,0.034027718,0.9922717,-0.11932698,-0.22915241,0.12396156,0.965465,0.9727956,-0.0055085085,0.23159958,9.567215,-0.13885498,1.9201355,9.593704,-0.081100464,2.0307312,0.0010681152,-0.024505615,-0.0021209717,-110.961914,3.6102295,11.509705,0,0.0,0.0,0.0,0.0
0.833831787,0.030924445,0.993833,-0.10648753,-0.20490697,0.11057928,0.9725149,0.97829276,-0.008254447,0.20706291,0.033610933,0.9924888,-0.11762765,-0.22823812,0.122206375,0.96590525,0.97302496,-0.005617864,0.23063125,9.5767975,-0.04788208,2.0111237,9.593704,-0.080947876,2.0305786,0.007461548,-0.024505615,-0.010650635,-110.961914,4.685974,11.509705,0,0.0,0.0,0.0,0.0
0.838226319,0.030923871,0.9938324,-0.10649285,-0.204892,0.110584244,0.9725175,0.9782959,-0.008254473,0.20704803,0.033551715,0.9925171,-0.11740565,-0.22777312,0.12197397,0.9660444,0.973136,-0.0056705964,0.23016113,9.557648,-0.10055542,1.9728088,9.593704,-0.080947876,2.030426,0.0010681152,-0.012786865,-0.004257202,-110.961914,4.685974,11.509705,0,0.0,0.0,0.0,0.0
0.842651367,0.01894317,0.9985725,-0.049940355,-0.20626663,0.052777976,0.9770714,0.97831243,-0.008207802,0.20697197,0.03349389,0.9925447,-0.117188156,-0.2273171,0.12174629,0.9661805,0.9732446,-0.0057222745,0.22970015,9.552856,-0.1197052,1.9105682,9.593857,-0.08049011,2.0296783,0.0138549805,0.004257202,-0.013839722,-112.21619,2.7130127,11.682129,0,0.0,0.0,0.0,0.0
0.847045899,0.018938417,0.9985704,-0.049985524,-0.20626654,0.052821185,0.9770691,0.97831255,-0.008193799,0.206972,0.033173107,0.99271214,-0.11585403,-0.22690734,0.12037149,0.966449,0.97335124,-0.0057719853,0.22924678,9.572006,-0.07182312,2.0207062,9.593857,-0.08035278,2.0296783,-0.013824463,-0.0063934326,-0.020233154,-112.21619,2.7130127,11.682129,0,0.0,0.0,0.0,0.0
0.851470947,0.018948456,0.998575,-0.049890164,-0.20626676,0.05272996,0.977074,0.9783123,-0.008223361,0.20697196,0.032859836,0.9928742,-0.11454705,-0.22650528,0.11902487,0.9667101,0.97345555,-0.005820422,0.2288024,9.572006,-0.0909729,2.0302734,9.593857,-0.0806427,2.0296783,-0.018081665,-0.0021209717,-0.013839722,-112.21619,2.7130127,11.682129,0,0.0,0.0,0.0,0.0
0.855865479,0.018948456,0.998575,-0.049890164,-0.20626676,0.05272996,0.977074,0.9783123,-0.008223361,0.20697196,0.032859836,0.9928742,-0.11454705,-0.22650528,0.11902487,0.9667101,0.97345555,-0.005820422,0.2288024,9.572006,-0.0909729,2.0302734,9.593857,-0.0806427,2.0296783,-0.018081665,-0.0021209717,-0.013839722,-112.21619,2.7130127,11.682129,0,0.0,0.0,0.0,0.0
0.860290528,0.02174181,0.9977723,-0.06307075,-0.20593013,0.06620232,0.97632486,0.9783252,-0.008238898,0.2069107,0.03225554,0.9931839,-0.11200579,-0.22572361,0.116407566,0.9672116,0.97365725,-0.005915579,0.22793984,9.595947,-0.12449646,1.8722534,9.594009,-0.08079529,2.0290833,-0.014892578,0.018096924,0.0,-113.83057,3.251648,12.200928,0,0.0,0.0,0.0,0.0
0.864685059,0.02174181,0.9977723,-0.06307075,-0.20593013,0.06620232,0.97632486,0.9783252,-0.008238898,0.2069107,0.032025017,0.99330056,-0.1110337,-0.22533405,0.11540597,0.9674224,0.9737551,-0.005962046,0.2275203,9.639053,-0.08139038,2.0207062,9.594009,-0.08079529,2.0290833,-0.0010528564,0.0032043457,-0.0063934326,-113.83057,3.251648,12.200928,0,0.0,0.0,0.0,0.0
0.86907959,0.019741906,0.99838,-0.053361673,-0.20614666,0.056289967,0.9769006,0.9783219,-0.0082855495,0.206924,0.03179989,0.9934138,-0.11008073,-0.22495195,0.11442425,0.9676279,0.9738508,-0.0060075833,0.22710906,9.615112,-0.20111084,2.0925293,9.594009,-0.08125305,2.0292206,-0.0095825195,0.010635376,-0.0063934326,-112.39624,2.8930664,12.545776,0,0.0,0.0,0.0,0.0
0.873504639,0.019721065,0.9983706,-0.053546216,-0.20620924,0.05646675,0.9768772,0.9783091,-0.008223334,0.20698684,0.031536367,0.9935464,-0.10895415,-0.22458367,0.11326478,0.9678498,0.97394437,-0.006053143,0.22670627,9.524124,-0.004776001,1.953659,9.593857,-0.0806427,2.029831,-0.004257202,0.022354126,-0.007446289,-112.39624,2.8930664,12.545776,0,0.0,0.0,0.0,0.0
0.87789917,0.019710254,0.99836576,-0.053641945,-0.20619424,0.05655806,0.9768753,0.97831255,-0.008193799,0.206972,0.031278703,0.99367464,-0.107853375,-0.22422366,0.11213179,0.9680652,0.9740356,-0.006096547,0.2263127,9.595947,-0.01914978,1.9680328,9.593857,-0.08035278,2.0296783,0.028762817,0.020233154,-0.003189087,-112.39624,2.8930664,12.545776,0,0.0,0.0,0.0,0.0
0.882324219,0.02179441,0.9977463,-0.0634615,-0.20595181,0.06659573,0.9762935,0.97831947,-0.00820773,0.20693906,0.031026844,0.99379885,-0.10677624,-0.2238702,0.11102319,0.9682747,0.97412497,-0.0061384924,0.22592665,9.591171,-0.12927246,1.9584503,9.594009,-0.08049011,2.0293732,-0.0053253174,0.008529663,0.004272461,-111.320496,3.251648,12.892151,0,0.0,0.0,0.0,0.0
0.88671875,0.02181157,0.99775517,-0.06331556,-0.20595492,0.066456504,0.97630227,0.97831833,-0.008254531,0.20694211,0.030825991,0.99389726,-0.10591503,-0.22351678,0.11013649,0.96845764,0.9742125,-0.0061798776,0.22554779,9.500183,-0.1819458,2.0254822,9.593857,-0.080947876,2.0293732,0.008529663,-0.003189087,-0.0010528564,-111.320496,3.251648,12.892151,0,0.0,0.0,0.0,0.0
0.891143799,0.02181797,0.99775845,-0.06326115,-0.20598479,0.06640485,0.97629946,0.97831196,-0.008270037,0.20697188,0.030630093,0.9939932,-0.10506802,-0.22317019,0.10926475,0.96863633,0.9742981,-0.006221371,0.22517642,9.504974,-0.11491394,2.0590057,9.593857,-0.081100464,2.0296783,-0.004257202,0.0,-0.010650635,-111.320496,3.251648,12.892151,0,0.0,0.0,0.0,0.0
0.89553833,0.02723841,0.99564314,-0.08917809,-0.2053665,0.09288186,0.97426766,0.978306,-0.008223307,0.20700173,0.030438844,0.9940866,-0.10423658,-0.22283088,0.10840928,0.9688105,0.97438174,-0.0062623443,0.22481304,9.552856,-0.06703186,2.1404114,9.593857,-0.0806427,2.0299835,0.0,0.007461548,-0.0021209717,-112.21619,4.147339,12.028503,0,0.0,0.0,0.0,0.0
0.899963379,0.02724988,0.99565214,-0.08907418,-0.20538287,0.09278268,0.9742736,0.9783022,-0.008254526,0.20701823,0.030369353,0.9941202,-0.10393643,-0.22248282,0.10809888,0.9689252,0.97446346,-0.0063015637,0.22445755,9.648621,-0.19631958,2.0925293,9.593704,-0.080947876,2.0301208,0.030899048,-0.0010681152,-0.0053253174,-112.21619,4.147339,12.028503,0,0.0,0.0,0.0,0.0
0.90435791,0.027261252,0.9956611,-0.0889712,-0.2053976,0.092684396,0.97428,0.97829884,-0.008285617,0.20703308,0.030301701,0.9941532,-0.103640296,-0.22214198,0.107792854,0.96903753,0.9745434,-0.0063406234,0.22410946,9.5767975,-0.12927246,2.0733643,9.593704,-0.08125305,2.0302734,0.015991211,-0.007461548,0.0,-112.21619,4.147339,12.028503,0,0.0,0.0,0.0,0.0
0.908752442,0.018863421,0.9986081,-0.049254283,-0.20630619,0.052090503,0.97709996,0.97830564,-0.008269983,0.20700166,0.030235779,0.9941856,-0.10334786,-0.22180824,0.10749086,0.9691475,0.9746215,-0.0063795233,0.22376864,9.62468,-0.07182312,1.9632416,9.593857,-0.081100464,2.0299835,0.005340576,0.0021362305,-0.01171875,-112.21619,2.7130127,12.028503,0,0.0,0.0,0.0,0.0
0.91317749,0.018854056,0.998604,-0.049340725,-0.20638224,0.052173786,0.9770794,0.9782898,-0.008238862,0.20707785,0.0299907,0.9943043,-0.10227224,-0.22150502,0.106385484,0.9693388,0.974698,-0.0064173327,0.22343397,9.58638,-0.004776001,2.197876,9.593704,-0.08079529,2.0307312,-0.0010528564,-0.018112183,-0.004257202,-112.21619,2.7130127,12.028503,0,0.0,0.0,0.0,0.0
0.917572022,0.018832259,0.9985945,-0.049541928,-0.20633712,0.052365758,0.97707874,0.9782997,-0.008178262,0.20703326,0.029751152,0.99441916,-0.101219624,-0.22120912,0.10530381,0.9695244,0.9747725,-0.0064537637,0.22310752,9.58638,-0.04788208,2.0302734,9.593704,-0.080200195,2.0302734,-0.0010528564,-0.013839722,-0.014907837,-112.21619,2.7130127,12.028503,0,0.0,0.0,0.0,0.0
0.92199707,0.022135392,0.9976324,-0.06511332,-0.20600955,0.0682831,0.97616476,0.9782996,-0.008193822,0.20703325,0.029516611,0.99453026,-0.100191735,-0.22091796,0.104247384,0.969705,0.97484565,-0.0064882534,0.2227866,9.610321,-0.12449646,2.015915,9.593704,-0.08035278,2.0302734,0.030899048,-0.008514404,-0.008514404,-111.67908,3.251648,11.854553,0,0.0,0.0,0.0,0.0
0.926391602,0.022145594,0.9976383,-0.06501884,-0.20600957,0.06819276,0.97617096,0.9782993,-0.008223383,0.20703319,0.029358096,0.994605,-0.09949356,-0.22062291,0.10352934,0.96984905,0.97491723,-0.0065223654,0.22247207,9.548065,-0.04788208,2.1308289,9.593704,-0.0806427,2.0302734,0.010665894,-0.003189087,0.0053253174,-111.67908,3.251648,11.854553,0,0.0,0.0,0.0,0.0
0.930816651,0.022154149,0.9976432,-0.06493957,-0.20591834,0.0681162,0.97619545,0.97831833,-0.008254531,0.20694211,0.029203335,0.99467796,-0.09880722,-0.22033362,0.10282371,0.9699899,0.97498727,-0.0065563857,0.2221638,9.696503,-0.11491394,2.0925293,9.593857,-0.080947876,2.0293732,-0.024475098,-0.0053253174,0.004272461,-111.67908,3.251648,11.854553,0,0.0,0.0,0.0,0.0
0.935211182,0.022146162,0.9976386,-0.06501358,-0.20581053,0.06818607,0.97621346,0.9783413,-0.008238902,0.20683458,0.029052183,0.9947492,-0.098133,-0.22004811,0.10213072,0.9701279,0.9750563,-0.006590349,0.22185981,9.538498,-0.17237854,2.039856,9.594162,-0.08079529,2.0283356,-0.004257202,-0.024505615,0.004272461,-111.67908,3.251648,11.854553,0,0.0,0.0,0.0,0.0
0.939605713,0.022147294,0.9976393,-0.065003075,-0.20585695,0.0681764,0.9762043,0.9783314,-0.008238951,0.2068809,0.02890424,0.99481833,-0.09747355,-0.21976621,0.10145284,0.97026294,0.97512424,-0.0066233203,0.22155987,9.528915,-0.0622406,2.1499786,9.594009,-0.08079529,2.028778,-0.015960693,-0.026626587,-0.017044067,-111.67908,3.251648,11.854553,0,0.0,0.0,0.0,0.0
0.944030762,0.022137439,0.9976335,-0.06509433,-0.20567161,0.06826211,0.9762374,0.97837067,-0.008223341,0.20669605,0.028759697,0.9948856,-0.096826985,-0.21949069,0.100788325,0.97039455,0.9751906,-0.006655633,0.22126676,9.58638,-0.11012268,1.8818359,9.594452,-0.0806427,2.0269775,0.005340576,-0.0053253174,0.0010681152,-111.67908,3.251648,11.854553,0,0.0,0.0,0.0,0.0
0.948425293,0.019857744,0.9983232,-0.054372925,-0.2058272,0.05730076,0.9769093,0.9783869,-0.008207787,0.20661995,0.028618116,0.994951,-0.09619502,-0.21921687,0.100138724,0.97052366,0.9752563,-0.0066869874,0.22097585,9.509766,-0.05744934,1.8052216,9.5946045,-0.08049011,2.0262299,0.012786865,-0.030883789,-0.004257202,-112.03766,2.8930664,12.200928,0,0.0,0.0,0.0,0.0
0.952850342,0.019863196,0.99832577,-0.054323465,-0.20582728,0.05725349,0.976912,0.97838676,-0.008223346,0.20661993,0.028424818,0.9951122,-0.09457148,-0.21744277,0.09849966,0.9710904,0.9756591,-0.007039184,0.21917976,9.595947,-0.10055542,2.0254822,9.5946045,-0.0806427,2.0262299,-0.006378174,-0.01171875,0.0010681152,-112.03766,2.8930664,12.200928,0,0.0,0.0,0.0,0.0
0.957244873,0.01986924,0.99832857,-0.054268625,-0.20585717,0.057201326,0.9769086,0.97838026,-0.008238851,0.20664968,0.028243763,0.99519324,-0.093769915,-0.21721433,0.09767611,0.97122467,0.9757153,-0.0070628677,0.21892898,9.481033,-0.1197052,2.087738,9.5946045,-0.08079529,2.026535,0.0032043457,-0.018112183,-0.0063934326,-112.03766,2.8930664,12.200928,0,0.0,0.0,0.0,0.0
0.961669922,0.024047287,0.99695504,-0.07417754,-0.20541362,0.077543244,0.9755984,0.9783798,-0.008223418,0.20665286,0.028066864,0.99527204,-0.09298324,-0.21699089,0.09686803,0.97135556,0.97577006,-0.007086388,0.21868375,9.60553,-0.04788208,2.0542145,9.594452,-0.0806427,2.026535,0.0063934326,-0.014907837,-0.0063934326,-112.03766,3.6102295,12.200928,0,0.0,0.0,0.0,0.0
0.966064453,0.024047287,0.99695504,-0.07417754,-0.20541362,0.077543244,0.9755984,0.9783798,-0.008223418,0.20665286,0.027981956,0.99530935,-0.092608266,-0.21676047,0.096481815,0.9714454,0.9758237,-0.0071091284,0.2184435,9.610321,-0.08618164,2.0254822,9.594452,-0.0806427,2.026535,0.0,-0.014907837,-0.007446289,-112.03766,3.6102295,12.200928,0,0.0,0.0,0.0,0.0
0.970458985,0.02404634,0.9969545,-0.074186064,-0.20538062,0.07755111,0.97560483,0.97838676,-0.008223346,0.20661993,0.027898915,0.9953458,-0.09224073,-0.21653461,0.096103296,0.9715333,0.9758762,-0.0071314145,0.218208,9.653412,-0.08139038,1.953659,9.5946045,-0.0806427,2.0262299,0.0,-0.0063934326,-0.019165039,-112.03766,3.6102295,12.200928,0,0.0,0.0,0.0,0.0
0.974884033,0.023958491,0.99699795,-0.07362872,-0.2053636,0.07698741,0.97565305,0.9783925,-0.008254514,0.20659158,0.027817704,0.9953814,-0.09188077,-0.21631259,0.0957326,0.9716193,0.97592777,-0.0071532535,0.21797659,9.619888,-0.15322876,1.9393005,9.5946045,-0.080947876,2.02594,0.0063934326,-0.0010681152,-0.013839722,-111.67908,3.6102295,12.545776,0,0.0,0.0,0.0,0.0
0.979278565,0.023973739,0.9970073,-0.07349566,-0.2053304,0.07686006,0.9756699,0.978399,-0.00829956,0.20655854,0.027736362,0.9954172,-0.091516785,-0.21609452,0.09535797,0.9717047,0.9759784,-0.007175279,0.21774909,9.538498,-0.19631958,1.9249268,9.594757,-0.08139038,2.0256348,0.005340576,-0.013839722,-0.008514404,-111.67908,3.6102295,12.545776,0,0.0,0.0,0.0,0.0
0.983703613,0.023978135,0.99701005,-0.07345732,-0.20528704,0.076823086,0.975682,0.97840804,-0.008315197,0.20651533,0.027657066,0.99545234,-0.09115729,-0.2158802,0.09498819,0.9717885,0.976028,-0.0071977647,0.21752554,9.595947,-0.04309082,1.9967499,9.594757,-0.08154297,2.0251923,0.010665894,-0.0095825195,0.0,-111.67908,3.6102295,12.545776,0,0.0,0.0,0.0,0.0
0.988098145,0.023971999,0.9970063,-0.07351088,-0.20526901,0.07687408,0.97568184,0.978412,-0.008299539,0.20649731,0.027657066,0.99545234,-0.09115729,-0.2158802,0.09498819,0.9717885,0.976028,-0.0071977647,0.21752554,9.595947,-0.04309082,1.9967499,9.59491,-0.08139038,2.0250397,0.010665894,-0.0095825195,0.0,-111.67908,3.6102295,12.545776,0,0.0,0.0,0.0,0.0
0.992523194,0.017883506,0.9988477,-0.04453465,-0.20579812,0.047265355,0.9774524,0.9784311,-0.008315128,0.20640627,0.027503626,0.9955202,-0.090460524,-0.21546179,0.09427151,0.9719511,0.9761248,-0.007241395,0.21708937,9.543274,-0.1197052,1.9393005,9.595062,-0.08154297,2.0241394,0.0032043457,-0.0010681152,0.0063934326,-112.03766,2.5344849,11.854553,0,0.0,0.0,0.0,0.0
0.996917725,0.017895691,0.9988526,-0.044420518,-0.20588957,0.04715696,0.9774384,0.9784116,-0.008346215,0.20649724,0.027301818,0.9956085,-0.08954566,-0.21527316,0.093333095,0.97208357,0.9761722,-0.0072628697,0.21687594,9.5767975,-0.1771698,2.2744904,9.59491,-0.081848145,2.0250397,0.020248413,-0.013839722,0.0010681152,-112.03766,2.5344849,11.854553,0,0.0,0.0,0.0,0.0
1.001342774,0.024288146,0.9969037,-0.07478761,-0.20523366,0.0781885,0.97558486,0.9784116,-0.008346215,0.20649724,0.027104724,0.9956943,-0.08864665,-0.21508996,0.092411205,0.97221214,0.97621804,-0.007284537,0.21666864,9.629471,-0.07182312,2.0207062,9.59491,-0.081848145,2.0250397,0.007461548,0.012771606,-0.01171875,-111.67908,3.6102295,11.854553,0,0.0,0.0,0.0,0.0
1.005737305,0.024287334,0.9969032,-0.07479506,-0.2052038,0.07819537,0.97559065,0.97841793,-0.008346268,0.20646745,0.027045561,0.99572045,-0.08837013,-0.21489343,0.092126906,0.9722826,0.976263,-0.00730577,0.2164654,9.629471,-0.08618164,1.9345093,9.59491,-0.081848145,2.0247345,0.0032043457,-0.010650635,-0.004257202,-111.67908,3.6102295,11.854553,0,0.0,0.0,0.0,0.0
1.010131836,0.024280638,0.9968987,-0.07485681,-0.20515735,0.07825402,0.9755957,0.9784278,-0.008330661,0.20642114,0.026987674,0.9957461,-0.08809925,-0.21470022,0.091848426,0.9723516,0.9763071,-0.00732658,0.21626568,9.629471,-0.05744934,1.9393005,9.595062,-0.08169556,2.024292,0.004272461,0.0,-0.003189087,-111.67908,3.6102295,11.854553,0,0.0,0.0,0.0,0.0
1.014556885,0.027592923,0.9955231,-0.09040162,-0.20472491,0.094147064,0.9742814,0.9784306,-0.008375808,0.20640616,0.026930913,0.99577093,-0.08783502,-0.21450987,0.091576695,0.97241926,0.9763505,-0.0073466618,0.21606892,9.639053,-0.18673706,1.9823914,9.595062,-0.08213806,2.0241394,0.0138549805,-0.0095825195,0.0021362305,-112.75482,4.3273926,13.238525,0,0.0,0.0,0.0,0.0
1.018951416,0.027581945,0.99551505,-0.0904925,-0.20472522,0.09423374,0.9742728,0.9784308,-0.008346246,0.2064062,0.026944643,0.99576604,-0.08788623,-0.2143143,0.0916282,0.97245747,0.97639304,-0.007367245,0.2158758,9.615112,-0.028717041,2.015915,9.595062,-0.081848145,2.0241394,0.0032043457,-0.0063934326,0.0021362305,-112.75482,4.3273926,13.238525,0,0.0,0.0,0.0,0.0
1.023376465,0.027587196,0.99551886,-0.090449,-0.20471008,0.09419212,0.97428,0.97843385,-0.008361831,0.20639127,0.026957853,0.9957611,-0.08793814,-0.21412267,0.091680296,0.97249484,0.9764347,-0.007386825,0.21568651,9.634262,-0.08618164,1.9919739,9.595062,-0.08200073,2.0239868,0.004272461,-0.0053253174,-0.007446289,-112.75482,4.3273926,13.238525,0,0.0,0.0,0.0,0.0
1.027770996,0.028773516,0.99496406,-0.09601345,-0.20457736,0.09988166,0.9737412,0.97842747,-0.008375781,0.20642106,0.026970882,0.9957563,-0.08798812,-0.21393463,0.0917305,0.97253144,0.9764756,-0.0074063255,0.21550082,9.600739,-0.1197052,2.1308289,9.595062,-0.08213806,2.024292,-0.012756348,-0.008514404,-0.0010528564,-112.21619,4.5059204,13.064575,0,0.0,0.0,0.0,0.0
1.032196045,0.028763302,0.9949562,-0.09609843,-0.20459585,0.099962875,0.973729,0.9784239,-0.008346319,0.20643915,0.027008405,0.9957411,-0.088148266,-0.21374786,0.09189358,0.9725571,0.9765154,-0.0074257143,0.21531942,9.691727,-0.028717041,2.0973206,9.59491,-0.081848145,2.0244446,-0.0021209717,-0.0063934326,0.008529663,-112.21619,4.5059204,13.064575,0,0.0,0.0,0.0,0.0
1.036590576,0.028760437,0.99495393,-0.09612227,-0.20467241,0.099986255,0.97371036,0.97840786,-0.008330755,0.20651528,0.02704492,0.9957261,-0.08830691,-0.21356513,0.09205501,0.97258204,0.9765544,-0.0074441265,0.21514198,9.557648,-0.0335083,2.221817,9.594757,-0.08169556,2.0251923,0.009597778,-0.017044067,-0.013839722,-112.21619,4.5059204,13.064575,0,0.0,0.0,0.0,0.0
1.040985108,0.03337067,0.992427,-0.11821629,-0.20384538,0.12255429,0.97130203,0.97843426,-0.008315155,0.20639136,0.027080584,0.99571127,-0.088462904,-0.2133875,0.09221369,0.97260594,0.97659224,-0.0074618594,0.21496955,9.591171,-0.02394104,2.0446472,9.595062,-0.08154297,2.0239868,-0.003189087,-0.022369385,-0.003189087,-111.49902,5.2230835,12.373352,0,0.0,0.0,0.0,0.0
1.045410156,0.0333687,0.992425,-0.11823324,-0.20367734,0.122569025,0.9713353,0.9784692,-0.0083307605,0.20622446,0.027211789,0.9956547,-0.08905765,-0.21319874,0.0928214,0.9725896,0.97662985,-0.0074789254,0.21479815,9.662994,-0.15322876,2.0590057,9.595352,-0.08169556,2.0223389,-0.006378174,-0.031951904,-0.0010528564,-111.49902,5.2230835,12.373352,0,0.0,0.0,0.0,0.0
1.049804688,0.033346992,0.99240357,-0.11841978,-0.20344841,0.122745186,0.9713611,0.9785176,-0.008299655,0.20599608,0.02734023,0.99559885,-0.08964092,-0.21301019,0.09341732,0.9725739,0.9766674,-0.007495962,0.21462674,9.648621,-0.11491394,2.0302734,9.59581,-0.08139038,2.0200958,0.014923096,-0.040481567,-0.0010528564,-111.49902,5.2230835,12.373352,0,0.0,0.0,0.0,0.0
1.054229736,0.021053638,0.99795777,-0.06030762,-0.20488264,0.06334743,0.9767345,0.97856015,-0.008207831,0.20579793,0.027465623,0.9955434,-0.09021623,-0.21282083,0.09400478,0.9725587,0.97670513,-0.007512036,0.21445428,9.653412,-0.10533142,1.9776001,9.596252,-0.08049011,2.018158,0.007461548,-0.04899597,-0.008514404,-111.14044,3.0715942,12.028503,0,0.0,0.0,0.0,0.0
1.058624268,0.021049414,0.9979555,-0.060346086,-0.20469733,0.063382655,0.97677106,0.978599,-0.008207778,0.20561302,0.0273324,0.99560094,-0.08961996,-0.21266423,0.09339249,0.9726519,0.976743,-0.0075259516,0.21428135,9.701294,-0.03829956,2.0925293,9.596695,-0.08049011,2.0163574,0.0021362305,-0.043670654,-0.022369385,-111.14044,3.0715942,12.028503,0,0.0,0.0,0.0,0.0
1.063049317,0.0210417,0.99795145,-0.060416337,-0.20457454,0.063448794,0.97679245,0.97862476,-0.008193729,0.20549053,0.02720184,0.99565685,-0.08903632,-0.21250688,0.09279311,0.9727437,0.9767809,-0.0075395885,0.21410806,9.519333,-0.16758728,2.0973206,9.597,-0.08035278,2.0151672,0.0010681152,-0.04473877,0.0021362305,-111.14044,3.0715942,12.028503,0,0.0,0.0,0.0,0.0
1.067443848,0.02297284,0.9972771,-0.07007616,-0.20418066,0.07329751,0.9761853,0.9786636,-0.008117551,0.20530854,0.02707387,0.9957112,-0.088465676,-0.21235016,0.09220698,0.9728337,0.9768185,-0.0075526712,0.21393582,9.672562,-0.03829956,1.9728088,9.597305,-0.0796051,2.0133667,0.015991211,-0.03727722,-0.0095825195,-112.21619,3.4301758,12.028503,0,0.0,0.0,0.0,0.0
1.071868897,0.02297286,0.997277,-0.07007596,-0.20399524,0.07329578,0.9762242,0.97870237,-0.008131502,0.2051236,0.026988715,0.9957461,-0.08809878,-0.21218777,0.09182903,0.97290486,0.9768562,-0.0075639687,0.21376348,9.686935,-0.17237854,1.9345093,9.597748,-0.07974243,2.0115662,0.008529663,-0.03727722,-0.01171875,-112.21619,3.4301758,12.028503,0,0.0,0.0,0.0,0.0
1.076263428,0.022982255,0.99728286,-0.069989964,-0.2039369,0.07321304,0.9762425,0.9787142,-0.008162721,0.2050654,0.026905335,0.9957801,-0.08773925,-0.21202488,0.09145867,0.97297525,0.97689384,-0.007575319,0.21359088,9.595947,-0.0909729,1.9009857,9.597748,-0.08004761,2.010971,-0.0095825195,-0.031951904,-0.007446289,-112.21619,3.4301758,12.028503,0,0.0,0.0,0.0,0.0
1.080657959,0.022968479,0.99727434,-0.07011607,-0.20382757,0.07333276,0.9762564,0.97873735,-0.008131535,0.20495637,0.026905335,0.9957801,-0.08773925,-0.21202488,0.09145867,0.97297525,0.97689384,-0.007575319,0.21359088,9.595947,-0.0909729,1.9009857,9.598053,-0.07974243,2.0099182,-0.0095825195,-0.031951904,-0.007446289,-112.21619,3.4301758,12.028503,0,0.0,0.0,0.0,0.0
1.085083008,0.025931304,0.99610454,-0.08428068,-0.20336753,0.08780256,0.97515756,0.97875905,-0.008147158,0.20485216,0.026743636,0.9958455,-0.08704322,-0.211702,0.09074153,0.97311264,0.9769683,-0.0075973454,0.21324925,9.619888,-0.14364624,1.7381897,9.59819,-0.07989502,2.0088806,0.0234375,-0.014907837,-0.0063934326,-111.67908,3.968811,12.545776,0,0.0,0.0,0.0,0.0
1.089477539,0.025935842,0.9961079,-0.08424132,-0.20333438,0.08776468,0.975168,0.9787657,-0.008162644,0.20481919,0.026132435,0.99577975,-0.08797646,-0.21117826,0.09151945,0.97315365,0.97709817,-0.0068521574,0.21267864,9.533707,-0.10533142,1.905777,9.598343,-0.08004761,2.0085754,0.007461548,-0.003189087,-0.004257202,-111.67908,3.968811,12.545776,0,0.0,0.0,0.0,0.0
1.093902588,0.023131173,0.99723756,-0.07058416,-0.20364572,0.073822804,0.9762573,0.97877127,-0.008207814,0.20479079,0.026127877,0.9957864,-0.087901674,-0.2110215,0.09144429,0.97319466,0.97713214,-0.006878367,0.2125216,9.595947,-0.19152832,1.9153595,9.598343,-0.08049011,2.0082855,0.007461548,0.0053253174,-0.0095825195,-113.29193,3.4301758,11.335754,0,0.0,0.0,0.0,0.0
1.098297119,0.023119068,0.99722946,-0.07070271,-0.20376542,0.07393738,0.97622377,0.9787467,-0.008162615,0.20491026,0.02606528,0.99581856,-0.087555945,-0.21087463,0.09109206,0.9732595,0.9771655,-0.006904956,0.2123672,9.648621,-0.05265808,2.0015411,9.59819,-0.08004761,2.0094757,0.0010681152,0.023422241,-0.003189087,-113.29193,3.4301758,11.335754,0,0.0,0.0,0.0,0.0
1.102722168,0.023124384,0.9972331,-0.07065066,-0.20376827,0.073887534,0.97622705,0.978746,-0.008178286,0.20491305,0.026003862,0.99584967,-0.087219514,-0.21073295,0.090749204,0.9733222,0.9771977,-0.006930109,0.21221818,9.509766,-0.10055542,2.0207062,9.598053,-0.080200195,2.0094757,-0.003189087,0.029815674,-0.007446289,-113.29193,3.4301758,11.335754,0,0.0,0.0,0.0,0.0
1.107116699,0.027012587,0.99563235,-0.089366734,-0.20344168,0.093003854,0.97465974,0.97871435,-0.008147161,0.20506541,0.025943855,0.9958801,-0.0868887,-0.21059415,0.09041215,0.9733836,0.97722924,-0.0069550727,0.21207218,9.46666,-0.07182312,2.0733643,9.597748,-0.07989502,2.010971,-0.015960693,0.014907837,0.0010681152,-110.78186,4.147339,12.719727,0,0.0,0.0,0.0,0.0
1.111511231,0.026997497,0.9956214,-0.08949454,-0.20348556,0.09312624,0.97463906,0.9787057,-0.008101966,0.20510873,0.025965584,0.99587524,-0.0869381,-0.21045133,0.09046402,0.9734097,0.9772594,-0.006978914,0.21193223,9.524124,0.0335083,2.1212616,9.597748,-0.079452515,2.0114136,0.0,0.027679443,-0.007446289,-110.78186,4.147339,12.719727,0,0.0,0.0,0.0,0.0
1.115936279,0.027003212,0.99562556,-0.08944612,-0.20348538,0.09308,0.97464347,0.9787055,-0.008117525,0.2051087,0.025986576,0.9958703,-0.08698908,-0.21031219,0.090517305,0.97343487,0.97728884,-0.0070013753,0.2117959,9.495392,-0.028717041,1.9728088,9.597748,-0.0796051,2.0114136,-0.006378174,0.02128601,-0.007446289,-110.78186,4.147339,12.719727,0,0.0,0.0,0.0,0.0
1.120330811,0.026991317,0.9956168,-0.08954688,-0.20347226,0.093176104,0.9746371,0.9787087,-0.008086431,0.20509535,0.025986576,0.9958703,-0.08698908,-0.21031219,0.090517305,0.97343487,0.97728884,-0.0070013753,0.2117959,9.495392,-0.028717041,1.9728088,9.597748,-0.07929993,2.0112762,-0.006378174,0.02128601,-0.007446289,-110.78186,4.147339,12.719727,0,0.0,0.0,0.0,0.0
1.12475586,0.037379544,0.9895699,-0.13911982,-0.20185289,0.14382432,0.96879834,0.97870237,-0.008131502,0.2051236,0.026027016,0.9958604,-0.08709001,-0.21004163,0.09062258,0.97348344,0.97734594,-0.0070443437,0.21153077,9.528915,-0.1819458,2.063797,9.597748,-0.07974243,2.0115662,-0.003189087,0.008529663,0.0063934326,-112.75482,6.1203003,13.238525,0,0.0,0.0,0.0,0.0
1.129150391,0.037385434,0.9895763,-0.13907261,-0.20185237,0.1437793,0.9688051,0.9787022,-0.00814706,0.20512356,0.026261702,0.9957626,-0.08813197,-0.20988427,0.09168965,0.97341746,0.9773734,-0.0070660873,0.21140282,9.457092,-0.13406372,2.0015411,9.597748,-0.07989502,2.0115662,0.008529663,-0.0095825195,-0.0063934326,-112.75482,6.1203003,13.238525,0,0.0,0.0,0.0,0.0
1.13357544,0.026734633,0.99576694,-0.087939896,-0.2035226,0.09155074,0.9747805,0.9787052,-0.008162646,0.20510864,0.026491523,0.99566567,-0.089152165,-0.20972979,0.092734426,0.9733518,0.9774005,-0.007087707,0.21127743,9.557648,-0.0909729,1.9584503,9.597748,-0.08004761,2.0114136,0.0,-0.004257202,-0.004257202,-111.49902,4.147339,13.064575,0,0.0,0.0,0.0,0.0
1.137969971,0.02672475,0.99575996,-0.08802204,-0.20357087,0.09162951,0.974763,0.97869533,-0.008131573,0.2051565,0.026496228,0.9956677,-0.08912789,-0.20960571,0.09271079,0.97338074,0.97742695,-0.0071092057,0.21115412,9.581589,-0.0335083,2.111679,9.597595,-0.07974243,2.0118713,0.015991211,-0.015975952,-0.0010528564,-111.49902,4.147339,13.064575,0,0.0,0.0,0.0,0.0
1.142364502,0.02671903,0.9957559,-0.08806957,-0.20355608,0.09167475,0.97476184,0.9786986,-0.008117597,0.20514163,0.026500652,0.9956696,-0.089105725,-0.20948501,0.09268917,0.9734089,0.97745275,-0.0071296534,0.21103418,9.658203,-0.04309082,2.015915,9.597595,-0.0796051,2.0117188,0.0032043457,-0.007461548,-0.0021209717,-111.49902,4.147339,13.064575,0,0.0,0.0,0.0,0.0
1.146789551,0.026732018,0.99576515,-0.087961644,-0.2036141,0.091572255,0.97475946,0.9786863,-0.008147057,0.20519972,0.026504885,0.99567133,-0.08908492,-0.20936657,0.09266886,0.9734363,0.97747797,-0.0071494123,0.21091646,9.658203,-0.14364624,2.1643524,9.597595,-0.07989502,2.0123138,0.004272461,-0.003189087,0.0010681152,-111.49902,4.147339,13.064575,0,0.0,0.0,0.0,0.0
1.151184082,0.026740933,0.9957714,-0.08788756,-0.20353736,0.091500916,0.97478205,0.9787019,-0.008178177,0.2051235,0.026509311,0.99567324,-0.08906248,-0.20925163,0.092647016,0.97346306,0.97750247,-0.0071693654,0.21080224,9.634262,-0.13885498,2.1308289,9.597748,-0.080200195,2.0115662,-0.0010528564,-0.0021209717,-0.012771606,-111.49902,4.147339,13.064575,0,0.0,0.0,0.0,0.0
1.155609131,0.026719935,0.9957565,-0.08806203,-0.20343304,0.09166654,0.9747883,0.97872424,-0.008131554,0.20501912,0.026513806,0.9956752,-0.08903892,-0.2091375,0.09262408,0.97348976,0.9775267,-0.007189542,0.21068881,9.519333,-0.05265808,2.0542145,9.5979,-0.07974243,2.0105286,-0.007446289,-0.024505615,0.0,-111.49902,4.147339,13.064575,0,0.0,0.0,0.0,0.0
1.160003662,0.030713737,0.9937284,-0.107519425,-0.20269805,0.111527435,0.97286946,0.97875947,-0.008086477,0.20485225,0.026517816,0.9956768,-0.08901936,-0.20902349,0.092604965,0.97351605,0.97755104,-0.0072083822,0.21057554,9.662994,0.01914978,2.0685883,9.59819,-0.07929993,2.0088806,0.0,-0.030883789,-0.008514404,-111.320496,4.685974,11.509705,0,0.0,0.0,0.0,0.0
1.164428711,0.030690735,0.9937061,-0.107732855,-0.2025126,0.11173015,0.97288495,0.97879857,-0.0080412915,0.20466706,0.026603965,0.9956414,-0.0893891,-0.20889795,0.0929837,0.9735069,0.97757554,-0.007225944,0.21046117,9.562439,-0.009567261,2.0781555,9.598648,-0.07885742,2.00708,-0.003189087,-0.041549683,-0.004257202,-111.320496,4.685974,11.509705,0,0.0,0.0,0.0,0.0
1.168823242,0.030708078,0.993723,-0.107571945,-0.20228225,0.11157425,0.9729507,0.97884566,-0.008117551,0.20443875,0.026687942,0.9956062,-0.089755796,-0.20877106,0.09335898,0.9734982,0.97760034,-0.007242251,0.21034531,9.552856,-0.19631958,1.9680328,9.599091,-0.0796051,2.004837,-0.007446289,-0.047927856,-0.007446289,-111.320496,4.685974,11.509705,0,0.0,0.0,0.0,0.0
1.173248291,0.03143984,0.99326074,-0.11155619,-0.20188798,0.11562162,0.97256,0.97890383,-0.008055278,0.2041625,0.026770553,0.9955718,-0.09011186,-0.20864213,0.093723565,0.97349083,0.9776256,-0.0072597573,0.21022724,9.648621,-0.02394104,1.9009857,9.599701,-0.07899475,2.0021362,-0.004257202,-0.04899597,0.0063934326,-112.39624,5.0445557,13.238525,0,0.0,0.0,0.0,0.0
1.177642822,0.03144872,0.99326855,-0.111483805,-0.20169088,0.11555093,0.9726093,0.9789442,-0.008102047,0.20396712,0.026866712,0.9955303,-0.09054066,-0.20850813,0.09416208,0.9734772,0.97765154,-0.0072756675,0.210106,9.572006,-0.12449646,1.9823914,9.599991,-0.079452515,2.0001984,0.0021362305,-0.053253174,-0.010650635,-112.39624,5.0445557,13.238525,0,0.0,0.0,0.0,0.0
1.182037354,0.031422485,0.99324536,-0.11169765,-0.20136774,0.11575233,0.9726524,0.97901165,-0.0080708545,0.20364477,0.026961084,0.9954896,-0.0909594,-0.20837285,0.09459035,0.97346467,0.9776778,-0.007292195,0.20998324,9.552856,-0.11012268,1.8531036,9.600739,-0.07914734,1.997055,-0.004257202,-0.043670654,0.0053253174,-112.39624,5.0445557,13.238525,0,0.0,0.0,0.0,0.0
1.186462403,0.024602354,0.99656296,-0.079100065,-0.20206742,0.082448065,0.9758949,0.97906256,-0.008025766,0.20340136,0.027053103,0.9954491,-0.09137404,-0.20823377,0.09501411,0.97345316,0.9777049,-0.0073077683,0.20985654,9.62468,-0.08618164,1.9009857,9.601196,-0.078704834,1.9946594,-0.003189087,-0.064971924,-0.01171875,-112.57477,3.7887573,12.719727,0,0.0,0.0,0.0,0.0
1.190856934,0.024582412,0.99654984,-0.07927264,-0.2019736,0.08261225,0.97590065,0.97908247,-0.007979007,0.20330755,0.0270025,0.9954729,-0.09112892,-0.20811078,0.09476288,0.9735039,0.9777324,-0.007322128,0.20972748,9.619888,-0.23461914,1.7764893,9.601486,-0.07824707,1.9937592,0.020248413,-0.04473877,-0.008514404,-112.57477,3.7887573,12.719727,0,0.0,0.0,0.0,0.0
1.195281983,0.024577305,0.99654645,-0.079316825,-0.20197368,0.08265447,0.97589695,0.9790825,-0.007965005,0.20330757,0.026952602,0.995496,-0.09089228,-0.20798838,0.09452007,0.9735537,0.9777599,-0.0073352656,0.20959915,9.519333,-0.18673706,1.5610046,9.601486,-0.07810974,1.9937592,0.028762817,-0.0021209717,-0.020233154,-112.57477,3.7887573,12.719727,0,0.0,0.0,0.0,0.0
1.199676514,0.026281945,0.9958137,-0.08754603,-0.20194477,0.09105962,0.9751546,0.9790442,-0.0079495,0.20349258,0.026903661,0.9955183,-0.09066123,-0.20786841,0.09428295,0.9736023,0.9777867,-0.0073478604,0.20947336,9.62468,-0.009567261,1.8291626,9.601044,-0.07795715,1.9955597,0.0032043457,0.03514099,-0.013839722,-112.03766,3.968811,11.509705,0,0.0,0.0,0.0,0.0
1.204101563,0.026288336,0.9958189,-0.08748559,-0.20214419,0.09100335,0.9751186,0.9790029,-0.007949544,0.2036913,0.026890848,0.99552435,-0.09059899,-0.20775005,0.09421851,0.9736338,0.9778123,-0.007359893,0.20935386,9.552856,-0.01914978,1.8674622,9.600586,-0.07795715,1.9974976,0.007461548,0.057510376,0.0032043457,-112.03766,3.968811,11.509705,0,0.0,0.0,0.0,0.0
1.208496094,0.02632336,0.995847,-0.08715437,-0.20242068,0.09068842,0.97509044,0.9789448,-0.008025808,0.20396724,0.02687845,0.9955303,-0.09053685,-0.20763801,0.09415429,0.9736639,0.9778364,-0.0073716864,0.20924066,9.533707,-0.19631958,1.9201355,9.599991,-0.078704834,2.0001984,-0.0021209717,0.057510376,0.0053253174,-112.03766,3.968811,11.509705,0,0.0,0.0,0.0,0.0
1.212890625,0.020455984,0.9980594,-0.058812708,-0.20340322,0.061749242,0.9771459,0.97888136,-0.008025786,0.20427166,0.026866982,0.9955368,-0.09046923,-0.20753376,0.09408498,0.97369283,0.97785884,-0.0073847687,0.20913528,9.538498,-0.05265808,2.1020966,9.599396,-0.078704834,2.003189,0.005340576,0.07241821,0.0053253174,-112.03766,2.8930664,10.127258,0,0.0,0.0,0.0,0.0
1.217315674,0.020469423,0.99806786,-0.05866644,-0.20361754,0.06161055,0.9771101,0.9788365,-0.008055365,0.20448521,0.02673589,0.99559754,-0.08983753,-0.20745315,0.0934391,0.9737722,0.9778795,-0.007397589,0.20903802,9.533707,-0.12449646,2.0207062,9.598938,-0.07899475,2.0052795,0.0032043457,0.061767578,0.004272461,-112.03766,2.8930664,10.127258,0,0.0,0.0,0.0,0.0
1.221710205,0.020484835,0.9980773,-0.058498643,-0.20366266,0.061449803,0.9771108,0.9788269,-0.008101965,0.20452988,0.027437912,0.9956242,-0.08932881,-0.21335065,0.09313605,0.9725262,0.9765903,-0.0076257265,0.21497253,9.519333,-0.19631958,2.1068878,9.598938,-0.079452515,2.0057373,0.0021362305,0.04685974,0.0021362305,-112.03766,2.8930664,10.127258,0,0.0,0.0,0.0,0.0
1.226135254,0.035974376,0.9904988,-0.13273267,-0.20158234,0.13728073,0.9698034,0.9788107,-0.008131511,0.20460567,0.02729261,0.99568313,-0.08871443,-0.21315943,0.09250319,0.97262853,0.9766361,-0.0076352516,0.2147639,9.691727,-0.14364624,2.2170258,9.598801,-0.07974243,2.006485,-0.003189087,0.022354126,-0.003189087,-111.857605,5.581665,11.335754,0,0.0,0.0,0.0,0.0
1.230529785,0.03598441,0.99051094,-0.13263962,-0.20156665,0.13719155,0.9698193,0.9788136,-0.008162654,0.20459071,0.027475838,0.9955992,-0.089595005,-0.21293174,0.093400955,0.9725926,0.9766807,-0.0076451767,0.21456094,9.667786,-0.15322876,1.9823914,9.598801,-0.08004761,2.0063324,-0.013824463,0.0021362305,-0.003189087,-111.857605,5.581665,11.335754,0,0.0,0.0,0.0,0.0
1.234954834,0.035984647,0.9905112,-0.13263746,-0.20145994,0.13718858,0.9698418,0.9788355,-0.00817828,0.20448501,0.027655203,0.99551636,-0.09045602,-0.21270813,0.09427881,0.9725568,0.9767243,-0.007655526,0.21436171,9.519333,-0.1771698,2.1260376,9.598938,-0.080200195,2.0052795,-0.004257202,-0.014907837,0.013839722,-111.857605,5.581665,11.335754,0,0.0,0.0,0.0,0.0
1.239349365,0.02639597,0.99591506,-0.08635089,-0.20283239,0.08991997,0.97507626,0.97885776,-0.008223329,0.20437734,0.027830698,0.99543446,-0.0912997,-0.21248667,0.09513893,0.9725215,0.97676754,-0.0076659815,0.21416435,9.60553,-0.1484375,2.1882935,9.599243,-0.0806427,2.004242,0.007461548,-0.03302002,-0.0021209717,-110.961914,3.968811,11.854553,0,0.0,0.0,0.0,0.0
1.243774414,0.026369216,0.99589455,-0.08659447,-0.20266494,0.09015158,0.97508943,0.978893,-0.00816268,0.20421015,0.027800992,0.99544436,-0.09120087,-0.2122939,0.095034495,0.97257376,0.97681034,-0.0076771285,0.21396881,9.552856,-0.028717041,2.0446472,9.599548,-0.08004761,2.002594,-0.004257202,-0.039413452,0.0032043457,-110.961914,3.968811,11.854553,0,0.0,0.0,0.0,0.0
1.248168945,0.026341347,0.9958732,-0.086848184,-0.20246485,0.09039266,0.9751088,0.97893524,-0.008101973,0.2040104,0.027771426,0.9954536,-0.09110892,-0.21210162,0.09493682,0.97262526,0.9768529,-0.0076868394,0.21377386,9.500183,-0.10533142,2.0207062,9.599991,-0.079452515,2.0006409,-0.0010528564,-0.04260254,-0.010650635,-110.961914,3.968811,11.854553,0,0.0,0.0,0.0,0.0
1.252563477,0.019889303,0.99822885,-0.05606813,-0.2030454,0.058943465,0.9773937,0.97896737,-0.008055302,0.2038581,0.02774196,0.9954622,-0.09102389,-0.21190917,0.09484592,0.97267604,0.9768955,-0.0076951426,0.21357879,9.552856,0.0335083,1.9728088,9.600296,-0.07899475,1.9991455,0.015991211,-0.050064087,-0.017044067,-112.75482,2.8930664,11.509705,0,0.0,0.0,0.0,0.0
1.256988526,0.019881748,0.99822485,-0.056141168,-0.2029079,0.059012305,0.97741795,0.9789959,-0.00804129,0.20372099,0.027578376,0.9955302,-0.090327226,-0.21173513,0.09412889,0.9727836,0.97693783,-0.0077023455,0.21338464,9.543274,-0.13406372,2.0111237,9.600586,-0.07885742,1.9978027,-0.012756348,-0.03302002,-0.003189087,-112.75482,2.8930664,11.509705,0,0.0,0.0,0.0,0.0
1.261383057,0.019872755,0.99822026,-0.05622809,-0.20272529,0.059094086,0.9774511,0.979034,-0.008025787,0.20353882,0.027418097,0.9955962,-0.08964595,-0.21156159,0.093427606,0.97288895,0.97698,-0.0077091246,0.21319152,9.552856,-0.04788208,1.9201355,9.600891,-0.078704834,1.9960022,-0.004257202,-0.031951904,-0.008514404,-112.75482,2.8930664,11.509705,0,0.0,0.0,0.0,0.0
1.265808106,0.028653452,0.99469733,-0.09877344,-0.20148581,0.10253316,0.97411007,0.9790722,-0.00801017,0.20335533,0.027260993,0.9956603,-0.08897997,-0.2113878,0.092741944,0.97299236,0.97702205,-0.007715458,0.21299867,9.610321,-0.08618164,1.7908478,9.601334,-0.078552246,1.9942169,-0.012756348,-0.03515625,-0.0053253174,-112.57477,4.5059204,12.719727,0,0.0,0.0,0.0,0.0
1.270202637,0.028656729,0.9947,-0.09874541,-0.2014226,0.10250586,0.97412604,0.97908515,-0.00802571,0.20329255,0.02729071,0.995642,-0.08917548,-0.21118993,0.092937775,0.9730166,0.97706395,-0.0077213524,0.21280588,9.562439,-0.1197052,1.8148041,9.601486,-0.078704834,1.9936066,0.0,-0.024505615,-0.0063934326,-112.57477,4.5059204,12.719727,0,0.0,0.0,0.0,0.0
1.274627686,0.028663166,0.9947053,-0.098690316,-0.20144047,0.102453366,0.9741278,0.9790813,-0.008041365,0.20331053,0.027319865,0.995624,-0.0893666,-0.21099493,0.09312922,0.9730406,0.97710526,-0.0077274395,0.2126159,9.504974,-0.10533142,2.015915,9.601334,-0.07885742,1.9937592,-0.007446289,-0.01171875,-0.007446289,-112.57477,4.5059204,12.719727,0,0.0,0.0,0.0,0.0
1.279022217,0.024611251,0.9965689,-0.07902309,-0.20200612,0.08237399,0.97591394,0.97907495,-0.008055317,0.20334035,0.027348474,0.9956065,-0.08955283,-0.21080409,0.09331579,0.9730641,0.9771457,-0.0077337176,0.21242997,9.581589,-0.11491394,2.0494232,9.601334,-0.07899475,1.9940643,-0.0021209717,-0.012786865,0.011703491,-112.57477,3.7887573,12.719727,0,0.0,0.0,0.0,0.0
1.283416748,0.024610803,0.9965687,-0.07902699,-0.20199117,0.0823776,0.9759168,0.9790781,-0.008055342,0.20332544,0.02729184,0.9956269,-0.08934287,-0.21062869,0.09309716,0.9731231,0.9771851,-0.0077401497,0.21224837,9.648621,-0.10533142,1.9680328,9.601334,-0.07899475,1.9939117,-0.010650635,0.0032043457,0.0,-112.57477,3.7887573,12.719727,0,0.0,0.0,0.0,0.0
1.287841797,0.024605105,0.9965649,-0.079076275,-0.2019732,0.08242455,0.97591656,0.9790819,-0.008041242,0.20330745,0.027236357,0.99564695,-0.089136995,-0.21045637,0.092882805,0.97318083,0.97722375,-0.007746454,0.21207002,9.572006,-0.02394104,1.9488678,9.601486,-0.07885742,1.9937592,0.0032043457,0.0010681152,0.004272461,-112.57477,3.7887573,12.719727,0,0.0,0.0,0.0,0.0
1.292236328,0.028222388,0.9949366,-0.09646173,-0.20140879,0.10018098,0.9743707,0.9791006,-0.008070831,0.20321628,0.027181977,0.9956663,-0.08893632,-0.21028717,0.092673786,0.9732373,0.97726166,-0.007752349,0.21189491,9.610321,-0.10055542,2.0494232,9.601639,-0.07914734,1.9928589,0.0063934326,-0.015975952,-0.0095825195,-112.03766,4.3273926,11.854553,0,0.0,0.0,0.0,0.0
1.296661377,0.02822685,0.9949403,-0.096420914,-0.20138013,0.10014168,0.9743806,0.97910637,-0.008086439,0.20318791,0.027204111,0.99565226,-0.0890867,-0.21010984,0.09282405,0.97326124,0.9772992,-0.007758719,0.21172154,9.5767975,-0.10055542,1.9440765,9.601639,-0.07929993,1.992569,0.009597778,-0.025558472,0.007461548,-112.03766,4.3273926,11.854553,0,0.0,0.0,0.0,0.0
1.301055908,0.028231798,0.9949446,-0.09637576,-0.20136501,0.10009835,0.97438824,0.9791093,-0.008102023,0.20317297,0.02722581,0.99563855,-0.08923311,-0.2099355,0.092970386,0.9732849,0.97733605,-0.007765273,0.21155109,9.60553,-0.14364624,1.9440765,9.601639,-0.079452515,1.9924164,0.007461548,-0.0095825195,0.0053253174,-112.03766,4.3273926,11.854553,0,0.0,0.0,0.0,0.0
1.305480957,0.029065559,0.9945369,-0.100257605,-0.20126255,0.1040686,0.9739934,0.97910607,-0.00813156,0.20318785,0.027247136,0.9956252,-0.08937582,-0.20976426,0.09311304,0.97330827,0.9773722,-0.0077720084,0.21138364,9.538498,-0.13406372,2.0207062,9.601639,-0.07974243,1.992569,0.010665894,-0.013839722,0.0032043457,-111.49902,4.5059204,12.373352,0,0.0,0.0,0.0,0.0
1.309875488,0.029064989,0.9945364,-0.10026256,-0.20124757,0.104073204,0.973996,0.9791091,-0.008131585,0.20317292,0.027285311,0.9956046,-0.08959318,-0.20959459,0.09333225,0.97332376,0.9774076,-0.0077791996,0.21121994,9.600739,-0.07661438,1.9249268,9.601639,-0.07974243,1.9924164,0.007461548,-0.017044067,0.008529663,-111.49902,4.5059204,12.373352,0,0.0,0.0,0.0,0.0
1.31427002,0.029082816,0.99455154,-0.10010744,-0.20112371,0.10392389,0.9740376,0.9791341,-0.008193773,0.20305029,0.027322644,0.99558437,-0.08980631,-0.20942792,0.09354718,0.973339,0.9774422,-0.007786247,0.21105912,9.495392,-0.12449646,1.9440765,9.601944,-0.08035278,1.9912262,0.01171875,-0.0095825195,0.0010681152,-111.49902,4.5059204,12.373352,1,0.0,0.0,0.0,0.0
1.318695069,0.026980052,0.9955942,-0.08980126,-0.2013726,0.09340538,0.97505105,0.9791431,-0.008223412,0.20300546,0.027359523,0.99556476,-0.09001213,-0.20926204,0.093754865,0.9733547,0.9774767,-0.0077943974,0.21089901,9.5767975,-0.13406372,1.8866272,9.601944,-0.0806427,1.9907684,-0.0021209717,-0.024505615,0.010650635,-111.857605,4.147339,12.373352,1,0.0,0.0,0.0,0.0
1.3230896,0.026984064,0.9955973,-0.08976602,-0.20132625,0.09337129,0.97506386,0.97915244,-0.008238933,0.20295939,0.02735191,0.99556535,-0.09000801,-0.20910446,0.09374798,0.9733893,0.9775107,-0.007802977,0.21074134,9.619888,-0.14364624,1.8722534,9.602081,-0.08079529,1.9903259,0.0063934326,0.017028809,0.0021362305,-111.857605,4.147339,12.373352,1,0.0,0.0,0.0,0.0
1.327514649,0.026977278,0.9955921,-0.089825645,-0.20129335,0.09342803,0.97506523,0.9791594,-0.008223301,0.20292649,0.027344514,0.995566,-0.09000323,-0.20894907,0.0937405,0.97342336,0.9775441,-0.0078116963,0.21058588,9.500183,-0.13885498,1.9488678,9.602234,-0.0806427,1.9900208,0.004272461,0.017028809,-0.003189087,-111.857605,4.147339,12.373352,1,0.0,0.0,0.0,0.0
1.33190918,0.026982391,0.995596,-0.08978071,-0.20127822,0.09338493,0.9750725,0.9791624,-0.008238886,0.20291154,0.027344514,0.995566,-0.09000323,-0.20894907,0.0937405,0.97342336,0.9775441,-0.0078116963,0.21058588,9.500183,-0.13885498,1.9488678,9.602234,-0.08079529,1.9898682,0.004272461,0.017028809,-0.003189087,-111.857605,4.147339,12.373352,1,0.0,0.0,0.0,0.0
1.336334229,0.027112506,0.99554384,-0.090318434,-0.20129454,0.09393811,0.9750159,0.97915536,-0.008254518,0.20294443,0.027330056,0.9955672,-0.08999437,-0.2086455,0.09372637,0.9734899,0.9776094,-0.007828614,0.21028216,9.461884,-0.11012268,2.039856,9.602081,-0.080947876,1.9901733,-0.003189087,0.0063934326,0.0010681152,-112.21619,4.147339,12.028503,1,0.0,0.0,0.0,0.0
1.34072876,0.027124532,0.99555343,-0.09020956,-0.20132425,0.093834184,0.97501993,0.979149,-0.008285583,0.20297423,0.027325723,0.9955668,-0.090000756,-0.20849861,0.09373052,0.97352093,0.97764087,-0.007837132,0.21013553,9.615112,-0.16279602,2.0542145,9.602081,-0.08125305,1.9904785,-0.006378174,0.0010681152,-0.004257202,-112.21619,4.147339,12.028503,1,0.0,0.0,0.0,0.0
1.345153809,0.022022532,0.99760926,-0.06550403,-0.20197451,0.068608455,0.97698474,0.97914314,-0.008285534,0.20300257,0.027321724,0.9955665,-0.09000496,-0.2083552,0.09373264,0.97355133,0.97767156,-0.007846101,0.20999241,9.528915,-0.0909729,2.0685883,9.602081,-0.08125305,1.9907684,-0.007446289,-0.008514404,0.0010681152,-112.03766,3.251648,11.854553,1,0.0,0.0,0.0,0.0
1.34954834,0.022032492,0.99761516,-0.065411545,-0.20195961,0.06851978,0.9769941,0.979146,-0.008315122,0.20298761,0.027212417,0.9956135,-0.08951608,-0.208229,0.093230605,0.97362655,0.9777015,-0.007854889,0.20985264,9.490601,-0.14364624,1.9249268,9.602081,-0.08154297,1.9906158,0.014923096,0.0,-0.015975952,-112.03766,3.251648,11.854553,1,0.0,0.0,0.0,0.0
1.353942871,0.022042671,0.9976211,-0.065316975,-0.20193124,0.06842898,0.9770063,0.9791516,-0.008346288,0.20295921,0.02710562,0.9956596,-0.089035116,-0.20810501,0.09273685,0.9737003,0.9777309,-0.007864094,0.20971544,9.62468,-0.15800476,1.9153595,9.602081,-0.081848145,1.9903259,0.01171875,-0.004257202,0.0010681152,-112.03766,3.251648,11.854553,1,0.0,0.0,0.0,0.0
1.35836792,0.022031814,0.99761474,-0.065417826,-0.2019312,0.068525545,0.9769995,0.97915184,-0.008315171,0.20295927,0.024670735,0.9959098,-0.086919606,-0.20709655,0.09015139,0.9741579,0.9780094,-0.0060324427,0.2084736,9.60553,-0.01914978,1.9823914,9.602081,-0.08154297,1.9903259,-0.012756348,-0.008514404,-0.017044067,-112.03766,3.251648,11.854553,1,0.0,0.0,0.0,0.0
1.362762451,0.022036055,0.9976172,-0.06537843,-0.20188323,0.06848741,0.97701204,0.9791616,-0.008330681,0.20291138,0.024615608,0.99594855,-0.086490184,-0.20699361,0.089719206,0.97421974,0.9780326,-0.006078098,0.20836347,9.595947,-0.11491394,1.8818359,9.602234,-0.08169556,1.9898682,-0.007446289,-0.0063934326,-0.008514404,-112.03766,3.251648,11.854553,1,0.0,0.0,0.0,0.0
1.3671875,0.022035021,0.9976166,-0.06538801,-0.20183988,0.06849622,0.9770204,0.97917056,-0.008330758,0.20286812,0.024561737,0.99598634,-0.086068615,-0.20689154,0.08929497,0.97428036,0.9780555,-0.00612315,0.2082544,9.5767975,-0.08618164,1.8531036,9.602234,-0.08169556,1.9894257,0.007461548,-0.0053253174,-0.007446289,-112.03766,3.251648,11.854553,1,0.0,0.0,0.0,0.0
1.371582031,0.025014453,0.99650764,-0.07966743,-0.20147854,0.08308249,0.97596294,0.9791734,-0.008361902,0.20285314,0.024509,0.9960233,-0.08565564,-0.20679073,0.08887938,0.9743398,0.9780782,-0.006167302,0.20814672,9.658203,-0.15800476,1.9871826,9.602234,-0.08200073,1.9892731,0.0021362305,0.0,-0.014907837,-110.42328,3.7887573,12.719727,1,0.0,0.0,0.0,0.0
1.37600708,0.025019025,0.99651057,-0.0796286,-0.2014604,0.083045244,0.9759699,0.9791771,-0.008375804,0.20283513,0.024518453,0.9960333,-0.085535824,-0.20668441,0.08876347,0.97437286,0.97810036,-0.006211194,0.20804091,9.667786,-0.10533142,1.9488678,9.602386,-0.08213806,1.9891205,-0.006378174,-0.0010681152,-0.0021209717,-110.42328,3.7887573,12.719727,1,0.0,0.0,0.0,0.0
1.380401611,0.025017688,0.9965096,-0.07963991,-0.20141698,0.083055675,0.9759779,0.97918606,-0.008375881,0.20279185,0.024527846,0.99604326,-0.085417725,-0.20657986,0.08864922,0.97440547,0.97812223,-0.0062544867,0.20793685,9.548065,-0.08139038,1.8531036,9.602386,-0.08213806,1.988678,-0.003189087,-0.0021209717,0.0063934326,-110.42328,3.7887573,12.719727,1,0.0,0.0,0.0,0.0
1.384796143,0.03391773,0.9918497,-0.12281591,-0.20009555,0.12713775,0.97149265,0.9791892,-0.008375907,0.20277694,0.024537029,0.9960529,-0.0853021,-0.2064766,0.08853734,0.9744376,0.9781438,-0.006296915,0.20783406,9.538498,-0.13885498,1.9776001,9.602386,-0.08213806,1.9885254,0.005340576,0.0063934326,-0.017044067,-111.320496,5.403137,12.892151,1,0.0,0.0,0.0,0.0
1.389221192,0.033929434,0.9918613,-0.12271972,-0.20009483,0.1270459,0.97150487,0.9791889,-0.008407026,0.2027769,0.024537029,0.9960529,-0.0853021,-0.2064766,0.08853734,0.9744376,0.9781438,-0.006296915,0.20783406,9.538498,-0.13885498,1.9776001,9.602386,-0.08244324,1.9885254,0.005340576,0.0063934326,-0.017044067,-111.320496,5.403137,12.892151,1,0.0,0.0,0.0,0.0
1.393615723,0.03392193,0.99185383,-0.12278136,-0.20006208,0.12710446,0.9715038,0.97919583,-0.0083913915,0.20274398,0.024917431,0.99591535,-0.0867848,-0.20623203,0.09006536,0.9743493,0.9781858,-0.0063804756,0.20763385,9.600739,-0.07182312,1.8722534,9.602539,-0.08229065,1.9882202,0.0032043457,0.0021362305,-0.010650635,-111.320496,5.403137,12.892151,1,0.0,0.0,0.0,0.0
1.398040772,0.022096397,0.9976095,-0.065474376,-0.20180184,0.068592936,0.97702146,0.9791771,-0.008375804,0.20283513,0.025101565,0.9958477,-0.08750515,-0.2061125,0.090807565,0.9743057,0.97820634,-0.006420694,0.2075361,9.677353,-0.20111084,2.0111237,9.602386,-0.08213806,1.9891205,0.0021362305,0.0010681152,-0.018096924,-111.67908,3.251648,11.854553,1,0.0,0.0,0.0,0.0
1.402435303,0.02209186,0.997607,-0.06551643,-0.20181681,0.068633325,0.9770157,0.97917414,-0.0083617745,0.20285006,0.025039423,0.9958879,-0.08706519,-0.20602661,0.09036366,0.9743652,0.978226,-0.006459797,0.20744206,9.600739,-0.0622406,2.0111237,9.602386,-0.08200073,1.9892731,0.0021362305,0.023422241,-0.015975952,-111.67908,3.251648,11.854553,1,0.0,0.0,0.0,0.0
1.406860352,0.02209186,0.997607,-0.06551643,-0.20181681,0.068633325,0.9770157,0.97917414,-0.0083617745,0.20285006,0.024978537,0.9959269,-0.08663489,-0.20594274,0.08992947,0.97442305,0.9782452,-0.006497836,0.20735022,9.619888,-0.04788208,2.015915,9.602386,-0.08200073,1.9892731,-0.007446289,0.018096924,-0.0010528564,-111.67908,3.251648,11.854553,1,0.0,0.0,0.0,0.0
1.411254883,0.026223863,0.99598396,-0.08560525,-0.20132095,0.08914197,0.9754607,0.97917426,-0.008346217,0.20285009,0.024918946,0.995965,-0.086213164,-0.20586056,0.089503944,0.97447956,0.97826403,-0.0065351147,0.20726027,9.662994,-0.05265808,1.9871826,9.602386,-0.081848145,1.9892731,-0.006378174,0.007461548,-0.008514404,-112.03766,3.968811,11.854553,1,0.0,0.0,0.0,0.0
1.415679932,0.026223863,0.99598396,-0.08560525,-0.20132095,0.08914197,0.9754607,0.97917426,-0.008346217,0.20285009,0.024944983,0.9959654,-0.08620085,-0.20576987,0.08949668,0.9744994,0.97828245,-0.0065713366,0.20717217,9.667786,-0.08618164,2.0207062,9.602386,-0.081848145,1.9892731,0.005340576,0.011703491,-0.01171875,-112.03766,3.968811,11.854553,1,0.0,0.0,0.0,0.0
1.420074463,0.026236208,0.9959934,-0.08549172,-0.20138226,0.08903381,0.97545797,0.9791613,-0.008375802,0.20291132,0.024970496,0.99596584,-0.08618875,-0.20568097,0.08948953,0.97451884,0.9783005,-0.0066068345,0.20708582,9.643829,-0.14364624,2.1499786,9.602234,-0.08213806,1.9898682,-0.012756348,0.014907837,-0.0021209717,-112.03766,3.968811,11.854553,1,0.0,0.0,0.0,0.0
1.424468994,0.019915372,0.9982982,-0.054808497,-0.20213893,0.057707686,0.9776552,0.97915435,-0.008391436,0.20294422,0.024995726,0.99596643,-0.08617464,-0.20559491,0.08948036,0.97453785,0.9783179,-0.006642214,0.20700227,9.615112,-0.12449646,2.0685883,9.602081,-0.08229065,1.9901733,0.008529663,0.0063934326,-0.0063934326,-112.39624,2.8930664,11.854553,1,0.0,0.0,0.0,0.0
1.428894043,0.019943392,0.99831206,-0.054546196,-0.2022154,0.057457156,0.9776541,0.97913796,-0.008467658,0.20301996,0.024891727,0.996023,-0.08554853,-0.20552702,0.08884572,0.97461027,0.97833484,-0.006677198,0.20692116,9.62468,-0.13885498,1.9823914,9.601944,-0.08303833,1.990921,0.0138549805,0.0053253174,-0.004257202,-112.39624,2.8930664,11.854553,1,0.0,0.0,0.0,0.0
1.433288574,0.019955048,0.9983177,-0.054437056,-0.20225891,0.05735302,0.9776511,0.9791287,-0.008498698,0.20306318,0.024790494,0.9960785,-0.08492966,-0.20546193,0.08821876,0.9746809,0.97835106,-0.006713008,0.2068432,9.485825,-0.15800476,2.0925293,9.601944,-0.083343506,1.9913635,-0.012756348,0.020233154,0.009597778,-112.39624,2.8930664,11.854553,1,0.0,0.0,0.0,0.0
1.437713623,0.023097044,0.9973109,-0.069552824,-0.2019249,0.072791316,0.9766923,0.97912866,-0.008514257,0.20306316,0.0246916,0.9961327,-0.084320806,-0.205399,0.0876021,0.9747498,0.9783668,-0.006748722,0.2067677,9.619888,-0.12927246,1.9871826,9.601944,-0.083496094,1.9913635,0.004272461,-0.008514404,-0.004257202,-112.93335,3.4301758,11.682129,1,0.0,0.0,0.0,0.0
1.442108154,0.023084879,0.99730307,-0.069668144,-0.20186654,0.07290128,0.97669613,0.97914094,-0.008483244,0.20300503,0.024658622,0.9961584,-0.0840257,-0.20532966,0.08730603,0.974791,0.9783822,-0.006784033,0.20669371,9.562439,-0.07661438,2.1068878,9.601944,-0.08319092,1.9907684,0.014923096,-0.004257202,0.004272461,-112.93335,3.4301758,11.682129,1,0.0,0.0,0.0,0.0
1.446533203,0.023090607,0.9973068,-0.069613844,-0.20188153,0.0728494,0.976697,0.9791378,-0.008498777,0.20301993,0.02462609,0.9961834,-0.08373876,-0.20526055,0.087018035,0.9748313,0.9783975,-0.006818018,0.20662007,9.600739,-0.15322876,2.0015411,9.601944,-0.083343506,1.990921,0.008529663,-0.02130127,-0.0063934326,-112.93335,3.4301758,11.682129,1,0.0,0.0,0.0,0.0
1.450927735,0.025127469,0.9965175,-0.07950808,-0.20154668,0.08294995,0.97596014,0.9791565,-0.008498818,0.20292911,0.024594381,0.99620783,-0.083456606,-0.20519297,0.086734906,0.97487074,0.97841245,-0.006851633,0.20654804,9.548065,-0.0622406,2.087738,9.602081,-0.083343506,1.9900208,0.005340576,-0.019165039,-0.0063934326,-113.29193,3.7887573,11.682129,1,0.0,0.0,0.0,0.0
1.455322266,0.025108162,0.99650335,-0.07969075,-0.20143732,0.08312399,0.9759679,0.97917956,-0.008452068,0.20282006,0.02460476,0.99621415,-0.083377615,-0.20512012,0.08665924,0.97489274,0.97842747,-0.006884577,0.2064758,9.634262,-0.11012268,1.9823914,9.602386,-0.08288574,1.9889679,-0.003189087,-0.026626587,-0.0010528564,-113.29193,3.7887573,11.682129,1,0.0,0.0,0.0,0.0
