Time,Rot1,Rot2,Rot3,Rot4,Rot5,Rot6,Rot7,Rot8,Rot9,FRot1,FRot2,FRot3,FRot4,FRot5,FRot6,FRot7,FRot8,FRot9,AccX,AccY,AccZ,GravX,GravY,GravZ,GyroX,GyroY,GyroZ,MagX,MagY,MagZ,Imid
0.0,0.0,0.0,0.0,0.0,0.0,0.0,0.0,0.0,0.0,0.0,0.0,0.0,0.0,0.0,0.0,0.0,0.0,0.0,0.0,0.0,0.0,9.613606,0.21399765,1.9243608,0.0,0.0,0.0,0.0,0.0,0.0,0,0.0,0.0,0.0,0.0
0.008300781,0.0,0.0,0.0,0.0,0.0,0.0,0.0,0.0,0.0,1.0,0.0,0.0,0.0,1.0,0.0,0.0,0.0,1.0,9.74118,0.31585693,1.8221283,9.614259,0.21678634,1.9207872,-0.024963379,-0.031341553,-0.012817383,0.0,0.0,0.0,0,0.0,0.0,0.0,0.0
0.016601563,0.01584087,-0.99928534,0.034318425,0.19602725,-0.030552847,-0.98012227,0.9804705,0.022253342,0.1954032,1.0,0.0,0.0,0.0,1.0,0.0,0.0,0.0,1.0,9.74118,0.31585693,1.8221283,9.61513,0.21823072,1.9162507,-0.05809021,-0.0554657,0.017425537,-31.318665,-1.499939,-29.219055,0,0.0,0.0,0.0,0.0
0.024902344,0.015750898,-0.9992835,0.034414772,0.19544688,-0.030678056,-0.98023427,0.9805878,0.022165833,0.19482364,0.99911016,-0.03202172,-0.027449744,0.03199741,0.99948704,-0.0013246024,0.027478078,4.4510313E-4,0.9996223,9.775879,0.27397156,1.8149567,9.6162815,0.21737257,1.9105673,-0.07489014,-0.060668945,0.02017212,-31.318665,-1.499939,-29.219055,0,0.0,0.0,0.0,0.0
0.033203125,0.015526255,-0.9992787,0.034655314,0.19480987,-0.030972075,-0.98035187,0.9807181,0.021972388,0.19418846,0.992328,-0.0940385,-0.08026201,0.093626626,0.99556774,-0.008888166,0.0807421,0.0013053148,0.9967342,9.854843,0.32302856,1.8245239,9.617559,0.21547553,1.9043384,-0.08695984,-0.061279297,0.0178833,-31.318665,-1.499939,-29.219055,0,0.0,0.0,0.0,0.0
0.041503906,0.017870937,-0.9996054,0.02167569,0.19383298,-0.01780415,-0.98087305,0.98087174,0.02173058,0.19343828,0.97131604,-0.18181922,-0.15325455,0.17919734,0.98332876,-0.030869057,0.1563122,0.0025208045,0.9877045,9.88356,0.16630554,1.8149567,9.619066,0.21310419,1.8969815,-0.09474182,-0.026611328,-0.009460449,-31.498718,-1.1993408,-29.3396,0,0.0,0.0,0.0,0.0
0.049804688,0.01623296,-0.9994532,0.028806422,0.19341078,-0.025127333,-0.9807959,0.9809835,0.021492695,0.19289714,0.97131604,-0.18181922,-0.15325455,0.17919734,0.98332876,-0.030869057,0.1563122,0.0025208045,0.9877045,9.88356,0.16630554,1.8149567,9.620163,0.21077137,1.891675,-0.09474182,-0.026611328,-0.009460449,-31.799316,-1.3793945,-29.93927,0,0.0,0.0,0.0,0.0
0.058105469,0.016062468,-0.99945074,0.028987393,0.19298865,-0.025347015,-0.9808735,0.9810695,0.021349488,0.19247551,0.951386,-0.23653099,-0.19727613,0.2309192,0.9716185,-0.051321965,0.20381635,0.003272153,0.97900367,9.877579,0.15434265,1.7479553,9.621005,0.20936695,1.8875399,-0.07824707,0.0040893555,-0.02456665,-31.799316,-1.3793945,-29.93927,0,0.0,0.0,0.0,0.0
0.06640625,0.013483396,-0.99902564,0.042024143,0.19296971,-0.038638067,-0.9804437,0.98111206,0.021329096,0.19226071,0.9276378,-0.2883892,-0.23731762,0.27835646,0.957505,-0.07551111,0.2490094,0.003988074,0.96849287,9.877579,0.15434265,1.7479553,9.621423,0.20916699,1.8854336,-0.05519104,0.027297974,-0.031448364,-32.099915,-1.6799927,-29.638672,0,0.0,0.0,0.0,0.0
0.074707031,0.013795373,-0.9990354,0.041686814,0.19290808,-0.038248368,-0.980471,0.9811198,0.02156769,0.19219437,0.91448635,-0.3135047,-0.25579187,0.30068356,0.94957674,-0.08884477,0.27074724,0.0043349233,0.9626407,9.812973,0.27038574,1.7204437,9.621499,0.21150678,1.884783,-0.042510986,0.046691895,-0.038772583,-32.099915,-1.6799927,-29.638672,0,0.0,0.0,0.0,0.0
0.083007813,0.014179435,-0.99904734,0.041271534,0.19305943,-0.037763596,-0.9804601,0.98108464,0.02187023,0.19234005,0.8861998,-0.3615882,-0.28966185,0.34201756,0.9323244,-0.11745302,0.31252843,0.0050173984,0.9498952,9.772293,0.27038574,1.7204437,9.621154,0.2144737,1.8862115,-0.023590088,0.07203674,-0.038467407,-32.099915,-1.6799927,-29.638672,0,0.0,0.0,0.0,0.0
0.091308594,0.016302899,-0.9993327,0.03268472,0.19323061,-0.028923867,-0.980727,0.98101795,0.02230438,0.19263014,0.8558052,-0.40686277,-0.31946853,0.37898684,0.9134716,-0.14811687,0.35208866,0.0056848284,0.9359494,9.808182,0.33857727,1.7264252,9.6205,0.21873125,1.8890564,-0.02420044,0.07249451,-0.03892517,-32.03888,-1.499939,-29.87976,0,0.0,0.0,0.0,0.0
0.099609375,0.015795164,-0.9991737,0.037450433,0.19362974,-0.033689428,-0.9804961,0.9809475,0.022738611,0.1929376,0.8400705,-0.42831734,-0.3329052,0.39572898,0.9036083,-0.16398326,0.37105277,0.0060172495,0.92859226,9.759125,0.38763428,1.812561,9.619809,0.2229896,1.8920715,-0.020523071,0.06440735,-0.03465271,-32.27997,-1.6189575,-29.579163,0,0.0,0.0,0.0,0.0
0.107910156,0.01633616,-0.9991869,0.036860753,0.19397373,-0.032998227,-0.9804515,0.98087066,0.023166833,0.19327696,0.8076469,-0.4694222,-0.35686052,0.42630583,0.88294864,-0.19663449,0.40739408,0.0066794776,0.91322803,9.76033,0.34576416,1.8508453,9.619056,0.22718903,1.8953995,-0.036865234,0.045166016,-0.010070801,-32.27997,-1.6189575,-29.579163,0,0.0,0.0,0.0,0.0
0.116210938,0.014987118,-0.99890155,0.04439672,0.19416732,-0.04064902,-0.9801259,0.980854,0.023309654,0.19334483,0.7744472,-0.5079409,-0.3771308,0.4529284,0.8613608,-0.2300295,0.44168705,0.007332441,0.8971392,9.86322,0.30867004,1.7742767,9.618892,0.22858962,1.8960651,-0.07672119,0.01171875,0.011917114,-32.458496,-1.7990112,-29.519653,0,0.0,0.0,0.0,0.0
0.124511719,0.014942562,-0.9989001,0.04444562,0.19409098,-0.040707424,-0.9801386,0.9808697,0.023272274,0.19326921,0.7576086,-0.52640224,-0.38591442,0.4649505,0.8502013,-0.246939,0.45809415,0.0076520173,0.8888708,9.932602,0.3146515,1.8089752,9.619046,0.22822306,1.8953235,-0.09352112,0.01461792,0.009796143,-32.458496,-1.7990112,-29.519653,0,0.0,0.0,0.0,0.0
0.1328125,0.01252495,-0.9983475,0.056082644,0.19415434,-0.052591454,-0.97956014,0.980891,0.023157632,0.19317481,0.7238112,-0.56151974,-0.40098995,0.48631278,0.827422,-0.28084284,0.4894867,0.008270639,0.8719715,9.932602,0.3146515,1.8843536,9.619255,0.2270988,1.8943977,-0.108795166,0.0068359375,0.009628296,-32.759094,-2.0996094,-30.059814,0,0.0,0.0,0.0,0.0
0.141113281,0.0124110235,-0.99834204,0.05620641,0.19407529,-0.052736767,-0.9795681,0.98090816,0.02306572,0.19309899,0.7068146,-0.5783969,-0.4072717,0.4958826,0.81571054,-0.29785374,0.5044935,0.008568407,0.863373,9.974487,0.27038574,1.8843536,9.619423,0.22619745,1.8936543,-0.108795166,-0.016220093,-0.0051727295,-32.759094,-2.0996094,-30.059814,0,0.0,0.0,0.0,0.0
0.149414063,0.01195269,-0.9982341,0.05818717,0.19389647,-0.054772988,-0.97949165,0.98094916,0.022989852,0.19289939,0.67302984,-0.61044675,-0.4175949,0.5125908,0.7920045,-0.33163148,0.5331804,0.009142554,0.84595215,9.994827,0.25842285,1.8963165,9.619825,0.22545344,1.8916969,-0.087875366,-0.026763916,-0.012817383,-32.818604,-2.1591187,-30.299377,0,0.0,0.0,0.0,0.0
0.157714844,0.0119593935,-0.99823445,0.058179937,0.19357514,-0.05477213,-0.9795553,0.9810126,0.02297708,0.19257835,0.63968575,-0.64037627,-0.42511213,0.5263162,0.7680002,-0.3649204,0.5601726,0.009690957,0.8283192,9.94696,0.29670715,1.8771667,9.620447,0.22532819,1.8885485,-0.06388855,-0.054855347,-0.012054443,-32.818604,-2.1591187,-30.299377,0,0.0,0.0,0.0,0.0
0.166015625,0.012149989,-0.99824417,0.05797419,0.19309567,-0.05454481,-0.97966266,0.9811047,0.023097456,0.1920939,0.6232586,-0.6545566,-0.4279069,0.5321167,0.7559474,-0.3813074,0.57306236,0.0099567035,0.8194512,9.909882,0.23928833,1.8173523,9.62135,0.22650866,1.8837976,-0.055648804,-0.058517456,-0.025787354,-32.818604,-2.1591187,-30.299377,0,0.0,0.0,0.0,0.0
0.174316406,0.009183438,-0.9972232,0.07390173,0.1927357,-0.07075385,-0.9786964,0.9812077,0.023231305,0.19155076,0.59100664,-0.68141395,-0.43172464,0.54174036,0.7318232,-0.41346365,0.59768605,0.010477125,0.8016618,9.762711,0.24287415,1.7623138,9.622361,0.22782128,1.8784713,-0.035491943,-0.027069092,-0.031600952,-32.818604,-2.5787354,-30.718994,0,0.0,0.0,0.0,0.0
0.182617188,0.0094750775,-0.99724346,0.073591866,0.19235542,-0.07040296,-0.97879666,0.98127955,0.023429967,0.1911581,0.5593165,-0.7068268,-0.43308303,0.5493016,0.7073014,-0.44496349,0.6208323,0.010982237,0.78386647,9.744766,0.23449707,1.7324066,9.623066,0.22976951,1.8746208,-0.034118652,0.0028686523,-0.025024414,-32.818604,-2.5787354,-30.718994,0,0.0,0.0,0.0,0.0
0.190917969,0.008402204,-0.9967538,0.08006994,0.19221391,-0.07696966,-0.97832996,0.9813171,0.023610685,0.19094324,0.54385835,-0.7188326,-0.4330101,0.5522235,0.6950925,-0.46032128,0.631876,0.011231214,0.7749881,9.744766,0.23449707,1.7324066,9.623434,0.23154174,1.8725137,-0.038391113,0.018447876,-0.029769897,-32.818604,-2.758789,-30.899048,0,0.0,0.0,0.0,0.0
0.19921875,0.007501321,-0.9962449,0.086254746,0.19221318,-0.083212145,-0.977819,0.98132455,0.023914231,0.19086719,0.5136242,-0.7416988,-0.43136185,0.5566416,0.67063063,-0.49031073,0.65294737,0.011721486,0.75731254,9.765106,0.3409729,1.7001038,9.623507,0.2345185,1.8717678,-0.051376343,0.044403076,-0.020599365,-32.939148,-2.9388428,-31.079102,0,0.0,0.0,0.0,0.0
0.207519531,0.0077963388,-0.9962694,0.08594439,0.19230181,-0.082849026,-0.97783226,0.9813048,0.024150776,0.1909385,0.484422,-0.76303667,-0.42791387,0.55926853,0.6462399,-0.51922315,0.6727213,0.012204364,0.7397952,9.799805,0.33857727,1.6905365,9.623313,0.2368382,1.8724672,-0.06436157,0.04928589,-0.006088257,-32.939148,-2.9388428,-31.079102,0,0.0,0.0,0.0,0.0
0.215820313,0.007921969,-0.99627984,0.085812226,0.19244738,-0.08269172,-0.977817,0.9812753,0.024260573,0.19107635,0.47028375,-0.7730946,-0.42562655,0.5599231,0.6341687,-0.5332131,0.6821432,0.012443314,0.7311127,9.877579,0.3397827,1.7359924,9.623023,0.23791493,1.8738189,-0.078552246,0.059677124,4.7302246E-4,-32.939148,-2.9388428,-31.079102,0,0.0,0.0,0.0,0.0
0.224121094,0.005592811,-0.99521035,0.097596794,0.19275838,-0.094695,-0.97666633,0.9812303,0.02427491,0.19130552,0.44294846,-0.79205996,-0.4200449,0.56005037,0.6103068,-0.5602403,0.7001002,0.012911321,0.7139279,9.9015045,0.36610413,1.812561,9.622582,0.23805554,1.8760663,-0.068481445,0.05479431,0.0047454834,-33.059692,-3.239441,-31.13861,0,0.0,0.0,0.0,0.0
0.232421875,0.005594632,-0.9952105,0.09759487,0.1930456,-0.094685644,-0.9766105,0.9811738,0.024304038,0.19159128,0.41661,-0.80986124,-0.4129901,0.55896723,0.58646923,-0.58618206,0.7169321,0.013361359,0.6970149,9.902695,0.32901,1.8592224,9.622028,0.2383412,1.8788687,-0.06878662,0.04135132,0.0013885498,-33.059692,-3.239441,-31.13861,0,0.0,0.0,0.0,0.0
0.240722656,0.005161939,-0.9950003,0.09973844,0.19326615,-0.09686659,-0.97635293,0.98113275,0.02431594,0.19179985,0.40392268,-0.8182383,-0.40906304,0.55794257,0.5747188,-0.59866387,0.7249459,0.013580233,0.68867195,9.902695,0.32901,1.8592224,9.621626,0.23845792,1.8809141,-0.06878662,0.0138549805,-0.009292603,-33.059692,-3.2989502,-31.199646,0,0.0,0.0,0.0,0.0
0.249023438,0.0022847613,-0.99345505,0.11420066,0.19337884,-0.111606374,-0.97475564,0.9811215,0.024311077,0.1918582,0.37945896,-0.8340529,-0.40045792,0.5550648,0.5515065,-0.62269056,0.740212,0.014005404,0.67222756,9.866806,0.2536316,1.8652039,9.621515,0.23841023,1.8814863,-0.061447144,-0.0017242432,-0.027313232,-33.47931,-3.718567,-31.678772,0,0.0,0.0,0.0,0.0
0.257324219,0.002283009,-0.9934549,0.11420251,0.19339034,-0.11160824,-0.9747532,0.9811193,0.024311028,0.19186977,0.3559369,-0.8489319,-0.39067054,0.5513682,0.5283056,-0.6456673,0.7545211,0.014413544,0.6561175,9.839279,0.18424988,1.9142609,9.621493,0.23840976,1.8815997,-0.06175232,-0.013473511,-0.03465271,-33.47931,-3.718567,-31.678772,0,0.0,0.0,0.0,0.0
0.265625,0.0023786565,-0.9934661,0.11410273,0.19345027,-0.111490496,-0.9747547,0.9811072,0.024391811,0.19192109,0.3446502,-0.8559173,-0.385515,0.54916686,0.51690626,-0.6566762,0.7613356,0.014611511,0.6481933,9.879959,0.18902588,2.0243225,9.621375,0.23920196,1.882103,-0.05747986,-0.024475098,-0.036636353,-33.47931,-3.718567,-31.678772,0,0.0,0.0,0.0,0.0
0.273925781,0.003284779,-0.99389267,0.11030139,0.19334367,-0.10758947,-0.9752141,0.9811256,0.02452944,0.19180948,0.31265247,-0.87518215,-0.36919448,0.5413543,0.48355505,-0.6878299,0.7805024,0.015186719,0.62496835,9.939789,0.19142151,1.927414,9.621555,0.24055164,1.8810085,-0.042678833,-0.0663147,-0.04273987,-33.4198,-3.5995483,-31.439209,0,0.0,0.0,0.0,0.0
0.282226563,0.003530142,-0.99389994,0.1102298,0.19293803,-0.10748237,-0.97530645,0.98120457,0.024710491,0.19138165,0.30263337,-0.8810385,-0.36357158,0.5383741,0.47279477,-0.69758046,0.7864899,0.015373589,0.6174118,9.857239,0.20100403,1.8628082,9.622331,0.24232717,1.876813,-0.04298401,-0.0713501,-0.04472351,-33.599854,-3.5995483,-31.3797,0,0.0,0.0,0.0,0.0
0.290527344,0.003955822,-0.99394804,0.10977954,0.19213997,-0.1069794,-0.9755191,0.98135954,0.02495202,0.19055398,0.2929073,-0.8866482,-0.35785523,0.53523713,0.46218276,-0.707042,0.792292,0.015560342,0.60994375,9.817749,0.22132874,1.6905365,9.62385,0.24469574,1.8686962,-0.042678833,-0.073791504,-0.039230347,-33.599854,-3.5995483,-31.3797,0,0.0,0.0,0.0,0.0
0.298828125,0.0043424405,-0.99399626,0.109328106,0.19132365,-0.106483616,-0.9757339,0.9815174,0.025154117,0.18971258,0.27431762,-0.89715886,-0.34620205,0.5285367,0.44142064,-0.72511846,0.80336714,0.015932282,0.5952709,9.7986145,0.28833008,1.5385895,9.625398,0.24667764,1.8604449,-0.044052124,-0.04966736,-0.027160645,-33.53882,-3.5385132,-30.839539,0,0.0,0.0,0.0,0.0
0.307128906,0.004753031,-0.9940429,0.108886935,0.19047044,-0.10599476,-0.9759541,0.98168147,0.025378477,0.18883194,0.2654426,-0.90207785,-0.34028772,0.524998,0.43127224,-0.7337447,0.80865157,0.016116735,0.5880671,9.7986145,0.28833008,1.5385895,9.627007,0.24887784,1.8518088,-0.054885864,-0.02355957,-0.025634766,-33.53882,-3.5385132,-30.839539,0,0.0,0.0,0.0,0.0
0.315429688,0.005090664,-0.9940808,0.1085241,0.19001345,-0.10558669,-0.97608733,0.9817683,0.02558997,0.18835121,0.24850382,-0.91128665,-0.32833305,0.5175994,0.4114426,-0.75020385,0.81874096,0.01648353,0.5739265,9.754349,0.33021545,1.5649109,9.627858,0.2509519,1.8470944,-0.07199097,0.025314331,-0.012817383,-33.53882,-3.5385132,-30.839539,0,0.0,0.0,0.0,0.0
0.323730469,0.00778869,-0.9953934,0.095557906,0.18980102,-0.09235208,-0.97746956,0.98179173,0.025750197,0.18820739,0.23260956,-0.9197138,-0.31625834,0.50986594,0.39222804,-0.7656329,0.8282086,0.016844178,0.5601668,9.805786,0.36489868,1.5984039,9.628088,0.25252318,1.845684,-0.068481445,0.056015015,-0.0024261475,-33.17871,-3.1799316,-30.419922,0,0.0,0.0,0.0,0.0
0.33203125,0.007904294,-0.9954045,0.09543298,0.18983285,-0.0922068,-0.9774771,0.98178464,0.025842583,0.18823165,0.22517194,-0.9235537,-0.31039676,0.505842,0.3830911,-0.7728939,0.83271927,0.017022315,0.5534336,9.805786,0.36489868,1.5984039,9.628018,0.25342917,1.845922,-0.053359985,0.06074524,-0.0054779053,-33.17871,-3.1799316,-30.419922,0,0.0,0.0,0.0,0.0
0.340332031,0.009933949,-0.9962491,0.08595957,0.1901515,-0.08251317,-0.9782811,0.9817045,0.026063535,0.18861859,0.21100438,-0.9307432,-0.29865396,0.4976609,0.36526054,-0.78671366,0.84131485,0.017371627,0.5402661,9.907486,0.44506836,1.8173523,9.627233,0.25559598,1.8497164,-0.050308228,0.06639099,-0.015106201,-33.059692,-2.9388428,-30.239868,0,0.0,0.0,0.0,0.0
0.348632813,0.009991652,-0.99622965,0.08617865,0.19060305,-0.08270537,-0.97817713,0.9816164,0.026199512,0.18905802,0.19793221,-0.9371895,-0.28722572,0.48928604,0.34837037,-0.7995231,0.84936565,0.017715853,0.5275075,9.937393,0.3254242,1.8807526,9.6263685,0.25692946,1.8540258,-0.0385437,0.035079956,-0.03175354,-33.239746,-2.9388428,-30.119324,0,0.0,0.0,0.0,0.0
0.356933594,0.01027279,-0.9962534,0.08587068,0.19094084,-0.082340725,-0.978142,0.98154783,0.026444467,0.18937957,0.18569867,-0.94309443,-0.27584198,0.48086157,0.33203453,-0.8114956,0.8569061,0.018051835,0.51515627,9.9015045,0.20817566,1.956131,9.625696,0.25933164,1.8571792,-0.043273926,0.028060913,-0.03892517,-33.239746,-2.9388428,-30.119324,0,0.0,0.0,0.0,0.0
0.365234375,0.010427429,-0.99626625,0.08570127,0.19126153,-0.08213642,-0.9780964,0.98148376,0.026590394,0.18969095,0.17988895,-0.9458537,-0.2701863,0.47664165,0.32408136,-0.81718045,0.86049557,0.018219702,0.50913197,9.9015045,0.20817566,1.956131,9.625068,0.2607627,1.8602328,-0.043273926,0.017364502,-0.036483765,-33.239746,-2.9388428,-30.119324,0,0.0,0.0,0.0,0.0
0.373535156,0.01404011,-0.9976175,0.06754378,0.19126445,-0.06362361,-0.97947425,0.9814381,0.02667065,0.1899155,0.16884814,-0.9510136,-0.25896612,0.46821308,0.30859196,-0.82797796,0.8673332,0.018551212,0.4973822,9.867996,0.17228699,1.9633179,9.62462,0.26154974,1.8624347,-0.046035767,-0.007217407,-0.030075073,-33.239746,-2.519226,-30.299377,0,0.0,0.0,0.0,0.0
0.381835938,0.0140899345,-0.9976205,0.06748937,0.1913139,-0.06355937,-0.9794688,0.9814277,0.026712302,0.1899631,0.16377449,-0.95331323,-0.2537161,0.463952,0.30140296,-0.8330095,0.87058973,0.018713616,0.49165368,9.867996,0.17228699,1.9633179,9.624518,0.2619582,1.8629017,-0.047561646,-0.03668213,-0.028686523,-33.239746,-2.519226,-30.299377,0,0.0,0.0,0.0,0.0
0.390136719,0.014418713,-0.9977142,0.06601892,0.19105788,-0.062060166,-0.9796149,0.98147285,0.026738219,0.18972632,0.15412776,-0.9576193,-0.24333073,0.45548528,0.28740746,-0.84257346,0.87679976,0.019030388,0.480479,9.847656,0.19142151,1.886734,9.624961,0.26221237,1.8605797,-0.03656006,-0.06021118,-0.032058716,-33.1192,-2.4597168,-29.93927,0,0.0,0.0,0.0,0.0
0.3984375,0.016212437,-0.998215,0.057478737,0.19030838,-0.05335475,-0.98027337,0.9815905,0.02683131,0.1891037,0.14513616,-0.9615451,-0.2331661,0.4470954,0.27396545,-0.8514979,0.8826331,0.019335642,0.4696647,9.762711,0.18902588,1.7539368,9.626115,0.26312527,1.8544737,-0.038085938,-0.0625,-0.032974243,-32.939148,-2.279663,-30.299377,0,0.0,0.0,0.0,0.0
0.406738281,0.016379843,-0.99822277,0.057297334,0.18966703,-0.053162538,-0.98040813,0.9817118,0.026926346,0.18845916,0.14093974,-0.96333474,-0.22830285,0.44290698,0.26759395,-0.8557026,0.88542044,0.019485567,0.4643823,9.762711,0.18902588,1.7539368,9.627305,0.26405728,1.8481532,-0.053207397,-0.04890442,-0.030380249,-32.939148,-2.279663,-30.299377,0,0.0,0.0,0.0,0.0
0.415039063,0.016585683,-0.9982322,0.057074264,0.18899208,-0.052923247,-0.9805515,0.9818385,0.027049702,0.1877802,0.13296318,-0.9666847,-0.21872728,0.43460837,0.25520498,-0.8637048,0.89075047,0.019780243,0.45406207,9.756729,0.25723267,1.6307068,9.628547,0.26526695,1.8414948,-0.07885742,-0.02003479,-0.019226074,-32.939148,-2.279663,-30.299377,0,0.0,0.0,0.0,0.0
0.423339844,0.015812209,-0.99798864,0.061389275,0.18859723,-0.057317987,-0.98038036,0.98192716,0.027079826,0.18731156,0.12551443,-0.9697494,-0.20936142,0.4264335,0.24327627,-0.8711894,0.89576817,0.020068137,0.4440683,9.810577,0.3409729,1.5744781,9.629416,0.2655624,1.8368989,-0.09413147,0.008666992,-0.01449585,-33.059692,-2.3986816,-30.479431,0,0.0,0.0,0.0,0.0
0.431640625,0.015962474,-0.9979962,0.061226886,0.18822426,-0.057140633,-0.98046243,0.98199636,0.027174992,0.18693501,0.12193804,-0.97120386,-0.20468062,0.42240888,0.23739137,-0.8747663,0.8981658,0.020208381,0.43919218,9.810577,0.3409729,1.5744781,9.630095,0.26649565,1.8332062,-0.08894348,0.012329102,-0.017089844,-33.059692,-2.3986816,-30.479431,0,0.0,0.0,0.0,0.0
0.439941406,0.01572855,-0.9978796,0.06315849,0.18812354,-0.059084848,-0.9803666,0.9820194,0.027301341,0.1867953,0.11514636,-0.9739225,-0.19549,0.41447058,0.22595446,-0.88156605,0.9027489,0.020484282,0.42968002,9.923035,0.35533142,1.7084808,9.630321,0.26773468,1.831836,-0.08589172,0.029281616,-0.03327942,-33.17871,-2.4597168,-30.599976,0,0.0,0.0,0.0,0.0
0.448242188,0.016000431,-0.9978938,0.06286483,0.18809493,-0.058746338,-0.9803924,0.98202056,0.027511256,0.18675879,0.111907355,-0.9752012,-0.19094348,0.41056824,0.22035757,-0.88480294,0.90493673,0.020620633,0.42504627,9.923035,0.35533142,1.7084808,9.630332,0.26979327,1.8314781,-0.07611084,0.029586792,-0.036636353,-33.17871,-2.4597168,-30.599976,0,0.0,0.0,0.0,0.0
0.456542969,0.014198848,-0.9971748,0.07376189,0.18835615,-0.069781214,-0.9796185,0.9819981,0.027802957,0.18683319,0.105767556,-0.9775875,-0.18203264,0.4028945,0.20949017,-0.89094883,0.90911454,0.020893523,0.41602188,9.894318,0.3637085,1.7527466,9.630112,0.27265388,1.8322078,-0.056259155,0.024856567,-0.033737183,-33.53882,-2.758789,-30.839539,0,0.0,0.0,0.0,0.0
0.46484375,0.014442231,-0.9971907,0.073498614,0.18851438,-0.06947258,-0.97961,0.98196423,0.028003303,0.18698145,0.09987515,-0.97985214,-0.1729588,0.39545125,0.19859947,-0.8967589,0.91304064,0.021167155,0.4073189,9.877579,0.28953552,1.8281097,9.62978,0.2746186,1.8336617,-0.05076599,0.014312744,-0.032821655,-33.53882,-2.758789,-30.839539,0,0.0,0.0,0.0,0.0
0.473144531,0.014906588,-0.9972838,0.07213019,0.18858965,-0.068039246,-0.97969615,0.98194283,0.028206937,0.18706317,0.097085506,-0.9809056,-0.16851889,0.39180008,0.19331414,-0.8995123,0.91491365,0.02130389,0.40308687,9.877579,0.28953552,1.8281097,9.62957,0.27661556,1.8344631,-0.051071167,0.010498047,-0.034957886,-33.599854,-2.758789,-31.199646,0,0.0,0.0,0.0,0.0
0.481445313,0.01512973,-0.9972977,0.07189112,0.18865609,-0.06776071,-0.97970265,0.9819267,0.028385336,0.1871211,0.09181857,-0.98285776,-0.15987478,0.38463512,0.18309839,-0.90472686,0.9184907,0.021577273,0.39485347,9.838089,0.26560974,1.8448639,9.629411,0.27836505,1.835031,-0.05290222,0.00592041,-0.031448364,-33.599854,-2.758789,-31.199646,0,0.0,0.0,0.0,0.0
0.489746094,0.014167293,-0.99688184,0.0776275,0.18875039,-0.07357325,-0.9792653,0.9819229,0.028525757,0.18711947,0.08691664,-0.9846304,-0.15148789,0.377662,0.17327954,-0.9095854,0.92185515,0.021846894,0.38691834,9.793823,0.27038574,1.8257294,9.6293745,0.27974212,1.8350152,-0.061904907,-0.008132935,-0.015563965,-33.53882,-2.9388428,-31.619263,0,0.0,0.0,0.0,0.0
0.498046875,0.014212843,-0.9968848,0.07757947,0.18866709,-0.07351995,-0.9792852,0.98193824,0.028555123,0.18703444,0.08454968,-0.9854744,-0.14728083,0.3742575,0.1683958,-0.9119069,0.92346233,0.021980481,0.383059,9.793823,0.27038574,1.8257294,9.629525,0.2800301,1.8341814,-0.06970215,-0.017440796,-0.0062408447,-33.53882,-2.9388428,-31.619263,0,0.0,0.0,0.0,0.0
0.506347656,0.010919678,-0.99543864,0.09477736,0.18859011,-0.09103181,-0.9778277,0.98199517,0.02855164,0.18673582,0.0800578,-0.9870426,-0.13906008,0.36758924,0.15890972,-0.91631097,0.92653596,0.022240857,0.37554815,9.847656,0.30867004,1.7431641,9.630083,0.27999595,1.8312529,-0.07260132,-0.01713562,-0.0146484375,-33.4198,-3.3599854,-31.439209,0,0.0,0.0,0.0,0.0
0.514648438,0.010960987,-0.9954423,0.09473385,0.18835875,-0.09098809,-0.97787625,0.9820391,0.028562443,0.18650296,0.07561553,-0.9885667,-0.13045354,0.36115536,0.14909728,-0.920509,0.9294348,0.02249078,0.36830023,9.838089,0.28833008,1.7742767,9.630514,0.2801019,1.8289694,-0.07733154,-5.0354004E-4,-0.030380249,-33.4198,-3.3599854,-31.439209,0,0.0,0.0,0.0,0.0
0.522949219,0.012662907,-0.9961677,0.08654223,0.1881324,-0.08262991,-0.9786616,0.98206204,0.028674094,0.18636508,0.073508516,-0.9892707,-0.12625343,0.35800362,0.14433336,-0.9224973,0.93082213,0.022612222,0.36477223,9.838089,0.28833008,1.7742767,9.630739,0.2811968,1.8276172,-0.069244385,0.0031738281,-0.03327942,-33.239746,-3.1799316,-31.739807,0,0.0,0.0,0.0,0.0
0.53125,0.012775179,-0.9961765,0.08642552,0.18805422,-0.08249662,-0.97868794,0.9820756,0.028755592,0.18628125,0.06963019,-0.9905262,-0.11836183,0.35181072,0.13540922,-0.9262255,0.9334778,0.02285229,0.3579063,9.848862,0.24406433,1.7742767,9.630872,0.28199604,1.826795,-0.06756592,0.0037841797,-0.02885437,-33.239746,-3.1799316,-31.739807,0,0.0,0.0,0.0,0.0
0.539550781,0.01017365,-0.9948877,0.10047341,0.18811043,-0.09678048,-0.9773678,0.9820951,0.028843498,0.18616414,0.066018455,-0.99165535,-0.11073057,0.3458031,0.12683347,-0.92969537,0.93598175,0.023086077,0.35129088,9.893127,0.24406433,1.7491608,9.631063,0.2828581,1.8256466,-0.064971924,0.0037841797,-0.034957886,-33.17871,-3.5385132,-31.678772,0,0.0,0.0,0.0,0.0
0.547851563,0.010328335,-0.9949023,0.10031303,0.18801646,-0.0965969,-0.9774041,0.9821116,0.028955465,0.18606032,0.06420812,-0.9922114,-0.10674198,0.34288588,0.1223856,-0.9313705,0.93718016,0.02320123,0.34807342,9.893127,0.24406433,1.7491608,9.631225,0.2839561,1.8246286,-0.053970337,0.016448975,-0.036331177,-33.17871,-3.5385132,-31.678772,0,0.0,0.0,0.0,0.0
0.556152344,0.008889269,-0.99402624,0.10877925,0.18808809,-0.105179735,-0.9765041,0.98211193,0.029140484,0.18602951,0.062463358,-0.9927365,-0.10282317,0.34001157,0.11802807,-0.9329853,0.93834454,0.023316324,0.34491432,9.918243,0.28355408,1.7515411,9.6312275,0.2857705,1.8243262,-0.052444458,0.02684021,-0.035110474,-33.299255,-3.718567,-31.259155,0,0.0,0.0,0.0,0.0
0.564453125,0.009237955,-0.99406314,0.108412184,0.18802519,-0.10475615,-0.9765617,0.9821208,0.029405653,0.18594117,0.057423364,-0.9941956,-0.090982005,0.33168608,0.1049544,-0.93753344,0.94164056,0.023658857,0.33578768,9.853638,0.34217834,1.6665955,9.631315,0.28837097,1.8234601,-0.032440186,0.025466919,-0.026245117,-33.299255,-3.718567,-31.259155,0,0.0,0.0,0.0,0.0
0.572753906,0.0087281205,-0.9936282,0.11236884,0.18800844,-0.10873843,-0.9761294,0.9821286,0.029646067,0.18586142,0.05586563,-0.9946252,-0.08717602,0.32899642,0.10077417,-0.93893874,0.94267726,0.0237738,0.33285797,9.853638,0.34217834,1.6665955,9.6313925,0.29072863,1.8226781,-0.041290283,0.025466919,-0.026245117,-33.059692,-3.8391113,-31.3797,0,0.0,0.0,0.0,0.0
0.581054688,0.009021837,-0.99366015,0.11206332,0.1880725,-0.10838175,-0.97615683,0.9821137,0.029882751,0.18590234,0.052867003,-0.99542326,-0.07960926,0.32375252,0.092499994,-0.9416093,0.94466364,0.024006361,0.32716098,9.815353,0.36968994,1.7180481,9.631246,0.2930497,1.8230792,-0.044799805,0.032180786,-0.013885498,-33.059692,-3.8391113,-31.3797,0,0.0,0.0,0.0,0.0
0.589355469,0.0112214815,-0.99480516,0.10117679,0.18810599,-0.09727655,-0.9773195,0.98208463,0.029998936,0.18603721,0.05008544,-0.99612343,-0.07231617,0.31868002,0.084561504,-0.9440828,0.94653815,0.024239082,0.32167995,9.826126,0.33738708,1.7706909,9.63096,0.29418907,1.8244019,-0.0652771,0.028518677,-0.0068511963,-32.939148,-3.5385132,-31.13861,0,0.0,0.0,0.0,0.0
0.59765625,0.011252877,-0.9948082,0.10114395,0.1882316,-0.097234614,-0.9772996,0.9820602,0.030035917,0.18616016,0.04883931,-0.99642205,-0.0689766,0.31619874,0.08093157,-0.9452346,0.947435,0.024354288,0.31902006,9.826126,0.33738708,1.7706909,9.630721,0.29455173,1.8256077,-0.06939697,0.02027893,-0.005783081,-32.939148,-3.5385132,-31.13861,0,0.0,0.0,0.0,0.0
0.605957031,0.009902448,-0.9941104,0.10791924,0.1884219,-0.104136184,-0.9765516,0.98203826,0.0300046,0.18628095,0.046476617,-0.9969637,-0.06247674,0.31136772,0.07388692,-0.9474127,0.94915223,0.024579296,0.3138563,9.845276,0.30867004,1.8101654,9.630506,0.29424462,1.8267921,-0.079315186,0.0065307617,-0.013122559,-32.63855,-3.718567,-31.259155,0,0.0,0.0,0.0,0.0
0.614257813,0.009744179,-0.99409413,0.10808256,0.18851852,-0.10432318,-0.9765129,0.98202133,0.029890884,0.18638864,0.04418835,-0.99745536,-0.05594834,0.30671984,0.06684368,-0.9494497,0.9507735,0.024794152,0.30889305,9.902695,0.23928833,1.8855438,9.63034,0.29312944,1.8278482,-0.08068848,-0.010726929,-0.012969971,-32.63855,-3.718567,-31.259155,0,0.0,0.0,0.0,0.0
0.622558594,0.0106978435,-0.9946602,0.102648124,0.18843576,-0.09880947,-0.97710216,0.98202723,0.029795466,0.1863725,0.043099515,-0.9976762,-0.05276968,0.30445874,0.06342233,-0.95041174,0.95154995,0.024896093,0.30648473,9.902695,0.23928833,1.8855438,9.630398,0.2921937,1.82769,-0.072143555,-0.018356323,-0.016784668,-32.51953,-3.5385132,-30.899048,0,0.0,0.0,0.0,0.0
0.630859375,0.010694585,-0.9946599,0.10265153,0.18824045,-0.09881934,-0.97713876,0.98206466,0.02977326,0.18617839,0.041094434,-0.9980588,-0.046795737,0.30004534,0.057000697,-0.9522204,0.9530393,0.025090117,0.30180532,9.949356,0.26081848,1.8352966,9.630765,0.29197595,1.8257864,-0.05458069,-0.03164673,-0.024719238,-32.51953,-3.5385132,-30.899048,0,0.0,0.0,0.0,0.0
0.639160156,0.011699507,-0.9951029,0.098149486,0.1878661,-0.09422078,-0.97766495,0.982125,0.02987716,0.18584378,0.039222308,-0.9983874,-0.041039545,0.29578018,0.050830882,-0.95390266,0.9544505,0.025275582,0.2972969,9.878769,0.29431152,1.7611237,9.631356,0.29299486,1.822505,-0.03366089,-0.018966675,-0.030212402,-32.63855,-3.4194946,-30.778503,0,0.0,0.0,0.0,0.0
0.647460938,0.01193538,-0.99512446,0.09790175,0.18756348,-0.09394279,-0.97774976,0.98217994,0.03003261,0.18552777,0.038362518,-0.99852854,-0.038328774,0.29369467,0.047929756,-0.95469695,0.9551292,0.02536762,0.2951012,9.878769,0.29431152,1.7611237,9.631895,0.2945193,1.8194059,-0.031066895,-0.016067505,-0.02532959,-32.63855,-3.4194946,-30.778503,0,0.0,0.0,0.0,0.0
0.655761719,0.010995887,-0.99451894,0.10397608,0.18733414,-0.100092396,-0.97718334,0.98223466,0.03022327,0.18520677,0.036738187,-0.9987777,-0.033066623,0.28962368,0.04231043,-0.95620495,0.95643526,0.025552364,0.2908241,9.799805,0.33857727,1.6941223,9.632432,0.29638904,1.8162581,-0.031219482,0.0031738281,-0.015716553,-32.818604,-3.5995483,-30.958557,0,0.0,0.0,0.0,0.0
0.6640625,0.011130867,-0.99453235,0.10383454,0.18714893,-0.09993404,-0.9772352,0.9822685,0.030309996,0.1850133,0.03515919,-0.998996,-0.027762873,0.2856962,0.036667902,-0.9576184,0.957675,0.025737343,0.28669858,9.86441,0.3026886,1.7288208,9.632763,0.2972395,1.8143605,-0.033813477,0.023483276,-0.02609253,-32.818604,-3.5995483,-30.958557,0,0.0,0.0,0.0,0.0
0.672363281,0.012169327,-0.99500966,0.09903447,0.1870458,-0.09502838,-0.97774416,0.98227584,0.030422468,0.18495592,0.03441206,-0.99909025,-0.025187861,0.28378218,0.03393363,-0.9582881,0.9582711,0.025828803,0.28469175,9.86441,0.3026886,1.7288208,9.632835,0.2983425,1.8137981,-0.049087524,0.028213501,-0.027618408,-32.998657,-3.479004,-30.899048,0,0.0,0.0,0.0,0.0
0.680664063,0.012378952,-0.9950291,0.098812796,0.18709803,-0.09477014,-0.9777592,0.98226327,0.03059131,0.1849948,0.03305187,-0.99924606,-0.020368755,0.28005052,0.028822813,-0.95955247,0.95941615,0.026010724,0.280792,9.818954,0.31944275,1.7192383,9.632711,0.29999825,1.8141792,-0.044662476,0.027297974,-0.019683838,-32.998657,-3.479004,-30.899048,0,0.0,0.0,0.0,0.0
0.688964844,0.012741468,-0.9951775,0.09725917,0.18724613,-0.09317176,-0.9778844,0.9822304,0.030671084,0.18515599,0.03179147,-0.99937063,-0.015737833,0.27645737,0.023923825,-0.9607284,0.9605002,0.026192129,0.27704394,9.931412,0.29193115,1.8149567,9.63239,0.3007806,1.81576,-0.05229187,0.031723022,-0.013885498,-33.1192,-3.479004,-31.259155,0,0.0,0.0,0.0,0.0
0.697265625,0.012741618,-0.9951775,0.09725901,0.18742129,-0.09316609,-0.9778513,0.9821969,0.030687816,0.18533038,0.031203466,-0.9994216,-0.0135184005,0.27471313,0.021579506,-0.96128404,0.9610198,0.026281713,0.2752276,9.931412,0.29193115,1.8149567,9.632062,0.3009447,1.8174702,-0.05885315,0.035079956,-0.011123657,-33.1192,-3.479004,-31.259155,0,0.0,0.0,0.0,0.0
0.705566406,0.01254799,-0.99508923,0.09818289,0.18766224,-0.09410226,-0.9777155,0.9821535,0.030693589,0.1855599,0.03008708,-0.9995049,-0.009205345,0.27132893,0.017030561,-0.962336,0.96201634,0.026456203,0.271707,9.951752,0.31944275,1.8580322,9.631636,0.30100128,1.819721,-0.069244385,0.012939453,-0.0048675537,-33.17871,-3.479004,-31.019592,0,0.0,0.0,0.0,0.0
0.713867188,0.0125426315,-0.9950888,0.098188564,0.18782912,-0.09410362,-0.9776834,0.9821217,0.030705394,0.18572633,0.029034734,-0.9995658,-0.0050191595,0.26808134,0.012624176,-0.9633135,0.96295863,0.02662401,0.26833147,9.911072,0.3481598,1.8747711,9.631324,0.30111706,1.8213532,-0.07443237,-0.006149292,-0.017089844,-33.17871,-3.479004,-31.019592,0,0.0,0.0,0.0,0.0
0.722167969,0.012418394,-0.9950099,0.0990001,0.18787196,-0.094922684,-0.9775958,0.982115,0.030739516,0.18575568,0.028535046,-0.9995883,-0.0029858602,0.26650667,0.0104867965,-0.963776,0.96341056,0.026705641,0.26669618,9.911072,0.3481598,1.8747711,9.631258,0.30145168,1.8216411,-0.08345032,-0.011489868,-0.0146484375,-33.358765,-3.5385132,-31.3797,0,0.0,0.0,0.0,0.0
0.73046875,0.012344769,-0.9950032,0.09907761,0.18777582,-0.09501554,-0.9776055,0.98213434,0.030672692,0.18566458,0.027577695,-0.9996191,9.963727E-4,0.26344854,0.0063065505,-0.9646529,0.9642792,0.026865393,0.26352212,9.847656,0.2596283,1.8412781,9.631448,0.30079636,1.8207476,-0.08053589,-0.01927185,-0.023956299,-33.358765,-3.5385132,-31.3797,0,0.0,0.0,0.0,0.0
0.738769531,0.011280619,-0.99447,0.10441287,0.18760058,-0.10046053,-0.9770944,0.9821806,0.03061015,0.18542992,0.026679315,-0.99963236,0.0048294393,0.26050207,0.0022881755,-0.9654706,0.96510464,0.027016172,0.26046735,9.779465,0.24287415,1.7479553,9.631902,0.30018303,1.8184464,-0.07519531,-0.00340271,-0.01586914,-33.239746,-3.6590576,-31.259155,0,0.0,0.0,0.0,0.0
0.747070313,0.011244822,-0.9944665,0.104450524,0.1874083,-0.10051015,-0.97712624,0.98221767,0.030562507,0.18524106,0.026222695,-0.9996331,0.006796011,0.25906911,2.2958832E-4,-0.96585876,0.96550274,0.027088055,0.25898007,9.779465,0.24287415,1.7479553,9.632265,0.29971582,1.8165942,-0.06619263,0.0010375977,-0.01373291,-33.239746,-3.6590576,-31.259155,0,0.0,0.0,0.0,0.0
0.755371094,0.011159926,-0.9944182,0.104918495,0.18725044,-0.10099061,-0.977107,0.9822488,0.030550476,0.18507819,0.025779888,-0.99962956,0.0087252315,0.25765994,-0.0017888333,-0.966234,0.9658917,0.027157547,0.25751838,9.812973,0.29193115,1.7228394,9.63257,0.29959783,1.8149971,-0.060836792,0.0025634766,-0.008377075,-33.299255,-3.6590576,-31.13861,0,0.0,0.0,0.0,0.0
0.763671875,0.011176048,-0.99441993,0.10490145,0.18715288,-0.10097392,-0.9771276,0.98226726,0.030553028,0.18498002,0.024931945,-0.99961114,0.012490636,0.25491574,-0.005724455,-0.9669463,0.9666418,0.027291913,0.2546739,9.836899,0.29910278,1.7539368,9.632751,0.29962286,1.8140343,-0.06236267,0.0030212402,-0.016174316,-33.299255,-3.6590576,-31.13861,0,0.0,0.0,0.0,0.0
0.771972656,0.011439081,-0.9945293,0.10382913,0.18708706,-0.09987362,-0.9772531,0.98227674,0.03060397,0.18492112,0.024138637,-0.9995788,0.01611071,0.2522718,-0.009503385,-0.96760976,0.9673553,0.027421057,0.25193614,9.836899,0.29910278,1.7539368,9.632845,0.30012244,1.8134569,-0.06542969,0.015380859,-0.023498535,-33.299255,-3.6590576,-31.3797,0,0.0,0.0,0.0,0.0
0.780273438,0.011552287,-0.99454045,0.10371031,0.18712588,-0.0997347,-0.9772599,0.98226804,0.030696468,0.18495208,0.023767754,-0.99955815,0.017846914,0.2509861,-0.01131409,-0.96792454,0.9676988,0.02748472,0.2506063,9.793823,0.30747986,1.7814636,9.632759,0.30102953,1.8137604,-0.064193726,0.010955811,-0.02319336,-33.299255,-3.6590576,-31.3797,0,0.0,0.0,0.0,0.0
0.788574219,0.011646668,-0.99454975,0.103611216,0.18714876,-0.09961914,-0.9772673,0.9822625,0.030772619,0.1849685,0.023066469,-0.99950886,0.021214357,0.24848978,-0.014822051,-0.9685212,0.9683598,0.02761191,0.24802582,9.875183,0.2871399,1.7395782,9.632705,0.30177632,1.8139213,-0.057937622,0.0037841797,-0.017547607,-33.299255,-3.6590576,-31.3797,0,0.0,0.0,0.0,0.0
0.796875,0.011232247,-0.9943168,0.105867505,0.18714386,-0.10191306,-0.97703177,0.98226833,0.030786717,0.18493557,0.02241372,-0.9994498,0.024448283,0.24608967,-0.018186478,-0.9690764,0.9689879,0.027737077,0.24554665,9.899109,0.28115845,1.7826538,9.632762,0.30191457,1.8135985,-0.06388855,0.016143799,-0.016326904,-33.239746,-3.6590576,-30.839539,0,0.0,0.0,0.0,0.0
0.805175781,0.012963735,-0.99521875,0.09680646,0.18703777,-0.09269226,-0.97796977,0.98226714,0.030784603,0.18494187,0.02209201,-0.9994162,0.026062842,0.24492471,-0.019864436,-0.9693386,0.96929044,0.027798072,0.24434286,9.867996,0.2596283,1.7383881,9.6327505,0.30189383,1.8136603,-0.0640564,0.019058228,-0.013885498,-33.1192,-3.4194946,-30.718994,0,0.0,0.0,0.0,0.0
0.813476563,0.012935308,-0.99521625,0.09683681,0.1871222,-0.09272472,-0.9779507,0.9822515,0.03077041,0.18502761,0.021568118,-0.99935126,0.028841825,0.2426543,-0.022753293,-0.96984595,0.9698731,0.027916344,0.24200614,9.912262,0.2907257,1.7958069,9.632597,0.30175465,1.8145012,-0.08161926,0.023788452,-0.013580322,-33.1192,-3.4194946,-30.718994,0,0.0,0.0,0.0,0.0
0.821777344,0.014081362,-0.99579716,0.09049741,0.18713683,-0.08628258,-0.97853726,0.9822329,0.030714536,0.18513533,0.021076564,-0.99928105,0.031514164,0.24047501,-0.025528777,-0.97031957,0.97042644,0.028029371,0.23976405,9.912262,0.2907257,1.7958069,9.632415,0.3012067,1.8155575,-0.09779358,0.020126343,-0.014038086,-32.818604,-3.239441,-30.53894,0,0.0,0.0,0.0,0.0
0.830078125,0.013991187,-0.9957897,0.09059353,0.18723162,-0.08639077,-0.97850955,0.9822161,0.030652482,0.18523459,0.020872407,-0.9992477,0.032685276,0.23941657,-0.026745565,-0.97054857,0.9706926,0.028083077,0.2386782,9.942184,0.2871399,1.8113708,9.63225,0.30059817,1.8165308,-0.09031677,0.013244629,-0.02319336,-32.818604,-3.239441,-30.53894,0,0.0,0.0,0.0,0.0
0.838378906,0.014029903,-0.9957928,0.09055227,0.18727392,-0.08634173,-0.97850573,0.98220754,0.030686421,0.18527468,0.020480137,-0.99917877,0.034962725,0.23736542,-0.029110882,-0.97098416,0.9712045,0.02818483,0.23657429,9.932602,0.3026886,1.8113708,9.632166,0.300931,1.816924,-0.088638306,0.0037841797,-0.028549194,-32.818604,-3.239441,-30.53894,0,0.0,0.0,0.0,0.0
0.846679688,0.013940038,-0.9956889,0.09170257,0.18733692,-0.087486744,-0.97839206,0.98219675,0.0308181,0.18530971,0.020114375,-0.99910724,0.037149955,0.23539557,-0.031380385,-0.971393,0.9716915,0.028283894,0.23455422,9.851257,0.32063293,1.8424683,9.63206,0.3022223,1.8172675,-0.08482361,-0.0015563965,-0.038009644,-32.759094,-3.2989502,-30.839539,0,0.0,0.0,0.0,0.0
0.854980469,0.013419334,-0.99536544,0.09522344,0.18734795,-0.091042615,-0.9780654,0.98220193,0.030964904,0.18525796,0.019937353,-0.9990699,0.038234428,0.23444085,-0.03250417,-0.9715869,0.9719259,0.02833458,0.23357473,9.818954,0.29312134,1.8113708,9.632111,0.30366197,1.81676,-0.08711243,-0.013015747,-0.045028687,-32.51953,-3.3599854,-30.53894,0,0.0,0.0,0.0,0.0
0.86328125,0.013634804,-0.9953843,0.094996065,0.18721692,-0.09078341,-0.97811466,0.982224,0.03112127,0.18511495,0.019572886,-0.9989887,0.040478606,0.23258825,-0.03482604,-0.97195154,0.9723783,0.028438743,0.23167136,9.804596,0.26919556,1.7958069,9.632327,0.30519542,1.8153576,-0.090774536,-0.018966675,-0.04472351,-32.51953,-3.3599854,-30.53894,0,0.0,0.0,0.0,0.0
0.871582031,0.013755198,-0.9953466,0.09537242,0.18698235,-0.091138415,-0.9781264,0.98226696,0.031287283,0.18485862,0.019239739,-0.9989058,0.04262641,0.2308022,-0.037045415,-0.97229517,0.9728104,0.028544975,0.22983691,9.808182,0.29193115,1.7455597,9.632749,0.30682343,1.8128438,-0.07672119,-0.019897461,-0.020599365,-32.63855,-3.3599854,-30.358887,0,0.0,0.0,0.0,0.0
0.879882813,0.013872786,-0.99535704,0.09524715,0.18672475,-0.09100179,-0.9781885,0.98231435,0.0313552,0.18459533,0.019082874,-0.99886346,0.043676205,0.2299306,-0.03812895,-0.97245985,0.9730199,0.028599823,0.22894166,9.860825,0.26081848,1.7611237,9.633213,0.30748945,1.8102618,-0.07397461,-0.020507813,-0.0132751465,-32.63855,-3.3599854,-30.358887,0,0.0,0.0,0.0,0.0
0.888183594,0.014546791,-0.9956987,0.09150169,0.18641086,-0.08720643,-0.978594,0.98236424,0.031292308,0.18434046,0.018788312,-0.99877816,0.045709115,0.22822839,-0.04022587,-0.9727763,0.97342634,0.02870894,0.22719373,9.860825,0.26081848,1.7611237,9.633702,0.30687273,1.8077625,-0.0703125,-0.016830444,-0.011291504,-32.57904,-3.2989502,-30.718994,0,0.0,0.0,0.0,0.0
0.896484375,0.014464089,-0.9956918,0.09158867,0.18616728,-0.08731489,-0.9786305,0.98241156,0.031205816,0.18410234,0.018664405,-0.9987383,0.046620958,0.22739589,-0.04116675,-0.97293186,0.9736235,0.02876061,0.22634062,9.854843,0.26200867,1.7395782,9.634167,0.30602452,1.8054273,-0.0703125,-0.016220093,-0.01159668,-32.57904,-3.2989502,-30.718994,0,0.0,0.0,0.0,0.0
0.904785156,0.01561471,-0.9962433,0.085179076,0.18588316,-0.0808121,-0.97924304,0.9824478,0.031123953,0.18392299,0.018424684,-0.99865836,0.04839413,0.22577052,-0.04299661,-0.9732312,0.9740063,0.028857443,0.22467542,9.818954,0.26560974,1.7874451,9.634522,0.30522174,1.8036686,-0.08053589,-0.015151978,-0.010986328,-32.398987,-3.1188965,-30.53894,0,0.0,0.0,0.0,0.0
0.913085938,0.015746685,-0.99625313,0.08504008,0.18561989,-0.080659546,-0.9793055,0.9824954,0.031205941,0.18365425,0.018338557,-0.9986242,0.049126916,0.2249758,-0.043753695,-0.97338146,0.9741918,0.028902777,0.22386388,9.818954,0.26560974,1.7874451,9.63499,0.30602577,1.8010331,-0.07229614,-0.017745972,-0.015716553,-32.398987,-3.1188965,-30.53894,0,0.0,0.0,0.0,0.0
0.921386719,0.015927522,-0.99626637,0.08484957,0.18533778,-0.08044805,-0.97937626,0.9825458,0.031324875,0.1833645,0.018179972,-0.9985564,0.05054385,0.22342286,-0.045216598,-0.9736723,0.9745521,0.028993983,0.22227827,9.876373,0.3912201,1.7156525,9.635483,0.3071921,1.7981915,-0.08528137,-0.015151978,-0.019836426,-32.398987,-3.1188965,-30.53894,0,0.0,0.0,0.0,0.0
0.9296875,0.016837629,-0.996583,0.0808633,0.1850223,-0.07637242,-0.9797622,0.98259,0.03145838,0.18310414,0.018039037,-0.9984895,0.051897943,0.22191949,-0.04661321,-0.9739502,0.9748981,0.029086288,0.22074342,9.897903,0.32063293,1.7252197,9.635917,0.30850136,1.7956383,-0.08879089,-0.012863159,-0.021209717,-32.398987,-3.0593872,-30.958557,0,0.0,0.0,0.0,0.0
0.937988281,0.016903311,-0.9965874,0.080795,0.18479423,-0.07630057,-0.97981083,0.98263186,0.031492498,0.18287387,0.017949078,-0.99843097,0.05304219,0.22046234,-0.047792863,-0.97422385,0.97523034,0.029180227,0.21925859,9.957733,0.2907257,1.7144623,9.636327,0.30883592,1.7933801,-0.097335815,-0.011184692,-0.01663208,-32.398987,-3.0593872,-30.958557,0,0.0,0.0,0.0,0.0
0.946289063,0.016108805,-0.99625254,0.084978275,0.18460684,-0.080564745,-0.9795047,0.9826804,0.03146623,0.18261725,0.017907921,-0.99840206,0.053596016,0.21975094,-0.048363622,-0.9743564,0.9753916,0.029226474,0.21853371,9.957733,0.2907257,1.7144623,9.636803,0.3085783,1.7908635,-0.09825134,-0.01210022,-0.019378662,-32.398987,-3.1799316,-31.13861,0,0.0,0.0,0.0,0.0
0.954589844,0.01566927,-0.99604255,0.08748492,0.18446338,-0.08311413,-0.97931874,0.9827145,0.03148298,0.18243106,0.017792983,-0.99833685,0.054835528,0.2183631,-0.049640164,-0.97460425,0.9757053,0.029315174,0.21711668,9.895523,0.32302856,1.7335968,9.637137,0.30874255,1.7890376,-0.08833313,1.2207031E-4,-0.01663208,-32.398987,-3.239441,-31.079102,0,0.0,0.0,0.0,0.0
0.962890625,0.015704574,-0.9960452,0.08744839,0.18432492,-0.08307622,-0.97934794,0.98273987,0.031499162,0.1822913,0.017665088,-0.9982674,0.056124933,0.21702431,-0.050967086,-0.9748347,0.9760063,0.02940102,0.21574797,9.936203,0.32063293,1.7802582,9.637386,0.30890128,1.787667,-0.07824707,-5.0354004E-4,-0.014190674,-32.398987,-3.239441,-31.079102,0,0.0,0.0,0.0,0.0
0.971191406,0.015710039,-0.99604565,0.08744273,0.18423353,-0.08307258,-0.9793655,0.9827569,0.031495757,0.18219994,0.017604988,-0.9982332,0.05674984,0.21637197,-0.05160998,-0.97494596,0.97615224,0.029442983,0.21508108,9.889542,0.31106567,1.7898254,9.637553,0.30886787,1.786771,-0.07824707,-0.01133728,-0.011749268,-32.398987,-3.239441,-31.079102,0,0.0,0.0,0.0,0.0
0.979492188,0.016935289,-0.9965843,0.080826335,0.18398461,-0.07635147,-0.9799592,0.98278314,0.031466693,0.18206315,0.017490909,-0.9981655,0.057962317,0.21510248,-0.05285716,-0.97516,0.9764348,0.029524276,0.21378337,9.824936,0.24047852,1.7934265,9.637811,0.30858284,1.7854296,-0.054275513,-0.02003479,-0.005935669,-32.27997,-3.0593872,-30.958557,0,0.0,0.0,0.0,0.0
0.987792969,0.016816085,-0.9965763,0.08094985,0.18385714,-0.07649872,-0.97997165,0.9828091,0.031362493,0.18194127,0.017440755,-0.9981136,0.058866054,0.21387275,-0.053788114,-0.9753796,0.9767058,0.0296012,0.21253116,9.773483,0.2536316,1.812561,9.638065,0.30756098,1.7842344,-0.05671692,-0.016067505,-0.009597778,-32.27997,-3.0593872,-30.958557,0,0.0,0.0,0.0,0.0
0.99609375,0.01732868,-0.9968223,0.07775067,0.18368693,-0.07326491,-0.9802508,0.9828321,0.031268228,0.18183361,0.017414726,-0.99808794,0.059306953,0.21327369,-0.054242697,-0.97548556,0.97683734,0.029636426,0.21192127,9.773483,0.2536316,1.812561,9.63829,0.30663657,1.7831786,-0.05671692,-0.012252808,-0.008529663,-32.57904,-2.999878,-31.199646,0,0.0,0.0,0.0,0.0
1.004394531,0.01781785,-0.99704653,0.07470335,0.1835379,-0.07018396,-0.9805039,0.98285115,0.03118137,0.18174534,0.017389689,-0.99804467,0.060036205,0.2121046,-0.05499632,-0.97569823,0.9770922,0.029701045,0.21073352,9.734009,0.22132874,1.7647095,9.638477,0.3057848,1.7823129,-0.04801941,-0.01499939,-0.009902954,-32.63855,-2.9388428,-31.439209,0,0.0,0.0,0.0,0.0
1.012695313,0.017712003,-0.9970403,0.07481266,0.18335728,-0.07031642,-0.98052824,0.98288673,0.031084564,0.18156916,0.017389972,-0.9980096,0.060616635,0.21097574,-0.055598114,-0.9759088,0.9773366,0.029759666,0.20958896,9.78186,0.2416687,1.7539368,9.638826,0.30483544,1.7805852,-0.058395386,-0.00630188,-0.007461548,-32.63855,-2.9388428,-31.439209,0,0.0,0.0,0.0,0.0
1.020996094,0.017661162,-0.9970372,0.07486513,0.1831444,-0.07038398,-0.98056316,0.9829274,0.031029023,0.18135875,0.01738838,-0.9979924,0.0609003,0.21042444,-0.05589264,-0.976011,0.9774555,0.029786162,0.2090301,9.918243,0.28355408,1.7264252,9.639225,0.30429077,1.7785219,-0.062057495,-0.0027923584,-0.0077667236,-32.63855,-2.9388428,-31.439209,0,0.0,0.0,0.0,0.0
1.029296875,0.017117055,-0.99684334,0.07752628,0.1830846,-0.07310175,-0.98037547,0.9829481,0.030975008,0.18125539,0.01738403,-0.9979586,0.0614528,0.20934638,-0.056466814,-0.9762098,0.977687,0.029835382,0.20793739,9.9062805,0.3062744,1.7407837,9.639429,0.3037611,1.7775083,-0.07366943,0.0054626465,-0.0034942627,-32.57904,-2.999878,-31.3797,0,0.0,0.0,0.0,0.0
1.037597656,0.017017404,-0.99683696,0.07762913,0.18303221,-0.07322262,-0.98037624,0.9829597,0.030892095,0.18120725,0.017356697,-0.99791974,0.062088437,0.20830847,-0.057126038,-0.97639346,0.97790915,0.029880513,0.20688362,9.919449,0.30867004,1.7395782,9.639542,0.30294797,1.7770362,-0.07519531,0.012023926,-0.006088257,-32.57904,-2.999878,-31.3797,0,0.0,0.0,0.0,0.0
1.045898438,0.015764223,-0.9963495,0.08389948,0.18310568,-0.079614215,-0.9798642,0.98296684,0.03080927,0.1811822,0.017341882,-0.99790055,0.062398743,0.20780398,-0.05744814,-0.97648203,0.97801673,0.029900745,0.20637146,9.964905,0.28234863,1.7192383,9.639612,0.30213574,1.7767905,-0.070617676,0.008514404,-0.0028839111,-32.699585,-3.1799316,-31.619263,0,0.0,0.0,0.0,0.0
1.054199219,0.016167397,-0.9965679,0.08118418,0.18298356,-0.07687455,-0.98010564,0.982983,0.03070113,0.18111272,0.017258413,-0.9978486,0.06324827,0.206828,-0.058326572,-0.9766372,0.97822505,0.029936722,0.20537642,9.962524,0.3026886,1.7814636,9.6397705,0.30107525,1.7761091,-0.070617676,0.0056152344,-0.005630493,-32.51953,-3.0593872,-31.079102,0,0.0,0.0,0.0,0.0
1.0625,0.016088706,-0.99656254,0.08126598,0.18297093,-0.07696965,-0.98010063,0.9829867,0.030637864,0.18110365,0.017227868,-0.9978264,0.06360624,0.20635211,-0.058697794,-0.9767156,0.97832614,0.02995201,0.20489234,9.962524,0.3026886,1.7814636,9.639807,0.30045483,1.77602,-0.07336426,0.003479004,-0.010681152,-32.51953,-3.0593872,-31.079102,0,0.0,0.0,0.0,0.0
1.070800781,0.016123194,-0.9965649,0.08123013,0.18292713,-0.07692951,-0.98011196,0.98299426,0.03066173,0.18105842,0.01716642,-0.99778265,0.06430406,0.20542821,-0.059421778,-0.97686654,0.97852165,0.029979171,0.20395266,9.882355,0.3361969,1.7778625,9.639881,0.30068886,1.7755766,-0.04862976,-0.011489868,-0.010070801,-32.51953,-3.0593872,-31.079102,0,0.0,0.0,0.0,0.0
1.079101563,0.017075175,-0.9969196,0.076548815,0.18271354,-0.07215964,-0.9805145,0.9830179,0.030728968,0.18091857,0.017110035,-0.9977403,0.06497303,0.20453893,-0.06011552,-0.9770107,0.97870886,0.030006202,0.20304814,9.866806,0.28115845,1.7742767,9.640113,0.30134824,1.7742052,-0.039611816,-0.026916504,-0.01739502,-32.51953,-2.9388428,-31.019592,0,0.0,0.0,0.0,0.0
1.087402344,0.017129915,-0.996923,0.07649175,0.18248536,-0.07210074,-0.9805614,0.98305935,0.030755563,0.18068878,0.017104179,-0.99772537,0.06520422,0.20410317,-0.060356464,-0.977087,0.97879994,0.030020656,0.20260656,9.866806,0.28115845,1.7742767,9.640519,0.30160904,1.7719517,-0.03564453,-0.028137207,-0.016479492,-32.51953,-2.9388428,-31.019592,0,0.0,0.0,0.0,0.0
1.095703125,0.018083228,-0.99727947,0.07146108,0.18209568,-0.06699241,-0.980996,0.9831145,0.030752322,0.18038884,0.017095521,-0.99769616,0.065650664,0.20324841,-0.06082169,-0.9772363,0.9789779,0.03004976,0.2017404,9.738785,0.27278137,1.7240295,9.64106,0.30157727,1.7690103,-0.040985107,-0.03805542,-0.0050201416,-32.458496,-2.8198242,-31.13861,0,0.0,0.0,0.0,0.0
1.104003906,0.01844444,-0.99740845,0.06954332,0.1816814,-0.06505372,-0.9812034,0.9831845,0.030732468,0.18001066,0.017129667,-0.9976804,0.06588104,0.2024123,-0.06106617,-0.97739464,0.97915053,0.03007758,0.20089674,9.744766,0.2979126,1.6941223,9.6417465,0.30138257,1.7653016,-0.059310913,-0.032104492,0.008407593,-32.458496,-2.758789,-30.958557,0,0.0,0.0,0.0,0.0
1.112304688,0.01832851,-0.99740213,0.0696643,0.18130878,-0.06520522,-0.98126215,0.9832554,0.03061582,0.17964263,0.017154362,-0.9976752,0.06595456,0.20199837,-0.06114595,-0.9774752,0.9792356,0.030090678,0.20047984,9.744766,0.2979126,1.6941223,9.642442,0.30023864,1.7616924,-0.059310913,-0.029510498,0.008407593,-32.458496,-2.758789,-30.958557,0,0.0,0.0,0.0,0.0
1.120605469,0.01815199,-0.9973924,0.069848515,0.18094385,-0.06542949,-0.98131454,0.9833259,0.03045147,0.17928435,0.017197728,-0.99766463,0.06610183,0.20118046,-0.061306704,-0.9776339,0.9794032,0.030111475,0.1996563,9.816559,0.29670715,1.6642151,9.643133,0.2986269,1.758179,-0.06878662,-0.012252808,0.00642395,-32.458496,-2.758789,-30.958557,0,0.0,0.0,0.0,0.0
1.12890625,0.01771129,-0.9973246,0.070922144,0.18075623,-0.066570625,-0.9812725,0.9833685,0.030199217,0.17909358,0.017232401,-0.9976542,0.066250496,0.20038046,-0.06147009,-0.9777879,0.97956663,0.030124938,0.19885114,9.854843,0.2416687,1.7168427,9.643551,0.29615316,1.7563081,-0.08236694,0.008666992,0.0062713623,-32.099915,-2.758789,-30.778503,0,0.0,0.0,0.0,0.0
1.137207031,0.017404953,-0.9973074,0.07124008,0.18067849,-0.0669407,-0.9812616,0.9833882,0.029950362,0.17902686,0.017240068,-0.9976479,0.06634387,0.19998868,-0.06157213,-0.97786164,0.97964656,0.030126423,0.19845676,9.854843,0.2416687,1.7168427,9.6437435,0.2937127,1.7556536,-0.07992554,0.01461792,3.2043457E-4,-32.099915,-2.758789,-30.778503,0,0.0,0.0,0.0,0.0
1.145507813,0.015722014,-0.9967122,0.07948331,0.180882,-0.075346366,-0.98061436,0.98337907,0.029794332,0.1791027,0.017242774,-0.99763495,0.06653742,0.19922541,-0.061784785,-0.97800404,0.97980195,0.030119449,0.19768889,9.943375,0.29193115,1.783844,9.643655,0.2921826,1.7563976,-0.080078125,0.008361816,-0.0010528564,-31.91986,-2.9388428,-30.53894,0,0.0,0.0,0.0,0.0
1.153808594,0.016657261,-0.99716425,0.07338882,0.18087356,-0.0691829,-0.98107004,0.9833653,0.029616041,0.17920826,0.017139707,-0.9975858,0.06729664,0.19814877,-0.06258257,-0.978172,0.9800221,0.030100329,0.19659774,10.00798,0.24645996,1.8340912,9.643519,0.29043415,1.7574328,-0.05870056,-6.4086914E-4,-0.015106201,-31.91986,-2.758789,-30.239868,0,0.0,0.0,0.0,0.0
1.162109375,0.016522607,-0.99715614,0.07353021,0.18092796,-0.06934451,-0.9810486,0.9833575,0.029513152,0.17926767,0.017139707,-0.9975858,0.06729664,0.19814877,-0.06258257,-0.978172,0.9800221,0.030100329,0.19659774,10.00798,0.24645996,1.8340912,9.643443,0.28942516,1.7580154,-0.05870056,-6.4086914E-4,-0.015106201,-31.91986,-2.758789,-30.239868,0,0.0,0.0,0.0,0.0
1.170410156,0.016521122,-0.997156,0.07353178,0.18088257,-0.06934769,-0.9810568,0.98336595,0.029508777,0.17922245,0.01711101,-0.9975697,0.06754261,0.19746798,-0.062850304,-0.9782925,0.98016,0.030077077,0.19591263,9.9673,0.2536316,1.812561,9.643526,0.28938225,1.7575719,-0.035339355,-0.028289795,-0.021514893,-31.91986,-2.758789,-30.239868,0,0.0,0.0,0.0,0.0
1.178710938,0.018550772,-0.9978293,0.06318676,0.18048634,-0.058817364,-0.9818173,0.98340255,0.029617812,0.17900345,0.017083682,-0.99755406,0.067779094,0.19681239,-0.063107684,-0.97840804,0.9802923,0.030054575,0.1952529,9.869202,0.28115845,1.783844,9.643885,0.29045153,1.7554241,-0.023727417,-0.0415802,-0.03251648,-32.099915,-2.519226,-30.358887,0,0.0,0.0,0.0,0.0
1.187011719,0.018788949,-0.9978407,0.06293587,0.18015927,-0.05853775,-0.9818941,0.983458,0.029787233,0.17867039,0.017114453,-0.9975597,0.06768763,0.19648647,-0.06302196,-0.9784791,0.9803571,0.030045839,0.19492841,9.869202,0.28115845,1.783844,9.644428,0.29211298,1.752158,-0.024810791,-0.044784546,-0.033737183,-32.099915,-2.519226,-30.358887,0,0.0,0.0,0.0,0.0
1.1953125,0.017451754,-0.9973074,0.0712269,0.17986825,-0.06694404,-0.98141015,0.9835359,0.029938787,0.17821567,0.017183661,-0.9975713,0.06750023,0.19584121,-0.06284443,-0.9786199,0.9804851,0.030035598,0.19428566,9.805786,0.25004578,1.701294,9.645192,0.29359922,1.7476987,-0.03152466,-0.046463013,-0.023345947,-32.27997,-2.758789,-30.718994,0,0.0,0.0,0.0,0.0
1.203613281,0.017580537,-0.9973149,0.07109225,0.17942645,-0.066802055,-0.98150074,0.98361427,0.030011134,0.17777021,0.0171878,-0.99756616,0.06757461,0.19552214,-0.06292637,-0.97867835,0.9805487,0.030033663,0.19396472,9.805786,0.25004578,1.701294,9.645961,0.2943087,1.7433304,-0.058547974,-0.040039063,-0.0132751465,-32.27997,-2.758789,-30.718994,0,0.0,0.0,0.0,0.0
1.211914063,0.017875284,-0.99744713,0.069136344,0.17892985,-0.06483985,-0.981723,0.98369944,0.02991913,0.177314,0.017201059,-0.9975565,0.06771384,0.1948856,-0.06307989,-0.97879547,0.98067516,0.03003277,0.19332434,9.817749,0.22132874,1.6462555,9.646796,0.29340646,1.7388563,-0.06695557,-0.030426025,-0.005630493,-32.03888,-2.6992798,-30.659485,0,0.0,0.0,0.0,0.0
1.220214844,0.017699962,-0.9974375,0.06931872,0.17857008,-0.06506134,-0.98177373,0.983768,0.029755605,0.17696093,0.017226797,-0.9975522,0.06777024,0.19425452,-0.063149594,-0.9789164,0.98079985,0.03002827,0.19269116,9.820145,0.23091125,1.6534424,9.647469,0.29180282,1.735394,-0.061294556,-0.016830444,7.7819824E-4,-32.03888,-2.6992798,-30.659485,0,0.0,0.0,0.0,0.0
1.228515625,0.016493117,-0.9970518,0.074938126,0.17837691,-0.070811875,-0.9814109,0.983824,0.029553756,0.17668311,0.017235722,-0.99754995,0.067801245,0.19394128,-0.06318789,-0.978976,0.98086166,0.030022819,0.19237703,9.820145,0.23091125,1.6534424,9.648018,0.28982335,1.7326695,-0.064819336,-0.011184692,0.006729126,-31.97937,-2.8198242,-30.479431,0,0.0,0.0,0.0,0.0
1.236816406,0.016383678,-0.9970449,0.07505232,0.17815393,-0.0709503,-0.9814413,0.9838662,0.029450485,0.17646506,0.017201921,-0.9975313,0.068083115,0.19332571,-0.063489854,-0.97907823,0.9809838,0.030004242,0.19175631,9.9039,0.3014984,1.680954,9.648432,0.2888106,1.7305311,-0.0715332,-0.006454468,-0.0041046143,-31.97937,-2.8198242,-30.479431,0,0.0,0.0,0.0,0.0
1.245117188,0.01498007,-0.9965021,0.082213745,0.17807947,-0.07824952,-0.98089993,0.9839021,0.029334532,0.17628439,0.017165348,-0.9975131,0.068358265,0.19272576,-0.06378528,-0.9791773,0.98110247,0.029982315,0.19115157,9.865601,0.26679993,1.6701965,9.648784,0.2876735,1.7287593,-0.07382202,2.746582E-4,-0.007156372,-32.27997,-2.999878,-30.479431,0,0.0,0.0,0.0,0.0
1.253417969,0.014882308,-0.99649507,0.0823166,0.17796078,-0.07837153,-0.98091173,0.98392504,0.029247358,0.1761707,0.017117519,-0.997495,0.068634726,0.19243345,-0.06407473,-0.979216,0.98116076,0.02996936,0.19085458,9.865601,0.26679993,1.6701965,9.649009,0.28681862,1.7276446,-0.08390808,0.008361816,-0.010818481,-32.27997,-2.999878,-30.479431,0,0.0,0.0,0.0,0.0
1.26171875,0.01485087,-0.9965146,0.0820859,0.17794694,-0.07815039,-0.9809319,0.98392797,0.029174628,0.17616612,0.017021224,-0.9974593,0.06917507,0.1918616,-0.06464103,-0.97929084,0.98127437,0.029940771,0.19027387,9.866806,0.2644043,1.6905365,9.649038,0.2861054,1.7275996,-0.07992554,0.019363403,-0.009597778,-32.159424,-2.999878,-30.599976,0,0.0,0.0,0.0,0.0
1.270019531,0.014825567,-0.9965128,0.08211231,0.17804572,-0.07817793,-0.9809118,0.98391056,0.029162323,0.1762658,0.016928187,-0.99742544,0.06968513,0.1913119,-0.065176286,-0.979363,0.9813833,0.029910432,0.18971603,9.875183,0.29431152,1.6988983,9.648867,0.2859847,1.7285771,-0.06802368,0.031570435,-0.01373291,-32.159424,-2.999878,-30.599976,0,0.0,0.0,0.0,0.0
1.278320313,0.015780324,-0.9969146,0.07689134,0.17813273,-0.07286768,-0.98130476,0.9838799,0.029182168,0.17643324,0.016882773,-0.9974088,0.06993313,0.19104718,-0.06543647,-0.9793973,0.98143566,0.02989547,0.18944739,9.875183,0.29431152,1.6988983,9.648566,0.2861793,1.730219,-0.058547974,0.035079956,-0.020141602,-32.218933,-2.8793335,-30.718994,0,0.0,0.0,0.0,0.0
1.286621094,0.015785648,-0.996915,0.07688578,0.17839271,-0.07285355,-0.9812587,0.9838328,0.029205665,0.1766923,0.016835576,-0.9973903,0.07020792,0.19053635,-0.065730795,-0.9794771,0.98153573,0.029867223,0.1889325,9.914658,0.2596283,1.7778625,9.648104,0.28640974,1.7327596,-0.041290283,0.016616821,-0.022277832,-32.218933,-2.8793335,-30.718994,0,0.0,0.0,0.0,0.0
1.294921875,0.016093722,-0.9970175,0.07547811,0.17853841,-0.07140917,-0.98133814,0.98380125,0.029269129,0.17685671,0.016790772,-0.9973724,0.070471786,0.19005625,-0.06601299,-0.9795514,0.9816296,0.029841026,0.18844844,9.94696,0.25483704,1.7694855,9.647796,0.28703213,1.734372,-0.044662476,2.746582E-4,-0.025024414,-32.339478,-2.8793335,-31.13861,0,0.0,0.0,0.0,0.0
1.303222656,0.016175829,-0.9970226,0.07539331,0.17858247,-0.07130987,-0.9813375,0.983792,0.02933787,0.17689727,0.016775662,-0.9973656,0.07057159,0.1898262,-0.066120856,-0.9795886,0.9816744,0.029829588,0.18821692,9.94696,0.25483704,1.7694855,9.647704,0.28770623,1.7347697,-0.049545288,-0.002029419,-0.024261475,-32.339478,-2.8793335,-31.13861,0,0.0,0.0,0.0,0.0
1.311523438,0.015503515,-0.9967295,0.0793089,0.1786207,-0.07528167,-0.9810338,0.9837959,0.029375682,0.17686939,0.016749742,-0.99735254,0.0707622,0.18938148,-0.06632646,-0.97966087,0.98176074,0.029810118,0.18776916,9.9218445,0.23568726,1.7742767,9.647742,0.28807703,1.7344962,-0.058395386,-0.00843811,-0.02319336,-32.099915,-2.9388428,-30.659485,0,0.0,0.0,0.0,0.0
1.319824219,0.015531371,-0.9967314,0.079279914,0.17855619,-0.075250134,-0.9810479,0.9838071,0.029392935,0.17680381,0.016696773,-0.9973294,0.071100004,0.18895593,-0.06668115,-0.9797189,0.9818436,0.029792914,0.18733795,9.795013,0.2524414,1.7324066,9.647852,0.28824624,1.7338532,-0.05961609,-0.0124053955,-0.018920898,-32.099915,-2.9388428,-30.659485,0,0.0,0.0,0.0,0.0
1.328125,0.01935574,-0.99810606,0.058392856,0.17805628,-0.054029,-0.98253596,0.9838299,0.029414924,0.17667326,0.016671725,-0.9973182,0.07126335,0.1887483,-0.06685261,-0.9797473,0.98188394,0.029784914,0.18712756,9.795013,0.2524414,1.7324066,9.648076,0.28846186,1.7325729,-0.073516846,-0.028289795,-0.018463135,-31.91986,-2.3986816,-30.419922,0,0.0,0.0,0.0,0.0
1.336425781,0.0193614,-0.9981062,0.05838694,0.1777856,-0.054030262,-0.9825847,0.98387873,0.029404575,0.17640284,0.016783219,-0.99735254,0.07075495,0.18832615,-0.066345096,-0.97986305,0.98196316,0.029770263,0.18671408,9.785446,0.2679901,1.6929169,9.648555,0.2883604,1.7299209,-0.10038757,-0.035614014,-0.009292603,-31.91986,-2.3986816,-30.419922,0,0.0,0.0,0.0,0.0
1.344726563,0.020017318,-0.99833214,0.054148775,0.17735556,-0.049754996,-0.9828882,0.9839432,0.029278371,0.1760638,0.016890269,-0.99738526,0.070266314,0.18790977,-0.06585764,-0.9799759,0.98204106,0.02975578,0.18630607,9.86322,0.24645996,1.680954,9.649187,0.28712276,1.7265961,-0.088638306,-0.021560669,4.7302246E-4,-32.218933,-2.279663,-30.119324,0,0.0,0.0,0.0,0.0
1.353027344,0.019805007,-0.99832416,0.05437528,0.17706014,-0.050024133,-0.98292786,0.9840007,0.029094586,0.17577268,0.016956141,-0.9974068,0.06994464,0.18769948,-0.06553569,-0.98003775,0.98208016,0.029746233,0.1861015,9.86322,0.24645996,1.680954,9.649751,0.28532043,1.7237412,-0.08161926,-0.021255493,0.0016937256,-32.218933,-2.279663,-30.119324,0,0.0,0.0,0.0,0.0
1.361328125,0.02043533,-0.9985502,0.04979884,0.17672457,-0.045417234,-0.98321193,0.9840482,0.028892936,0.17554022,0.017075237,-0.9974477,0.069329426,0.18727948,-0.06492172,-0.9801589,0.98215824,0.029720427,0.18569292,9.894318,0.24645996,1.6929169,9.650216,0.28334293,1.7214615,-0.070007324,-0.01133728,0.0030670166,-32.398987,-2.1591187,-29.99878,0,0.0,0.0,0.0,0.0
1.369628906,0.020247966,-0.9985439,0.050000746,0.17654553,-0.045654178,-0.98323315,0.9840842,0.028735876,0.17536406,0.017216109,-0.9974986,0.06855763,0.18686308,-0.064149715,-0.98028916,0.9822351,0.029687658,0.18529126,9.816559,0.29193115,1.6845398,9.65057,0.2818027,1.7197342,-0.06022644,-0.0053863525,-0.012969971,-32.398987,-2.1591187,-29.99878,0,0.0,0.0,0.0,0.0
1.377929688,0.020624101,-0.99864155,0.047851276,0.17637764,-0.043476555,-0.98336196,0.9841065,0.028720848,0.17524137,0.017280474,-0.99752283,0.0681873,0.18665741,-0.063780054,-0.9803525,0.98227304,0.029668622,0.18509288,9.816559,0.29193115,1.6845398,9.650788,0.2816553,1.7185308,-0.061904907,-0.007522583,-0.02029419,-32.339478,-2.0996094,-29.87976,0,0.0,0.0,0.0,0.0
1.386230469,0.020764051,-0.99864584,0.0477001,0.17624737,-0.04330697,-0.98339283,0.9841269,0.028826237,0.17510948,0.017420784,-0.99757504,0.06738363,0.18625191,-0.06297648,-0.98048156,0.98234755,0.029631091,0.18470316,9.848862,0.32063293,1.676178,9.650989,0.28268883,1.7172374,-0.057174683,-3.0517578E-5,-0.026245117,-32.339478,-2.0996094,-29.87976,0,0.0,0.0,0.0,0.0
1.39453125,0.02168394,-0.99883443,0.043121934,0.17611387,-0.038641404,-0.983611,0.9841309,0.028922938,0.17507072,0.017560612,-0.9976248,0.06660584,0.18585722,-0.06219807,-0.98060626,0.98241985,0.02959922,0.18432353,9.897903,0.28355408,1.7348022,9.651028,0.28363714,1.7168573,-0.06236267,0.0014953613,-0.021972656,-32.339478,-1.979065,-29.579163,0,0.0,0.0,0.0,0.0
1.402832031,0.02180148,-0.99883753,0.04299364,0.17608947,-0.038495194,-0.9836212,0.98413265,0.02901512,0.17504549,0.017647505,-0.9976545,0.06613723,0.18566349,-0.06172726,-0.98067266,0.98245496,0.029585695,0.18413869,9.897903,0.28355408,1.7348022,9.651045,0.28454113,1.71661,-0.049697876,-0.007827759,-0.015716553,-32.339478,-1.979065,-29.579163,0,0.0,0.0,0.0,0.0
1.411132813,0.024005346,-0.9992488,0.030423395,0.17569618,-0.025741592,-0.98410785,0.9841517,0.028969124,0.17494625,0.017820358,-0.99771166,0.06522261,0.18528652,-0.060807705,-0.9808014,0.98252296,0.029563101,0.1837789,9.963715,0.19979858,1.7276154,9.651232,0.28409007,1.7156367,-0.047561646,-0.016830444,-0.023345947,-32.51953,-1.6799927,-29.519653,0,0.0,0.0,0.0,0.0
1.419433594,0.02401344,-0.99924886,0.03041449,0.17551781,-0.025736654,-0.98413974,0.9841833,0.028970864,0.17476796,0.018077608,-0.99779594,0.06384804,0.18491125,-0.059420418,-0.98095727,0.98258895,0.029539581,0.18342951,9.847656,0.21774292,1.6953125,9.651542,0.28410712,1.7138883,-0.051834106,-0.01927185,-0.023803711,-32.51953,-1.6799927,-29.519653,0,0.0,0.0,0.0,0.0
1.427734375,0.023046957,-0.9990872,0.03596477,0.1754532,-0.031373866,-0.9839877,0.98421794,0.02898806,0.17457,0.018202323,-0.9978361,0.06318098,0.1847254,-0.058747303,-0.98103285,0.9826216,0.029528206,0.18325633,9.847656,0.21774292,1.6953125,9.651881,0.28427577,1.7119468,-0.0544281,-0.013320923,-0.023803711,-32.57904,-1.7990112,-29.09851,0,0.0,0.0,0.0,0.0
1.436035156,0.023059107,-0.9990875,0.035951182,0.17524418,-0.03136452,-0.9840253,0.9842549,0.02899098,0.17436102,0.01840361,-0.9978999,0.06210543,0.18436114,-0.057663895,-0.9811655,0.9826862,0.029506817,0.18291275,9.815353,0.21774292,1.6570282,9.652244,0.2843044,1.7098975,-0.057785034,-0.008895874,-0.017242432,-32.57904,-1.7990112,-29.09851,0,0.0,0.0,0.0,0.0
1.444335938,0.024520632,-0.9993155,0.027701054,0.17491019,-0.02299342,-0.984316,0.98427904,0.028981244,0.17422663,0.018596869,-0.99796015,0.061071947,0.18400277,-0.056623127,-0.98129344,0.9827498,0.029486392,0.1825744,9.786652,0.24287415,1.6725769,9.65248,0.28420892,1.7085795,-0.072906494,-0.0030975342,-0.018157959,-32.699585,-1.6189575,-29.458618,0,0.0,0.0,0.0,0.0
1.452636719,0.02447419,-0.99931514,0.027752584,0.17480476,-0.02305537,-0.9843331,0.9842989,0.028942045,0.1741208,0.018721143,-0.9979983,0.060405977,0.18382294,-0.055950973,-0.9813657,0.98278105,0.02947629,0.18240753,9.827316,0.23210144,1.6833496,9.652675,0.2838245,1.7075417,-0.0765686,-0.0023345947,-0.009597778,-32.699585,-1.6189575,-29.458618,0,0.0,0.0,0.0,0.0
1.4609375,0.024427421,-0.99932337,0.027499977,0.17469342,-0.022817966,-0.98435843,0.98431975,0.028849404,0.17401782,0.018959843,-0.9980711,0.05911578,0.18346962,-0.0546493,-0.98150516,0.9828425,0.029455133,0.18207958,9.834503,0.21894836,1.6594238,9.65288,0.282916,1.7065319,-0.073516846,0.0013427734,-0.012664795,-32.998657,-1.6189575,-29.519653,0,0.0,0.0,0.0,0.0
1.469238281,0.024246048,-0.99932206,0.02770266,0.1746823,-0.023049522,-0.984355,0.9843263,0.028705887,0.17400505,0.019186627,-0.9981399,0.057866413,0.18312542,-0.05338966,-0.9816387,0.9829023,0.029431148,0.18176043,9.836899,0.19381714,1.7060852,9.652944,0.2815086,1.7064066,-0.08314514,0.0071411133,-0.007003784,-32.998657,-1.6189575,-29.519653,0,0.0,0.0,0.0,0.0
1.477539063,0.02135304,-0.99884284,0.043094654,0.17505077,-0.038703375,-0.98379844,0.98432785,0.02855084,0.17402175,0.019292662,-0.9981726,0.057264388,0.18295805,-0.052783314,-0.98170274,0.9829314,0.029416641,0.18160537,9.836899,0.19381714,1.7060852,9.652959,0.2799881,1.7065704,-0.08482361,0.010955811,-0.012054443,-32.759094,-1.979065,-29.638672,0,0.0,0.0,0.0,0.0
1.485839844,0.021206928,-0.99883896,0.043255895,0.17509697,-0.038886294,-0.983783,0.9843228,0.028436992,0.17406902,0.019378493,-0.9982029,0.056703966,0.18264562,-0.052225884,-0.98179066,0.98298776,0.029382357,0.18130533,9.900299,0.22013855,1.7192383,9.652908,0.27887163,1.7070339,-0.09794617,-0.0011138916,-0.02166748,-32.759094,-1.979065,-29.638672,0,0.0,0.0,0.0,0.0
1.494140625,0.021390902,-0.9988695,0.042451397,0.17505385,-0.038063124,-0.9838228,0.9843265,0.028476136,0.17404175,0.019454727,-0.9982316,0.056172095,0.18234728,-0.051697835,-0.98187417,0.9830417,0.029344922,0.18101902,9.9756775,0.28355408,1.7228394,9.6529455,0.2792555,1.7067666,-0.090774536,-0.018051147,-0.043045044,-32.759094,-1.979065,-30.059814,0,0.0,0.0,0.0,0.0
1.502441406,0.021573082,-0.99887395,0.04225315,0.1749135,-0.037840214,-0.9838563,0.9843474,0.02861546,0.17390022,0.019495398,-0.99824613,0.055898022,0.18220167,-0.05142523,-0.9819155,0.98306787,0.029327545,0.18087955,9.9756775,0.28355408,1.7228394,9.653151,0.2806218,1.7053785,-0.089401245,-0.0256958,-0.043807983,-32.759094,-1.979065,-30.059814,0,0.0,0.0,0.0,0.0
1.510742188,0.023187282,-0.9991419,0.034320105,0.17449476,-0.029757608,-0.98420835,0.984385,0.02880979,0.17365502,0.019538894,-0.99826044,0.05562544,0.18205622,-0.05115357,-0.9819566,0.983094,0.029313304,0.18074004,10.001999,0.27876282,1.6857452,9.65352,0.28252754,1.702974,-0.07458496,-0.015304565,-0.03907776,-32.939148,-1.7990112,-30.119324,0,0.0,0.0,0.0,0.0
1.519042969,0.023406189,-0.9991449,0.03408088,0.1743342,-0.029488647,-0.9842449,0.9844083,0.028978886,0.17349494,0.01968936,-0.9983041,0.05478322,0.18175857,-0.050306767,-0.98205554,0.983146,0.029293364,0.18045983,9.944565,0.2524414,1.7120667,9.6537485,0.28418583,1.7014042,-0.033050537,-0.008895874,-0.035720825,-32.939148,-1.7990112,-30.119324,0,0.0,0.0,0.0,0.0
1.52734375,0.02326232,-0.9990912,0.035717357,0.17430848,-0.03112646,-0.9841991,0.9844163,0.029120587,0.17342597,0.019842282,-0.9983457,0.0539648,0.18146616,-0.049482763,-0.98215145,0.983197,0.029280912,0.18018411,9.944565,0.2524414,1.7120667,9.653826,0.2855754,1.7007277,-0.024353027,2.746582E-4,-0.01953125,-33.299255,-1.8585205,-30.299377,0,0.0,0.0,0.0,0.0
1.535644531,0.023384508,-0.9990931,0.035583187,0.1742687,-0.030974261,-0.98421085,0.9844204,0.02921632,0.17338632,0.019913185,-0.9983639,0.05360052,0.18132383,-0.04911585,-0.9821961,0.9832218,0.029277707,0.1800491,9.881165,0.25842285,1.6941223,9.653867,0.28651422,1.700339,-0.030303955,2.746582E-4,-0.01953125,-33.299255,-1.8585205,-30.299377,0,0.0,0.0,0.0,0.0
1.543945313,0.023482716,-0.99909467,0.035475343,0.1741313,-0.030855075,-0.984239,0.9844424,0.029289972,0.17324908,0.020055428,-0.998399,0.052888073,0.18104587,-0.04839759,-0.9822831,0.9832701,0.029275274,0.17978539,9.832108,0.2524414,1.6618195,9.654082,0.2872365,1.6989931,-0.03137207,-0.016067505,-0.02166748,-33.299255,-1.8585205,-30.299377,0,0.0,0.0,0.0,0.0
1.552246094,0.024786357,-0.9992793,0.02874585,0.17372705,-0.024011564,-0.984501,0.9844819,0.02939613,0.17300671,0.020195654,-0.99843246,0.052199595,0.18077357,-0.047703106,-0.9823672,0.9833174,0.029275855,0.1795268,9.797409,0.2859497,1.627121,9.6544695,0.28827757,1.6966163,-0.0443573,-0.018966675,-0.015563965,-32.939148,-1.6799927,-29.99878,0,0.0,0.0,0.0,0.0
1.560546875,0.024078853,-0.9991604,0.03314801,0.17358172,-0.028475419,-0.9844078,0.9845251,0.029457293,0.17275031,0.020290613,-0.9984549,0.051731363,0.18063396,-0.04722951,-0.9824158,0.9833411,0.02927826,0.17939655,9.7495575,0.33857727,1.6031952,9.654893,0.28887737,1.6941019,-0.048934937,-0.015914917,-0.012817383,-32.939148,-1.7990112,-30.299377,0,0.0,0.0,0.0,0.0
1.568847656,0.024180217,-0.99916154,0.03303788,0.17330317,-0.028357744,-0.9844602,0.98457164,0.029530028,0.17247218,0.020445516,-0.9984895,0.05099672,0.18035644,-0.046487123,-0.98250216,0.9833888,0.02928535,0.17913358,9.755539,0.32781982,1.5984039,9.65535,0.28959066,1.6913743,-0.057937622,-0.014083862,-0.008224487,-32.939148,-1.7990112,-30.299377,0,0.0,0.0,0.0,0.0
1.577148438,0.022918325,-0.998917,0.040492333,0.17326786,-0.035921235,-0.98421943,0.984608,0.02957268,0.17225695,0.020598127,-0.9985224,0.05028679,0.18007895,-0.04576947,-0.98258674,0.9834364,0.02929504,0.17887011,9.755539,0.32781982,1.5984039,9.655706,0.29000893,1.6892636,-0.0765686,0.0069885254,-0.0068511963,-32.939148,-1.979065,-30.178833,1,0.0,0.0,0.0,0.0
1.585449219,0.022877846,-0.99891615,0.040536463,0.17318086,-0.0359743,-0.98423284,0.98462427,0.029537264,0.17217013,0.02064582,-0.9985312,0.05009127,0.17994313,-0.045572586,-0.9826208,0.98346037,0.029300591,0.17873795,9.797409,0.27876282,1.606781,9.655866,0.28966162,1.6884123,-0.0803833,0.022872925,-0.017089844,-32.939148,-1.979065,-30.178833,1,0.0,0.0,0.0,0.0
1.59375,0.022818992,-0.9989149,0.040600616,0.17323053,-0.036046166,-0.9842215,0.98461694,0.029492209,0.17222,0.020736644,-0.9985482,0.049713556,0.17967598,-0.04519261,-0.98268723,0.9835073,0.029309966,0.17847799,9.899109,0.25602722,1.6259155,9.655794,0.28921977,1.6889013,-0.09352112,0.027450562,-0.019073486,-32.939148,-1.979065,-30.178833,1,0.0,0.0,0.0,0.0
1.602050781,0.020470854,-0.99835604,0.05353641,0.17384186,-0.049177617,-0.9835449,0.9845608,0.029440874,0.17254937,0.020821335,-0.9985643,0.04935313,0.17942145,-0.04483037,-0.98275036,0.9835519,0.029317183,0.17823043,10.017548,0.22612,1.807785,9.655244,0.28871638,1.6921314,-0.08206177,0.016448975,-0.032211304,-32.87964,-2.279663,-29.93927,1,0.0,0.0,0.0,0.0
1.610351563,0.024035826,-0.9991631,0.033099312,0.1736213,-0.028433695,-0.984402,0.9845191,0.029407658,0.17279254,0.020813854,-0.9985603,0.04943669,0.17930998,-0.044917263,-0.9827666,0.98357236,0.029319657,0.17811693,10.064209,0.19979858,1.804184,9.654835,0.2883906,1.6945161,-0.07092285,0.0056152344,-0.03465271,-33.059692,-1.7990112,-30.299377,1,0.0,0.0,0.0,0.0
1.618652344,0.024071012,-0.9991634,0.033060946,0.17375049,-0.028385948,-0.98438054,0.9844955,0.02943939,0.17292187,0.020944897,-0.9985894,0.048790686,0.17908582,-0.04426481,-0.98283714,0.9836105,0.029323144,0.1779061,9.929016,0.20219421,1.7898254,9.654603,0.2887018,1.6957842,-0.06175232,-0.0027923584,-0.032211304,-33.059692,-1.7990112,-30.299377,1,0.0,0.0,0.0,0.0
1.626953125,0.024961565,-0.9992801,0.028566549,0.17360279,-0.023808304,-0.9845278,0.98449934,0.029534591,0.17288354,0.021071803,-0.99861693,0.048168648,0.17887561,-0.04363625,-0.9829036,0.98364604,0.029327745,0.17770872,9.881165,0.24406433,1.7407837,9.65464,0.2896354,1.6954082,-0.056869507,-0.019897461,-0.033432007,-33.059692,-1.6799927,-29.87976,1,0.0,0.0,0.0,0.0
1.635253906,0.025048096,-0.9992807,0.02847084,0.17344928,-0.023703653,-0.98455745,0.9845242,0.029599538,0.1727308,0.021151558,-0.99863404,0.047777124,0.1787711,-0.043239824,-0.9829401,0.9836633,0.029331882,0.1776123,9.820145,0.22132874,1.7120667,9.654884,0.29027233,1.6939106,-0.05381775,-0.029510498,-0.027313232,-33.059692,-1.6799927,-29.87976,1,0.0,0.0,0.0,0.0
1.643554688,0.025120718,-0.9992812,0.028390521,0.17323221,-0.023618503,-0.98459774,0.98456055,0.029651953,0.17251436,0.02130962,-0.99866694,0.047013756,0.1785621,-0.042466592,-0.98301184,0.9836979,0.029342482,0.17741913,9.820145,0.22132874,1.7120667,9.655241,0.29078633,1.6917881,-0.053359985,-0.032409668,-0.024414063,-33.059692,-1.6799927,-29.87976,1,0.0,0.0,0.0,0.0
1.651855469,0.025196923,-0.99928534,0.02817625,0.17290549,-0.023404077,-0.9846603,0.9846161,0.02968224,0.17219222,0.021387745,-0.9986827,0.046641707,0.17845634,-0.04208967,-0.9830472,0.98371536,0.029348671,0.17732106,9.793823,0.23210144,1.6618195,9.655786,0.29108334,1.6886288,-0.059921265,-0.036224365,-0.020904541,-32.87964,-1.6799927,-30.178833,1,0.0,0.0,0.0,0.0
1.66015625,0.024776123,-0.99922305,0.030651707,0.17262848,-0.02592415,-0.9846458,0.9846753,0.029687058,0.17185204,0.021542374,-0.99871314,0.045911502,0.17823812,-0.04134997,-0.9831181,0.9837515,0.02936188,0.17711799,9.815353,0.25483704,1.6259155,9.656366,0.2911306,1.6852928,-0.053512573,-0.032104492,-0.016479492,-32.818604,-1.739502,-30.178833,1,0.0,0.0,0.0,0.0
1.668457031,0.02480912,-0.9992233,0.03061583,0.17226584,-0.025894066,-0.98471016,0.98473805,0.029703856,0.17148964,0.021673623,-0.99873793,0.045307968,0.17801729,-0.040739194,-0.9831837,0.9837886,0.029374756,0.17690964,9.757935,0.29193115,1.5996094,9.656981,0.29129532,1.681739,-0.053512573,-0.01927185,-0.013427734,-32.818604,-1.739502,-30.178833,1,0.0,0.0,0.0,0.0
1.676757813,0.024863895,-0.99922377,0.030556303,0.1719354,-0.02583598,-0.9847693,0.9847943,0.029738907,0.17115954,0.02173796,-0.9987498,0.04501454,0.17790279,-0.040442366,-0.98321664,0.9838079,0.029381339,0.17680125,9.796219,0.29670715,1.5828552,9.657534,0.29163906,1.6785017,-0.06388855,-0.014083862,-0.01020813,-32.818604,-1.739502,-30.178833,1,0.0,0.0,0.0,0.0
1.685058594,0.023262518,-0.9989337,0.03987983,0.17187253,-0.03530061,-0.9844865,0.9848445,0.02975588,0.17086807,0.021864947,-0.9987726,0.04444292,0.17766768,-0.03986419,-0.98328274,0.9838476,0.029395496,0.17657799,9.893127,0.31825256,1.537384,9.658026,0.2918055,1.6756433,-0.0594635,0.00881958,-0.008071899,-32.939148,-1.979065,-30.358887,1,0.0,0.0,0.0,0.0
1.693359375,0.023265412,-0.99893373,0.03987669,0.17182705,-0.035298392,-0.98449457,0.9848524,0.029756567,0.17082259,0.02192128,-0.9987794,0.04426258,0.1774384,-0.03968355,-0.98333144,0.98388773,0.029409768,0.1763519,9.932602,0.3026886,1.635498,9.658103,0.29181224,1.6751974,-0.056259155,0.027755737,-0.017089844,-32.939148,-1.979065,-30.358887,1,0.0,0.0,0.0,0.0
1.701660156,0.025385667,-0.99928945,0.027859567,0.17159599,-0.023099124,-0.98489654,0.9848402,0.029782841,0.17088768,0.021948634,-0.99878263,0.044175066,0.1773263,-0.039595913,-0.9833552,0.98390734,0.029416705,0.17624137,9.932602,0.3026886,1.635498,9.657984,0.2920699,1.6758357,-0.06388855,0.028213501,-0.010818481,-32.87964,-1.6799927,-30.299377,1,0.0,0.0,0.0,0.0
1.709960938,0.024579484,-0.999165,0.032637708,0.17186415,-0.027938146,-0.98472446,0.984814,0.029813271,0.17103393,0.02208821,-0.9988079,0.043529876,0.17710075,-0.038942818,-0.9834219,0.98394483,0.029431205,0.17602946,9.938583,0.29312134,1.655838,9.657726,0.29236832,1.6772699,-0.064819336,0.03111267,-0.024108887,-32.818604,-1.7990112,-30.358887,1,0.0,0.0,0.0,0.0
1.718261719,0.024677128,-0.99916595,0.03253222,0.17209142,-0.027810566,-0.9846882,0.9847718,0.029897796,0.17126162,0.022188999,-0.99882436,0.04309912,0.17689414,-0.038507134,-0.9834763,0.9839797,0.029446336,0.17583175,10.009171,0.2859497,1.7204437,9.657313,0.29319724,1.679503,-0.042816162,0.031570435,-0.031600952,-32.818604,-1.7990112,-30.358887,1,0.0,0.0,0.0,0.0
1.7265625,0.024816012,-0.99916744,0.03238217,0.17234217,-0.027631251,-0.98464954,0.9847245,0.030015888,0.17151299,0.02223973,-0.9988323,0.042888083,0.17679852,-0.038293276,-0.98350185,0.98399574,0.029455366,0.17574044,9.951752,0.25125122,1.7348022,9.656849,0.2943553,1.6819679,-0.042816162,0.022720337,-0.037094116,-32.818604,-1.7990112,-30.358887,1,0.0,0.0,0.0,0.0
1.734863281,0.027110327,-0.99943537,0.019846827,0.17222036,-0.014887506,-0.9849459,0.9846853,0.030120233,0.17171954,0.022343514,-0.9988477,0.042472444,0.17662285,-0.03787102,-0.9835498,0.98402494,0.029477563,0.17557316,9.900299,0.22013855,1.7623138,9.656465,0.2953786,1.6839935,-0.022506714,-0.00630188,-0.028686523,-32.939148,-1.499939,-30.53894,1,0.0,0.0,0.0,0.0
1.743164063,0.027152192,-0.9994352,0.019801658,0.17220162,-0.014836371,-0.98495,0.98468745,0.03015343,0.1717015,0.022535842,-0.9988811,0.04157763,0.17645104,-0.03696127,-0.9836152,0.9840514,0.029503012,0.17542066,9.828522,0.17945862,1.7084808,9.656486,0.29570413,1.6838167,-0.02633667,-0.018356323,-0.026550293,-32.939148,-1.499939,-30.53894,1,0.0,0.0,0.0,0.0
1.751464844,0.025473464,-0.99924254,0.029415026,0.17232746,-0.024594788,-0.98473257,0.98471034,0.030153574,0.17157045,0.022629887,-0.99889696,0.04114259,0.17636727,-0.036518887,-0.98364675,0.9840642,0.02951602,0.17534633,9.828522,0.17945862,1.7084808,9.65671,0.29570556,1.6825314,-0.02633667,-0.018203735,-0.02029419,-33.17871,-1.739502,-30.358887,1,0.0,0.0,0.0,0.0
1.759765625,0.025029674,-0.9991886,0.031554647,0.1722308,-0.026782475,-0.9846925,0.9847386,0.030081216,0.17142068,0.02274426,-0.9989134,0.04067862,0.17620806,-0.03604671,-0.9836927,0.98409015,0.029541265,0.17519675,9.748352,0.21057129,1.6534424,9.656987,0.29499596,1.6810626,-0.043121338,-0.021560669,-0.001663208,-33.239746,-1.7990112,-30.599976,1,0.0,0.0,0.0,0.0
1.768066406,0.024995286,-0.99918824,0.031591985,0.1719658,-0.026833259,-0.9847374,0.9847858,0.030046536,0.1711555,0.022836091,-0.9989259,0.04031784,0.17605118,-0.03568004,-0.9837342,0.9841161,0.029562647,0.1750473,9.750748,0.2859497,1.6115723,9.65745,0.29465586,1.6784621,-0.05580139,-0.018814087,0.005508423,-33.239746,-1.7990112,-30.599976,1,0.0,0.0,0.0,0.0
1.776367188,0.024847068,-0.9991869,0.031752907,0.17162241,-0.02702767,-0.984792,0.9848494,0.029918702,0.1708113,0.022879973,-0.99893194,0.04014346,0.17596973,-0.035503075,-0.9837551,0.9841296,0.029572325,0.17496946,9.84288,0.28953552,1.5613098,9.658073,0.29340225,1.6750866,-0.065582275,-0.018814087,0.010391235,-33.239746,-1.7990112,-30.599976,1,0.0,0.0,0.0,0.0
1.784667969,0.022778388,-0.9988491,0.042208157,0.17161353,-0.03768583,-0.9844433,0.984901,0.029667525,0.17055762,0.022959217,-0.99894345,0.039811667,0.17579809,-0.035167605,-0.9837979,0.9841585,0.029586041,0.17480493,9.911072,0.23210144,1.6247253,9.65858,0.29093903,1.672599,-0.07458496,-0.01423645,-1.373291E-4,-33.358765,-2.0385742,-30.239868,1,0.0,0.0,0.0,0.0
1.79296875,0.022538126,-0.99884343,0.042472813,0.17140235,-0.03799399,-0.9844682,0.9849432,0.029468006,0.17034778,0.022951638,-0.9989398,0.03990659,0.17563255,-0.035267394,-0.9838239,0.9841882,0.029589267,0.17463689,9.957733,0.22851563,1.627121,9.658994,0.28898242,1.670541,-0.07992554,-0.002029419,-0.014953613,-33.358765,-2.0385742,-30.239868,1,0.0,0.0,0.0,0.0
1.801269531,0.022374772,-0.9988342,0.042773858,0.17126238,-0.03832272,-0.98447984,0.98497134,0.029353065,0.17020527,0.02294315,-0.99893796,0.03995788,0.17554799,-0.035321932,-0.98383707,0.9842035,0.029586844,0.17455113,9.957733,0.22851563,1.627121,9.659269,0.28785524,1.6691434,-0.07824707,0.0043945313,-0.01586914,-33.53882,-2.0385742,-30.059814,1,0.0,0.0,0.0,0.0
1.809570313,0.022856595,-0.9989475,0.03976611,0.17113346,-0.035279952,-0.984616,0.9849827,0.029310284,0.17014699,0.022920206,-0.99893403,0.040069073,0.17537832,-0.03544055,-0.98386306,0.98423433,0.029577587,0.17437907,9.981659,0.20936584,1.7431641,9.659381,0.2874357,1.668572,-0.06695557,0.013092041,-0.031448364,-33.779907,-1.979065,-30.299377,1,0.0,0.0,0.0,0.0
1.817871094,0.022867704,-0.99894774,0.039753743,0.17126687,-0.035261896,-0.9845934,0.98495924,0.02932389,0.17028032,0.022918954,-0.99893427,0.040063005,0.17529339,-0.03543734,-0.9838783,0.9842494,0.029572241,0.17429438,9.981659,0.20936584,1.7431641,9.659151,0.28756914,1.6698796,-0.057785034,0.009887695,-0.03465271,-33.779907,-1.979065,-30.299377,1,0.0,0.0,0.0,0.0
1.826171875,0.022938514,-0.9989493,0.039674904,0.17138445,-0.035168618,-0.9845762,0.9849371,0.029384375,0.17039767,0.022916982,-0.9989348,0.040050663,0.17513394,-0.035430323,-0.98390687,0.98427784,0.029562406,0.17413543,9.915863,0.29193115,1.6845398,9.658934,0.2881623,1.6710303,-0.055496216,0.00592041,-0.02885437,-33.779907,-1.979065,-30.299377,1,0.0,0.0,0.0,0.0
1.834472656,0.023149483,-0.99895483,0.039413825,0.17141788,-0.034874316,-0.984581,0.9849264,0.029548775,0.17043138,0.022917876,-0.9989354,0.04003579,0.17498557,-0.035419974,-0.9839337,0.98430425,0.029555354,0.17398752,9.894318,0.29312134,1.7204437,9.658829,0.2897745,1.6713609,-0.06022644,-3.3569336E-4,-0.032211304,-34.01947,-1.979065,-30.178833,1,0.0,0.0,0.0,0.0
1.842773438,0.023354629,-0.99895906,0.03918285,0.17146996,-0.034610108,-0.9845812,0.9849125,0.029713212,0.17048317,0.022922555,-0.9989358,0.04002332,0.17491423,-0.03540902,-0.9839468,0.9843168,0.029555222,0.17391641,9.894318,0.29312134,1.7204437,9.658692,0.29138708,1.6718688,-0.05519104,-5.0354004E-4,-0.03312683,-34.01947,-1.979065,-30.178833,1,0.0,0.0,0.0,0.0
1.851074219,0.025775915,-0.9993156,0.026527254,0.17109232,-0.02173456,-0.9850151,0.98491776,0.029928278,0.17041503,0.022939758,-0.9989368,0.039990157,0.1747779,-0.035377454,-0.98397213,0.98434067,0.029561479,0.1737805,9.824936,0.324234,1.6510468,9.658744,0.29349616,1.6712005,-0.05519104,-0.008132935,-0.026245117,-34.259033,-1.6799927,-29.99878,1,0.0,0.0,0.0,0.0
1.859375,0.022803491,-0.9987773,0.04386234,0.1714755,-0.039316073,-0.98440355,0.98492444,0.029969156,0.1703693,0.0230539,-0.99895525,0.03945749,0.1746327,-0.034837276,-0.9840172,0.9843638,0.029576002,0.17364712,9.757935,0.21774292,1.6881409,9.65881,0.29389703,1.6707522,-0.05458069,-0.01637268,-0.024719238,-34.259033,-2.0996094,-29.99878,1,0.0,0.0,0.0,0.0
1.867675781,0.02282398,-0.9987779,0.043838985,0.1713684,-0.039292827,-0.9844232,0.9849426,0.02998107,0.17026214,0.023048615,-0.9989519,0.03954553,0.17456959,-0.03492682,-0.9840252,0.98437506,0.029583864,0.1735816,9.757935,0.21774292,1.6881409,9.658988,0.29401386,1.6697013,-0.05809021,-0.021728516,-0.02243042,-34.259033,-2.0996094,-29.99878,1,0.0,0.0,0.0,0.0
1.875976563,0.022814687,-0.99877757,0.04384957,0.17117366,-0.039310765,-0.9844563,0.9849767,0.029965956,0.17006756,0.02303916,-0.9989454,0.039715625,0.17444272,-0.03509983,-0.9840415,0.98439777,0.029599594,0.1734501,9.783051,0.21057129,1.6342926,9.659322,0.29386565,1.6677932,-0.05961609,-0.015609741,-0.020141602,-34.259033,-2.0996094,-29.99878,1,0.0,0.0,0.0,0.0
1.884277344,0.024855157,-0.9991832,0.031860445,0.17073728,-0.027159177,-0.9849422,0.98500305,0.02992066,0.16992278,0.023029707,-0.9989391,0.039879475,0.17431323,-0.035266772,-0.98405844,0.9844209,0.029614102,0.17331612,9.839279,0.22612,1.5756683,9.65958,0.29342145,1.6663733,-0.061141968,0.005004883,-0.01739502,-34.01947,-1.7990112,-29.87976,1,0.0,0.0,0.0,0.0
1.892578125,0.024827803,-0.9991829,0.031891566,0.17061877,-0.027198102,-0.98496157,0.9850242,0.029895738,0.1698041,0.023066757,-0.99894464,0.039719295,0.174242,-0.035104696,-0.9840769,0.98443264,0.029620234,0.17324838,9.839279,0.22612,1.5756683,9.659788,0.29317704,1.6652094,-0.06466675,0.025009155,-0.024414063,-34.01947,-1.7990112,-29.87976,1,0.0,0.0,0.0,0.0
1.900878906,0.02400636,-0.9990297,0.036923427,0.17085235,-0.032290775,-0.9847673,0.9850041,0.029949132,0.16991138,0.023137562,-0.9989552,0.039409567,0.17409883,-0.034791607,-0.9841134,0.9844563,0.029631145,0.17311195,9.964905,0.275177,1.6319122,9.659591,0.29370067,1.6662616,-0.054885864,0.03967285,-0.02319336,-34.01947,-1.9195557,-29.818726,1,0.0,0.0,0.0,0.0
1.909179688,0.025033658,-0.99918675,0.031607576,0.17094314,-0.026873278,-0.98491436,0.9849629,0.03005911,0.1701314,0.02317226,-0.9989583,0.039311275,0.1739704,-0.034692638,-0.9841396,0.9844782,0.029643737,0.17298526,9.973282,0.30389404,1.640274,9.659186,0.29477918,1.6684191,-0.06253052,0.035079956,-0.022735596,-34.07898,-1.7990112,-29.87976,1,0.0,0.0,0.0,0.0
1.917480469,0.025167972,-0.9991883,0.031454485,0.17113495,-0.026693627,-0.98488593,0.9849261,0.030170538,0.1703242,0.023209937,-0.9989635,0.03915733,0.17391004,-0.03453627,-0.9841558,0.984488,0.029652044,0.17292818,9.973282,0.30389404,1.640274,9.658825,0.29587188,1.6703098,-0.06098938,0.027450562,-0.027160645,-34.07898,-1.7990112,-29.87976,1,0.0,0.0,0.0,0.0
1.92578125,0.025306314,-0.99918973,0.03129678,0.171316,-0.026509034,-0.98485947,0.9848911,0.030284801,0.17050633,0.023288261,-0.99897355,0.038852587,0.1738005,-0.03422579,-0.98418593,0.9845055,0.029672578,0.17282504,9.950546,0.28234863,1.6977081,9.658483,0.29699245,1.6720959,-0.05519104,0.009429932,-0.030685425,-34.07898,-1.7990112,-29.87976,1,0.0,0.0,0.0,0.0
1.934082031,0.026316518,-0.9993137,0.026069196,0.17126776,-0.021185443,-0.98499674,0.984873,0.030386498,0.1705927,0.023368865,-0.9989832,0.038553655,0.17370243,-0.033920303,-0.9842138,0.98452085,0.029696824,0.17273313,9.929016,0.25125122,1.7072754,9.658305,0.29798976,1.6729429,-0.054275513,-0.005996704,-0.031600952,-33.898926,-1.6799927,-30.178833,1,0.0,0.0,0.0,0.0
1.942382813,0.02643518,-0.999314,0.02593592,0.17125697,-0.021034148,-0.98500174,0.9848716,0.03048041,0.17058346,0.023428373,-0.99899143,0.03830418,0.17365421,-0.033665683,-0.9842311,0.984528,0.029710615,0.17269035,9.929016,0.25125122,1.7072754,9.658292,0.29891074,1.6728523,-0.061141968,-0.00920105,-0.028549194,-33.898926,-1.6799927,-30.178833,1,0.0,0.0,0.0,0.0
1.950683594,0.026091969,-0.9992539,0.028477358,0.1712311,-0.023598574,-0.9849483,0.98488533,0.030575443,0.1704876,0.023548499,-0.9990072,0.03781478,0.17356026,-0.033165593,-0.9842646,0.9845416,0.0297411,0.17260696,9.818954,0.26560974,1.6642151,9.658425,0.29984266,1.6719121,-0.06573486,-0.007827759,-0.023651123,-34.13849,-1.739502,-29.759216,1,0.0,0.0,0.0,0.0
1.958984375,0.026192766,-0.99925923,0.02819411,0.17112674,-0.023305427,-0.98497325,0.9849007,0.03062394,0.17038953,0.023650007,-0.9990188,0.03744534,0.1734685,-0.032786846,-0.98429346,0.9845554,0.029774139,0.17252289,9.821335,0.29670715,1.6701965,9.658577,0.30031827,1.6709505,-0.07382202,-0.0137786865,-0.019226074,-34.199524,-1.739502,-29.87976,1,0.0,0.0,0.0,0.0
1.967285156,0.026254822,-0.9992596,0.028123097,0.17101572,-0.023228304,-0.9849944,0.9849184,0.030670349,0.17027926,0.023701271,-0.99902445,0.03726045,0.17342207,-0.032597233,-0.98430794,0.98456234,0.029791135,0.1724803,9.821335,0.29670715,1.6701965,9.658751,0.30077338,1.6698692,-0.07382202,-0.01713562,-0.014343262,-34.199524,-1.739502,-29.87976,1,0.0,0.0,0.0,0.0
1.975585938,0.026224595,-0.99925935,0.028157681,0.17082772,-0.023273397,-0.98502594,0.98495185,0.030642029,0.17009088,0.023803186,-0.9990355,0.03689896,0.17332742,-0.032226346,-0.9843369,0.9845766,0.029825954,0.17239316,9.841675,0.2763672,1.6582336,9.659079,0.30049565,1.6680218,-0.08206177,-0.024627686,-0.007003784,-34.199524,-1.739502,-29.87976,1,0.0,0.0,0.0,0.0
1.983886719,0.024428094,-0.998974,0.038130697,0.170851,-0.03340916,-0.9847302,0.984994,0.030569755,0.16985963,0.02385204,-0.9990408,0.03672418,0.17327778,-0.032047212,-0.98435146,0.98458415,0.029842274,0.17234719,9.841675,0.2763672,1.6582336,9.659492,0.2997869,1.665754,-0.07901001,-0.026763916,-0.008682251,-34.199524,-1.979065,-29.93927,1,0.0,0.0,0.0,0.0
1.9921875,0.024216628,-0.99897003,0.038372,0.17062162,-0.03369005,-0.9847605,0.985039,0.03039467,0.16963004,0.023874745,-0.99903816,0.03677979,0.17318153,-0.032101013,-0.9843666,0.9846005,0.029871082,0.17224854,9.787842,0.20817566,1.6713867,9.659933,0.2980699,1.6635025,-0.07962036,-0.034088135,-0.010513306,-34.199524,-1.979065,-29.93927,1,0.0,0.0,0.0,0.0
2.000488281,0.025706636,-0.9992497,0.028970553,0.17006488,-0.024186285,-0.98513603,0.98509747,0.030251402,0.16931552,0.023888113,-0.99903554,0.036842924,0.17308009,-0.032163993,-0.98438245,0.984618,0.029891815,0.1721448,9.889542,0.22253418,1.6378937,9.660506,0.29666492,1.660418,-0.09535217,-0.022644043,-0.012817383,-34.07898,-1.739502,-29.759216,1,0.0,0.0,0.0,0.0
2.008789063,0.025563495,-0.9992485,0.029134406,0.16981068,-0.024379855,-0.985175,0.9851451,0.030131852,0.16905986,0.023924928,-0.9990404,0.036685657,0.17301993,-0.032004517,-0.9843982,0.98462766,0.029899007,0.17208819,9.889542,0.22253418,1.6378937,9.660974,0.29549253,1.6579108,-0.08879089,-0.012252808,-0.020751953,-34.07898,-1.739502,-29.759216,1,0.0,0.0,0.0,0.0
2.017089844,0.02415589,-0.9990343,0.036702406,0.16985327,-0.03207795,-0.98494714,0.9851732,0.030026296,0.16891436,0.023990713,-0.9990498,0.036386847,0.17289327,-0.031702604,-0.9844302,0.98464835,0.029908227,0.17196842,9.890732,0.21774292,1.6414795,9.661249,0.29445738,1.656484,-0.08253479,-0.0012512207,-0.015563965,-33.898926,-1.9195557,-29.93927,1,0.0,0.0,0.0,0.0
2.025390625,0.024169998,-0.9990345,0.036686454,0.16980065,-0.032061443,-0.9849568,0.985182,0.030035783,0.16886178,0.023997214,-0.9990491,0.03639938,0.1727729,-0.031717487,-0.9844509,0.9846693,0.029912902,0.17184749,9.993622,0.28833008,1.6821594,9.661335,0.29455042,1.6559684,-0.066345215,-0.00340271,-0.021820068,-33.898926,-1.9195557,-29.93927,1,0.0,0.0,0.0,0.0
2.033691406,0.024218386,-0.9990308,0.03675261,0.16975874,-0.032119773,-0.984962,0.985188,0.03009327,0.16881634,0.024000643,-0.9990489,0.03640515,0.17271355,-0.031724393,-0.98446107,0.98467964,0.02991536,0.17178786,9.993622,0.28833008,1.6821594,9.661394,0.29511416,1.6555228,-0.057022095,-0.0026397705,-0.028686523,-33.839417,-1.9195557,-29.87976,1,0.0,0.0,0.0,0.0
2.041992188,0.02438129,-0.9990337,0.036568295,0.16969876,-0.03191237,-0.98497915,0.9851943,0.03022066,0.16875672,0.024009211,-0.9990482,0.036418986,0.17259653,-0.031740107,-0.9844811,0.9847,0.029922403,0.1716702,9.956528,0.2907257,1.6821594,9.661456,0.29636344,1.6549381,-0.036102295,-0.012252808,-0.031906128,-33.839417,-1.9195557,-29.87976,1,0.0,0.0,0.0,0.0
2.050292969,0.026290908,-0.99930257,0.026515635,0.16933815,-0.021689437,-0.98531926,0.98520726,0.030395046,0.16864982,0.024023931,-0.99904764,0.03642489,0.17248182,-0.031746887,-0.984501,0.98471975,0.029934214,0.17155486,9.934998,0.28833008,1.6462555,9.661583,0.2980736,1.6538898,-0.03488159,-0.023254395,-0.03327942,-33.53882,-1.6799927,-30.059814,1,0.0,0.0,0.0,0.0
2.05859375,0.026525201,-0.99930334,0.026254263,0.16912042,-0.021398935,-0.98536307,0.9852384,0.030577086,0.16843498,0.024069874,-0.9990537,0.036226828,0.17241918,-0.03154572,-0.98451847,0.9847296,0.02994343,0.1714967,9.934998,0.28833008,1.6462555,9.661888,0.29985878,1.6517829,-0.040374756,-0.02355957,-0.02885437,-33.53882,-1.6799927,-30.059814,1,0.0,0.0,0.0,0.0
2.066894531,0.025328478,-0.9991025,0.033951823,0.16903128,-0.029193494,-0.98517823,0.98528516,0.030691987,0.16814013,0.02416829,-0.9990655,0.035832405,0.17228924,-0.031144101,-0.98455393,0.98474985,0.029968524,0.17137554,9.851257,0.2644043,1.5888367,9.662347,0.30098557,1.6488914,-0.06375122,-0.020202637,-0.025177002,-33.4198,-1.8585205,-29.759216,1,0.0,0.0,0.0,0.0
2.075195313,0.02540406,-0.9991035,0.03386701,0.16880721,-0.029104134,-0.98521936,0.98532164,0.030745564,0.16791649,0.024214454,-0.99906707,0.035758115,0.17216043,-0.0310669,-0.9845789,0.9847713,0.029997174,0.17124756,9.812973,0.26081848,1.6259155,9.662704,0.301511,1.6466984,-0.060531616,-0.028442383,-0.018310547,-33.4198,-1.8585205,-29.759216,1,0.0,0.0,0.0,0.0
2.083496094,0.027061185,-0.99933803,0.024314566,0.16831434,-0.019421097,-0.98554206,0.9853619,0.030762427,0.16767736,0.024238378,-0.99906784,0.03572031,0.17209353,-0.031027582,-0.98459184,0.9847824,0.030012142,0.17118104,9.812973,0.26081848,1.6259155,9.663099,0.30167636,1.6443533,-0.06236267,-0.022033691,-0.01953125,-32.939148,-1.6189575,-29.87976,1,0.0,0.0,0.0,0.0
2.091796875,0.02709632,-0.9993381,0.024275837,0.16803555,-0.01938572,-0.9855904,0.9854085,0.03078507,0.16739902,0.024351725,-0.99908113,0.035269264,0.17194475,-0.03056819,-0.98463225,0.9848056,0.030041855,0.17104235,9.872787,0.28115845,1.5804596,9.663556,0.30189842,1.6416236,-0.078704834,-0.00843811,-0.01739502,-32.939148,-1.6189575,-29.87976,1,0.0,0.0,0.0,0.0
2.100097656,0.028233418,-0.9994482,0.017500615,0.16768663,-0.012523966,-0.9857608,0.98543596,0.030766014,0.16724049,0.024461983,-0.99909365,0.03483443,0.1717909,-0.030125469,-0.98467267,0.9848297,0.030071286,0.17089827,9.862015,0.26679993,1.5900269,9.663826,0.30171153,1.640069,-0.08680725,4.272461E-4,-0.017242432,-32.63855,-1.4389038,-29.519653,1,0.0,0.0,0.0,0.0
2.108398438,0.028193729,-0.99944854,0.017544512,0.16759871,-0.012576643,-0.98577505,0.985452,0.03073311,0.16715169,0.024538739,-0.9991038,0.03448812,0.17170967,-0.029773511,-0.98469764,0.984842,0.03008518,0.17082518,9.862015,0.26679993,1.5900269,9.663983,0.30138886,1.6391982,-0.08267212,0.0053100586,-0.017547607,-32.63855,-1.4389038,-29.519653,1,0.0,0.0,0.0,0.0
2.116699219,0.03018095,-0.99952847,0.0056603714,0.1672297,-5.337624E-4,-0.98591787,0.98545593,0.03070252,0.16713472,0.024685998,-0.9991231,0.033817876,0.17154832,-0.02909269,-0.98474604,0.98486644,0.030110838,0.1706797,9.912262,0.26200867,1.6319122,9.6640215,0.30108887,1.6390316,-0.06680298,0.006072998,-0.021209717,-32.27997,-1.1398315,-29.159546,1,0.0,0.0,0.0,0.0
2.125,0.030109592,-0.9995302,0.005739432,0.1672621,-6.2267575E-4,-0.9859124,0.9854526,0.030645408,0.16716474,0.024907855,-0.9991547,0.032703914,0.1713805,-0.027961992,-0.984808,0.98489004,0.030134268,0.17053916,9.890732,0.21057129,1.6426697,9.663989,0.3005288,1.6393261,-0.067871094,0.009429932,-0.025787354,-32.27997,-1.1398315,-29.159546,1,0.0,0.0,0.0,0.0
2.133300781,0.03132047,-0.9995082,-0.0015209509,0.16708636,0.0067360713,-0.98591924,0.98544466,0.030625323,0.16721518,0.025013894,-0.9991695,0.03216508,0.17129974,-0.027415272,-0.9848374,0.9849014,0.030144492,0.17047173,9.890732,0.21057129,1.6426697,9.663911,0.30033183,1.6398208,-0.06266785,0.012023926,-0.025634766,-32.03888,-0.95977783,-29.039001,1,0.0,0.0,0.0,0.0
2.141601563,0.031327955,-0.99950796,-0.0015292172,0.1671017,0.006745954,-0.98591655,0.9854418,0.030631216,0.16723081,0.025268456,-0.9992052,0.030832367,0.17113744,-0.02606321,-0.9849024,0.9849231,0.030163532,0.17034282,9.885941,0.2368927,1.6103668,9.663883,0.30038962,1.6399741,-0.057174683,0.006378174,-0.021057129,-32.03888,-0.95977783,-29.039001,1,0.0,0.0,0.0,0.0
2.149902344,0.03260429,-0.9994275,-0.009036025,0.16685298,0.014356755,-0.9858773,0.9854426,0.030636135,0.16722555,0.025512865,-0.9992376,0.02955184,0.17098184,-0.024764111,-0.98496294,0.98494387,0.030182052,0.17021969,9.871582,0.24526978,1.6043854,9.663891,0.30043787,1.6399225,-0.05885315,0.010650635,-0.023345947,-31.799316,-0.7797241,-28.49884,1,0.0,0.0,0.0,0.0
2.158203125,0.032633375,-0.99942625,-0.0090685235,0.16683143,0.014393009,-0.9858803,0.9854452,0.03065969,0.16720541,0.0256574,-0.9992564,0.028780743,0.17090225,-0.023981845,-0.9849961,0.9849539,0.030191135,0.17015986,9.871582,0.24526978,1.6043854,9.663917,0.30066887,1.639725,-0.064193726,0.0028686523,-0.032669067,-31.799316,-0.7797241,-28.49884,1,0.0,0.0,0.0,0.0
2.166503906,0.03620385,-0.99889296,-0.0300372,0.16613312,0.035654545,-0.98545855,0.9854385,0.03068722,0.16724002,0.025938721,-0.9992912,0.027283214,0.17074674,-0.022462543,-0.98505884,0.9849735,0.030209688,0.17004307,9.86441,0.23091125,1.6546326,9.663851,0.30093884,1.6400644,-0.07733154,-0.0011138916,-0.025177002,-31.498718,-0.29907227,-28.019714,1,0.0,0.0,0.0,0.0
2.174804688,0.036297966,-0.9988863,-0.03014307,0.16607606,0.035772968,-0.98546386,0.98544466,0.03076429,0.1671896,0.026353294,-0.9993397,0.02501503,0.17057595,-0.020161338,-0.9851383,0.9849921,0.030228598,0.169932,9.914658,0.27876282,1.627121,9.663911,0.30169463,1.6395699,-0.07382202,-0.003250122,-0.018920898,-31.498718,-0.29907227,-28.019714,1,0.0,0.0,0.0,0.0
2.183105469,0.03738891,-0.9986359,-0.0364464,0.16576307,0.042164534,-0.98526376,0.9854566,0.030796472,0.16711344,0.026556099,-0.9993613,0.023912622,0.17049183,-0.019042686,-0.985175,0.9850012,0.030239314,0.16987723,9.914658,0.27876282,1.627121,9.664028,0.30201024,1.638823,-0.06159973,-0.0067596436,-0.01449585,-31.3797,-0.17852783,-27.2995,1,0.0,0.0,0.0,0.0
2.19140625,0.03735844,-0.99863833,-0.03641136,0.16566448,0.042121787,-0.9852822,0.9854743,0.030776538,0.16701251,0.02699369,-0.99940383,0.021523716,0.17031793,-0.016618617,-0.98524904,0.9850194,0.030261379,0.1697678,9.870392,0.26679993,1.6091766,9.664202,0.30181473,1.6378334,-0.06266785,-0.0014190674,-0.012969971,-31.3797,-0.17852783,-27.2995,1,0.0,0.0,0.0,0.0
2.199707031,0.04240975,-0.9968652,-0.066792235,0.16429543,0.07290069,-0.9837137,0.9854991,0.030745389,0.1668721,0.02741231,-0.99943924,0.019230628,0.17014593,-0.0142921535,-0.98531526,0.98503757,0.030281778,0.16965872,9.862015,0.2679901,1.5744781,9.664444,0.30150926,1.6364563,-0.07077026,-0.0012512207,-0.017700195,-31.259155,0.47912598,-26.998901,1,0.0,0.0,0.0,0.0
2.208007813,0.04237804,-0.996869,-0.066755585,0.1641806,0.072855644,-0.98373616,0.9855195,0.030728828,0.16675404,0.027719479,-0.99946237,0.01751019,0.17004223,-0.01254705,-0.9853569,0.98504686,0.03029105,0.16960302,9.862015,0.2679901,1.5744781,9.664646,0.3013469,1.6352986,-0.07473755,0.010498047,-0.021820068,-31.259155,0.47912598,-26.998901,1,0.0,0.0,0.0,0.0
2.216308594,0.042829446,-0.9966693,-0.06939737,0.16404873,0.075533904,-0.98355615,0.98552203,0.03074061,0.1667374,0.028313812,-0.99949855,0.014173243,0.1698349,-0.00916266,-0.98542994,0.9850657,0.030308388,0.16949031,9.891922,0.26200867,1.5936127,9.66467,0.3014624,1.6351354,-0.076416016,0.0181427,-0.023040771,-31.019592,0.53863525,-26.879883,1,0.0,0.0,0.0,0.0
2.224609375,0.042903397,-0.9966601,-0.06948253,0.16414735,0.07563338,-0.983532,0.9855024,0.030791495,0.16684406,0.028902104,-0.9995232,0.010863328,0.16963004,-0.0058058123,-0.9854907,0.98508394,0.030325504,0.16938137,9.939789,0.28234863,1.6474609,9.664477,0.30196142,1.6361814,-0.06588745,0.009429932,-0.021362305,-31.019592,0.53863525,-26.879883,1,0.0,0.0,0.0,0.0
2.232910156,0.045082737,-0.99559224,-0.08224151,0.16364715,0.08857321,-0.9825347,0.9854883,0.030836761,0.16691895,0.0291884,-0.9995311,0.009256035,0.16953196,-0.00417556,-0.9855159,0.9850924,0.030334823,0.16933058,9.939789,0.28234863,1.6474609,9.664339,0.30240533,1.6369157,-0.06893921,0.0068359375,-0.028549194,-30.718994,0.8392334,-26.998901,1,0.0,0.0,0.0,0.0
2.241210938,0.045062352,-0.99559504,-0.08221841,0.16370568,0.08854883,-0.9825271,0.9854795,0.030815361,0.16697478,0.02983209,-0.9995391,0.0056304755,0.16932803,-4.9798976E-4,-0.98555964,0.9851082,0.0303547,0.16923513,9.882355,0.20817566,1.6654053,9.664253,0.3021955,1.6374635,-0.064193726,-0.0011138916,-0.02746582,-30.718994,0.8392334,-26.998901,1,0.0,0.0,0.0,0.0
2.249511719,0.04603286,-0.9950858,-0.087665245,0.16341856,0.09407756,-0.9820609,0.9854823,0.030880945,0.16694616,0.030448234,-0.9995341,0.0021492525,0.16913201,0.003032905,-0.9855888,0.98512304,0.030372944,0.16914555,9.839279,0.25483704,1.6283112,9.66428,0.30283862,1.6371826,-0.06970215,0.0018005371,-0.025634766,-30.899048,0.95977783,-27.119446,1,0.0,0.0,0.0,0.0
2.2578125,0.04608479,-0.99507827,-0.08772415,0.16337876,0.094143115,-0.9820613,0.98548645,0.03092583,0.1669132,0.030766811,-0.9995265,3.5127532E-4,0.16903219,0.004856664,-0.98559856,0.9851302,0.030383103,0.16910157,9.839279,0.25483704,1.6283112,9.664321,0.3032788,1.6368593,-0.059921265,0.0022583008,-0.018310547,-30.899048,0.95977783,-27.119446,1,0.0,0.0,0.0,0.0
2.266113281,0.044842735,-0.9957859,-0.07999667,0.16376676,0.08632144,-0.9827151,0.98547935,0.030966848,0.16694753,0.031386387,-0.99950236,-0.003139719,0.16883536,0.008397844,-0.9856086,0.98514444,0.030404594,0.1690149,9.88356,0.279953,1.6713867,9.664251,0.30368105,1.6371961,-0.072143555,-9.460449E-4,-0.019683838,-30.958557,0.7797241,-27.059937,1,0.0,0.0,0.0,0.0
2.274414063,0.04487266,-0.9957819,-0.080030784,0.16378972,0.08636084,-0.98270786,0.98547417,0.030988498,0.16697407,0.031660855,-0.9994877,-0.0046780705,0.16874477,0.009958456,-0.9856094,0.9851512,0.030415839,0.16897362,9.908676,0.2763672,1.680954,9.664201,0.30389336,1.6374563,-0.058395386,-9.460449E-4,-0.019683838,-30.958557,0.7797241,-27.059937,1,0.0,0.0,0.0,0.0
2.282714844,0.045382638,-0.9955198,-0.08295037,0.16367093,0.08932365,-0.9824627,0.9854705,0.031010186,0.1669914,0.032193933,-0.9994523,-0.0076643126,0.16856857,0.012987978,-0.98560435,0.98516405,0.030438514,0.16889437,9.908676,0.2763672,1.680954,9.664165,0.30410606,1.6376262,-0.0544281,2.746582E-4,-0.022277832,-31.3797,0.8392334,-27.23999,1,0.0,0.0,0.0,0.0
2.291015625,0.045404162,-0.9955168,-0.08297506,0.16361916,0.08934999,-0.982469,0.98547816,0.031031873,0.16694248,0.0324627,-0.99943084,-0.009171534,0.16848087,0.014517051,-0.98559797,0.98517025,0.030449947,0.16885625,9.899109,0.2644043,1.6342926,9.66424,0.30431873,1.6371465,-0.057632446,-0.0029449463,-0.021820068,-31.3797,0.8392334,-27.23999,1,0.0,0.0,0.0,0.0
2.299316406,0.04542194,-0.9955142,-0.08299546,0.16354074,0.08937062,-0.9824801,0.9854903,0.031053012,0.16686653,0.032984644,-0.9993827,-0.012096866,0.16830768,0.017484786,-0.98557943,0.9851825,0.03047299,0.1687805,9.865601,0.25723267,1.6522369,9.664359,0.30452603,1.6364017,-0.06297302,-0.011642456,-0.017547607,-31.3797,0.8392334,-27.23999,1,0.0,0.0,0.0,0.0
2.307617188,0.04439392,-0.99605227,-0.076869465,0.16366959,0.08315721,-0.98300403,0.98551583,0.031058209,0.16671517,0.03348616,-0.999328,-0.0149072865,0.16813664,0.020335851,-0.9855539,0.9851948,0.030495957,0.16870463,9.862015,0.25723267,1.5912323,9.664609,0.304577,1.6349174,-0.06832886,-0.004470825,-0.024261475,-31.559753,0.71868896,-27.539063,1,0.0,0.0,0.0,0.0
2.315917969,0.042452957,-0.996976,-0.06508913,0.1640078,0.071218185,-0.9838848,0.9855451,0.031093698,0.16653526,0.03370824,-0.99930125,-0.01614752,0.16805428,0.021593949,-0.98554116,0.98520124,0.030507201,0.16866475,9.914658,0.27278137,1.578064,9.664896,0.30492502,1.633153,-0.071380615,-0.010879517,-0.02243042,-31.799316,0.47912598,-28.079224,1,0.0,0.0,0.0,0.0
2.32421875,0.04245503,-0.9969758,-0.06509147,0.16383764,0.071215466,-0.98391336,0.9855733,0.031107634,0.16636561,0.034060337,-0.9992561,-0.018086521,0.16790283,0.023561018,-0.9855219,0.98521495,0.03053043,0.16858043,9.909882,0.2596283,1.5888367,9.665173,0.3050617,1.6314894,-0.07824707,-0.011795044,-0.019073486,-31.799316,0.47912598,-28.079224,1,0.0,0.0,0.0,0.0
2.332519531,0.03938518,-0.99812967,-0.046754736,0.16442442,0.05262702,-0.98498476,0.98560303,0.031106183,0.16618961,0.034398407,-0.9992091,-0.019948628,0.16774994,0.025449852,-0.98550105,0.98522925,0.030553285,0.16849269,9.909882,0.2596283,1.5888367,9.665464,0.30504745,1.6297634,-0.07015991,-0.004928589,-0.016937256,-32.03888,0.059509277,-28.259277,1,0.0,0.0,0.0,0.0
2.340820313,0.039332498,-0.99813455,-0.04669502,0.16427691,0.052554674,-0.9850133,0.9856298,0.031072121,0.16603756,0.03449963,-0.9991948,-0.020484673,0.16768487,0.025993599,-0.9854979,0.9852368,0.030564344,0.1684466,9.872787,0.24406433,1.6019897,9.665727,0.30471343,1.6282723,-0.06985474,-0.0055389404,-0.008987427,-32.03888,0.059509277,-28.259277,1,0.0,0.0,0.0,0.0
2.349121094,0.03921361,-0.99814546,-0.046560254,0.16421527,0.052399978,-0.9850317,0.98564476,0.030980749,0.16596553,0.03469395,-0.9991662,-0.021522572,0.1675525,0.027045934,-0.9854921,0.98525244,0.030584453,0.16835113,9.818954,0.2416687,1.5936127,9.665874,0.30381736,1.6275659,-0.0652771,0.0051574707,-0.008224487,-32.03888,0.059509277,-28.259277,1,0.0,0.0,0.0,0.0
2.357421875,0.037170246,-0.9987101,-0.034589715,0.16464172,0.040260956,-0.9855314,0.98565286,0.030937538,0.16592588,0.03487568,-0.999138,-0.022513967,0.16742277,0.02805036,-0.98548603,0.9852681,0.030600145,0.16825673,9.826126,0.2679901,1.5661011,9.665953,0.3033936,1.627177,-0.06375122,0.014312744,-0.020599365,-32.398987,-0.23956299,-27.89917,1,0.0,0.0,0.0,0.0
2.365722656,0.034644883,-0.9992098,-0.019478062,0.16519961,0.024947323,-0.98594457,0.9856515,0.03094017,0.16593337,0.034922186,-0.99913096,-0.022755427,0.16736753,0.028294642,-0.9854885,0.98527586,0.030606892,0.1682102,9.851257,0.2632141,1.6115723,9.665939,0.3034194,1.6272506,-0.06939697,0.015838623,-0.021362305,-32.87964,-0.5996704,-27.719116,1,0.0,0.0,0.0,0.0
2.374023438,0.034685895,-0.9992075,-0.019526763,0.16530515,0.025005504,-0.9859254,0.9856323,0.030969832,0.16604148,0.03491091,-0.99913424,-0.02262565,0.16728157,0.028162064,-0.9855069,0.9852909,0.030620089,0.1681199,9.9218445,0.27038574,1.6414795,9.665751,0.3037103,1.6283107,-0.062210083,0.017669678,-0.023345947,-32.87964,-0.5996704,-27.719116,1,0.0,0.0,0.0,0.0
2.382324219,0.03476012,-0.9992017,-0.019689552,0.165416,0.025181958,-0.98590237,0.98561114,0.031013116,0.16615927,0.034901764,-0.99913734,-0.022502992,0.16720343,0.02803711,-0.9855237,0.9853045,0.03063394,0.16803774,9.9218445,0.27038574,1.6414795,9.665544,0.3041348,1.6294658,-0.050613403,0.017837524,-0.019378662,-32.939148,-0.5996704,-27.719116,1,0.0,0.0,0.0,0.0
2.390625,0.034840837,-0.999197,-0.01978557,0.16555788,0.025294598,-0.98587567,0.9855845,0.031073077,0.16630621,0.034898836,-0.9991387,-0.022446768,0.16716774,0.027980052,-0.9855314,0.9853106,0.030641522,0.16800022,9.9218445,0.27038574,1.6414795,9.665282,0.3047228,1.6309068,-0.050613403,0.009124756,-0.019378662,-32.939148,-0.5996704,-27.719116,1,0.0,0.0,0.0,0.0
2.398925781,0.03489996,-0.9991935,-0.019855909,0.16562569,0.025375985,-0.9858621,0.98557097,0.031117903,0.16637775,0.0348964,-0.99914116,-0.02234159,0.167104,0.027873913,-0.9855452,0.9853215,0.03065861,0.1679332,9.957733,0.2871399,1.6845398,9.66515,0.3051624,1.6316084,-0.05885315,-0.007522583,-0.013580322,-32.939148,-0.5996704,-27.719116,1,0.0,0.0,0.0,0.0
2.407226563,0.034939893,-0.9991872,-0.020109136,0.16560295,0.025631765,-0.9858595,0.9855734,0.031115692,0.1663639,0.03489638,-0.99914336,-0.022243079,0.1670455,0.02777492,-0.98555785,0.9853314,0.0306768,0.16787165,9.919449,0.2644043,1.6869354,9.665174,0.3051407,1.6314725,-0.048324585,-0.017440796,-0.018615723,-32.998657,-0.5996704,-27.539063,1,0.0,0.0,0.0,0.0
2.415527344,0.034449082,-0.9992582,-0.01721027,0.16562708,0.02269061,-0.9859274,0.98558664,0.03111381,0.1662859,0.03489719,-0.99914426,-0.022200376,0.1670167,0.027732033,-0.985564,0.98533624,0.03068558,0.16784154,9.882355,0.26200867,1.6725769,9.665303,0.30512226,1.6307076,-0.05305481,-0.019729614,-0.016784668,-32.818604,-0.6591797,-27.418518,1,0.0,0.0,0.0,0.0
2.423828125,0.034424555,-0.99925965,-0.017180875,0.16547947,0.022652864,-0.98595315,0.9856123,0.031097913,0.16613676,0.034879133,-0.9991493,-0.022002684,0.16696154,0.027532278,-0.98557895,0.9853463,0.030702539,0.1677798,9.829712,0.24645996,1.6163483,9.665555,0.30496636,1.629245,-0.062210083,-0.029510498,-0.013122559,-32.818604,-0.6591797,-27.418518,1,0.0,0.0,0.0,0.0
2.432128906,0.034373455,-0.9992624,-0.017119644,0.1652007,0.022575166,-0.9860015,0.9856608,0.031064102,0.16585484,0.034869898,-0.99915177,-0.02190629,0.16693194,0.027434722,-0.98558664,0.9853516,0.030710446,0.16774699,9.838089,0.2632141,1.5972137,9.666031,0.30463478,1.6264805,-0.06175232,-0.028289795,-0.014953613,-32.818604,-0.6591797,-27.418518,1,0.0,0.0,0.0,0.0
2.440429688,0.034735996,-0.9992067,-0.019471506,0.16485341,0.024945088,-0.98600245,0.9857062,0.031039841,0.16558915,0.034849893,-0.99915653,-0.021716721,0.16686344,0.027242228,-0.9856036,0.9853639,0.030724455,0.16767208,9.835693,0.2859497,1.5182495,9.666476,0.30439687,1.6238749,-0.063446045,-0.019592285,-0.014953613,-32.51953,-0.5996704,-27.23999,1,0.0,0.0,0.0,0.0
2.448730469,0.03432198,-0.99926525,-0.01705563,0.16466635,0.022486633,-0.98609287,0.9857519,0.031036174,0.16531716,0.034845196,-0.9991587,-0.021627773,0.1667839,0.027151218,-0.9856196,0.98537755,0.030736944,0.16758968,9.835693,0.2859497,1.5182495,9.666924,0.3043609,1.6212076,-0.057785034,0.010803223,-0.012359619,-32.63855,-0.6591797,-27.059937,1,0.0,0.0,0.0,0.0
2.45703125,0.03423845,-0.99926984,-0.016954776,0.1645396,0.022369303,-0.98611677,0.98577607,0.030973384,0.16518536,0.034834534,-0.999161,-0.02153638,0.16674152,0.027057953,-0.98562926,0.9853851,0.030742928,0.16754419,9.865601,0.25842285,1.5158539,9.667161,0.30374515,1.6199151,-0.06436157,0.015533447,-0.010986328,-32.63855,-0.6591797,-27.059937,1,0.0,0.0,0.0,0.0
2.465332031,0.036058605,-0.9989504,-0.028246317,0.16414477,0.03380114,-0.985857,0.985777,0.030912142,0.1651913,0.0348105,-0.9991658,-0.02135485,0.16665447,0.026872132,-0.98564917,0.9854007,0.030752055,0.16745088,9.902695,0.26560974,1.5457611,9.667171,0.30314457,1.6199732,-0.059310913,0.030654907,-0.011444092,-32.398987,-0.4196167,-26.519775,1,0.0,0.0,0.0,0.0
2.473632813,0.036010265,-0.99895394,-0.028187204,0.16433303,0.0337407,-0.9858278,0.9857474,0.030867822,0.1653761,0.034860555,-0.99915814,-0.021627666,0.16655532,0.027146555,-0.98565835,0.9854157,0.030758394,0.16736144,9.936203,0.2679901,1.6151581,9.66688,0.30270994,1.6217855,-0.057174683,0.03982544,-0.016021729,-32.398987,-0.4196167,-26.519775,1,0.0,0.0,0.0,0.0
2.481933594,0.035967994,-0.99895674,-0.028135518,0.16463247,0.03369206,-0.9857793,0.98569894,0.03082449,0.16567257,0.034883816,-0.9991545,-0.021758778,0.16651094,0.027278408,-0.9856622,0.9854224,0.030760583,0.16732173,9.94696,0.23210144,1.6534424,9.666406,0.30228502,1.624693,-0.057174683,0.036453247,-0.025482178,-32.398987,-0.4196167,-26.519775,1,0.0,0.0,0.0,0.0
2.490234375,0.037203424,-0.9986758,-0.035531424,0.1646474,0.041195925,-0.9854918,0.9856506,0.030813515,0.16596201,0.034927193,-0.9991474,-0.022011295,0.16643679,0.027532462,-0.9856677,0.98543334,0.030763114,0.16725652,9.939789,0.20578003,1.6582336,9.665931,0.30217737,1.6275314,-0.056106567,0.033859253,-0.033737183,-32.159424,-0.23956299,-26.939392,1,0.0,0.0,0.0,0.0
2.498535156,0.037208844,-0.9986754,-0.035537895,0.16492301,0.041211825,-0.985445,0.9856043,0.030806258,0.166238,0.03501814,-0.9991323,-0.0225467,0.16636655,0.028073682,-0.98566425,0.985442,0.03076511,0.16720529,9.899109,0.17228699,1.6630096,9.665477,0.3021062,1.6302378,-0.056106567,0.030349731,-0.028244019,-32.159424,-0.23956299,-26.939392,1,0.0,0.0,0.0,0.0
2.506835938,0.038484734,-0.998322,-0.04326683,0.16487932,0.049049504,-0.9850933,0.9855626,0.030777248,0.16649032,0.035062272,-0.9991249,-0.022806574,0.16633794,0.028336547,-0.9856616,0.98544526,0.030765934,0.1671859,9.899109,0.17228699,1.6630096,9.665068,0.3018217,1.6327122,-0.06283569,0.028213501,-0.02456665,-32.099915,-0.059509277,-27.178955,1,0.0,0.0,0.0,0.0
2.515136719,0.03711652,-0.9987055,-0.03478079,0.16539694,0.04046421,-0.98539656,0.98552835,0.030821854,0.16668472,0.035198662,-0.9991012,-0.023617048,0.16628157,0.029157171,-0.98564714,0.9854499,0.030766381,0.16715841,9.882355,0.26560974,1.6594238,9.664732,0.30225915,1.6346188,-0.065582275,0.0069885254,-0.016784668,-31.858826,-0.23956299,-27.119446,1,0.0,0.0,0.0,0.0
2.5234375,0.037123155,-0.998705,-0.034788594,0.16546196,0.040475056,-0.9853853,0.9855172,0.030824417,0.16675022,0.035274893,-0.999088,-0.024059147,0.16624689,0.029604992,-0.9856397,0.98545307,0.030768577,0.1671396,9.923035,0.2715912,1.6582336,9.664623,0.3022843,1.6352612,-0.072906494,-0.0050811768,-0.017242432,-31.858826,-0.23956299,-27.119446,1,0.0,0.0,0.0,0.0
2.531738281,0.037123427,-0.99870497,-0.03478891,0.16538551,0.040473018,-0.9853981,0.98553,0.030827772,0.16667382,0.035311993,-0.99908155,-0.024273787,0.16623142,0.029822465,-0.9856357,0.9854543,0.030769695,0.16713184,9.894318,0.27397156,1.6199341,9.664748,0.30231717,1.634512,-0.069244385,-0.006149292,-0.024108887,-31.858826,-0.23956299,-27.119446,1,0.0,0.0,0.0,0.0
2.540039063,0.037075438,-0.9987272,-0.0341969,0.16530202,0.03987827,-0.9854365,0.9855459,0.030882668,0.16657013,0.035383992,-0.9990688,-0.02469023,0.16619822,0.030244313,-0.9856285,0.98545736,0.030771997,0.16711363,9.86322,0.275177,1.6127625,9.664904,0.30285552,1.633495,-0.067108154,-0.0029449463,-0.026855469,-31.799316,-0.23956299,-27.479553,1,0.0,0.0,0.0,0.0
2.548339844,0.03718236,-0.998719,-0.0343207,0.1652035,0.04001516,-0.98544735,0.98555833,0.030971358,0.16647972,0.035451245,-0.99905705,-0.025066717,0.16616319,0.030625897,-0.9856226,0.9854608,0.030776381,0.16709222,9.848862,0.27757263,1.6007996,9.665026,0.30372527,1.6326084,-0.055343628,-6.4086914E-4,-0.024414063,-31.799316,-0.23956299,-27.479553,1,0.0,0.0,0.0,0.0
2.556640625,0.036237553,-0.99894446,-0.028230289,0.16536753,0.033853456,-0.9856509,0.985566,0.031049196,0.16641973,0.03548601,-0.99905115,-0.025251796,0.16614418,0.030813709,-0.9856199,0.9854628,0.03078028,0.16707999,9.848862,0.27757263,1.6007996,9.665101,0.3044886,1.6320201,-0.05366516,0.0042419434,-0.02166748,-31.619263,-0.35858154,-27.89917,1,0.0,0.0,0.0,0.0
2.564941406,0.035458688,-0.99910337,-0.023134504,0.16553672,0.028701117,-0.98578596,0.985566,0.031125057,0.16640599,0.035515852,-0.99904704,-0.025369745,0.1661135,0.030934105,-0.9856213,0.98546684,0.030790927,0.16705385,9.753143,0.2979126,1.586441,9.665101,0.30523255,1.6318854,-0.065582275,0.017669678,-0.016174316,-31.858826,-0.47912598,-28.138733,1,0.0,0.0,0.0,0.0
2.573242188,0.03550647,-0.9991003,-0.023188658,0.16559252,0.028764276,-0.9857747,0.98555493,0.031161511,0.16646487,0.03551468,-0.99904823,-0.025325034,0.16610195,0.030889437,-0.9856247,0.98546886,0.030797608,0.16704088,9.753143,0.2979126,1.586441,9.664992,0.30559003,1.6324627,-0.063583374,0.020431519,-0.0146484375,-31.858826,-0.47912598,-28.138733,1,0.0,0.0,0.0,0.0
2.581542969,0.035454277,-0.9991036,-0.023129513,0.16567338,0.028699774,-0.9857629,0.98554313,0.03111757,0.16654241,0.0355143,-0.9990504,-0.02524038,0.16608171,0.030805223,-0.9856307,0.98547226,0.030812018,0.16701803,9.875183,0.25483704,1.5924225,9.664877,0.30515912,1.6332232,-0.061904907,0.022109985,-0.014801025,-31.858826,-0.47912598,-28.138733,1,0.0,0.0,0.0,0.0
2.58984375,0.0362989,-0.99894255,-0.028214408,0.16561058,0.033855684,-0.98560995,0.98552305,0.031103956,0.16666439,0.035511866,-0.9990526,-0.025156671,0.1660655,0.030721724,-0.98563606,0.9854751,0.030824117,0.16699916,9.888336,0.279953,1.6307068,9.66468,0.3050256,1.6344194,-0.07611084,0.019058228,-0.016021729,-31.739807,-0.35858154,-28.138733,1,0.0,0.0,0.0,0.0
2.598144531,0.036287867,-0.9989434,-0.028201954,0.16570808,0.033844627,-0.9855939,0.98550695,0.031091807,0.16676113,0.03552762,-0.9990505,-0.02521778,0.16605642,0.030784363,-0.9856357,0.9854761,0.030829715,0.16699244,9.888336,0.279953,1.6307068,9.664522,0.3049065,1.6353681,-0.0715332,0.011108398,-0.018005371,-31.739807,-0.35858154,-28.138733,1,0.0,0.0,0.0,0.0
2.606445313,0.03563249,-0.9990516,-0.025026951,0.16596794,0.030610848,-0.985656,0.9854872,0.030967709,0.16690126,0.035557743,-0.99904644,-0.025335873,0.16604263,0.030905474,-0.9856342,0.9854773,0.030840091,0.16698322,9.929016,0.18902588,1.6929169,9.664329,0.30368948,1.6367422,-0.060073853,0.011108398,-0.01663208,-31.739807,-0.4196167,-28.439331,1,0.0,0.0,0.0,0.0
2.614746094,0.033328775,-0.9993697,-0.012222408,0.16649996,0.017610218,-0.98588413,0.985478,0.030823277,0.16698194,0.03556068,-0.9990466,-0.025323514,0.1660396,0.030893678,-0.98563504,0.9854777,0.030845145,0.16697991,9.920639,0.16151428,1.6713867,9.664238,0.3022731,1.6375334,-0.063583374,0.0011901855,-0.020904541,-31.97937,-0.71868896,-28.439331,1,0.0,0.0,0.0,0.0
2.623046875,0.033170715,-0.9993772,-0.012044484,0.16655314,0.017409932,-0.9858789,0.9854744,0.03069625,0.16702689,0.035516094,-0.99905485,-0.025061449,0.1660492,0.030627975,-0.9856418,0.9854777,0.030844709,0.16698001,9.920639,0.16151428,1.6713867,9.664203,0.3010274,1.6379744,-0.050460815,0.0043945313,-0.020904541,-31.97937,-0.71868896,-28.439331,1,0.0,0.0,0.0,0.0
2.631347656,0.033058632,-0.9993824,-0.011918323,0.16658449,0.01726771,-0.985876,0.98547286,0.030606302,0.16705245,0.035423364,-0.99907094,-0.024546072,0.16606984,0.030104667,-0.98565435,0.9854775,0.03083883,0.16698194,9.88356,0.20219421,1.6486511,9.664187,0.3001453,1.638225,-0.042816162,0.0016479492,-0.02746582,-31.97937,-0.71868896,-28.439331,1,0.0,0.0,0.0,0.0
2.639648438,0.030074827,-0.9995287,0.0061640204,0.16708441,-0.0010528285,-0.9859421,0.9854838,0.03068195,0.16697398,0.03532987,-0.9990863,-0.02404615,0.16609067,0.029596478,-0.9856662,0.9854774,0.030829621,0.16698457,9.869202,0.2536316,1.5960083,9.664295,0.30088714,1.6374555,-0.032287598,-0.0017242432,-0.025482178,-31.97937,-1.1398315,-28.799438,1,0.0,0.0,0.0,0.0
2.647949219,0.030177396,-0.99952626,0.00605003,0.16699143,-9.261463E-4,-0.9859579,0.9854964,0.030763945,0.16688438,0.03522508,-0.99910444,-0.023442104,0.16611215,0.028983705,-0.9856808,0.98547757,0.030826667,0.16698435,9.869202,0.2536316,1.5960083,9.664419,0.30169126,1.6365768,-0.036712646,0.004699707,-0.023803711,-31.97937,-1.1398315,-28.799438,1,0.0,0.0,0.0,0.0
2.65625,0.028249072,-0.9994352,0.018200831,0.16727042,-0.013225023,-0.9858223,0.9855063,0.030893032,0.16680235,0.035025645,-0.9991382,-0.022274436,0.16614987,0.02779957,-0.9857086,0.9854783,0.030824183,0.16698037,9.830917,0.3146515,1.5756683,9.6645155,0.30295715,1.6357722,-0.06451416,0.0057678223,-0.017700195,-32.159424,-1.4389038,-29.09851,1,0.0,0.0,0.0,0.0
2.664550781,0.027103137,-0.99931335,0.025265303,0.16746064,-0.020378489,-0.9856682,0.9855062,0.030945642,0.16679332,0.034758057,-0.9991819,-0.020671895,0.16619946,0.026175393,-0.9857447,0.98547935,0.030826911,0.16697331,9.814163,0.30508423,1.6079712,9.664515,0.3034731,1.6356837,-0.07626343,0.004852295,-0.009292603,-32.398987,-1.6189575,-29.278564,1,0.0,0.0,0.0,0.0
2.672851563,0.027096296,-0.9993133,0.025272869,0.16744336,-0.020387635,-0.9856708,0.9855092,0.0309398,0.16677596,0.034605496,-0.9992058,-0.019753393,0.16622818,0.025244642,-0.9857641,0.9854799,0.030829284,0.16696976,9.814163,0.30508423,1.6079712,9.664544,0.3034158,1.6355134,-0.0861969,-5.0354004E-4,-0.008987427,-32.398987,-1.6189575,-29.278564,1,0.0,0.0,0.0,0.0
2.681152344,0.027052898,-0.9993133,0.025320888,0.16735743,-0.020444937,-0.98568434,0.9855251,0.030903254,0.1666894,0.034309063,-0.9992497,-0.017970588,0.16628274,0.023437986,-0.98579955,0.9854811,0.03083366,0.16696212,9.871582,0.30867004,1.5912323,9.6647,0.3030574,1.6346647,-0.08451843,-0.009353638,-0.011444092,-32.398987,-1.6189575,-29.278564,1,0.0,0.0,0.0,0.0
2.689453125,0.024479136,-0.99891526,0.039611857,0.16768989,-0.0349594,-0.98521966,0.98553574,0.030759836,0.16665222,0.03402242,-0.99928886,-0.016256373,0.1663314,0.021700468,-0.9858311,0.9854828,0.030836416,0.16695142,9.911072,0.23330688,1.6522369,9.664804,0.30165094,1.6343,-0.09184265,-0.0015563965,-0.011291504,-32.699585,-1.979065,-29.699707,1,0.0,0.0,0.0,0.0
2.697753906,0.024317857,-0.9989121,0.03978922,0.16766404,-0.03516203,-0.98521686,0.9855442,0.030629586,0.16662659,0.033832192,-0.9993129,-0.015138973,0.16636391,0.020567343,-0.9858499,0.9854838,0.030834885,0.16694543,9.911072,0.23330688,1.6522369,9.664887,0.30037364,1.6340487,-0.0874176,0.0014953613,-0.01739502,-32.699585,-1.979065,-29.699707,1,0.0,0.0,0.0,0.0
2.706054688,0.02174147,-0.9983,0.05407782,0.16803116,-0.049672402,-0.9845294,0.9855419,0.030491875,0.16666555,0.03345654,-0.9993561,-0.012963617,0.16642578,0.018360464,-0.98588306,0.98548627,0.030826757,0.16693291,9.934998,0.20578003,1.6881409,9.664865,0.29902315,1.6344308,-0.08482361,0.001953125,-0.017700195,-32.939148,-2.3391724,-29.93927,1,0.0,0.0,0.0,0.0
2.714355469,0.017706197,-0.9968389,0.07745021,0.16855271,-0.073377796,-0.98295754,0.9855336,0.030458886,0.16672067,0.0329945,-0.99940234,-0.010307934,0.16650489,0.015665866,-0.98591614,0.9854884,0.030813493,0.16692227,9.944565,0.25602722,1.7144623,9.6647835,0.29869965,1.6349713,-0.06893921,-0.0067596436,-0.02243042,-33.17871,-2.9388428,-30.239868,1,0.0,0.0,0.0,0.0
2.72265625,0.017720455,-0.99683994,0.07743466,0.16857684,-0.07335934,-0.98295486,0.98552924,0.030472098,0.16674416,0.032690544,-0.9994289,-0.008551333,0.16655956,0.013883898,-0.98593366,0.98548937,0.030806402,0.16691832,9.944565,0.25602722,1.7144623,9.664741,0.2988292,1.6352016,-0.05000305,-0.002029419,-0.031143188,-33.17871,-2.9388428,-30.239868,1,0.0,0.0,0.0,0.0
2.730957031,0.017861634,-0.99684936,0.07728068,0.16851301,-0.07318593,-0.9829787,0.9855376,0.030580407,0.16667487,0.032101117,-0.99947137,-0.005143286,0.16666484,0.010426706,-0.98595846,0.9854909,0.030793164,0.16691145,9.907486,0.2596283,1.6486511,9.664823,0.29989135,1.6345221,-0.03060913,-0.0014190674,-0.03755188,-33.17871,-2.9388428,-30.239868,1,0.0,0.0,0.0,0.0
2.739257813,0.017908257,-0.9967861,0.07808041,0.16850147,-0.07396711,-0.98292214,0.98553866,0.03075909,0.16663533,0.031817794,-0.9994876,-0.0034932434,0.1667136,0.008753165,-0.9859665,0.9854919,0.030788908,0.16690665,9.907486,0.2596283,1.6486511,9.664833,0.30164364,1.6341344,-0.027404785,0.006378174,-0.03678894,-33.299255,-2.999878,-30.659485,1,0.0,0.0,0.0,0.0
