Time,Rot1,Rot2,Rot3,Rot4,Rot5,Rot6,Rot7,Rot8,Rot9,FRot1,FRot2,FRot3,FRot4,FRot5,FRot6,FRot7,FRot8,FRot9,AccX,AccY,AccZ,GravX,GravY,GravZ,GyroX,GyroY,GyroZ,MagX,MagY,MagZ,Imid
0.0,0.0,0.0,0.0,0.0,0.0,0.0,0.0,0.0,0.0,1.0,0.0,0.0,0.0,1.0,0.0,0.0,0.0,1.0,9.988831,-0.051452637,1.2335052,9.744701,0.06120122,1.0988303,0.009094238,-0.009963989,-0.050689697,0.0,0.0,0.0,0,0.0,0.0,0.0,0.0
0.008300781,0.10856807,0.20124483,-0.97350574,-0.0289956,0.9795187,0.19925418,0.99366605,0.00659474,0.11217969,1.0,0.0,0.0,0.0,1.0,0.0,0.0,0.0,1.0,9.964905,-0.0059814453,1.2658081,9.744535,0.064672306,1.100107,-0.0025024414,-0.018508911,-0.04763794,-40.078735,23.939514,0.47912598,0,0.0,0.0,0.0,0.0
0.016601562,0.10846291,0.2010697,-0.9735537,-0.029327994,0.97955227,0.19904117,0.9936678,0.006963795,0.11214204,0.9983006,0.008024176,-0.057719834,-0.0080258725,0.99996775,2.0244266E-4,0.057719596,2.6115336E-4,0.9983328,10.003189,0.07298279,1.2203369,9.744553,0.0682915,1.0997378,-0.02923584,-0.036224365,-0.03251648,-40.078735,23.939514,0.47912598,0,0.0,0.0,0.0,0.0
0.024902343,0.10771312,0.21385053,-0.97090983,-0.030997474,0.9768392,0.21171765,0.99369866,0.007290985,0.111847214,0.9934739,0.01572305,-0.11297046,-0.015681872,0.99987626,0.0012531867,0.112976186,5.2657997E-4,0.99359757,9.999603,0.13639832,1.1126556,9.744856,0.071500145,1.0968466,-0.0690918,-0.044937134,-0.012359619,-40.379333,23.878479,0.7797241,0,0.0,0.0,0.0,0.0
0.033203125,0.1072065,0.21300176,-0.9711525,-0.030951295,0.9770235,0.21087268,0.99375486,0.0074515045,0.111335926,0.99000376,0.019718355,-0.1396554,-0.019617507,0.99980533,0.0020988015,0.1396696,6.618692E-4,0.9901979,9.948166,0.112457275,0.9942169,9.745406,0.073074296,1.0918325,-0.086502075,-0.042648315,-0.016326904,-40.379333,23.878479,0.7797241,0,0.0,0.0,0.0,0.0
0.041503906,0.10664533,0.21206154,-0.97142,-0.030811816,0.9772272,0.20994665,0.9938196,0.007541381,0.11075072,0.98118067,0.027435508,-0.19113295,-0.027107343,0.9996232,0.004331888,0.19117977,9.307412E-4,0.9815546,9.915863,0.095718384,0.928421,9.746041,0.073955685,1.0860935,-0.10206604,-0.03881836,-0.020446777,-40.379333,23.878479,0.7797241,0,0.0,0.0,0.0,0.0
0.049804687,0.10607502,0.21565115,-0.9706919,-0.03120428,0.9764406,0.21351837,0.99386835,0.007640777,0.110305175,0.97591275,0.031158922,-0.21592465,-0.030652884,0.9995139,0.005692884,0.21599707,0.0010629552,0.97639346,9.917053,0.095718384,0.9523468,9.746519,0.07493043,1.0817243,-0.10206604,-0.009963989,-0.019989014,-40.078735,23.75946,0.8987427,0,0.0,0.0,0.0,0.0
0.058105468,0.10618317,0.20688972,-0.9725851,-0.030353047,0.9783333,0.20479865,0.9938832,0.0077747502,0.11016227,0.9638587,0.03852797,-0.26361313,-0.037512474,0.9992566,0.008886511,0.26375955,0.0013234395,0.96458757,9.936203,0.11126709,1.0014038,9.746665,0.07624426,1.0803229,-0.09046936,0.0320282,-0.02609253,-40.13977,23.699951,0.6591797,0,0.0,0.0,0.0,0.0
0.06640625,0.10624911,0.20700054,-0.9725543,-0.030553628,0.97830856,0.20488736,0.99386996,0.007945962,0.110269025,0.95005393,0.04524862,-0.30878818,-0.0435212,0.9989745,0.012483416,0.30903637,0.0015789139,0.9510489,9.936203,0.11126709,1.0014038,9.746535,0.07792327,1.0813698,-0.051834106,0.045166016,-0.02746582,-40.13977,23.699951,0.6591797,0,0.0,0.0,0.0,0.0
0.074707031,0.1064101,0.20727113,-0.9724791,-0.030721072,0.97825044,0.20513967,0.9938476,0.008046663,0.11046333,0.9425786,0.048510022,-0.3304427,-0.046343483,0.99882126,0.01443658,0.3307535,0.0017062563,0.94371563,9.950546,0.0023956299,0.99302673,9.746316,0.07891081,1.0832752,-0.051834106,0.04135132,-0.045028687,-40.13977,23.699951,0.6591797,0,0.0,0.0,0.0,0.0
0.083007812,0.10671162,0.20312259,-0.973321,-0.03046095,0.97911894,0.20099291,0.9938233,0.0082,0.110670686,0.92664295,0.054847877,-0.37192008,-0.051631093,0.99849284,0.018610513,0.37238026,0.0019573392,0.9280782,9.957733,-0.051452637,1.0205383,9.746078,0.08041453,1.0853087,-0.01991272,0.038604736,-0.05404663,-40.19928,23.699951,0.53863525,0,0.0,0.0,0.0,0.0
0.091308593,0.10692774,0.20348689,-0.9732213,-0.030791478,0.97904134,0.20132072,0.99378985,0.008440151,0.110952325,0.90959835,0.060765132,-0.41102126,-0.056283534,0.99814963,0.023009252,0.41165888,0.0022045514,0.91133535,9.927826,-0.04307556,1.0899353,9.745749,0.08276961,1.0880706,-0.016555786,0.036758423,-0.05038452,-40.19928,23.699951,0.53863525,0,0.0,0.0,0.0,0.0
0.099609375,0.107704274,0.18847528,-0.9761541,-0.029533863,0.9820389,0.1863529,0.99374425,0.008758599,0.111336194,0.90072507,0.06364197,-0.42970228,-0.05844517,0.99797004,0.025296016,0.43043986,0.002329265,0.9026162,10.00798,0.020339966,1.179657,9.745302,0.08589252,1.0918351,-0.017623901,0.034622192,-0.050994873,-40.618896,23.519897,0.059509277,0,0.0,0.0,0.0,0.0
0.107910156,0.10782875,0.19172898,-0.97550654,-0.030245788,0.9814061,0.18954524,0.9937093,0.009066536,0.11162279,0.8824395,0.06861787,-0.46539462,-0.061902184,0.99763966,0.029718833,0.4663354,0.0025838702,0.8846042,9.980469,0.03111267,1.1353912,9.74496,0.088912345,1.0946456,-0.01838684,0.022720337,-0.048553467,-40.859985,22.979736,0.0,0,0.0,0.0,0.0,0.0
0.116210937,0.107878454,0.19181734,-0.97548366,-0.030492969,0.9813866,0.18960588,0.9936963,0.0092910025,0.11171955,0.8635227,0.07352603,-0.49892136,-0.06508839,0.99728924,0.03431688,0.5000921,0.0028405872,0.8659676,9.991226,-0.0047912598,1.0588226,9.744832,0.09111361,1.0955945,-0.03640747,-0.002166748,-0.03465271,-40.859985,22.979736,0.0,0,0.0,0.0,0.0,0.0
0.124511718,0.10781523,0.19170493,-0.9755127,-0.030607726,0.9814073,0.1894805,0.9936997,0.00942934,0.11167832,0.85387975,0.07590789,-0.51490533,-0.06654139,0.9971104,0.036647927,0.51619935,0.0029695972,0.8564634,9.991226,-0.0047912598,1.0588226,9.744865,0.09247024,1.0951902,-0.055038452,-0.007522583,-0.028076172,-40.859985,22.979736,0.0,0,0.0,0.0,0.0,0.0
0.1328125,0.10783408,0.18702151,-0.97641927,-0.030159798,0.98230964,0.18481894,0.99371135,0.009518829,0.111567006,0.83431256,0.08052389,-0.5453792,-0.06917116,0.99674743,0.041350342,0.546935,0.0032254066,0.8371689,9.980469,0.0382843,1.0827484,9.74498,0.093347825,1.0940986,-0.09184265,-0.014846802,-0.019226074,-41.159058,22.799683,-0.17852783,0,0.0,0.0,0.0,0.0
0.141113281,0.10752098,0.18923494,-0.9760273,-0.030313611,0.9818861,0.18703145,0.99374056,0.009477105,0.11130976,0.81449014,0.08476727,-0.5739515,-0.07129978,0.9963947,0.04597721,0.5757796,0.00347463,0.81759757,9.962524,0.013153076,1.0157471,9.745266,0.092938654,1.0915759,-0.10391235,-0.022949219,-0.010513306,-41.218567,22.499084,-0.17852783,0,0.0,0.0,0.0,0.0
0.149414062,0.10726371,0.18876265,-0.97614706,-0.030110875,0.9819779,0.18658146,0.99377453,0.009379223,0.11101441,0.80450964,0.08686987,-0.5875525,-0.07228052,0.9962132,0.04832001,0.58952504,0.0035946814,0.8077422,9.94577,0.0047912598,1.0205383,9.7456,0.091978766,1.0886796,-0.10391235,-0.023406982,-0.021209717,-41.218567,22.499084,-0.17852783,0,0.0,0.0,0.0,0.0
0.157714843,0.10703791,0.18950868,-0.97602737,-0.030019589,0.98183554,0.18734425,0.99380165,0.009247006,0.11078258,0.7844821,0.09092967,-0.6134489,-0.073994145,0.99584997,0.052987665,0.6157212,0.0038237525,0.78795475,9.960129,-0.061019897,1.0923309,9.745866,0.09068216,1.0864061,-0.09825134,-0.034240723,-0.032211304,-40.919495,22.499084,-0.119018555,0,0.0,0.0,0.0,0.0
0.166015625,0.106780596,0.18904008,-0.9761464,-0.029827654,0.98192674,0.18689665,0.99383515,0.009159221,0.11048934,0.7644427,0.0948572,-0.63767505,-0.075439386,0.9954827,0.05764631,0.64026266,0.004038516,0.76814544,9.94696,-0.08734131,1.0887299,9.746193,0.08982127,1.0835302,-0.0803833,-0.04096985,-0.03526306,-40.919495,22.499084,-0.119018555,0,0.0,0.0,0.0,0.0
0.174316406,0.10647327,0.18848039,-0.9762882,-0.029660508,0.9820347,0.18635505,0.9938731,0.009115373,0.110150866,0.7544445,0.09675223,-0.64919376,-0.07605128,0.9952999,0.05995284,0.651943,0.004140932,0.7582566,9.94696,-0.08734131,1.0887299,9.746566,0.089391276,1.080211,-0.0803833,-0.04081726,-0.035873413,-40.919495,22.499084,-0.119018555,0,0.0,0.0,0.0,0.0
0.182617187,0.106487446,0.17367408,-0.97902906,-0.02801189,0.98476076,0.17164405,0.9939194,0.009146517,0.10972959,0.73453563,0.10040585,-0.6711007,-0.07706639,0.9949371,0.06450522,0.6741796,0.004337922,0.73855466,9.936203,-0.050247192,1.0432739,9.74702,0.0896967,1.0760797,-0.061294556,-0.042800903,-0.04121399,-41.09955,22.499084,-0.47912598,0,0.0,0.0,0.0,0.0
0.190917968,0.1061027,0.1729677,-0.97919583,-0.027943254,0.9848843,0.17094469,0.99396247,0.009224223,0.10933217,0.7246625,0.10187801,-0.6815314,-0.07726624,0.99478704,0.0665486,0.6847585,0.004434095,0.72875655,9.936203,-0.050247192,1.0432739,9.747442,0.09045873,1.0721823,-0.04649353,-0.031188965,-0.0460968,-41.09955,22.499084,-0.47912598,0,0.0,0.0,0.0,0.0
0.19921875,0.105589,0.17530717,-0.97883517,-0.028433912,0.9844675,0.17324868,0.99400324,0.009538957,0.10893362,0.70506996,0.1047057,-0.7013651,-0.07751099,0.99449253,0.07054579,0.70488894,0.0046237875,0.70930266,9.961319,0.08375549,0.9678955,9.747842,0.09354521,1.0682739,-0.0385437,-0.01637268,-0.047943115,-41.39862,22.259521,-0.47912598,0,0.0,0.0,0.0,0.0
0.207519531,0.105304345,0.1722481,-0.97940874,-0.028348995,0.98500437,0.17018417,0.9940359,0.009844127,0.1086083,0.6857171,0.10751415,-0.7198839,-0.07766252,0.9941919,0.07450532,0.7237131,0.0048184306,0.6900841,9.955338,0.09451294,0.94755554,9.748162,0.09653791,1.0650836,-0.043441772,-0.023254395,-0.032821655,-41.39862,21.899414,-0.5996704,0,0.0,0.0,0.0,0.0
0.215820312,0.10493533,0.17154604,-0.97957164,-0.02846114,0.98512435,0.16946958,0.99407166,0.010096379,0.108256735,0.67615134,0.10881434,-0.728683,-0.07764085,0.9940499,0.07639801,0.7326604,0.0049189455,0.6805766,9.955338,0.09451294,0.94755554,9.748513,0.09901165,1.061636,-0.05305481,-0.018051147,-0.030685425,-41.39862,21.899414,-0.5996704,0,0.0,0.0,0.0,0.0
0.224121093,0.10467789,0.17105629,-0.97968477,-0.028548932,0.98520756,0.16897017,0.9940963,0.0102815125,0.10801293,0.6572568,0.111308634,-0.74540186,-0.07748217,0.9937727,0.080077335,0.74967325,0.005123975,0.6617883,9.973282,0.088531494,1.0492554,9.7487545,0.100827195,1.059245,-0.051986694,-0.032562256,-0.028244019,-41.39862,21.899414,-0.5996704,0,0.0,0.0,0.0,0.0
0.232421875,0.10401129,0.18141432,-0.97789085,-0.0297688,0.98335105,0.17926098,0.9941305,0.01046547,0.1076801,0.6387106,0.11368394,-0.7610024,-0.07719177,0.99350274,0.08362928,0.7655653,0.005328217,0.6433362,9.996017,0.105285645,1.036087,9.74909,0.102631204,1.055981,-0.04588318,-0.04600525,-0.022888184,-41.218567,22.019958,-0.29907227,0,0.0,0.0,0.0,0.0
0.240722656,0.103599116,0.18064025,-0.9780779,-0.029773708,0.98349184,0.17848648,0.9941734,0.010629963,0.10726721,0.6295576,0.11504492,-0.76838917,-0.07713948,0.9933455,0.08552384,0.773115,0.005430964,0.63424265,9.996017,0.105285645,1.036087,9.749511,0.10424433,1.051932,-0.043884277,-0.05180359,-0.025482178,-41.218567,22.019958,-0.29907227,0,0.0,0.0,0.0,0.0
0.249023437,0.103166796,0.17982836,-0.9782732,-0.029731678,0.98363924,0.17767932,0.9942196,0.010755098,0.10682549,0.6115397,0.1176542,-0.78241724,-0.07692453,0.9930386,0.08920146,0.78746545,0.005636848,0.616333,9.972092,0.11126709,1.0420685,9.749964,0.105471484,1.0476003,-0.04298401,-0.05683899,-0.015106201,-41.218567,22.019958,-0.29907227,0,0.0,0.0,0.0,0.0
0.257324218,0.1024336,0.18569024,-0.97725457,-0.030234888,0.9825496,0.1835272,0.9942803,0.010747829,0.10626043,0.5939247,0.12012692,-0.7955017,-0.0765789,0.99274135,0.09273753,0.80086774,0.0058395336,0.5988129,9.976868,0.039474487,0.98464966,9.750559,0.105400205,1.0420588,-0.049545288,-0.0713501,-0.008834839,-40.919495,22.259521,-0.059509277,0,0.0,0.0,0.0,0.0
0.265625,0.101835504,0.18459003,-0.9775255,-0.029957786,0.98275733,0.18245707,0.9943501,0.01070389,0.1056095,0.5852596,0.12144441,-0.8016998,-0.07643675,0.9925805,0.09455911,0.8072352,0.005937701,0.5902,9.976868,0.039474487,0.98464966,9.751244,0.1049693,1.0356754,-0.056106567,-0.071502686,-0.0076141357,-40.919495,22.259521,-0.059509277,0,0.0,0.0,0.0,0.0
0.273925781,0.101132445,0.18329675,-0.9778418,-0.029594392,0.98300034,0.18120295,0.9944327,0.010613135,0.10483778,0.56824124,0.12395626,-0.81347203,-0.07604463,0.99226874,0.098081104,0.81934065,0.0061264453,0.5732742,9.949356,0.032302856,0.8925171,9.752054,0.10407931,1.0281075,-0.06253052,-0.046920776,-0.0048675537,-40.919495,22.259521,-0.059509277,0,0.0,0.0,0.0,0.0
0.282226562,0.10011736,0.19271012,-0.9761349,-0.030304171,0.9811996,0.19060186,0.99451405,0.0104984045,0.10407503,0.55164903,0.12631622,-0.824456,-0.075525194,0.99197006,0.10144689,0.8306499,0.006304121,0.55675936,9.944565,0.01914978,0.8159485,9.7528515,0.10295418,1.0206274,-0.073516846,-0.035461426,-0.010375977,-40.73944,22.37854,0.23956299,0,0.0,0.0,0.0,0.0
0.290527343,0.09956668,0.19171034,-0.97638804,-0.029987117,0.98139644,0.1896358,0.9945789,0.010397657,0.103463225,0.543496,0.12765077,-0.8296489,-0.07533608,0.99179864,0.103247285,0.8360243,0.0063880086,0.5486553,9.944565,0.01914978,0.8159485,9.753488,0.10196618,1.0146277,-0.07672119,-0.02003479,-0.012207031,-40.73944,22.37854,0.23956299,0,0.0,0.0,0.0,0.0
0.298828125,0.09936425,0.18460448,-0.97777706,-0.029088154,0.982759,0.18258905,0.99462587,0.010298904,0.10302091,0.527517,0.13019964,-0.8395081,-0.07486153,0.99146616,0.10672655,0.8462396,0.0065467935,0.53276217,9.94696,-0.0023956299,0.83151245,9.753948,0.10099775,1.01029,-0.08833313,-3.0517578E-5,-0.018005371,-40.73944,22.558594,0.119018555,0,0.0,0.0,0.0,0.0
0.307128906,0.09880707,0.200108,-0.9747789,-0.030522149,0.9797209,0.1980287,0.99463844,0.010185715,0.10291108,0.5120056,0.1323628,-0.84872276,-0.07415437,0.9911787,0.10984474,0.8557753,0.006695379,0.5173043,9.958923,-0.035888672,0.9714813,9.754071,0.09988774,1.009213,-0.084365845,-0.004623413,-0.021209717,-40.25879,22.799683,0.5996704,0,0.0,0.0,0.0,0.0
0.315429687,0.09876515,0.2000345,-0.9747983,-0.030407805,0.9797369,0.19796705,0.994646,0.010089232,0.10284646,0.5043975,0.13372496,-0.8530538,-0.073936395,0.99099535,0.11163127,0.8603003,0.0067651863,0.50974274,9.958923,-0.035888672,0.9714813,9.754146,0.098941565,1.0085793,-0.087265015,0.0028686523,-0.021209717,-40.25879,22.799683,0.5996704,0,0.0,0.0,0.0,0.0
0.323730468,0.09879173,0.20008111,-0.9747859,-0.030423997,0.9797272,0.19801196,0.9946429,0.010094941,0.10287623,0.48952663,0.1363644,-0.86125976,-0.07343432,0.99063474,0.11510959,0.8688907,0.0068968204,0.49495593,9.962524,0.025131226,1.0480499,9.754116,0.09899756,1.0088713,-0.060531616,-0.0067596436,-0.019073486,-40.25879,22.799683,0.5996704,0,0.0,0.0,0.0,0.0
0.33203125,0.0990163,0.194306,-0.97593087,-0.029844519,0.9808891,0.1922652,0.99463814,0.010088797,0.10292297,0.47511637,0.13890027,-0.86889076,-0.07286078,0.99028146,0.11846485,0.8769012,0.007023467,0.4806193,9.949356,0.025131226,1.0839539,9.754068,0.0989373,1.0093296,-0.058242798,-0.018356323,-0.019378662,-40.019226,23.098755,0.53863525,0,0.0,0.0,0.0,0.0
0.340332031,0.098978825,0.19424146,-0.97594744,-0.029812973,0.98090196,0.19220398,0.9946428,0.010071768,0.10287945,0.4680917,0.1400133,-0.87251735,-0.072494574,0.9901243,0.119993575,0.88070124,0.0070847743,0.47361913,9.949356,0.025131226,1.0839539,9.754114,0.09877031,1.0089028,-0.046340942,-0.028137207,-0.016326904,-40.019226,23.098755,0.53863525,0,0.0,0.0,0.0,0.0
0.348632812,0.09861737,0.20090212,-0.9746347,-0.03051148,0.97955894,0.19882987,0.9946576,0.01012947,0.102731355,0.45437935,0.14216997,-0.87939024,-0.07172525,0.98981607,0.122962065,0.8879161,0.00720306,0.45994917,9.978073,0.062210083,1.0743713,9.754259,0.09933617,1.0074505,-0.04449463,-0.03668213,-0.023345947,-40.19928,23.2193,0.71868896,0,0.0,0.0,0.0,0.0
0.356933593,0.09838469,0.20050256,-0.9747406,-0.030503523,0.97964,0.1984315,0.9946808,0.010210397,0.10249761,0.4476784,0.1433503,-0.8826295,-0.07138656,0.9896454,0.12452308,0.8913406,0.007261589,0.45327613,9.978073,0.062210083,1.0743713,9.754487,0.10012979,1.0051582,-0.043884277,-0.047225952,-0.022125244,-40.19928,23.2193,0.71868896,0,0.0,0.0,0.0,0.0
0.365234375,0.09808042,0.19776048,-0.97533125,-0.030185409,0.9801969,0.19571157,0.99472064,0.010245301,0.10210759,0.43460086,0.14562407,-0.888772,-0.07066825,0.98931247,0.1275414,0.89784634,0.007378363,0.44024706,9.969696,0.0382843,1.0169525,9.754877,0.100472085,1.0013335,-0.05091858,-0.05088806,-0.016326904,-40.019226,23.098755,0.6591797,0,0.0,0.0,0.0,0.0
0.373535156,0.09752102,0.19679847,-0.9755819,-0.029974509,0.9803904,0.19477215,0.994782,0.010248209,0.101507604,0.42195332,0.14769748,-0.8945059,-0.06986171,0.9890042,0.13034576,0.90392184,0.007491895,0.427632,9.930206,0.035888672,0.8674011,9.755479,0.100500606,0.9954496,-0.05458069,-0.03012085,-0.017242432,-40.019226,23.098755,0.6591797,0,0.0,0.0,0.0,0.0
0.381835937,0.09731427,0.18815894,-0.97730553,-0.029026661,0.98208505,0.18618885,0.9948303,0.0102490885,0.10103252,0.41578108,0.14868355,-0.89722866,-0.069437325,0.988856,0.13168983,0.9068101,0.0075470223,0.4214718,9.930206,0.035888672,0.8674011,9.755953,0.10050923,0.99079055,-0.067718506,-0.014083862,-0.01876831,-39.718628,23.339844,0.53863525,0,0.0,0.0,0.0,0.0
0.390136718,0.09707013,0.18774587,-0.9774093,-0.028936148,0.9821642,0.18578546,0.99485683,0.01024824,0.10077144,0.40376014,0.15025179,-0.90244234,-0.0684273,0.9886182,0.13398466,0.9123023,0.007654025,0.40944594,9.956528,0.0382843,0.88534546,9.756213,0.100500904,0.9882303,-0.08757019,0.0013427734,-0.017700195,-39.718628,23.339844,0.53863525,0,0.0,0.0,0.0,0.0
0.3984375,0.09667866,0.19260581,-0.97650194,-0.02941446,0.9812221,0.19062464,0.9948809,0.010293944,0.10052866,0.3921443,0.15174107,-0.9073023,-0.06740325,0.98838985,0.1361702,0.917431,0.007756757,0.39781925,9.961319,0.06939697,0.80519104,9.75645,0.100949116,0.98584944,-0.09138489,0.01675415,-0.025482178,-39.718628,23.278809,0.6591797,0,0.0,0.0,0.0,0.0
0.406738281,0.09651546,0.19232935,-0.97657263,-0.029429996,0.9812757,0.19034699,0.99489635,0.010369103,0.10036853,0.38647723,0.15256119,-0.9095935,-0.066928826,0.9882632,0.13731863,0.91986734,0.0078075016,0.39215198,9.961319,0.06939697,0.80519104,9.7566,0.10168617,0.9842791,-0.09718323,0.020736694,-0.028381348,-39.718628,23.278809,0.6591797,0,0.0,0.0,0.0,0.0
0.415039062,0.096849546,0.17971441,-0.9789397,-0.028352935,0.9836625,0.17777637,0.99489516,0.010538254,0.10036267,0.37543663,0.15414122,-0.9139408,-0.0659726,0.98801714,0.13953382,0.9244971,0.007908941,0.38110694,9.960129,0.117248535,0.8650055,9.756589,0.10334497,0.98422164,-0.092300415,0.0231781,-0.0289917,-39.839172,23.098755,0.29907227,0,0.0,0.0,0.0,0.0
0.423339843,0.09691685,0.17983015,-0.97891176,-0.028570876,0.9836392,0.17786995,0.99488235,0.010729773,0.10046911,0.36481813,0.15515605,-0.9180601,-0.06483367,0.98785746,0.14118855,0.92881876,0.008013063,0.37044764,9.984055,0.061019897,0.9379883,9.756463,0.10522313,0.98526543,-0.06756592,0.015686035,-0.04411316,-39.839172,23.098755,0.29907227,0,0.0,0.0,0.0,0.0
0.431640625,0.09681108,0.18386021,-0.9781733,-0.029156944,0.98289186,0.18186142,0.9948756,0.010914345,0.10051562,0.35965237,0.15565056,-0.9200125,-0.06427528,0.98777926,0.14198898,0.93086994,0.008067397,0.3652616,9.984055,0.061019897,0.9379883,9.756397,0.10703316,0.9857215,-0.056869507,0.010040283,-0.040603638,-40.019226,22.979736,0.35858154,0,0.0,0.0,0.0,0.0
0.439941406,0.09686849,0.18395983,-0.9781489,-0.029309219,0.9828717,0.18194549,0.9948656,0.011043995,0.100601025,0.34469405,0.15731336,-0.92543966,-0.06272097,0.9875144,0.14450394,0.9366174,0.008234821,0.3502572,9.972092,0.023925781,1.0337067,9.756299,0.10830459,0.98655903,-0.051223755,-1.8310547E-4,-0.022888184,-40.019226,22.979736,0.35858154,0,0.0,0.0,0.0,0.0
0.448242187,0.09687593,0.1839227,-0.9781552,-0.02935458,0.98287815,0.18190348,0.99486345,0.011091265,0.100616194,0.33988938,0.15784752,-0.92712426,-0.062213123,0.98742867,0.14530694,0.93840545,0.008291006,0.3454367,9.973282,0.015548706,1.0001984,9.756278,0.10876816,0.9867078,-0.054122925,-0.010879517,-0.013885498,-40.379333,22.859192,0.29907227,0,0.0,0.0,0.0,0.0
0.456542968,0.09682478,0.18383265,-0.9781772,-0.029309336,0.98289526,0.18181814,0.99486977,0.01106522,0.10055663,0.33517292,0.1583702,-0.92875075,-0.061709672,0.9873445,0.14609143,0.9401335,0.008347012,0.34070414,9.973282,0.015548706,1.0001984,9.75634,0.108512744,0.9861237,-0.051071167,-0.01713562,-0.012969971,-40.379333,22.859192,0.29907227,0,0.0,0.0,0.0,0.0
0.46484375,0.09687342,0.17976984,-0.9789272,-0.028879087,0.9836467,0.17777869,0.99487764,0.011048495,0.100480795,0.32599688,0.15938064,-0.931839,-0.06071215,0.987181,0.14760661,0.94341934,0.008454653,0.33149427,9.96611,0.04307556,1.0420685,9.756417,0.10834873,0.98538,-0.05091858,-0.021118164,-0.01449585,-40.438843,22.439575,0.119018555,0,0.0,0.0,0.0,0.0
0.473144531,0.09670754,0.17947131,-0.97899824,-0.02873639,0.983702,0.17749497,0.9948979,0.010967775,0.10028877,0.31716406,0.16018946,-0.93474394,-0.0596787,0.9870492,0.1489038,0.9464911,0.008557371,0.32261643,9.973282,-0.0023956299,0.982254,9.756617,0.10755714,0.98349696,-0.051834106,-0.022033691,-0.0063934326,-40.438843,22.439575,0.119018555,0,0.0,0.0,0.0,0.0
0.481445312,0.09651918,0.17977345,-0.97896147,-0.02861735,0.9836482,0.17781262,0.99491966,0.010852955,0.10008556,0.3128671,0.16057575,-0.9361248,-0.05916654,0.98698604,0.14952573,0.9479523,0.00860558,0.31829616,9.973282,-0.0023956299,0.982254,9.756829,0.106431134,0.9815041,-0.05671692,-0.022338867,-0.0076141357,-40.319824,22.619629,0.17852783,0,0.0,0.0,0.0,0.0
0.489746093,0.096281715,0.17935093,-0.9790623,-0.028374057,0.983727,0.1774151,0.99494964,0.010698142,0.099803835,0.3045044,0.16133721,-0.9387478,-0.058158252,0.98686105,0.1507412,0.9507338,0.008694576,0.3098866,9.964905,-0.01675415,0.90808105,9.757123,0.104912944,0.9787413,-0.063583374,-0.010116577,-0.012054443,-40.319824,22.619629,0.17852783,0,0.0,0.0,0.0,0.0
0.498046875,0.096466444,0.16146925,-0.9821517,-0.026364,0.9868219,0.1596476,0.99498695,0.010492812,0.09945217,0.29644343,0.16205163,-0.9412016,-0.05716143,0.9867433,0.15188907,0.95333827,0.008773918,0.30177668,9.96611,-0.0657959,0.8159485,9.757489,0.102899335,0.9752926,-0.067871094,-0.0029449463,-0.013427734,-40.499878,22.738647,-0.23956299,0,0.0,0.0,0.0,0.0
0.506347656,0.09622761,0.16104287,-0.9822451,-0.026089463,0.9868936,0.1592491,0.99501735,0.010302087,0.09916793,0.2925407,0.16203998,-0.942424,-0.056561228,0.9867449,0.15210316,0.9545789,0.008808296,0.2978282,9.96611,-0.0657959,0.8159485,9.757788,0.10102897,0.9725053,-0.0753479,0.0040893555,-0.011444092,-40.499878,22.738647,-0.23956299,0,0.0,0.0,0.0,0.0
0.514648437,0.095985666,0.16665497,-0.9813321,-0.026423404,0.98596334,0.16485697,0.9950319,0.010106232,0.09904195,0.28494495,0.16200048,-0.94475514,-0.05538061,0.98675084,0.15249845,0.9569427,0.008867449,0.29014134,9.943375,-0.06460571,0.8925171,9.75793,0.099108286,0.9712698,-0.08206177,0.002105713,-0.010513306,-40.67993,22.37854,-0.17852783,0,0.0,0.0,0.0,0.0
0.522949218,0.09609076,0.16684636,-0.9812893,-0.026289877,0.98593277,0.16506149,0.9950253,0.00993709,0.099125415,0.27761677,0.16218486,-0.9469028,-0.054298643,0.9867201,0.15308525,0.95915616,0.008916506,0.28273648,9.960129,-0.046661377,1.0193481,9.757865,0.09744956,0.9720883,-0.08175659,0.014770508,-0.017242432,-40.67993,22.37854,-0.17852783,0,0.0,0.0,0.0,0.0
0.53125,0.09631776,0.16395064,-0.98175514,-0.02589159,0.9864199,0.16218947,0.99501383,0.009797475,0.09925469,0.27405834,0.16227815,-0.9479229,-0.05376988,0.9867046,0.15337166,0.9602088,0.008936917,0.2791403,9.960129,-0.046661377,1.0193481,9.757753,0.09608042,0.97335607,-0.082839966,0.011566162,-0.020599365,-40.73944,22.499084,-0.23956299,0,0.0,0.0,0.0,0.0
0.539550781,0.09639414,0.16408926,-0.98172444,-0.025934882,0.9863966,0.16232368,0.99500525,0.009813859,0.09933849,0.26715466,0.16234438,-0.9498803,-0.052704368,0.9866934,0.15381294,0.9622113,0.008970995,0.272156,9.98645,0.034698486,0.9954071,9.7576685,0.09624109,0.9741778,-0.07382202,-0.007369995,-0.02885437,-40.73944,22.499084,-0.23956299,0,0.0,0.0,0.0,0.0
0.547851562,0.096091345,0.17404856,-0.9800375,-0.027107935,0.984686,0.1722162,0.9950033,0.010018307,0.099337906,0.26051387,0.1624135,-0.9517113,-0.051680256,0.9866817,0.1542348,0.96408594,0.009004372,0.26543787,9.973282,0.14117432,1.0097656,9.757649,0.09824603,0.9741721,-0.06741333,-0.026000977,-0.023345947,-40.859985,22.558594,0.0,0,0.0,0.0,0.0,0.0
0.556152343,0.09591941,0.17373712,-0.98010963,-0.027253665,0.984739,0.17189054,0.995016,0.010223942,0.09919055,0.25727725,0.16264644,-0.9525516,-0.051238198,0.98664314,0.15462843,0.9649783,0.009024651,0.26217455,9.973282,0.14117432,1.0097656,9.757773,0.10026262,0.972727,-0.063446045,-0.030731201,-0.018615723,-40.859985,22.558594,0.0,0,0.0,0.0,0.0,0.0
0.564453125,0.09552663,0.17745484,-0.97948164,-0.027710332,0.98407423,0.17558438,0.99504113,0.01036878,0.09892264,0.25098288,0.16308607,-0.9541543,-0.050378244,0.9865701,0.15537502,0.9666797,0.009072144,0.25582823,9.949356,0.11843872,0.96191406,9.758019,0.10168299,0.9700996,-0.060684204,-0.030426025,-0.023651123,-40.79895,22.619629,0.119018555,0,0.0,0.0,0.0,0.0
0.572753906,0.09516786,0.17680854,-0.9796335,-0.027681803,0.9841895,0.17494164,0.99507624,0.0104692,0.09855759,0.24490982,0.16365579,-0.95563376,-0.049585603,0.9864753,0.1562297,0.96827704,0.009123492,0.24971247,9.931412,0.08255005,0.89611816,9.758365,0.102667786,0.96651983,-0.06253052,-0.021560669,-0.026245117,-40.79895,22.619629,0.119018555,0,0.0,0.0,0.0,0.0
0.581054687,0.09490484,0.17439073,-0.9800923,-0.027516082,0.9846195,0.17253183,0.995106,0.010594195,0.098243706,0.24195416,0.16391917,-0.95634127,-0.04919555,0.9864313,0.15663019,0.96903974,0.009150406,0.24673527,9.931412,0.08255005,0.89611816,9.7586565,0.10389356,0.96344167,-0.06619263,-0.0052337646,-0.029907227,-40.618896,22.439575,0.059509277,0,0.0,0.0,0.0,0.0
0.589355468,0.09473617,0.1740856,-0.9801629,-0.027592732,0.98467207,0.17221954,0.9951199,0.010729955,0.09808754,0.23620516,0.16433421,-0.9577064,-0.048412777,0.9863618,0.15731089,0.9704965,0.009207581,0.2409396,9.979263,0.0657959,0.928421,9.758793,0.10522491,0.96191025,-0.05290222,0.007293701,-0.0309906,-40.618896,22.439575,0.059509277,0,0.0,0.0,0.0,0.0
0.59765625,0.09443917,0.18167706,-0.97881293,-0.028391719,0.98329896,0.17977038,0.9951258,0.010812817,0.09802005,0.23067024,0.16472068,-0.95898825,-0.047656316,0.9862967,0.15794833,0.9718642,0.009267868,0.23535927,9.979263,0.0143585205,0.9140625,9.75885,0.10603751,0.96124834,-0.05595398,0.010955811,-0.023651123,-40.25879,22.859192,0.35858154,0,0.0,0.0,0.0,0.0
0.605957031,0.09441266,0.18163055,-0.97882414,-0.028436624,0.9833068,0.17971951,0.9951269,0.010866656,0.09800156,0.22797416,0.16506033,-0.95957434,-0.047323886,0.9862397,0.15840401,0.9725165,0.009298766,0.23264845,9.979263,0.0143585205,0.9140625,9.758862,0.1065655,0.961067,-0.057785034,0.010345459,-0.026245117,-40.25879,22.859192,0.35858154,0,0.0,0.0,0.0,0.0
0.614257812,0.094732665,0.17149898,-0.9806191,-0.027488869,0.98512405,0.16963129,0.9951231,0.010886485,0.09803775,0.22273754,0.16571744,-0.96069026,-0.046674147,0.98612887,0.15928407,0.9737605,0.0093608545,0.22738262,9.9673,0.017944336,0.95474243,9.758824,0.10675995,0.9614219,-0.06253052,-0.0050811768,-0.0146484375,-40.25879,22.918701,0.119018555,0,0.0,0.0,0.0,0.0
0.622558593,0.09469743,0.17143719,-0.9806334,-0.027446676,0.9851353,0.16957377,0.9951277,0.010856924,0.097995155,0.21772295,0.16594648,-0.9617996,-0.045954663,0.9860897,0.15973468,0.97492814,0.009421269,0.22232038,9.964905,0.017944336,0.9415741,9.758869,0.10647005,0.9610042,-0.06451416,-0.009048462,-0.0079193115,-40.25879,22.918701,0.119018555,0,0.0,0.0,0.0,0.0
0.630859375,0.09400666,0.19221582,-0.97683966,-0.029343495,0.9812935,0.19026832,0.99513906,0.010777404,0.09788841,0.21528804,0.16605635,-0.9623287,-0.045603476,0.986071,0.15995105,0.9754852,0.009449983,0.21986203,9.964905,0.017944336,0.9415741,9.758981,0.105690226,0.9599574,-0.0632782,-0.015609741,-0.014801025,-40.25879,23.039246,0.6591797,0,0.0,0.0,0.0,0.0
0.639160156,0.09387263,0.19198328,-0.9768984,-0.029204335,0.98134005,0.19004986,0.9951558,0.010689187,0.09772771,0.2128795,0.16658075,-0.9627737,-0.04534662,0.9859823,0.16056971,0.97602564,0.009476531,0.21744929,9.961319,-0.034698486,0.9654999,9.759145,0.10482512,0.9583815,-0.05290222,-0.02003479,-0.008224487,-40.25879,23.039246,0.6591797,0,0.0,0.0,0.0,0.0
0.647460937,0.09370621,0.19169457,-0.97697103,-0.028969944,0.98139834,0.1897846,0.99517834,0.010518799,0.09751649,0.20819786,0.16758892,-0.96362215,-0.04483385,0.985811,0.16176121,0.9770586,0.009524552,0.21275738,9.961319,-0.034698486,0.9654999,9.759366,0.10315418,0.95631015,-0.057022095,-0.03729248,-0.0041046143,-40.25879,23.039246,0.6591797,0,0.0,0.0,0.0,0.0
0.655761718,0.093423925,0.19319437,-0.9767026,-0.028945394,0.9811054,0.19129656,0.9952056,0.010399365,0.097250804,0.20369197,0.16854553,-0.964418,-0.044321314,0.9856475,0.16289471,0.97803134,0.009563924,0.20823865,9.979263,-0.0059814453,0.98106384,9.759633,0.101982936,0.9537046,-0.05366516,-0.036834717,-0.014190674,-40.379333,23.15979,0.71868896,0,0.0,0.0,0.0,0.0
0.6640625,0.093171544,0.18835264,-0.9776719,-0.028376456,0.9820467,0.1864912,0.9952456,0.010367189,0.096843585,0.20149915,0.16903959,-0.964792,-0.044072237,0.9855627,0.16347419,0.9784967,0.009580633,0.20604,9.937393,0.034698486,0.8925171,9.760025,0.1016674,0.94971114,-0.050308228,-0.038513184,-0.012207031,-40.559387,22.859192,0.53863525,0,0.0,0.0,0.0,0.0
0.672363281,0.092855655,0.1877954,-0.97780913,-0.028342234,0.9821526,0.18593813,0.9952761,0.0104478905,0.09652096,0.19723515,0.16980569,-0.9655383,-0.043539666,0.98543066,0.16441002,0.9793889,0.00961178,0.20175487,9.963715,0.110076904,0.93440247,9.7603245,0.102458805,0.9465473,-0.04649353,-0.025848389,-0.018463135,-40.559387,22.859192,0.53863525,0,0.0,0.0,0.0,0.0
0.680664062,0.09262698,0.18484911,-0.9783921,-0.028091956,0.9827104,0.18300545,0.99530447,0.010533704,0.09621827,0.19312544,0.17051922,-0.9662431,-0.04301787,0.98530716,0.16528548,0.98023057,0.00964489,0.19762325,9.938583,0.09690857,0.9152527,9.760603,0.103300355,0.94357896,-0.039764404,-0.025390625,-0.013580322,-40.438843,22.799683,0.47912598,0,0.0,0.0,0.0,0.0
0.688964843,0.09228711,0.18424934,-0.9785373,-0.028053522,0.98282224,0.18241037,0.9953372,0.010617292,0.095870666,0.19112751,0.17080618,-0.9665897,-0.042751573,0.9852573,0.16565152,0.9806338,0.009662668,0.195612,9.960129,0.09211731,0.85902405,9.760923,0.10412006,0.9401701,-0.04878235,-0.020507813,-0.017089844,-40.438843,22.799683,0.47912598,0,0.0,0.0,0.0,0.0
0.697265625,0.0920048,0.18375117,-0.97865754,-0.028048102,0.9829143,0.18191358,0.9953634,0.010712564,0.09558672,0.18723585,0.17133917,-0.9672568,-0.042227414,0.9851644,0.16633718,0.981407,0.0097004725,0.19169329,9.964905,0.10887146,0.87457275,9.761182,0.10505438,0.93738556,-0.06756592,-0.018814087,-0.017547607,-40.438843,22.799683,0.47912598,0,0.0,0.0,0.0,0.0
0.705566406,0.09195585,0.1775885,-0.9797993,-0.027521824,0.9840456,0.17577517,0.99538267,0.010802306,0.0953763,0.18348552,0.1718312,-0.96788794,-0.04171759,0.9850783,0.1669745,0.9821368,0.009740552,0.18791598,9.964905,0.10887146,0.87457275,9.76137,0.10593444,0.935322,-0.08421326,-0.0023345947,-0.016326904,-40.379333,22.558594,0.29907227,0,0.0,0.0,0.0,0.0
0.713867187,0.09181165,0.1787346,-0.9796043,-0.027646774,0.9838376,0.17691585,0.9953925,0.010839963,0.09526919,0.18166643,0.17194639,-0.9682106,-0.041447014,0.98505795,0.16716158,0.98248637,0.009761787,0.18607862,9.938583,0.07896423,0.8877411,9.761466,0.10630373,0.9342716,-0.08421326,0.003326416,-0.018310547,-40.559387,22.799683,0.35858154,0,0.0,0.0,0.0,0.0
0.722167968,0.09182093,0.17875107,-0.97960037,-0.027630731,0.98383474,0.17693381,0.9953921,0.010820846,0.09527566,0.17812862,0.17221537,-0.96882,-0.040929325,0.98501056,0.16756804,0.98315567,0.009804483,0.18250723,9.963715,0.03111267,0.92362976,9.761462,0.10611625,0.9343351,-0.078552246,0.0095825195,-0.02166748,-40.559387,22.799683,0.35858154,0,0.0,0.0,0.0,0.0
0.73046875,0.091864124,0.17747462,-0.9798284,-0.027478185,0.9840662,0.17566597,0.9953923,0.010786505,0.09527706,0.1747294,0.17247434,-0.9693927,-0.04042931,0.9849648,0.1679577,0.9837861,0.009844731,0.17907535,9.981659,-0.0011901855,0.8949127,9.761464,0.105779484,0.9343488,-0.064971924,0.0068359375,-0.021057129,-40.73944,22.738647,0.29907227,0,0.0,0.0,0.0,0.0
0.738769531,0.091879435,0.17750195,-0.9798221,-0.027393447,0.9840624,0.17570138,0.9953933,0.010697363,0.095277466,0.17308103,0.1725744,-0.9696706,-0.040180806,0.9849471,0.16812113,0.98408765,0.009863567,0.17740984,9.968506,-0.051452637,0.8925171,9.761474,0.1049053,0.9343528,-0.05961609,0.0152282715,-0.023498535,-40.73944,22.738647,0.29907227,0,0.0,0.0,0.0,0.0
0.747070312,0.09201115,0.17773722,-0.979767,-0.027294774,0.9840214,0.17594571,0.99538386,0.010553553,0.09539224,0.16988191,0.17276964,-0.97020143,-0.039694138,0.9849125,0.16843891,0.9846647,0.009896585,0.17417675,10.005585,-0.086135864,0.98106384,9.761381,0.103495,0.9354783,-0.05885315,-0.002166748,-0.017242432,-40.73944,22.738647,0.29907227,0,0.0,0.0,0.0,0.0
0.755371093,0.09184253,0.18603407,-0.9782414,-0.02791701,0.9824883,0.1842207,0.9953821,0.01039028,0.09542774,0.16681302,0.17296642,-0.9706987,-0.039222006,0.9848777,0.16875271,0.9852081,0.0099226,0.17107452,10.005585,-0.086135864,0.98106384,9.761364,0.10189384,0.9358264,-0.046340942,-0.020339966,-0.01663208,-40.73944,22.31903,0.4196167,0,0.0,0.0,0.0,0.0
0.763671875,0.09186935,0.18194893,-0.97900695,-0.027345132,0.98325485,0.18017235,0.9953955,0.010218759,0.0953064,0.16531867,0.17322809,-0.9709077,-0.03901729,0.98483163,0.16906883,0.9854681,0.009931954,0.16956994,10.0247345,-0.08494568,0.9714813,9.761496,0.10021179,0.9346365,-0.049697876,-0.03668213,-0.015716553,-40.499878,22.37854,0.35858154,0,0.0,0.0,0.0,0.0
0.771972656,0.09157313,0.18141487,-0.9791338,-0.02710426,0.98335487,0.17966205,0.9954294,0.010086481,0.094966,0.16242087,0.17357369,-0.971335,-0.038583364,0.9847707,0.16952291,0.985967,0.009943311,0.16664436,9.982849,-0.06819153,0.9020996,9.761827,0.098914586,0.9312983,-0.046035767,-0.04386902,-0.021972656,-40.499878,22.37854,0.35858154,0,0.0,0.0,0.0,0.0
0.780273437,0.09119227,0.17785205,-0.9798227,-0.026643205,0.98400587,0.17613167,0.9954768,0.01004377,0.09447229,0.15962553,0.1738844,-0.97174275,-0.03815361,0.9847159,0.16993842,0.98644006,0.009948981,0.1638201,9.972092,-0.0143585205,0.83509827,9.762293,0.09849574,0.9264567,-0.058395386,-0.040512085,-0.019683838,-40.19928,22.259521,0.29907227,0,0.0,0.0,0.0,0.0
0.788574218,0.09074791,0.17705205,-0.98000896,-0.02644873,0.9841507,0.17535119,0.9955226,0.010007237,0.093992405,0.15826249,0.17396377,-0.97195137,-0.03793042,0.98470175,0.17006968,0.9866682,0.009950877,0.16243987,9.942184,0.035888672,0.82073975,9.762742,0.098137476,0.9217506,-0.060836792,-0.03652954,-0.023498535,-40.19928,22.259521,0.29907227,0,0.0,0.0,0.0,0.0
0.796875,0.09032805,0.17629617,-0.9801839,-0.026355652,0.9842857,0.17460515,0.99556327,0.010061643,0.09355502,0.15559982,0.17408608,-0.97235936,-0.03748686,0.9846802,0.17029318,0.98710865,0.009953109,0.159742,9.955338,0.095718384,0.78364563,9.763141,0.09867101,0.91746134,-0.05885315,-0.02722168,-0.02609253,-40.19928,22.259521,0.29907227,0,0.0,0.0,0.0,0.0
0.805175781,0.08946649,0.19358963,-0.97699475,-0.028041642,0.98102915,0.19182117,0.995595,0.010234972,0.09319781,0.15429975,0.17413029,-0.9725587,-0.037268557,0.98467237,0.17038639,0.98732096,0.009955279,0.15842427,9.955338,0.095718384,0.78364563,9.763452,0.100370795,0.9139583,-0.05885315,0.0013427734,-0.03175354,-39.779663,22.31903,0.7797241,0,0.0,0.0,0.0,0.0
0.813476562,0.08959318,0.18619834,-0.97841877,-0.027499324,0.9824574,0.18444881,0.99559873,0.010380497,0.09314181,0.15173562,0.17490222,-0.9728235,-0.03695445,0.9845354,0.17124394,0.9877301,0.009966356,0.1558525,9.952942,0.06819153,0.8614197,9.763489,0.1017979,0.9134091,-0.07550049,0.023330688,-0.023651123,-39.959717,22.37854,0.5996704,0,0.0,0.0,0.0,0.0
0.821777343,0.08964767,0.186295,-0.97839534,-0.027638935,0.9824378,0.18453224,0.99559003,0.010498921,0.09322225,0.14928031,0.17535001,-0.97312266,-0.036609508,0.9844555,0.1717761,0.988117,0.009982755,0.1533793,9.952942,0.06819153,0.8614197,9.763403,0.10295925,0.91419804,-0.06817627,0.03187561,-0.029296875,-39.959717,22.37854,0.5996704,0,0.0,0.0,0.0,0.0
0.830078125,0.089894794,0.18673344,-0.97828907,-0.027861208,0.9823531,0.18494901,0.9955615,0.010630361,0.09351105,0.14809029,0.17556912,-0.973265,-0.036444195,0.98441637,0.17203546,0.9883021,0.009993079,0.15218098,9.956528,0.07298279,0.9667053,9.7631235,0.10424823,0.9170302,-0.06297302,0.0332489,-0.032058716,-39.959717,22.37854,0.5996704,0,0.0,0.0,0.0,0.0
0.838378906,0.08981921,0.19627853,-0.9764258,-0.028944312,0.9804888,0.19443274,0.9955374,0.010798177,0.09374787,0.14579037,0.17601167,-0.97353226,-0.036131393,0.9843371,0.17255433,0.9886555,0.010018315,0.14986642,9.968506,0.0657959,0.9176483,9.762887,0.10589394,0.91935253,-0.048934937,0.023025513,-0.03541565,-39.779663,22.37854,0.8392334,0,0.0,0.0,0.0,0.0
0.846679687,0.09002567,0.19664207,-0.9763337,-0.029202648,0.980414,0.19477116,0.99551123,0.010977123,0.09400488,0.14357539,0.17681572,-0.9737157,-0.035892285,0.98419267,0.17342585,0.9889883,0.010049197,0.14765218,9.974487,0.06460571,0.9750824,9.76263,0.107648805,0.9218729,-0.0493927,0.009735107,-0.032211304,-39.779663,22.37854,0.8392334,0,0.0,0.0,0.0,0.0
0.854980468,0.09024277,0.19175637,-0.9772849,-0.028756877,0.9813813,0.1899047,0.9955045,0.010966133,0.09407688,0.14250505,0.17721298,-0.9738007,-0.035780393,0.984121,0.173855,0.9891471,0.010067755,0.14658298,9.994827,-0.062210083,0.9020996,9.762565,0.10754103,0.92257905,-0.051071167,0.012023926,-0.031906128,-39.89868,22.439575,0.71868896,0,0.0,0.0,0.0,0.0
0.86328125,0.09017133,0.19510671,-0.9766281,-0.029068597,0.98072076,0.19324045,0.995502,0.01096446,0.09410438,0.14043772,0.17778969,-0.97399586,-0.035533074,0.98401666,0.17449541,0.9894517,0.01010333,0.14451048,9.969696,-0.033493042,0.8889313,9.76254,0.107524626,0.9228487,-0.050613403,0.013549805,-0.024414063,-39.718628,22.259521,0.7797241,0,0.0,0.0,0.0,0.0
0.871582031,0.09015734,0.19508196,-0.9766344,-0.02899936,0.98072636,0.19322227,0.9955052,0.010901368,0.09407692,0.13844842,0.17847653,-0.9741551,-0.03531202,0.98389196,0.17524183,0.98973995,0.01013743,0.14252065,9.969696,-0.033493042,0.84825134,9.762571,0.10690591,0.9225794,-0.06159973,0.0068359375,-0.010818481,-39.718628,22.259521,0.7797241,0,0.0,0.0,0.0,0.0
0.879882812,0.090103544,0.19498684,-0.97665834,-0.028927458,0.9807458,0.19313413,0.9955122,0.010850172,0.09400915,0.13748312,0.17880914,-0.9742308,-0.03520236,0.9838314,0.17560348,0.98987836,0.01015271,0.14155471,9.992432,0.029907227,0.84825134,9.76264,0.106403835,0.9219149,-0.063583374,-3.0517578E-5,-0.006088257,-39.718628,22.259521,0.7797241,0,0.0,0.0,0.0,0.0
0.888183593,0.08980707,0.20157489,-0.9753473,-0.02939592,0.9794143,0.19970873,0.99552524,0.010735971,0.093883805,0.1356078,0.17945072,-0.97437567,-0.034984667,0.9837143,0.17630166,0.9901448,0.010180329,0.13967735,9.981659,0.013153076,0.87338257,9.762768,0.10528391,0.92068565,-0.0741272,-0.0066070557,-1.373291E-4,-39.538574,22.259521,0.95977783,0,0.0,0.0,0.0,0.0
0.896484375,0.089765966,0.20150264,-0.97536594,-0.02921803,0.97943085,0.19965337,0.9955342,0.010576193,0.093807064,0.1337934,0.18032864,-0.9744644,-0.034803547,0.98355347,0.1772321,0.99039793,0.010202332,0.13786905,9.963715,0.020339966,0.90927124,9.762856,0.10371703,0.9199331,-0.07366943,-0.007217407,-0.0010528564,-39.538574,22.259521,0.95977783,0,0.0,0.0,0.0,0.0
0.904785156,0.0898582,0.19344644,-0.97698724,-0.028319262,0.98105526,0.19164728,0.9955519,0.010446479,0.093634106,0.13291241,0.18075298,-0.9745064,-0.034710914,0.9834755,0.17768238,0.9905198,0.01020981,0.13699022,9.948166,0.034698486,0.86021423,9.763029,0.10244496,0.9182369,-0.07366943,-0.014694214,-0.009597778,-39.718628,22.079468,0.71868896,0,0.0,0.0,0.0,0.0
0.913085937,0.08971777,0.19340487,-0.9770083,-0.028218126,0.9810641,0.19161649,0.9955674,0.01037794,0.09347641,0.13120821,0.18125623,-0.97464377,-0.034479972,0.9833828,0.17823967,0.990755,0.010219181,0.13527761,9.949356,0.049057007,0.87098694,9.763182,0.10177283,0.9166905,-0.07763672,-3.3569336E-4,-0.01586914,-39.89868,22.138977,0.71868896,0,0.0,0.0,0.0,0.0
0.921386718,0.089657925,0.1932979,-0.977035,-0.028150909,0.98108566,0.191516,0.99557465,0.010333492,0.09340362,0.12956598,0.18173784,-0.9747738,-0.034252495,0.9832939,0.17877351,0.990979,0.010225467,0.1336264,9.958923,0.04547119,0.899704,9.763252,0.10133695,0.91597664,-0.0741272,0.0057678223,-0.010513306,-39.89868,22.138977,0.71868896,0,0.0,0.0,0.0,0.0
0.9296875,0.08966291,0.1933068,-0.9770327,-0.028114088,0.9810843,0.19152837,0.9955753,0.010295395,0.09340153,0.12876815,0.18196927,-0.97483635,-0.034140125,0.98325104,0.17903036,0.99108684,0.010227628,0.13282385,9.958923,0.04547119,0.899704,9.763258,0.100963324,0.9159561,-0.0741272,0.014160156,-0.013580322,-39.89868,22.138977,0.71868896,0,0.0,0.0,0.0,0.0
0.937988281,0.09001905,0.1812703,-0.97930473,-0.027057406,0.983379,0.1795373,0.9955724,0.010335669,0.09342754,0.12722003,0.18241869,-0.97495556,-0.033919506,0.9831677,0.17952913,0.9912944,0.010230312,0.13126618,9.984055,0.09211731,0.8542328,9.76323,0.10135829,0.9162112,-0.06436157,0.0332489,-0.012359619,-40.25879,22.259521,0.4196167,0,0.0,0.0,0.0,0.0
0.946289062,0.09013454,0.18147826,-0.9792555,-0.027153902,0.98334,0.17973587,0.9955594,0.010390197,0.093560755,0.12647785,0.18239571,-0.9750565,-0.03378186,0.983172,0.17953186,0.9913941,0.01023242,0.13051115,9.984055,0.09211731,0.8542328,9.763103,0.10189302,0.9175176,-0.06283569,0.03829956,-0.016174316,-40.25879,22.259521,0.4196167,0,0.0,0.0,0.0,0.0
0.954589843,0.0902008,0.18593447,-0.97841305,-0.027725397,0.9825058,0.18415622,0.9955376,0.010515853,0.093777925,0.12504195,0.18235938,-0.97524846,-0.033518918,0.9831787,0.17954457,0.9915851,0.010238669,0.12905106,9.9756775,0.06460571,0.9918213,9.762889,0.10312529,0.9196473,-0.06159973,0.03263855,-0.025482178,-40.438843,22.138977,0.47912598,0,0.0,0.0,0.0,0.0
0.962890625,0.09069308,0.18200177,-0.9791068,-0.027436974,0.98324186,0.18022898,0.9955008,0.010518205,0.094166815,0.12299595,0.18256971,-0.9754693,-0.033186287,0.98313946,0.17982084,0.99185216,0.01025497,0.12698098,9.969696,-0.0023956299,1.0636139,9.762528,0.10314836,0.923461,-0.054733276,-0.010574341,-0.014343262,-40.79895,22.259521,0.35858154,0,0.0,0.0,0.0,0.0
0.971191406,0.09090348,0.18238594,-0.9790159,-0.027488094,0.98317105,0.1806077,0.99548024,0.010493407,0.09438711,0.12299595,0.18256971,-0.9754693,-0.033186287,0.98313946,0.17982084,0.99185216,0.01025497,0.12698098,9.969696,-0.0023956299,1.0636139,9.762326,0.10290518,0.92562133,-0.054733276,-0.010574341,-0.014343262,-40.79895,22.259521,0.35858154,0,0.0,0.0,0.0,0.0
0.979492187,0.090888515,0.18235862,-0.97902226,-0.027282983,0.9831782,0.1805999,0.99548733,0.01029619,0.09433491,0.12172735,0.18256243,-0.9756298,-0.032961,0.9831407,0.17985544,0.99201614,0.010264412,0.12569255,9.998413,-0.071777344,0.9906311,9.762396,0.10097114,0.92510945,-0.052749634,-0.027832031,-0.0019683838,-40.79895,22.259521,0.35858154,0,0.0,0.0,0.0,0.0
0.987792968,0.09062444,0.18844718,-0.9778931,-0.027545715,0.98203224,0.18669207,0.99550414,0.0100179,0.09418703,0.12050842,0.18255435,-0.9757826,-0.032736517,0.9831422,0.17988831,0.9921724,0.010265671,0.1244531,9.999603,-0.0382843,0.92123413,9.762561,0.09824204,0.92365927,-0.053207397,-0.031799316,0.009796143,-40.618896,22.019958,0.47912598,0,0.0,0.0,0.0,0.0
0.99609375,0.09038826,0.18801379,-0.97799844,-0.02717806,0.9821182,0.18629396,0.99553573,0.009741314,0.09388179,0.1199112,0.18267228,-0.9758341,-0.03263652,0.9831203,0.18002583,0.99224806,0.010260716,0.12384893,9.999603,-0.0382843,0.92123413,9.762871,0.09552965,0.9206659,-0.055496216,-0.049362183,0.0035247803,-40.618896,22.019958,0.47912598,0,0.0,0.0,0.0,0.0
1.004394531,0.089822024,0.18163756,-0.9792548,-0.026221037,0.9833196,0.17998639,0.99561256,0.00951033,0.09308648,0.11874284,0.1828839,-0.97593725,-0.032427058,0.98308116,0.18027721,0.9923954,0.010240147,0.122664236,9.943375,-0.028717041,0.6460571,9.763624,0.09326448,0.91286653,-0.049697876,-0.073638916,-0.014801025,-40.859985,22.138977,0.35858154,0,0.0,0.0,0.0,0.0
1.012695312,0.08955319,0.16297159,-0.98255813,-0.024260184,0.9865862,0.16142856,0.9956866,0.009380598,0.09230567,0.11759971,0.18283455,-0.9760849,-0.032180507,0.98309064,0.18026967,0.99253947,0.010211246,0.12149488,9.973282,0.110076904,0.99302673,9.76435,0.091992244,0.90520936,-0.051376343,0.01890564,-0.016174316,-41.159058,21.899414,-0.119018555,0,0.0,0.0,0.0,0.0
1.020996093,0.089585185,0.16303179,-0.98254526,-0.024383817,0.9865752,0.16147722,0.99568063,0.009492233,0.09235786,0.117042445,0.18243802,-0.9762261,-0.032011222,0.9831645,0.17989676,0.9926109,0.010194634,0.12091204,9.973282,0.110076904,0.99302673,9.764292,0.09308701,0.9057212,-0.07260132,0.04196167,-0.014190674,-41.159058,21.899414,-0.119018555,0,0.0,0.0,0.0,0.0
1.029296875,0.08987447,0.16357611,-0.9824284,-0.024415936,0.9864857,0.16201806,0.9956538,0.00942562,0.092653744,0.11596183,0.18167083,-0.9764981,-0.031688962,0.9833068,0.1791744,0.992748,0.010166819,0.11978302,10.021133,-0.15553284,0.9667053,9.764029,0.09243376,0.90862286,-0.095199585,0.023330688,-0.012817383,-41.159058,21.899414,-0.119018555,0,0.0,0.0,0.0,0.0
1.037597656,0.08971636,0.17905392,-0.97974014,-0.025617566,0.9837965,0.1774494,0.99563783,0.009178443,0.09284957,0.1149348,0.18095542,-0.97675234,-0.03138307,0.983439,0.17850137,0.9928772,0.010137468,0.11871031,9.956528,-0.117248535,0.93678284,9.763872,0.09000978,0.9105432,-0.10574341,-0.012710571,-0.022277832,-41.159058,22.259521,0.29907227,0,0.0,0.0,0.0,0.0
1.045898437,0.08975546,0.17912596,-0.97972333,-0.025406307,0.9837853,0.17754108,0.9956397,0.00895587,0.092851035,0.114431314,0.1809174,-0.9768185,-0.031267047,0.98344624,0.1784821,0.992939,0.010118287,0.1181938,9.956528,-0.117248535,0.93678284,9.76389,0.08782709,0.9105576,-0.095962524,-0.00843811,-0.01586914,-41.159058,22.259521,0.29907227,0,0.0,0.0,0.0,0.0
1.054199218,0.08946882,0.18315914,-0.97900367,-0.025765125,0.9830423,0.18156011,0.9956563,0.008980182,0.092670746,0.11345582,0.18084647,-0.97694546,-0.031033725,0.9834598,0.17844832,0.99305826,0.010072255,0.11719157,9.952942,0.06460571,0.8003998,9.764053,0.088065505,0.9087896,-0.082977295,0.01890564,-0.009902954,-41.09955,22.31903,0.4196167,0,0.0,0.0,0.0,0.0
1.0625,0.089195415,0.1888927,-0.97793853,-0.026325997,0.9819561,0.18726759,0.99566615,0.0090417955,0.092558764,0.112506725,0.18093808,-0.9770382,-0.030827694,0.9834433,0.17857443,0.99317265,0.010029009,0.1162219,9.9756775,0.09451294,0.7645111,9.76415,0.088669725,0.9076914,-0.058547974,0.010498047,-0.029769897,-40.979004,22.138977,0.53863525,0,0.0,0.0,0.0,0.0
1.070800781,0.08905872,0.18864118,-0.9779995,-0.02642636,0.9820031,0.18700698,0.9956758,0.009190366,0.092441045,0.11204033,0.1810973,-0.9770623,-0.030741557,0.9834143,0.17874947,0.9932281,0.0100092655,0.11574928,9.9756775,0.09451294,0.7645111,9.764244,0.0901267,0.906537,-0.045272827,-0.0024719238,-0.034805298,-40.979004,22.138977,0.53863525,0,0.0,0.0,0.0,0.0
1.079101562,0.089025244,0.18857956,-0.9780144,-0.026549626,0.98201364,0.18693396,0.9956755,0.009324075,0.09243073,0.11112996,0.18139625,-0.9771108,-0.03057773,0.9833595,0.17907858,0.99333537,0.009976836,0.11482739,9.996017,-0.007171631,0.93559265,9.764241,0.09143794,0.90643585,-0.021743774,-0.015457153,-0.04701233,-40.979004,22.138977,0.53863525,0,0.0,0.0,0.0,0.0
1.087402343,0.088712886,0.19053294,-0.9776641,-0.026957791,0.98163384,0.18886045,0.99569243,0.009601311,0.09221993,0.110254385,0.18168089,-0.9771571,-0.030424673,0.9833072,0.1793915,0.9934376,0.009950988,0.113941506,9.961319,0.035888672,0.8566284,9.764407,0.0941567,0.9043686,-0.018081665,-0.014846802,-0.050689697,-40.79895,22.37854,0.6591797,0,0.0,0.0,0.0,0.0
1.095703125,0.08845586,0.19006771,-0.977778,-0.027167767,0.9817211,0.18837643,0.99570954,0.009901047,0.0920027,0.10982335,0.18185808,-0.9771726,-0.030359272,0.98327446,0.17958161,0.9934873,0.009943995,0.113507584,9.961319,0.035888672,0.8566284,9.764575,0.0970961,0.90223825,-0.018234253,-0.013015747,-0.045791626,-40.79895,22.37854,0.6591797,0,0.0,0.0,0.0,0.0
1.104003906,0.0881469,0.18791562,-0.97822183,-0.02715888,0.98213273,0.18621963,0.99573714,0.010152725,0.09167553,0.108976886,0.18218343,-0.9772069,-0.030239888,0.9832143,0.17993109,0.9935842,0.009942294,0.11265685,9.970886,0.03111267,0.7657013,9.764846,0.09956422,0.89902985,-0.020980835,-0.015914917,-0.036026,-40.79895,22.259521,0.5996704,0,0.0,0.0,0.0,0.0
1.112304687,0.08782324,0.18732622,-0.97836393,-0.027224928,0.9822434,0.18562517,0.99576396,0.0103336815,0.09136375,0.10856033,0.18229814,-0.97723186,-0.030180756,0.983193,0.18005739,0.9936316,0.009946504,0.11223766,9.970886,0.03111267,0.7657013,9.765109,0.1013388,0.8959723,-0.051071167,-0.008895874,-0.032821655,-40.79895,22.259521,0.5996704,0,0.0,0.0,0.0,0.0
1.120605468,0.087837376,0.1782238,-0.98006165,-0.026486697,0.9839345,0.17655423,0.9957827,0.010450536,0.09114678,0.107739456,0.18249737,-0.9772855,-0.030067954,0.9831559,0.1802788,0.9937244,0.009961836,0.111412,9.970886,0.029907227,0.78245544,9.765292,0.102484755,0.8938446,-0.06588745,0.012481689,-0.025787354,-40.919495,22.138977,0.35858154,1,0.0,0.0,0.0,0.0
1.12890625,0.087723404,0.17801394,-0.98011005,-0.026614524,0.98397076,0.17633305,0.9957893,0.010616629,0.091055,0.10695258,0.18232818,-0.97740346,-0.029923005,0.9831871,0.18013275,0.9938137,0.009981188,0.110610195,9.981659,0.1040802,0.7956085,9.765357,0.10411357,0.8929445,-0.079315186,0.01675415,-0.022735596,-40.919495,22.138977,0.35858154,1,0.0,0.0,0.0,0.0
1.137207031,0.08785788,0.17101586,-0.9813432,-0.02611336,0.98520964,0.16935177,0.99579066,0.010747283,0.09102423,0.10656862,0.18224193,-0.9774615,-0.029855255,0.98320293,0.1800574,0.993857,0.009993896,0.110219456,9.981659,0.1040802,0.7956085,9.765371,0.105394855,0.89264286,-0.095199585,0.01675415,-0.022735596,-41.09955,22.138977,0.17852783,1,0.0,0.0,0.0,0.0
1.145507812,0.08798362,0.17124888,-0.98129135,-0.026188731,0.9851688,0.16957745,0.9957776,0.010778735,0.091163516,0.10582982,0.18179782,-0.9776245,-0.029699046,0.98328483,0.17963544,0.99394065,0.01002373,0.10946008,9.970886,0.051452637,0.9068756,9.765243,0.10570329,0.8940087,-0.0962677,0.010955811,-0.019378662,-41.09955,22.138977,0.17852783,1,0.0,0.0,0.0,0.0
1.153808593,0.087885395,0.18357885,-0.97906846,-0.027217634,0.9829472,0.18186295,0.9957587,0.010664829,0.09138328,0.10512498,0.18138048,-0.977778,-0.029552836,0.9833616,0.1792389,0.9940198,0.010053628,0.10873617,9.981659,-0.035888672,1.0109711,9.765058,0.10458625,0.8961639,-0.0803833,-0.0012512207,-0.017089844,-41.159058,22.259521,0.47912598,1,0.0,0.0,0.0,0.0
1.162109375,0.08804051,0.18386419,-0.9790009,-0.02715147,0.9828951,0.18215385,0.9957468,0.010544398,0.09152676,0.1047804,0.18142447,-0.97780687,-0.029506955,0.9833534,0.17929167,0.99405754,0.010065853,0.10838944,9.981659,-0.035888672,1.0109711,9.76494,0.10340522,0.89757097,-0.08253479,-3.3569336E-4,-0.018157959,-41.159058,22.259521,0.47912598,1,0.0,0.0,0.0,0.0
1.170410156,0.08870151,0.16473015,-0.98234206,-0.025367387,0.9862832,0.16310048,0.99573517,0.010452192,0.0916636,0.104117684,0.1815211,-0.9778597,-0.029415356,0.9833353,0.17940554,0.9941299,0.010084802,0.10772211,9.984055,-0.022735596,1.0348969,9.764827,0.10250099,0.89891285,-0.06619263,-0.019729614,-0.020446777,-41.218567,21.839905,-0.059509277,1,0.0,0.0,0.0,0.0
1.178710937,0.088598065,0.16453478,-0.9823842,-0.025300745,0.9863162,0.16291153,0.9957461,0.010421406,0.09154855,0.10350976,0.18085715,-0.97804725,-0.029245026,0.9834575,0.17876251,0.9941984,0.010099351,0.10708663,9.961319,0.0047912598,0.9308014,9.764934,0.10219908,0.8977846,-0.046340942,-0.03012085,-0.027008057,-41.218567,21.839905,-0.059509277,1,0.0,0.0,0.0,0.0
1.187011718,0.08824385,0.17040439,-0.981415,-0.02581482,0.9853189,0.1687611,0.9957644,0.01044292,0.0913473,0.103212796,0.18053117,-0.97813886,-0.029161282,0.98351735,0.17844677,0.9942317,0.010105792,0.106776096,9.961319,0.0047912598,0.9308014,9.765113,0.10241006,0.895811,-0.040374756,-0.024932861,-0.029296875,-41.279602,21.71936,0.059509277,1,0.0,0.0,0.0,0.0
1.1953125,0.087973535,0.16989094,-0.98152834,-0.025824562,0.98540646,0.16824757,0.995788,0.010546203,0.091077045,0.10262159,0.18013051,-0.9782749,-0.029022962,0.98359066,0.17806478,0.99429697,0.010119143,0.10616556,9.978073,0.03111267,0.85783386,9.765345,0.10342292,0.8931607,-0.02709961,-0.016525269,-0.033432007,-41.279602,21.71936,0.059509277,1,0.0,0.0,0.0,0.0
1.203613281,0.08769528,0.16669658,-0.9821007,-0.025585746,0.98595077,0.16506542,0.99581873,0.010652322,0.090728275,0.10204304,0.17972541,-0.97840995,-0.028890558,0.9836646,0.17767751,0.9943604,0.010136055,0.10556849,9.969696,0.011962891,0.7513428,9.765646,0.1044636,0.88974047,-0.028167725,-0.0040130615,-0.038009644,-41.39862,21.77887,0.0,1,0.0,0.0,0.0,0.0
1.211914062,0.08742469,0.16618225,-0.98221207,-0.025618643,0.98603624,0.16454901,0.9958417,0.010777294,0.09046126,0.101757,0.17946512,-0.97848743,-0.028820736,0.98371196,0.17742614,0.9943917,0.0101463795,0.10527189,9.969696,0.011962891,0.7513428,9.76587,0.105689146,0.88712186,-0.04006958,0.0051574707,-0.029159546,-41.39862,21.77887,0.0,1,0.0,0.0,0.0,0.0
1.220214843,0.08784733,0.14355315,-0.98573595,-0.023722474,0.9895825,0.14199921,0.9958514,0.010909843,0.090337604,0.101191156,0.17893974,-0.97864234,-0.028686576,0.98380744,0.17691796,0.9944533,0.010171365,0.10468578,9.962524,0.034698486,0.7776642,9.765966,0.10698902,0.8859093,-0.049087524,0.023330688,-0.03312683,-41.33911,21.598816,-0.53863525,1,0.0,0.0,0.0,0.0
1.228515625,0.08781423,0.1434895,-0.9857482,-0.02383804,0.9895903,0.14192519,0.9958516,0.011035252,0.09032062,0.100667775,0.17754251,-0.9789508,-0.028471269,0.9840603,0.1755414,0.9945126,0.010200609,0.10411801,9.991226,0.046661377,0.78245544,9.765968,0.10821886,0.88574266,-0.058242798,0.027450562,-0.020141602,-41.33911,21.598816,-0.53863525,1,0.0,0.0,0.0,0.0
1.236816406,0.08760328,0.1530672,-0.9843252,-0.024778899,0.98815316,0.15145719,0.9958472,0.011122349,0.09035829,0.100412965,0.17686337,-0.97909987,-0.028369647,0.98418236,0.17487198,0.9945413,0.0102173025,0.10384222,9.991226,0.046661377,0.78245544,9.765925,0.10907298,0.88611215,-0.07824707,0.023025513,-0.025787354,-41.09955,21.598816,-0.29907227,1,0.0,0.0,0.0,0.0
1.245117187,0.08770345,0.15325835,-0.9842866,-0.024891952,0.9881227,0.1516377,0.99583554,0.011201667,0.09047665,0.09990843,0.1759229,-0.9793209,-0.028215475,0.98435056,0.17394793,0.9945965,0.010253142,0.10330866,9.973282,0.06939697,0.8422699,9.765811,0.109850824,0.88727283,-0.07733154,0.021957397,-0.023345947,-41.09955,21.598816,-0.29907227,1,0.0,0.0,0.0,0.0
1.253417968,0.08795799,0.15204331,-0.9844522,-0.0248199,0.9883103,0.15042159,0.9958149,0.011203225,0.090703495,0.09942753,0.17502707,-0.97953033,-0.028073002,0.9845099,0.17306727,0.99464875,0.010290704,0.10280092,9.96611,0.015548706,0.94636536,9.765609,0.109866105,0.88949746,-0.06970215,0.011108398,-0.021514893,-41.09955,21.839905,-0.29907227,1,0.0,0.0,0.0,0.0
1.26171875,0.08810849,0.15232728,-0.9843949,-0.02485931,0.9882667,0.15070139,0.9958006,0.011193306,0.090861425,0.09919931,0.17456827,-0.97963536,-0.028002584,0.98459107,0.1726158,0.9946735,0.010308954,0.10255912,9.96611,0.015548706,0.94636536,9.765469,0.10976884,0.8910462,-0.06604004,-0.003250122,-0.017547607,-41.09955,21.839905,-0.29907227,1,0.0,0.0,0.0,0.0
1.270019531,0.0879481,0.15877602,-0.9833898,-0.025403209,0.9872516,0.15712763,0.99580103,0.0111621795,0.0908603,0.09876211,0.17368916,-0.9798358,-0.027868371,0.9847462,0.17175062,0.99472076,0.0103439735,0.10209604,9.992432,0.011962891,0.9188385,9.765473,0.109463595,0.89103526,-0.047714233,-0.01927185,-0.023651123,-41.09955,21.659851,-0.17852783,1,0.0,0.0,0.0,0.0
1.278320312,0.087717764,0.15833819,-0.9834809,-0.025381904,0.9873212,0.15669264,0.99582195,0.011217889,0.09062453,0.098335125,0.17309935,-0.9799831,-0.027764449,0.98484975,0.17117298,0.994766,0.010376375,0.101651326,9.962524,0.047851563,0.83628845,9.765677,0.110009916,0.8887231,-0.031066895,-0.022949219,-0.030075073,-41.09955,21.659851,-0.17852783,1,0.0,0.0,0.0,0.0
1.286621093,0.08743532,0.15779144,-0.98359394,-0.025396181,0.98740757,0.15614566,0.99584645,0.011326882,0.09034159,0.09812335,0.17280449,-0.9800564,-0.027713632,0.98490137,0.17088407,0.99478835,0.010393205,0.101430856,9.962524,0.047851563,0.83628845,9.765918,0.11107877,0.88594836,-0.036254883,-0.021881104,-0.025787354,-40.859985,21.899414,-0.119018555,1,0.0,0.0,0.0,0.0
1.294921875,0.08713366,0.15722795,-0.9837109,-0.025390081,0.98749626,0.15558401,0.995873,0.011419895,0.09003619,0.09770136,0.1722107,-0.98020303,-0.0276156,0.9850049,0.17030177,0.9948326,0.01043018,0.100992024,9.976868,0.062210083,0.7920227,9.766178,0.11199092,0.88295346,-0.05809021,-0.002029419,-0.016174316,-40.859985,21.899414,-0.119018555,1,0.0,0.0,0.0,0.0
1.303222656,0.08698941,0.15719707,-0.9837286,-0.025394019,0.9875009,0.15555432,0.99588555,0.011449242,0.08989399,0.0972839,0.17161812,-0.98034847,-0.027521256,0.98510796,0.16972026,0.99487615,0.010469372,0.10055829,9.991226,0.058624268,0.8386841,9.766301,0.11227871,0.8815589,-0.06802368,0.0011901855,-0.017700195,-40.67993,22.138977,-0.059509277,1,0.0,0.0,0.0,0.0
1.311523437,0.08696987,0.15716113,-0.9837361,-0.025337357,0.9875072,0.15552358,0.99588865,0.011399405,0.08986542,0.09707845,0.17133003,-0.98041916,-0.027475702,0.98515785,0.16943757,0.9948974,0.010488969,0.100345016,9.985245,0.011962891,0.87815857,9.766332,0.11178998,0.8812787,-0.06802368,-0.007675171,-0.015563965,-40.67993,22.138977,-0.059509277,1,0.0,0.0,0.0,0.0
1.319824218,0.0869892,0.15386274,-0.9842557,-0.024996294,0.988027,0.15224311,0.9958956,0.011359237,0.08979367,0.09667931,0.17076959,-0.9805564,-0.027385443,0.9852548,0.16888773,0.9949388,0.010525022,0.099930346,9.990036,0.020339966,0.87098694,9.7664,0.11139607,0.8805751,-0.06665039,-0.0035552979,-0.018615723,-40.859985,21.958923,-0.17852783,1,0.0,0.0,0.0,0.0
1.328125,0.08683416,0.1535738,-0.9843144,-0.02495749,0.98807174,0.15195833,0.99591017,0.0113708405,0.089631215,0.096296884,0.17010097,-0.9807102,-0.027284402,0.9853701,0.16823013,0.99497867,0.010558058,0.09952917,9.974487,0.052642822,0.8111725,9.766542,0.11150985,0.87898195,-0.07107544,-0.007980347,-0.02166748,-40.859985,21.958923,-0.17852783,1,0.0,0.0,0.0,0.0
1.336425781,0.08705814,0.13788083,-0.9866153,-0.023582445,0.9903832,0.1363265,0.99592406,0.011398469,0.089472495,0.09610826,0.16977087,-0.98078597,-0.0272347,0.98542684,0.16790543,0.9949983,0.010574313,0.09933132,9.974487,0.052642822,0.8111725,9.766679,0.1117808,0.87742543,-0.07962036,-0.008743286,-0.023040771,-40.979004,22.019958,-0.53863525,1,0.0,0.0,0.0,0.0
1.344726562,0.08691982,0.13762224,-0.98666364,-0.02356549,0.990419,0.13607006,0.9959366,0.011424028,0.08933017,0.095752634,0.16851117,-0.98103786,-0.027078466,0.9856427,0.16665916,0.9950368,0.010606948,0.09894092,9.96611,0.044265747,0.8267212,9.766801,0.11203144,0.8760297,-0.07778931,-0.004470825,-0.01876831,-40.979004,22.019958,-0.53863525,1,0.0,0.0,0.0,0.0
1.353027343,0.086316906,0.16194995,-0.98301655,-0.025592599,0.986734,0.16031514,0.99593896,0.0113200415,0.089316554,0.095405445,0.1672909,-0.9812805,-0.026928391,0.9858501,0.16545182,0.9950742,0.010639304,0.09856035,9.963715,0.020339966,0.9104614,9.766826,0.11101169,0.8758963,-0.078552246,-0.005996704,-0.026855469,-40.859985,22.138977,0.059509277,1,0.0,0.0,0.0,0.0
1.361328125,0.08631068,0.16193847,-0.98301905,-0.02558515,0.98673594,0.16030437,0.9959396,0.0113147115,0.08930907,0.09522383,0.16718414,-0.98131645,-0.026900712,0.9858681,0.16534926,0.9950924,0.01065292,0.09837552,9.963715,0.020339966,0.9104614,9.766831,0.11095942,0.8758228,-0.062057495,-0.01210022,-0.02319336,-40.859985,22.138977,0.059509277,1,0.0,0.0,0.0,0.0
1.369628906,0.08616969,0.16548154,-0.98244125,-0.02592679,0.9861475,0.16383179,0.995943,0.011354209,0.08926643,0.09487126,0.16697651,-0.98138595,-0.026846824,0.985903,0.16514976,0.9951275,0.010679128,0.09801665,9.952942,0.0382843,0.91166687,9.766865,0.11134675,0.8754046,-0.05290222,-0.009353638,-0.0289917,-41.159058,22.138977,0.119018555,1,0.0,0.0,0.0,0.0
1.377929687,0.085973695,0.16511758,-0.98251957,-0.02594348,0.98620754,0.16346721,0.9959595,0.011436098,0.08907163,0.094526924,0.16691731,-0.9814293,-0.026809916,0.9859128,0.16509765,0.9951613,0.01070586,0.09767034,9.985245,0.046661377,0.7788696,9.767027,0.11214981,0.8734943,-0.04862976,-0.020339966,-0.032669067,-41.159058,22.138977,0.119018555,1,0.0,0.0,0.0,0.0
1.386230468,0.085360035,0.17752486,-0.9804073,-0.027101414,0.98404837,0.17582455,0.9959815,0.011562036,0.08880959,0.09435595,0.16688132,-0.9814518,-0.026792288,0.98591876,0.16506508,0.995178,0.010720464,0.097498424,9.985245,0.046661377,0.7788696,9.767242,0.11338484,0.8709246,-0.04786682,-0.020645142,-0.031143188,-41.09955,22.079468,0.4196167,1,0.0,0.0,0.0,0.0
1.39453125,0.085122935,0.1770854,-0.9805074,-0.026946157,0.98412836,0.17540002,0.996006,0.011490343,0.088543676,0.09382701,0.16750778,-0.9813958,-0.026815772,0.98581195,0.16569781,0.99522734,0.010769956,0.096987635,9.978073,-0.095718384,0.7956085,9.767483,0.11268178,0.8683169,-0.042510986,0.0040893555,-0.039535522,-41.09955,22.079468,0.4196167,1,0.0,0.0,0.0,0.0
1.402832031,0.08494538,0.17675632,-0.9805822,-0.026828948,0.98418814,0.1750822,0.9960243,0.0114355665,0.088344425,0.09365292,0.16769949,-0.9813796,-0.026820019,0.98577917,0.16589186,0.9952436,0.010784364,0.0968188,9.974487,-0.046661377,0.7166443,9.767662,0.112144604,0.86636287,-0.040527344,-0.002029419,-0.03175354,-41.09955,22.079468,0.4196167,1,0.0,0.0,0.0,0.0
1.411132812,0.084540114,0.18278724,-0.979511,-0.027330626,0.98308575,0.18109545,0.99604523,0.01146082,0.088105865,0.09347875,0.16788076,-0.98136526,-0.02682175,0.9857482,0.16607566,0.99525994,0.010797388,0.09664936,9.974487,-0.046661377,0.7166443,9.767867,0.112392254,0.8640234,-0.041290283,0.0022583008,-0.027770996,-40.919495,22.138977,0.5996704,1,0.0,0.0,0.0,0.0
1.419433593,0.08438001,0.1815,-0.97976416,-0.027170658,0.98332435,0.17981951,0.9960631,0.011447664,0.087904386,0.09329993,0.16817927,-0.9813311,-0.026834516,0.98569715,0.16637622,0.9952764,0.0108106565,0.0964785,9.982849,0.06819153,0.76091003,9.768043,0.11226324,0.86204755,-0.05152893,0.008514404,-0.025939941,-40.979004,21.958923,0.53863525,1,0.0,0.0,0.0,0.0
1.427734375,0.08439096,0.18152031,-0.9797594,-0.027286597,0.98331916,0.17982952,0.996059,0.011558315,0.08793633,0.09294665,0.16870739,-0.981274,-0.026852332,0.9856066,0.1669088,0.99530894,0.010835882,0.096139014,9.981659,0.090927124,0.84825134,9.7680025,0.11334835,0.86236084,-0.0765686,0.012329102,-0.017852783,-40.979004,21.958923,0.53863525,1,0.0,0.0,0.0,0.0
1.436035156,0.083959356,0.19696756,-0.97680837,-0.02863077,0.9803416,0.19521911,0.99605775,0.011576305,0.08794818,0.09260795,0.16921534,-0.98121864,-0.026873698,0.98551923,0.16742064,0.99534,0.010864491,0.095814355,9.984055,0.058624268,0.78364563,9.76799,0.11352477,0.86247706,-0.08589172,0.027145386,-0.020141602,-40.919495,21.899414,0.8987427,1,0.0,0.0,0.0,0.0
1.444335937,0.08411361,0.19725285,-0.9767375,-0.028702294,0.98028404,0.19549733,0.99604267,0.011590622,0.08811685,0.09243538,0.16977179,-0.9811387,-0.026913423,0.9854233,0.16797759,0.9953549,0.010878728,0.095657125,9.988831,0.058624268,0.8614197,9.767842,0.11366518,0.8641311,-0.08099365,0.02104187,-0.018157959,-40.919495,21.899414,0.8987427,1,0.0,0.0,0.0,0.0
1.452636718,0.084335,0.19766235,-0.9766357,-0.028804071,0.9802014,0.19589671,0.99602103,0.011610135,0.08835875,0.09210663,0.17086273,-0.98098034,-0.026992716,0.9852345,0.1690693,0.99538326,0.010906919,0.09535868,9.988831,0.058624268,0.933197,9.767631,0.11385655,0.8665034,-0.06283569,0.015991211,-0.018920898,-40.919495,21.899414,0.8987427,1,0.0,0.0,0.0,0.0
1.4609375,0.084417485,0.19943121,-0.9762688,-0.02905124,0.97984225,0.19764914,0.9960069,0.011676778,0.088509545,0.09179964,0.17192656,-0.9808231,-0.027072117,0.98504907,0.1701335,0.9954094,0.010934765,0.09508157,9.961319,0.088531494,0.933197,9.767491,0.11451008,0.86798215,-0.058395386,-0.009506226,-0.020599365,-40.79895,22.259521,1.0192871,1,0.0,0.0,0.0,0.0
1.469238281,0.08393906,0.21600758,-0.97277695,-0.030519309,0.9763214,0.21416119,0.9960034,0.011711992,0.0885439,0.091652505,0.17247804,-0.98074013,-0.027115542,0.9849525,0.17068484,0.9954218,0.010949605,0.0949502,9.956528,0.052642822,0.928421,9.767457,0.11485541,0.86831903,-0.053359985,-0.010116577,-0.024719238,-40.67993,22.019958,1.3793945,1,0.0,0.0,0.0,0.0
1.477539062,0.08382181,0.2157946,-0.97283435,-0.030506678,0.9763682,0.21394993,0.99601364,0.011744273,0.08842412,0.0913497,0.17420885,-0.9804624,-0.027262261,0.9846475,0.17241244,0.99544567,0.010979797,0.09469658,9.970886,0.01914978,0.86979675,9.767557,0.11517198,0.86714435,-0.051071167,-0.01576233,-0.02885437,-40.67993,22.019958,1.3793945,1,0.0,0.0,0.0,0.0
1.485839843,0.08376658,0.20876232,-0.97437227,-0.029960308,0.9778945,0.20694128,0.9960349,0.011857732,0.08816946,0.091054045,0.1758621,-0.98019475,-0.027401889,0.98435324,0.17406273,0.9954689,0.01101007,0.0944483,9.973282,0.0657959,0.78723145,9.767766,0.11628463,0.8646471,-0.059921265,-0.016220093,-0.021209717,-40.67993,22.198486,1.2588501,1,0.0,0.0,0.0,0.0
1.494140625,0.083520226,0.20831747,-0.9744887,-0.029940862,0.9779885,0.2064995,0.9960562,0.011930145,0.087919034,0.09090904,0.17652218,-0.98008955,-0.027457524,0.98423487,0.17472194,0.99548066,0.011027024,0.09432272,9.9673,0.08375549,0.7381897,9.767975,0.11699476,0.8621912,-0.06388855,-0.013931274,-0.017242432,-40.67993,22.198486,1.2588501,1,0.0,0.0,0.0,0.0
1.502441406,0.08336617,0.20803927,-0.97456133,-0.029912986,0.9780474,0.2062246,0.9960699,0.011959882,0.08775913,0.090617895,0.17778505,-0.97988814,-0.027564395,0.9840071,0.17598327,0.9955042,0.011062789,0.0940692,9.972092,0.07896423,0.8338928,9.768109,0.117286384,0.8606231,-0.06542969,-0.0050811768,-0.010070801,-40.67993,22.198486,1.2588501,1,0.0,0.0,0.0,0.0
1.510742187,0.08358992,0.1971273,-0.97680783,-0.028955754,0.98030496,0.19535518,0.99607944,0.0119544845,0.08765159,0.090332,0.17898653,-0.97969586,-0.027665371,0.98378897,0.17718346,0.99552745,0.011098312,0.09381936,9.972092,0.07896423,0.8338928,9.768203,0.11723345,0.8595685,-0.06802368,-9.460449E-4,-0.010681152,-40.438843,22.198486,1.0192871,1,0.0,0.0,0.0,0.0
1.519042968,0.0830977,0.2112014,-0.97390383,-0.030122671,0.97736967,0.2093828,0.99608606,0.011937357,0.08757912,0.090197384,0.17934997,-0.97964174,-0.027693525,0.98372257,0.17754726,0.99553883,0.0111154355,0.09369603,9.993622,0.0023956299,0.9068756,9.768268,0.11706548,0.8588578,-0.06266785,-0.0026397705,-0.0077667236,-40.319824,22.499084,1.4389038,1,0.0,0.0,0.0,0.0
1.52734375,0.08315604,0.21130423,-0.9738766,-0.030020792,0.97734886,0.20949426,0.9960842,0.011815834,0.08761598,0.089917764,0.18061508,-0.979435,-0.027797934,0.98349065,0.17881097,0.9955612,0.011147984,0.09345401,9.956528,-0.011962891,0.7956085,9.7682495,0.11587375,0.8592193,-0.053970337,2.746582E-4,-0.012359619,-40.319824,22.499084,1.4389038,1,0.0,0.0,0.0,0.0
1.535644531,0.083351634,0.20161419,-0.975912,-0.029080648,0.97939485,0.19984996,0.9960958,0.011722333,0.087497234,0.089651175,0.18183395,-0.97923386,-0.027893472,0.9832657,0.1800289,0.9955825,0.011174431,0.09322291,9.9756775,0.017944336,0.7513428,9.768363,0.11495682,0.85805476,-0.061904907,0.0138549805,-0.0051727295,-40.379333,22.499084,1.1993408,1,0.0,0.0,0.0,0.0
1.543945312,0.08337981,0.20166408,-0.97589934,-0.029089171,0.97938466,0.19989894,0.99609315,0.011720566,0.08752713,0.08952542,0.18223031,-0.97917175,-0.027919607,0.98319227,0.18042587,0.99559313,0.01118539,0.09310849,9.996017,0.100494385,0.8147583,9.768337,0.11493949,0.858348,-0.0632782,0.015991211,-0.0065460205,-40.379333,22.499084,1.1993408,1,0.0,0.0,0.0,0.0
1.552246093,0.0832053,0.20951454,-0.97425896,-0.029756771,0.9777354,0.20772082,0.996088,0.011707328,0.087587245,0.08928243,0.18300128,-0.9790501,-0.027970355,0.9830488,0.181198,0.9956135,0.011206583,0.092887595,9.9673,0.058624268,0.8566284,9.768287,0.11480968,0.85893744,-0.07809448,0.02104187,-0.008834839,-40.25879,22.679138,1.4389038,1,0.0,0.0,0.0,0.0
1.560546875,0.083329394,0.2097312,-0.9742017,-0.029748991,0.97768956,0.20793748,0.9960779,0.011654216,0.087709576,0.08916124,0.18353291,-0.9789617,-0.028009096,0.9829496,0.18172956,0.99562335,0.011216598,0.092781596,9.9673,0.058624268,0.8566284,9.7681875,0.114288814,0.86013716,-0.07809448,0.012329102,-0.012969971,-40.25879,22.679138,1.4389038,1,0.0,0.0,0.0,0.0
1.568847656,0.08372969,0.20209442,-0.97578025,-0.02901929,0.979298,0.2003329,0.99606586,0.011542642,0.08786096,0.08893094,0.18457295,-0.97878706,-0.028083527,0.9827546,0.1827695,0.9956418,0.011233929,0.09258076,9.964905,0.0,0.90448,9.768069,0.11319465,0.8616217,-0.06436157,0.008514404,-0.014190674,-40.618896,22.619629,1.1993408,1,0.0,0.0,0.0,0.0
1.577148437,0.08383395,0.20227914,-0.9757331,-0.028960234,0.97926104,0.20052229,0.9960588,0.011446884,0.08795336,0.08872517,0.18526797,-0.9786744,-0.028123958,0.98262364,0.18346591,0.99565905,0.011246154,0.09239393,9.954147,-0.011962891,0.8877411,9.768001,0.11225559,0.86252785,-0.060073853,-0.0053863525,-0.017089844,-40.618896,22.619629,1.1993408,1,0.0,0.0,0.0,0.0
1.585449218,0.0838462,0.20230083,-0.9757275,-0.028961942,0.9792565,0.20054376,0.99605775,0.011444129,0.087965965,0.088627405,0.18560877,-0.9786187,-0.02814227,0.98255926,0.1838075,0.9956672,0.011250169,0.09230514,9.980469,0.034698486,0.91285706,9.76799,0.11222857,0.86265147,-0.050613403,-0.013168335,-0.026550293,-40.618896,22.619629,1.1993408,1,0.0,0.0,0.0,0.0
1.59375,0.083669476,0.20369974,-0.9754516,-0.029129162,0.97896564,0.201935,0.9960677,0.011518294,0.08784314,0.08843821,0.18627083,-0.97851,-0.028177682,0.982434,0.18447109,0.9956831,0.011257851,0.09213338,9.994827,0.047851563,0.8650055,9.768087,0.11295588,0.861447,-0.042816162,-0.015151978,-0.027160645,-40.499878,22.37854,1.1993408,1,0.0,0.0,0.0,0.0
1.602050781,0.08326701,0.20829093,-0.97451603,-0.029520389,0.9779985,0.2065129,0.99608994,0.01157238,0.08758383,0.088249534,0.18696217,-0.97839516,-0.028218418,0.9823025,0.18516357,0.99569863,0.011268165,0.091963515,9.950546,0.013153076,0.7848511,9.768306,0.11348628,0.858904,-0.02999878,-0.019729614,-0.029296875,-40.438843,22.619629,1.3793945,1,0.0,0.0,0.0,0.0
1.610351562,0.08296731,0.20776357,-0.9746542,-0.029539857,0.9781091,0.20598547,0.9961144,0.011701086,0.08728838,0.08815005,0.18738966,-0.9783224,-0.028246446,0.982221,0.1855913,0.9957067,0.011274249,0.09187591,9.98645,0.057434082,0.776474,9.768545,0.114748456,0.8560066,-0.036254883,-0.02142334,-0.029159546,-40.438843,22.619629,1.3793945,1,0.0,0.0,0.0,0.0
1.618652343,0.08267082,0.20787248,-0.97465616,-0.02956738,0.97808504,0.20609587,0.9961382,0.011779912,0.08700534,0.087945305,0.18819806,-0.9781856,-0.028301548,0.9820662,0.18640016,0.99572325,0.01129115,0.09169441,9.957733,0.04547119,0.78125,9.768779,0.115521476,0.85323095,-0.042510986,-0.015914917,-0.016174316,-40.559387,22.31903,1.3198853,1,0.0,0.0,0.0,0.0
1.626953125,0.08242816,0.20743819,-0.9747692,-0.029486543,0.97817695,0.20566995,0.9961606,0.011789577,0.08674597,0.08773679,0.18897866,-0.97805387,-0.028355481,0.98191607,0.18718126,0.99574006,0.011310505,0.09150874,9.957733,0.04547119,0.78125,9.768999,0.11561626,0.8506874,-0.054885864,-0.011184692,-0.009460449,-40.559387,22.31903,1.3198853,1,0.0,0.0,0.0,0.0
1.635253906,0.08226628,0.20714846,-0.9748445,-0.02941525,0.97823864,0.20538735,0.9961762,0.011778838,0.08656938,0.08763078,0.18934853,-0.9779918,-0.02837997,0.98184466,0.18755156,0.9957487,0.011320086,0.09141353,9.973282,0.06460571,0.81355286,9.769152,0.11551095,0.8489556,-0.06297302,-0.009048462,-0.012512207,-40.559387,22.31903,1.3198853,1,0.0,0.0,0.0,0.0
1.643554687,0.08183137,0.21909893,-0.97226506,-0.030290455,0.97563285,0.21730845,0.9961857,0.011667702,0.08647398,0.087418646,0.19005464,-0.9778738,-0.028424509,0.9817081,0.18825878,0.99576604,0.011338253,0.0912218,9.984055,0.0011901855,0.83628845,9.769245,0.11442108,0.8480201,-0.06832886,-8.087158E-4,-0.014038086,-40.438843,22.558594,1.6799927,1,0.0,0.0,0.0,0.0
1.651855468,0.081811406,0.21906388,-0.9722747,-0.030176714,0.97564214,0.2172834,0.9961909,0.011563794,0.08642926,0.0871981,0.19120814,-0.97766864,-0.028504204,0.9814839,0.18941203,0.9957831,0.011351298,0.091033764,9.991226,-0.009567261,0.78604126,9.769296,0.11340208,0.84758157,-0.09428406,0.003326416,-0.01449585,-40.438843,22.558594,1.6799927,1,0.0,0.0,0.0,0.0
1.66015625,0.082145296,0.20682205,-0.97492397,-0.029036902,0.9783114,0.20509408,0.9961973,0.01146126,0.08636916,0.08709073,0.19176684,-0.9775688,-0.028540444,0.9813748,0.18997082,0.99579144,0.011355548,0.09094176,9.917053,-0.010772705,0.6759796,9.769358,0.11239656,0.846992,-0.09428406,0.013549805,-0.021972656,-40.379333,22.259521,1.3198853,1,0.0,0.0,0.0,0.0
1.668457031,0.08168635,0.21748462,-0.9726396,-0.02982356,0.97599745,0.21573073,0.9962118,0.011385323,0.08621182,0.08689485,0.19236393,-0.9774689,-0.028562875,0.98125786,0.19057043,0.9958079,0.011359734,0.09076072,9.98645,0.0035858154,0.8159485,9.769501,0.111651875,0.8454492,-0.09840393,0.012329102,-0.027770996,-39.89868,22.499084,1.6799927,1,0.0,0.0,0.0,0.0
1.676757812,0.08180074,0.21768345,-0.9725855,-0.029819831,0.9759535,0.21592924,0.99620247,0.011339165,0.086325005,0.08668884,0.19336122,-0.9772904,-0.028617535,0.9810618,0.19156897,0.9958243,0.011360749,0.090580635,9.942184,-0.01914978,0.85543823,9.769409,0.11119923,0.8465591,-0.08757019,0.02027893,-0.036331177,-39.89868,22.499084,1.6799927,1,0.0,0.0,0.0,0.0
1.685058593,0.08191999,0.21789071,-0.972529,-0.029885966,0.975907,0.21613012,0.9961907,0.01135959,0.086458184,0.08659116,0.1938489,-0.9772024,-0.028643787,0.9809656,0.19205725,0.995832,0.0113603175,0.09049552,9.942184,-0.01914978,0.85543823,9.769294,0.111399524,0.84786516,-0.07305908,0.015686035,-0.037399292,-39.89868,22.499084,1.6799927,1,0.0,0.0,0.0,0.0
1.693359375,0.081617504,0.23393026,-0.9688215,-0.03141301,0.97218543,0.23209615,0.99616855,0.011490496,0.086695805,0.08640649,0.19480325,-0.9770289,-0.028697025,0.98077655,0.19301255,0.9958465,0.011360288,0.09033573,9.982849,0.037094116,0.948761,9.769076,0.112683274,0.8501954,-0.067871094,0.001953125,-0.037399292,-39.718628,22.799683,2.1591187,1,0.0,0.0,0.0,0.0
1.701660156,0.081756465,0.23416585,-0.9687529,-0.031608604,0.9721271,0.23231387,0.9961509,0.011627764,0.086879335,0.08631158,0.19558907,-0.9768804,-0.028754635,0.98062015,0.19379723,0.9958531,0.011362892,0.090262964,9.982849,0.037094116,0.948761,9.768904,0.114029415,0.8519952,-0.057632446,0.008514404,-0.037094116,-39.718628,22.799683,2.1591187,1,0.0,0.0,0.0,0.0
1.709960937,0.080894336,0.2600497,-0.96220076,-0.033967607,0.9655231,0.2580919,0.99614376,0.011805483,0.08693861,0.08613311,0.1971229,-0.9765878,-0.028873604,0.9803128,0.1953282,0.9958651,0.011373382,0.09012904,9.988831,0.06460571,0.78723145,9.768833,0.11577225,0.85257655,-0.048324585,-0.01576233,-0.030380249,-39.29901,23.098755,2.9388428,1,0.0,0.0,0.0,0.0
1.718261718,0.08031618,0.2693845,-0.95967776,-0.03479543,0.962959,0.26739353,0.99616194,0.011916375,0.08671453,0.08593181,0.1996322,-0.9760957,-0.029085672,0.97980475,0.19783017,0.9958764,0.011390492,0.09000283,9.982849,0.039474487,0.77526855,9.7690115,0.11685972,0.85037905,-0.050613403,-0.0029449463,-0.025177002,-38.938904,23.579407,3.3599854,1,0.0,0.0,0.0,0.0
1.7265625,0.08013132,0.26909307,-0.9597749,-0.034785997,0.9630396,0.26710412,0.9961771,0.011983318,0.08653032,0.08582341,0.20103851,-0.9758165,-0.029206103,0.979517,0.1992322,0.9958822,0.01140101,0.089937046,9.982849,0.039474487,0.77526855,9.76916,0.11751621,0.84857255,-0.053970337,-0.0015563965,-0.019836426,-38.938904,23.579407,3.3599854,1,0.0,0.0,0.0,0.0
1.734863281,0.07996403,0.26882932,-0.9598627,-0.034720603,0.9631131,0.26684716,0.9961928,0.011988838,0.08634833,0.08560533,0.20375444,-0.9752722,-0.029439166,0.9789554,0.2019399,0.9958941,0.011424069,0.08980215,9.982849,0.047851563,0.7680969,9.769315,0.11757034,0.8467879,-0.06573486,-0.011795044,-0.009292603,-38.938904,23.579407,3.3599854,1,0.0,0.0,0.0,0.0
1.743164062,0.07975775,0.269792,-0.9596098,-0.034668915,0.96284497,0.26782006,0.99621123,0.011907904,0.086147755,0.08538847,0.20635077,-0.9747452,-0.029659875,0.97841114,0.20452861,0.9959062,0.011446434,0.08966537,9.976868,0.026321411,0.78125,9.769495,0.11677665,0.8448209,-0.06756592,-0.011947632,-0.013580322,-38.279724,24.119568,3.5995483,1,0.0,0.0,0.0,0.0
1.751464843,0.07960072,0.2695547,-0.95968956,-0.034527104,0.96291244,0.26759613,0.99622875,0.011834455,0.08595547,0.08527895,0.20762913,-0.9744833,-0.0297659,0.97814053,0.20580348,0.9959124,0.0114556635,0.08959507,9.976868,0.026321411,0.78125,9.769667,0.11605636,0.8429352,-0.063446045,-0.005996704,-0.017242432,-38.279724,24.119568,3.5995483,1,0.0,0.0,0.0,0.0
1.759765625,0.078761056,0.2889585,-0.95409626,-0.03605587,0.9572689,0.28694293,0.9962413,0.011800841,0.08581416,0.085059404,0.21009909,-0.9739729,-0.029965676,0.9776128,0.20826729,0.9959251,0.011470664,0.089450926,9.960129,0.029907227,0.776474,9.76979,0.115726724,0.84154946,-0.068481445,0.013397217,-0.01953125,-37.85858,24.778748,4.3792725,1,0.0,0.0,0.0,0.0
1.768066406,0.077917844,0.3115007,-0.947046,-0.037871357,0.95017314,0.30941343,0.9962402,0.011757085,0.08583241,0.084818654,0.21325193,-0.97330844,-0.030222062,0.9769297,0.21141165,0.99593794,0.011483739,0.08930679,9.950546,0.017944336,0.8063812,9.769779,0.11529762,0.8417284,-0.08099365,0.025161743,-0.018005371,-37.319946,25.019836,5.1589966,1,0.0,0.0,0.0,0.0
1.776367187,0.07803527,0.31166288,-0.946983,-0.037885122,0.95012045,0.3095736,0.9962305,0.011718907,0.08595029,0.084818654,0.21325193,-0.97330844,-0.030222062,0.9769297,0.21141165,0.99593794,0.011483739,0.08930679,9.950546,0.017944336,0.8063812,9.769684,0.114923224,0.8428844,-0.08099365,0.025161743,-0.018005371,-37.319946,25.019836,5.1589966,1,0.0,0.0,0.0,0.0
1.784667968,0.0783376,0.31208032,-0.94682044,-0.038082056,0.94998264,0.3099718,0.99619925,0.01177442,0.08630404,0.084440045,0.21911085,-0.9720393,-0.030700907,0.97563225,0.2172538,0.99595547,0.011497567,0.089109324,9.98645,0.06460571,0.97746277,9.769378,0.115467615,0.84635353,-0.07046509,0.016143799,-0.028076172,-37.319946,25.019836,5.1589966,1,0.0,0.0,0.0,0.0
1.79296875,0.07783874,0.32682267,-0.94187474,-0.039421692,0.94501126,0.3246531,0.99618626,0.011859712,0.08644239,0.08421144,0.22283697,-0.9712116,-0.031009331,0.9747878,0.22096874,0.99596524,0.01150853,0.08899831,9.96611,0.044265747,0.88175964,9.76925,0.11630405,0.84771025,-0.045272827,-0.005996704,-0.040298462,-36.898804,25.559998,5.819702,1,0.0,0.0,0.0,0.0
1.801269531,0.07780613,0.32677963,-0.94189245,-0.039568696,0.94502425,0.32459757,0.996183,0.012013772,0.08645892,0.08397597,0.22701252,-0.9702646,-0.031360548,0.97382367,0.225131,0.9959741,0.0115224365,0.08889702,9.96611,0.044265747,0.88175964,9.7692175,0.11781485,0.8478724,-0.04159546,-0.016220093,-0.037246704,-36.898804,25.559998,5.819702,1,0.0,0.0,0.0,0.0
1.809570312,0.07709427,0.33712053,-0.9382996,-0.04053119,0.9413823,0.3348979,0.99619967,0.012211692,0.08623908,0.08386098,0.2290355,-0.969799,-0.031533398,0.97334975,0.2271473,0.99597836,0.011532264,0.08884833,9.9756775,0.061019897,0.7800598,9.7693815,0.11975579,0.8457165,-0.040222168,-0.021560669,-0.035720825,-37.139893,25.85907,6.239319,1,0.0,0.0,0.0,0.0
1.817871093,0.07695246,0.3325047,-0.9399569,-0.04015743,0.943021,0.330301,0.9962257,0.012328783,0.085920304,0.08349148,0.23548596,-0.96828485,-0.032091603,0.9718089,0.23357585,0.9959916,0.011572218,0.088694885,9.982849,0.01675415,0.7465668,9.769637,0.120904066,0.8425904,-0.054885864,-0.02279663,-0.023803711,-37.078857,26.219177,6.239319,1,0.0,0.0,0.0,0.0
1.826171875,0.07661488,0.33207038,-0.9401379,-0.040073257,0.943173,0.32987672,0.9962551,0.012400926,0.085568234,0.08349148,0.23548596,-0.96828485,-0.032091603,0.9718089,0.23357585,0.9959916,0.011572218,0.088694885,9.982849,0.01675415,0.7465668,9.769925,0.12161154,0.83913773,-0.054885864,-0.02279663,-0.023803711,-37.078857,26.219177,6.239319,1,0.0,0.0,0.0,0.0
1.834472656,0.076274164,0.331632,-0.9403204,-0.039906982,0.94332737,0.3294554,0.99628794,0.012396414,0.08518594,0.08323475,0.23936275,-0.96735585,-0.032426827,0.97086084,0.2374399,0.9960022,0.011605033,0.08857113,10.02713,0.03111267,0.7381897,9.770247,0.121567294,0.8353887,-0.07489014,-0.02645874,-0.012817383,-37.078857,26.219177,6.239319,1,0.0,0.0,0.0,0.0
1.842773437,0.075882696,0.33168113,-0.94033474,-0.03969159,0.9433111,0.32952797,0.99632645,0.012317907,0.08474595,0.0829729,0.24306457,-0.9664549,-0.032741975,0.9699403,0.24113017,0.99601376,0.011636373,0.08843717,9.94577,0.021530151,0.6628113,9.770625,0.12079741,0.8310739,-0.08267212,-0.0024719238,-0.008377075,-36.839294,26.45874,6.3598633,1,0.0,0.0,0.0,0.0
1.851074218,0.07562134,0.33135033,-0.94047236,-0.039465506,0.94342864,0.32921857,0.99635535,0.01222027,0.08442026,0.0828373,0.24485986,-0.9660133,-0.032890715,0.9694885,0.24292032,0.99602014,0.011650003,0.088363424,9.94577,0.021530151,0.6628113,9.770908,0.119839914,0.8278799,-0.08451843,0.0065307617,-0.012359619,-36.839294,26.45874,6.3598633,1,0.0,0.0,0.0,0.0
1.859375,0.07606285,0.31902364,-0.9446896,-0.038317874,0.9476697,0.3169448,0.9963665,0.012090769,0.08430677,0.0825623,0.24832761,-0.9651512,-0.033170138,0.96860576,0.24637896,0.9960337,0.011672586,0.08820738,9.961319,0.0011901855,0.72143555,9.771018,0.11856994,0.82676697,-0.08406067,0.027908325,-0.016326904,-37.1994,26.278687,5.8792114,1,0.0,0.0,0.0,0.0
1.867675781,0.07610672,0.31908065,-0.9446668,-0.0382286,0.94765186,0.31700903,0.9963666,0.0119867725,0.084320664,0.08243576,0.24975607,-0.9647933,-0.033280574,0.9682383,0.24780424,0.99604046,0.01168095,0.08812948,9.961319,0.0011901855,0.72143555,9.771019,0.11755009,0.8269033,-0.06939697,0.03263855,-0.0146484375,-37.1994,26.278687,5.8792114,1,0.0,0.0,0.0,0.0
1.875976562,0.076432034,0.31609917,-0.9456424,-0.037993878,0.94865125,0.31403404,0.99635065,0.01192636,0.08451717,0.082191184,0.2525286,-0.96409225,-0.03349035,0.96751875,0.25057098,0.9960537,0.011693061,0.08797879,9.950546,0.0143585205,0.7908325,9.770863,0.11695764,0.82883036,-0.05290222,0.032333374,-0.019989014,-37.678528,25.79956,5.5786133,1,0.0,0.0,0.0,0.0
1.884277343,0.07676924,0.31655294,-0.94546324,-0.038090453,0.9485006,0.31447703,0.996321,0.01187096,0.084873304,0.081968054,0.25506902,-0.9634423,-0.0336802,0.966852,0.25310627,0.9960657,0.011702299,0.08784176,9.951752,-0.0023956299,0.9056854,9.770572,0.11641435,0.83232284,-0.052597046,0.030349731,-0.021057129,-37.678528,25.79956,5.5786133,1,0.0,0.0,0.0,0.0
1.892578125,0.07770611,0.30078882,-0.9505198,-0.036879405,0.95361733,0.2987541,0.99629396,0.011839587,0.0851948,0.08186649,0.25630987,-0.96312153,-0.033773474,0.96652377,0.2543445,0.9960709,0.011705673,0.08778238,9.951752,-0.0023956299,0.9056854,9.770307,0.11610669,0.83547556,-0.04801941,0.021957397,-0.023040771,-37.799072,25.498962,4.978943,1,0.0,0.0,0.0,0.0
1.900878906,0.07796248,0.30114287,-0.9503867,-0.03690857,0.9535065,0.29910374,0.99627286,0.011758544,0.08545249,0.081704,0.25808227,-0.962662,-0.03390234,0.96605194,0.25611374,0.9960798,0.011710977,0.0876799,10.003189,-0.03111267,0.9176483,9.7701,0.11531193,0.8380027,-0.0385437,0.007904053,-0.01373291,-37.799072,25.498962,4.978943,1,0.0,0.0,0.0,0.0
1.909179687,0.07833654,0.29072404,-0.95359474,-0.036082212,0.95673424,0.2887171,0.99627376,0.0117907105,0.085437216,0.08155782,0.25979793,-0.9622127,-0.034026366,0.96559197,0.2578262,0.99608755,0.011712859,0.08759155,9.9673,0.07298279,0.8003998,9.770108,0.11562738,0.8378529,-0.043273926,-0.011184692,-0.012817383,-38.519287,25.138855,4.499817,1,0.0,0.0,0.0,0.0
1.917480468,0.07821637,0.29055107,-0.9536573,-0.03603644,0.95678675,0.2885489,0.99628484,0.011797168,0.0853068,0.08149387,0.26041916,-0.96205014,-0.03406915,0.9654246,0.25844666,0.99609137,0.011714417,0.08754845,9.9673,0.07298279,0.8003998,9.770217,0.1156907,0.83657396,-0.05015564,-0.016067505,-0.009292603,-38.519287,25.138855,4.499817,1,0.0,0.0,0.0,0.0
1.92578125,0.07843599,0.2790614,-0.95706457,-0.035058238,0.96020055,0.27710262,0.99630255,0.011818176,0.08509768,0.08136502,0.26161742,-0.961736,-0.03415032,0.9651005,0.2596435,0.9960991,0.011717694,0.08745974,9.957733,0.098098755,0.7645111,9.7703905,0.11589672,0.83452314,-0.06542969,-0.005844116,-0.010986328,-38.819885,24.899292,4.0786743,1,0.0,0.0,0.0,0.0
1.934082031,0.07824038,0.2787728,-0.95716465,-0.034940198,0.9602847,0.27682546,0.996322,0.0117845945,0.084873416,0.081249356,0.26230982,-0.9615571,-0.034188125,0.9649125,0.26033637,0.9961072,0.011721673,0.0873664,9.96611,0.056228638,0.7034912,9.770581,0.1155674,0.8323239,-0.07397461,0.014312744,-0.016174316,-38.819885,24.899292,4.0786743,1,0.0,0.0,0.0,0.0
1.942382812,0.07876989,0.2610129,-0.9621162,-0.033454873,0.9652635,0.25912774,0.99633133,0.011776013,0.08476585,0.08118919,0.26263988,-0.9614721,-0.034204077,0.96482265,0.26066688,0.99611163,0.011722932,0.087316535,9.96611,0.056228638,0.7034912,9.770673,0.11548325,0.8312691,-0.07763672,0.024246216,-0.018463135,-38.819885,24.539185,3.479004,1,0.0,0.0,0.0,0.0
1.950683593,0.078855194,0.2611419,-0.96207416,-0.03346568,0.96522886,0.25925523,0.9963242,0.011752847,0.084852606,0.081093505,0.26257548,-0.9614977,-0.03417427,0.9648402,0.260606,0.99612045,0.011725035,0.087215595,9.949356,0.022735596,0.72262573,9.770602,0.11525605,0.83211976,-0.081451416,0.05126953,-0.023651123,-38.819885,24.539185,3.479004,1,0.0,0.0,0.0,0.0
1.958984375,0.08000614,0.23643968,-0.96834666,-0.03153558,0.9715748,0.23462237,0.99629533,0.011766142,0.08518822,0.0810049,0.26251876,-0.96152073,-0.034146085,0.9648557,0.26055256,0.9961286,0.011726134,0.08712202,9.948166,0.026321411,0.8063812,9.77032,0.11538644,0.8354111,-0.075653076,0.05126953,-0.031295776,-39.179993,23.81897,2.5787354,1,0.0,0.0,0.0,0.0
1.967285156,0.08032474,0.23694746,-0.96819615,-0.03170907,0.97145057,0.23511322,0.9962642,0.011815191,0.08554491,0.0809857,0.26199895,-0.96166414,-0.03409311,0.9649969,0.2600358,0.99613196,0.011726935,0.08708331,9.948166,0.026321411,0.8063812,9.770015,0.11586745,0.838909,-0.07443237,0.046081543,-0.031448364,-39.179993,23.81897,2.5787354,1,0.0,0.0,0.0,0.0
1.975585937,0.08155074,0.21443072,-0.9733288,-0.029951567,0.97666776,0.2126568,0.996219,0.011810403,0.08607051,0.08096085,0.26101017,-0.96193504,-0.03399764,0.9652648,0.25905225,0.99613726,0.011730431,0.087022394,10.009171,-0.033493042,0.99780273,9.769571,0.1158205,0.8440634,-0.073516846,0.013092041,-0.03327942,-39.89868,22.799683,1.6799927,1,0.0,0.0,0.0,0.0
1.983886718,0.08189085,0.21501432,-0.9731716,-0.03006041,0.9765398,0.21322896,0.99618787,0.011792432,0.08643308,0.08098786,0.2591763,-0.96242857,-0.033837073,0.96575874,0.25722578,0.99614054,0.011733597,0.0869845,9.992432,-0.049057007,0.99780273,9.769266,0.115644254,0.847619,-0.061141968,-0.00340271,-0.026855469,-39.89868,22.799683,1.6799927,1,0.0,0.0,0.0,0.0
1.9921875,0.08177694,0.22510558,-0.9708964,-0.030917265,0.9742633,0.2232821,0.99617094,0.011758137,0.08663193,0.08100774,0.258298,-0.9626629,-0.033761732,0.965994,0.25635076,0.9961415,0.011734773,0.08697358,9.992432,-0.049057007,0.99780273,9.7691,0.115307935,0.8495691,-0.05961609,-0.017745972,-0.026855469,-40.19928,22.619629,1.8585205,1,0.0,0.0,0.0,0.0
2.000488281,0.0817017,0.2249749,-0.9709332,-0.030827444,0.9742944,0.22315967,0.99618,0.011698862,0.08653691,0.08104008,0.25698906,-0.9630105,-0.03364938,0.9663431,0.2550467,0.9961427,0.011735699,0.08696004,9.997208,-0.051452637,0.89730835,9.769189,0.11472664,0.84863716,-0.05458069,-0.02722168,-0.025177002,-40.19928,22.619629,1.8585205,1,0.0,0.0,0.0,0.0
2.008789062,0.08122993,0.2314325,-0.9694539,-0.031210968,0.97278184,0.22961183,0.99620664,0.011606238,0.086242236,0.08106814,0.25572637,-0.96334416,-0.033537805,0.96667796,0.25378904,0.9961441,0.011734241,0.0869433,9.955338,-0.0047912598,0.7130585,9.76945,0.11381832,0.8457474,-0.06878662,-0.018966675,-0.02885437,-40.67993,22.31903,1.9195557,1,0.0,0.0,0.0,0.0
2.017089843,0.08089252,0.23083223,-0.96962506,-0.0310852,0.9729242,0.2290243,0.996238,0.0116146365,0.08587777,0.08107204,0.255242,-0.9634723,-0.033491153,0.966806,0.25330704,0.99614537,0.0117316805,0.086929284,9.955338,-0.0047912598,0.7130585,9.769757,0.11390068,0.8421732,-0.07092285,-0.014083862,-0.026397705,-40.67993,22.31903,1.9195557,1,0.0,0.0,0.0,0.0
2.025390625,0.08043908,0.23385073,-0.9689393,-0.03138315,0.9722016,0.23203272,0.99626535,0.011743866,0.08554198,0.08106623,0.2542783,-0.96372753,-0.033395313,0.96705997,0.25234845,0.99614906,0.011727046,0.08688761,9.969696,0.07298279,0.68673706,9.770025,0.115167975,0.8388802,-0.07321167,5.79834E-4,-0.03404236,-40.67993,22.439575,2.0385742,1,0.0,0.0,0.0,0.0
2.033691406,0.08015761,0.23335347,-0.9690825,-0.031431027,0.97231907,0.23153302,0.9962865,0.011900125,0.08527332,0.081042185,0.25347143,-0.9639421,-0.033314817,0.9672718,0.25154608,0.9961537,0.011727712,0.08683417,9.952942,0.08973694,0.6652069,9.770233,0.116700366,0.8362456,-0.06863403,0.017227173,-0.036026,-40.67993,22.439575,2.0385742,1,0.0,0.0,0.0,0.0
2.041992187,0.08017231,0.22705437,-0.97057647,-0.031075466,0.97380686,0.22524317,0.9962965,0.012102852,0.085128166,0.081024915,0.25307012,-0.96404904,-0.03327664,0.9673769,0.2511469,0.99615645,0.011731161,0.086802945,9.952942,0.08973694,0.6652069,9.770331,0.118688434,0.8348222,-0.07519531,0.032333374,-0.03816223,-40.438843,22.738647,1.979065,1,0.0,0.0,0.0,0.0
2.050292968,0.080204315,0.22710994,-0.97056085,-0.031266347,0.9737917,0.22528219,0.99628794,0.012277287,0.0852032,0.08099233,0.25204322,-0.9643208,-0.03318818,0.9676447,0.25012454,0.99616206,0.01174588,0.08673666,9.972092,0.059814453,0.73579407,9.770247,0.120399065,0.835558,-0.073516846,0.043792725,-0.03892517,-40.438843,22.738647,1.979065,1,0.0,0.0,0.0,0.0
2.05859375,0.08047602,0.22608963,-0.9707765,-0.031490162,0.9740259,0.22423592,0.996259,0.012524299,0.08550534,0.08096202,0.25105894,-0.96458,-0.033110913,0.9679002,0.249144,0.996167,0.011766924,0.08667595,10.013962,0.088531494,0.8829498,9.769963,0.12282142,0.83852094,-0.062210083,0.037231445,-0.024414063,-40.559387,22.679138,1.9195557,1,0.0,0.0,0.0,0.0
2.066894531,0.08078834,0.22663522,-0.9706234,-0.031761013,0.9738973,0.22475608,0.9962251,0.01267031,0.08587771,0.0809526,0.25056112,-0.9647102,-0.033078045,0.968029,0.24864742,0.99616885,0.011782072,0.08665254,10.013962,0.088531494,0.8829498,9.769631,0.1242533,0.8421727,-0.07183838,0.033554077,-0.02532959,-40.559387,22.679138,1.9195557,1,0.0,0.0,0.0,0.0
2.075195312,0.08074773,0.23723395,-0.9680908,-0.03281074,0.9713687,0.23530048,0.9961944,0.012763793,0.08621965,0.08094641,0.24961649,-0.96495557,-0.033025365,0.9682727,0.24770416,0.9961712,0.011817247,0.08662187,9.98764,0.08135986,0.9104614,9.76933,0.12517005,0.845526,-0.07305908,0.014923096,-0.021972656,-40.919495,22.738647,2.1591187,1,0.0,0.0,0.0,0.0
2.083496093,0.08106453,0.23778862,-0.9679283,-0.03294033,0.971233,0.2358417,0.9961643,0.012765482,0.086565375,0.08093849,0.24912688,-0.96508276,-0.03301669,0.9683983,0.24721375,0.9961721,0.011854731,0.08660604,9.996017,0.029907227,0.9870453,9.769035,0.12518662,0.84891635,-0.07244873,-0.006454468,-0.015563965,-40.919495,22.738647,2.1591187,1,0.0,0.0,0.0,0.0
2.091796875,0.080609925,0.25673085,-0.9631154,-0.034540586,0.96639895,0.2547152,0.99614704,0.012733998,0.086768985,0.08094088,0.24890044,-0.96514094,-0.033015136,0.96845627,0.24698664,0.9961719,0.011872945,0.086605184,9.996017,0.029907227,0.9870453,9.768866,0.12487786,0.8509131,-0.055648804,-0.013626099,-0.01586914,-40.79895,23.15979,2.758789,1,0.0,0.0,0.0,0.0
2.100097656,0.08059123,0.25669912,-0.96312547,-0.0344773,0.96640813,0.2546891,0.99615073,0.012680258,0.08673431,0.08092804,0.24921088,-0.96506196,-0.03307558,0.9683761,0.24729304,0.996171,0.011907045,0.08661157,9.994827,0.027511597,0.89730835,9.768903,0.12435086,0.8505731,-0.059310913,-0.01499939,-0.010818481,-40.79895,23.15979,2.758789,1,0.0,0.0,0.0,0.0
2.108398437,0.08024763,0.26050484,-0.9621318,-0.034670874,0.9653902,0.25849533,0.99617183,0.01261431,0.08650221,0.080914885,0.24950767,-0.9649864,-0.03313111,0.96829927,0.24758618,0.9961702,0.011937665,0.086616285,9.952942,0.0143585205,0.7405853,9.769109,0.12370412,0.8482969,-0.06022644,-0.013320923,-0.014190674,-40.319824,23.939514,3.1188965,1,0.0,0.0,0.0,0.0
2.116699218,0.08001766,0.26013312,-0.9622515,-0.03448122,0.9654915,0.25814164,0.9961968,0.0125237135,0.086226076,0.08090179,0.24972792,-0.9649305,-0.033162013,0.9682423,0.24780464,0.9961703,0.011951198,0.08661401,9.952942,0.0143585205,0.7405853,9.769354,0.122815676,0.845589,-0.055496216,-0.0070648193,-0.012512207,-40.319824,23.939514,3.1188965,1,0.0,0.0,0.0,0.0
2.125,0.080113456,0.2532743,-0.9640715,-0.033762783,0.9673147,0.2513207,0.99621373,0.012415571,0.08604618,0.08086716,0.25014052,-0.9648265,-0.033214543,0.9681355,0.24821453,0.99617136,0.011973868,0.08659867,9.938583,-0.0035858154,0.77049255,9.76952,0.12175517,0.8438248,-0.07489014,0.007293701,-0.019226074,-39.959717,24.058533,2.999878,1,0.0,0.0,0.0,0.0
2.133300781,0.08004651,0.2531673,-0.96410525,-0.03367529,0.9673436,0.25122175,0.99622214,0.012357096,0.08595797,0.08083725,0.25026467,-0.96479684,-0.03323631,0.9681032,0.24833758,0.9961731,0.011991359,0.086576685,9.979263,0.021530151,0.7776642,9.769602,0.12118172,0.8429597,-0.06022644,0.010955811,-0.026397705,-39.959717,24.058533,2.999878,1,0.0,0.0,0.0,0.0
2.141601562,0.08007843,0.25141805,-0.9645602,-0.033512123,0.96779984,0.24948028,0.99622506,0.0123464735,0.085925445,0.08082148,0.25032276,-0.96478313,-0.03324514,0.96808803,0.2483953,0.99617404,0.011998675,0.086564325,9.979263,0.021530151,0.7776642,9.76963,0.121077545,0.84264076,-0.061447144,0.008514404,-0.02960205,-39.779663,24.179077,2.999878,1,0.0,0.0,0.0,0.0
2.149902343,0.080057465,0.25138482,-0.96457064,-0.03354151,0.96780795,0.24944466,0.9962257,0.012383251,0.08591207,0.080791935,0.25036615,-0.9647743,-0.03325571,0.9680767,0.24843825,0.99617606,0.012012447,0.086538896,9.964905,0.032302856,0.78125,9.769638,0.12143822,0.8425097,-0.057785034,0.021957397,-0.021209717,-39.779663,24.179077,2.999878,1,0.0,0.0,0.0,0.0
2.158203125,0.080423936,0.24247351,-0.96681887,-0.032874327,0.9700784,0.24055636,0.9962185,0.012437032,0.085988656,0.08076297,0.25040647,-0.9647663,-0.033267085,0.96806616,0.24847808,0.9961781,0.012027131,0.08651418,9.980469,0.052642822,0.8111725,9.769567,0.12196562,0.8432607,-0.05381775,0.02470398,-0.025787354,-40.078735,23.81897,2.6397705,1,0.0,0.0,0.0,0.0
2.166503906,0.08052608,0.24263982,-0.9667686,-0.032969393,0.97003615,0.24071375,0.9962071,0.012490037,0.08611289,0.08075625,0.25024796,-0.964808,-0.03325916,0.968107,0.24831977,0.99617887,0.012035329,0.08650372,9.980469,0.052642822,0.8111725,9.769454,0.122485414,0.8444789,-0.054275513,0.015686035,-0.020904541,-40.078735,23.81897,2.6397705,1,0.0,0.0,0.0,0.0
2.174804687,0.08113885,0.2272848,-0.97044224,-0.031704023,0.97374845,0.22540836,0.9961985,0.012477547,0.08621468,0.080751725,0.25009593,-0.96484774,-0.03325333,0.96814615,0.24816781,0.9961794,0.012044422,0.086495996,9.954147,0.008377075,0.8075714,9.769369,0.12236293,0.8454771,-0.059310913,0.020126343,-0.022125244,-40.019226,23.75946,2.218628,1,0.0,0.0,0.0,0.0
2.183105468,0.081254564,0.22747466,-0.9703881,-0.031698234,0.97370464,0.22559789,0.9961891,0.012428729,0.0863285,0.08076767,0.24919517,-0.9650795,-0.033192005,0.9683782,0.2472691,0.9961802,0.0120615745,0.08648494,9.964905,0.0023956299,0.85783386,9.769279,0.1218842,0.8465934,-0.06970215,0.008514404,-0.018310547,-40.019226,23.75946,2.218628,1,0.0,0.0,0.0,0.0
2.19140625,0.081610315,0.22106686,-0.971838,-0.03119717,0.97517943,0.21920715,0.99617594,0.0124290325,0.08648136,0.08078746,0.24833731,-0.96529895,-0.03313296,0.96859837,0.24641319,0.99618053,0.012076115,0.08647875,9.957733,0.021530151,0.9296112,9.769149,0.12188717,0.8480925,-0.055496216,-0.0067596436,-0.02609253,-40.19928,23.278809,1.9195557,1,0.0,0.0,0.0,0.0
2.199707031,0.08163612,0.22111042,-0.97182596,-0.031284697,0.9751686,0.21924293,0.99617106,0.012505137,0.08652636,0.08080441,0.24779375,-0.9654372,-0.033094466,0.9687374,0.2458709,0.9961804,0.012083173,0.08647885,9.981659,0.055038452,0.92362976,9.769101,0.12263351,0.8485337,-0.05366516,-0.019729614,-0.024108887,-40.19928,23.278809,1.9195557,1,0.0,0.0,0.0,0.0
2.208007812,0.08156684,0.22099346,-0.9718584,-0.031322528,0.9751943,0.21912315,0.9961755,0.012567878,0.08646559,0.08083807,0.2467405,-0.965704,-0.03302321,0.96900606,0.24481982,0.99618006,0.012099884,0.08648074,9.981659,0.055038452,0.92362976,9.769145,0.12324878,0.8479378,-0.059921265,-0.025543213,-0.024108887,-40.19928,23.278809,1.9195557,1,0.0,0.0,0.0,0.0
2.216308593,0.081506364,0.21641254,-0.9728938,-0.03092448,0.97622067,0.21456182,0.99619293,0.0125980815,0.08626065,0.08086743,0.24572408,-0.96596074,-0.032956135,0.9692641,0.24380541,0.9961799,0.012118417,0.08648001,9.976868,0.04547119,0.8542328,9.769316,0.123544976,0.845928,-0.064193726,-0.019897461,-0.022277832,-40.019226,23.15979,1.7990112,1,0.0,0.0,0.0,0.0
2.224609375,0.081770055,0.20162313,-0.9760439,-0.029668521,0.97938186,0.19982712,0.99620956,0.012617908,0.08606597,0.080880776,0.24513996,-0.966108,-0.032915622,0.96941185,0.24322262,0.9961802,0.012128011,0.086475715,9.949356,0.08375549,0.7238312,9.769479,0.123739414,0.8440189,-0.06939697,-0.021255493,-0.022277832,-40.019226,22.619629,1.3198853,1,0.0,0.0,0.0,0.0
2.232910156,0.08146725,0.20109524,-0.97617817,-0.02963043,0.97948956,0.19930458,0.9962355,0.012687782,0.08575486,0.080918476,0.2434254,-0.96653825,-0.032787386,0.9698435,0.2415129,0.9961813,0.01214741,0.08645955,9.9673,0.0993042,0.7262268,9.769733,0.124424644,0.84096795,-0.084365845,-0.007369995,-0.023040771,-40.019226,22.619629,1.3198853,1,0.0,0.0,0.0,0.0
2.241210937,0.081741564,0.18400893,-0.97951984,-0.028231882,0.98284185,0.18227701,0.9962536,0.012754079,0.08553395,0.080942385,0.24175733,-0.9669549,-0.03266214,0.97026044,0.23984969,0.9961835,0.012168809,0.0864315,9.98764,0.0765686,0.7429657,9.769911,0.12507479,0.8388015,-0.07122803,-0.0043182373,-0.021972656,-40.319824,22.37854,0.8392334,1,0.0,0.0,0.0,0.0
2.249511718,0.08162902,0.18380794,-0.97956693,-0.028204147,0.9828793,0.18207917,0.9962636,0.012764904,0.085415624,0.08096073,0.24060996,-0.9672395,-0.03257344,0.9705455,0.23870586,0.9961849,0.012180515,0.086413555,9.936203,0.032302856,0.78723145,9.770009,0.12518094,0.8376412,-0.0765686,-0.0030975342,-0.023803711,-40.319824,22.37854,0.8392334,1,0.0,0.0,0.0,0.0
2.2578125,0.081602626,0.18376076,-0.9795779,-0.028112093,0.9828891,0.18204007,0.9962684,0.01268304,0.08537224,0.08099159,0.2383748,-0.9677902,-0.03239996,0.9710966,0.23647773,0.9961881,0.012203655,0.08637399,9.957733,-0.04067993,0.7896271,9.770056,0.12437814,0.8372157,-0.06832886,0.019515991,-0.0289917,-40.319824,22.37854,0.8392334,1,0.0,0.0,0.0,0.0
2.266113281,0.08177417,0.18068562,-0.9801355,-0.02781763,0.9834598,0.17897756,0.99626255,0.012629306,0.085447855,0.081020065,0.2362251,-0.9683147,-0.032229688,0.97162145,0.2343351,0.99619126,0.012222637,0.0863343,9.957733,-0.04067993,0.7896271,9.769999,0.12385119,0.8379572,-0.075653076,0.03111267,-0.0289917,-40.618896,21.958923,0.6591797,1,0.0,0.0,0.0,0.0
2.274414062,0.082324095,0.16948415,-0.9820885,-0.026903426,0.98545223,0.16780947,0.9962424,0.012606785,0.08568617,0.081037514,0.2351212,-0.9685819,-0.032141365,0.9718891,0.23323487,0.9961927,0.012230772,0.08631659,9.969696,-0.021530151,0.8566284,9.7698,0.123630315,0.84029424,-0.06375122,0.030654907,-0.025939941,-40.559387,21.77887,0.35858154,1,0.0,0.0,0.0,0.0
2.282714843,0.082534924,0.1698754,-0.9820033,-0.02698366,0.9853848,0.16819246,0.9962228,0.01261629,0.08591251,0.08109485,0.23254013,-0.9692,-0.031934764,0.9725097,0.23066217,0.99619466,0.012245662,0.08629164,9.990036,0.008377075,0.86021423,9.7696085,0.123723544,0.842514,-0.061904907,0.020431519,-0.025939941,-40.559387,21.77887,0.35858154,1,0.0,0.0,0.0,0.0
2.291015625,0.08290041,0.16130981,-0.9834157,-0.026382387,0.98682195,0.15964453,0.9962086,0.0127102565,0.086063705,0.08115746,0.23007502,-0.96978295,-0.031739946,0.97309566,0.22820474,0.9961958,0.012260339,0.08627655,9.988831,0.06939697,0.85783386,9.769469,0.12464504,0.84399664,-0.061294556,-3.3569336E-4,-0.02670288,-40.499878,21.539307,0.119018555,1,0.0,0.0,0.0,0.0
2.299316406,0.082870975,0.16125453,-0.98342735,-0.026460122,0.9868299,0.15958272,0.99620897,0.012796831,0.086046375,0.081195824,0.22870967,-0.9701026,-0.031633846,0.97341734,0.22684346,0.99619603,0.012269338,0.08627238,9.9756775,0.058624268,0.80158997,9.769473,0.12549405,0.8438267,-0.05229187,-1.8310547E-4,-0.029907227,-40.499878,21.539307,0.119018555,1,0.0,0.0,0.0,0.0
2.307617187,0.08285071,0.16121644,-0.9834352,-0.026535306,0.98683494,0.15953827,0.9962086,0.012877901,0.08603791,0.0812683,0.22605689,-0.97071815,-0.031430796,0.9740366,0.22419828,0.99619657,0.012290227,0.086263455,9.98645,0.04547119,0.85783386,9.769469,0.12628907,0.8437437,-0.051071167,-0.0030975342,-0.029464722,-40.499878,21.539307,0.119018555,1,0.0,0.0,0.0,0.0
2.315917968,0.082806595,0.16181773,-0.9833403,-0.026660658,0.9867357,0.1601314,0.99620897,0.012956565,0.086022384,0.08130276,0.2247688,-0.9710144,-0.031333715,0.9743345,0.22291379,0.9961968,0.0123019805,0.086258925,9.98645,0.04547119,0.85783386,9.769473,0.1270605,0.84359145,-0.051071167,-3.3569336E-4,-0.025787354,-40.919495,20.939636,0.0,1,0.0,0.0,0.0,0.0
2.32421875,0.08288446,0.15783878,-0.98398024,-0.026364362,0.9873794,0.15616325,0.99621034,0.012998505,0.08599971,0.08136736,0.22229184,-0.97157896,-0.031150121,0.9749022,0.22044344,0.9961973,0.012327903,0.086249635,9.973282,0.06341553,0.80158997,9.769486,0.12747179,0.8433691,-0.054275513,-0.007369995,-0.021820068,-41.038513,21.1792,-0.059509277,1,0.0,0.0,0.0,0.0
2.332519531,0.082688935,0.15745969,-0.9840575,-0.02635014,0.9874393,0.15578665,0.99622697,0.013048217,0.08579938,0.081432655,0.21975589,-0.9721502,-0.030962083,0.9754767,0.21791427,0.9961978,0.012354459,0.086239755,9.9673,0.06700134,0.73579407,9.7696495,0.1279593,0.84140456,-0.064193726,2.746582E-4,-0.023956299,-41.038513,21.1792,-0.059509277,1,0.0,0.0,0.0,0.0
2.340820312,0.08253395,0.15715921,-0.98411846,-0.026353259,0.98748636,0.1554869,0.9962397,0.01310178,0.0856428,0.081460275,0.2185178,-0.972427,-0.030870296,0.9757546,0.21667956,0.9961984,0.0123683335,0.08623095,9.963715,0.08973694,0.7537384,9.769774,0.12848458,0.83986896,-0.061447144,0.008666992,-0.02243042,-41.038513,21.1792,-0.059509277,1,0.0,0.0,0.0,0.0
2.349121093,0.08263354,0.15251136,-0.9848411,-0.02596774,0.98821485,0.15085497,0.9962417,0.0131084155,0.08562006,0.08150743,0.21610263,-0.97296256,-0.030691883,0.97629195,0.21427096,0.9962001,0.012397378,0.08620764,9.98764,0.044265747,0.7920227,9.7697935,0.12854965,0.839646,-0.07611084,0.010040283,-0.02243042,-41.279602,20.819092,-0.23956299,1,0.0,0.0,0.0,0.0
2.357421875,0.082629934,0.1525042,-0.98484254,-0.025975017,0.98821586,0.15084723,0.99624175,0.013116805,0.085617505,0.08155708,0.21359988,-0.9735109,-0.030505357,0.9768422,0.21177517,0.99620175,0.012425535,0.08618434,9.956528,0.047851563,0.7908325,9.769794,0.12863192,0.83962095,-0.0849762,0.0056152344,-0.01953125,-41.279602,20.819092,-0.23956299,1,0.0,0.0,0.0,0.0
2.365722656,0.08280031,0.15054528,-0.98512954,-0.025696248,0.9885178,0.14890331,0.99623483,0.012984893,0.085718036,0.08158086,0.21238527,-0.9737746,-0.030414993,0.97710687,0.21056393,0.9962025,0.012439361,0.086172916,9.9756775,-0.052642822,0.8685913,9.769727,0.1273383,0.8406068,-0.0874176,0.010803223,-0.021972656,-41.519165,20.878601,-0.29907227,1,0.0,0.0,0.0,0.0
2.374023437,0.08270552,0.15862383,-0.98386914,-0.026275259,0.9872553,0.15696102,0.99622756,0.01286987,0.08581932,0.0816342,0.20995077,-0.974298,-0.030228969,0.9776325,0.20813653,0.99620384,0.012460964,0.08615484,9.974487,-0.034698486,0.87457275,9.769655,0.12621032,0.84160006,-0.0861969,0.0042419434,-0.02243042,-41.459656,20.878601,-0.119018555,1,0.0,0.0,0.0,0.0
2.382324218,0.08278407,0.15878,-0.98383725,-0.026190666,0.9872315,0.157124,0.9962233,0.012759988,0.0858856,0.08168006,0.2079282,-0.97472775,-0.030073058,0.97806454,0.20611992,0.9962048,0.012477157,0.08614141,9.974487,-0.034698486,0.87457275,9.769613,0.12513274,0.84225005,-0.080078125,-0.0012512207,-0.021209717,-41.459656,20.878601,-0.119018555,1,0.0,0.0,0.0,0.0
2.390625,0.08280999,0.15883154,-0.98382676,-0.026103532,0.98722446,0.1571829,0.9962234,0.012665038,0.08589811,0.08170394,0.2069499,-0.9749339,-0.029995818,0.9782719,0.20514466,0.99620515,0.012482814,0.0861363,9.991226,-0.025131226,0.8721771,9.769614,0.124201596,0.8423727,-0.080078125,-0.004928589,-0.021362305,-41.459656,20.878601,-0.119018555,1,0.0,0.0,0.0,0.0
2.398925781,0.08281735,0.15766996,-0.98401296,-0.025901966,0.9874119,0.1560346,0.99622804,0.012565497,0.0858588,0.081751265,0.20505309,-0.97533065,-0.0298425,0.97867113,0.20325403,0.99620587,0.01249003,0.0861269,9.972092,0.03111267,0.7920227,9.76966,0.123225436,0.84198725,-0.050460815,-0.0110321045,-0.015106201,-41.279602,20.939636,-0.119018555,1,0.0,0.0,0.0,0.0
2.407226562,0.08257568,0.15719298,-0.98410964,-0.025843766,0.98748773,0.15556404,0.9962496,0.012587289,0.08560492,0.081797116,0.20318505,-0.9757177,-0.02968721,0.97906065,0.20139241,0.99620676,0.012493019,0.08611634,9.955338,0.0657959,0.7286072,9.769872,0.12343914,0.8394975,-0.041900635,-0.0066070557,-0.01739502,-41.279602,20.939636,-0.119018555,1,0.0,0.0,0.0,0.0
2.415527343,0.08245428,0.15421957,-0.9845901,-0.025616322,0.9879558,0.15260153,0.9962656,0.012638926,0.08541173,0.08181446,0.20226923,-0.9759065,-0.029610477,0.9792502,0.2004799,0.9962076,0.012494905,0.08610612,9.958923,0.08494568,0.7513428,9.770028,0.12394553,0.8376029,-0.041900635,-0.0037078857,-0.017547607,-41.519165,21.058655,-0.17852783,1,0.0,0.0,0.0,0.0
2.423828125,0.08177675,0.1746766,-0.98122406,-0.027362421,0.9845439,0.17298716,0.996275,0.012702336,0.08529239,0.081843555,0.20037487,-0.9762948,-0.029452285,0.9796396,0.19859235,0.9962099,0.012500607,0.08607868,9.982849,0.08734131,0.7884369,9.770121,0.12456736,0.83643264,-0.039764404,0.0039367676,-0.022735596,-41.578674,21.479797,0.35858154,1,0.0,0.0,0.0,0.0
2.432128906,0.08174433,0.17461406,-0.9812379,-0.02745805,0.98455364,0.17291665,0.996275,0.012807923,0.08527624,0.08184205,0.1993597,-0.9765028,-0.029369118,0.9798465,0.1975809,0.9962125,0.012508597,0.08604767,9.98645,0.110076904,0.8231354,9.770121,0.12560283,0.83627427,-0.060836792,0.014465332,-0.016784668,-41.578674,21.479797,0.35858154,1,0.0,0.0,0.0,0.0
2.440429687,0.08177813,0.17467926,-0.9812234,-0.027562626,0.9845409,0.1729727,0.9962694,0.012899709,0.08532855,0.08184053,0.19886598,-0.97660357,-0.02933067,0.9799468,0.19708882,0.99621373,0.012514583,0.086032234,9.98645,0.110076904,0.8231354,9.770065,0.12650293,0.8367872,-0.06832886,0.013397217,-0.018310547,-41.578674,21.479797,0.35858154,1,0.0,0.0,0.0,0.0
2.448730468,0.08183325,0.17516528,-0.9811322,-0.027721198,0.98445314,0.17344604,0.9962604,0.013004507,0.0854168,0.081838824,0.19791037,-0.9767978,-0.029260283,0.98014003,0.19613604,0.996216,0.012529835,0.08600443,9.98645,0.110076904,0.8231354,9.769978,0.12753065,0.8376527,-0.06817627,0.0040893555,-0.019226074,-41.459656,21.71936,0.4196167,1,0.0,0.0,0.0,0.0
2.45703125,0.08187695,0.17524834,-0.9811137,-0.02773388,0.9844383,0.1735277,0.9962565,0.013002171,0.08546313,0.08183922,0.19701159,-0.97697943,-0.029199056,0.9803209,0.19523947,0.9962177,0.012548631,0.08598124,10.004395,0.058624268,0.8650055,9.769938,0.12750775,0.838107,-0.07626343,-0.016220093,-0.020141602,-41.459656,21.71936,0.4196167,1,0.0,0.0,0.0,0.0
2.465332031,0.08145145,0.18733345,-0.9789136,-0.02868784,0.9822108,0.18557742,0.99626434,0.012967366,0.08537669,0.08184013,0.19657722,-0.9770668,-0.029169612,0.98040795,0.19480614,0.9962185,0.012557702,0.08597078,9.984055,0.0382843,0.8566284,9.770016,0.12716642,0.8372593,-0.077941895,-0.02279663,-0.019073486,-41.038513,21.598816,0.71868896,1,0.0,0.0,0.0,0.0
2.473632812,0.081205145,0.1876819,-0.97886735,-0.02859388,0.9821453,0.18593828,0.99628717,0.01289047,0.085121796,0.08182476,0.19621149,-0.9771416,-0.029150344,0.980481,0.194441,0.99622035,0.012573926,0.08594725,9.979263,-0.0011901855,0.78245544,9.77024,0.12641233,0.83475965,-0.07458496,-0.016067505,-0.019226074,-40.79895,21.71936,0.7797241,1,0.0,0.0,0.0,0.0
2.481933593,0.08099778,0.18729566,-0.9789584,-0.028439697,0.98222,0.1855666,0.99630845,0.0128107965,0.084884286,0.0818124,0.19604103,-0.9771769,-0.029139087,0.980515,0.1942711,0.99622166,0.012580257,0.085930735,9.979263,-0.0011901855,0.78245544,9.770449,0.125631,0.8324305,-0.082229614,-0.015457153,-0.018463135,-40.79895,21.71936,0.7797241,1,0.0,0.0,0.0,0.0
2.490234375,0.08077503,0.18688075,-0.9790562,-0.02830489,0.98229975,0.18516465,0.9963303,0.012755396,0.08463494,0.08178024,0.195695,-0.9772489,-0.029111067,0.98058397,0.1939267,0.9962251,0.012589386,0.08588928,9.956528,0.009567261,0.74894714,9.770663,0.12508771,0.8299852,-0.07107544,-0.007217407,-0.021514893,-40.79895,21.71936,0.7797241,1,0.0,0.0,0.0,0.0
2.498535156,0.080781855,0.18011364,-0.9803231,-0.027662724,0.9835637,0.17842954,0.99634784,0.012704536,0.08443654,0.0817406,0.19534627,-0.977322,-0.029078761,0.98065346,0.19358008,0.99622935,0.012595959,0.08583964,9.957733,0.011962891,0.73579407,9.770835,0.124588944,0.82803965,-0.06236267,0.004699707,-0.012969971,-40.559387,21.77887,0.6591797,1,0.0,0.0,0.0,0.0
2.506835937,0.08069207,0.17994757,-0.9803609,-0.027554914,0.98359513,0.17827322,0.99635816,0.012628531,0.08432677,0.08172159,0.19504207,-0.9773844,-0.029050067,0.980714,0.19327755,0.9962318,0.012598131,0.08581149,9.957733,0.011962891,0.73579407,9.770936,0.12384359,0.8269631,-0.05809021,0.010040283,-0.01373291,-40.559387,21.77887,0.6591797,1,0.0,0.0,0.0,0.0
2.515136718,0.08065213,0.18310355,-0.9797798,-0.027754674,0.98301345,0.18142319,0.99635583,0.012561301,0.084364094,0.08168133,0.19444516,-0.97750664,-0.02899013,0.9808324,0.1926843,0.9962368,0.012599335,0.085752696,9.973282,0.022735596,0.8195343,9.770913,0.123184286,0.82732916,-0.05580139,0.00592041,-0.018005371,-40.618896,21.418762,0.6591797,1,0.0,0.0,0.0,0.0
2.5234375,0.081094764,0.16680261,-0.98264974,-0.026413675,0.9859103,0.16517626,0.9963563,0.0125604635,0.08435803,0.08166091,0.19421858,-0.9775534,-0.02896515,0.98087734,0.19245934,0.9962392,0.012598574,0.085724905,9.973282,0.022735596,0.8195343,9.770918,0.123176076,0.8272697,-0.046035767,0.0018005371,-0.0119018555,-40.67993,21.539307,0.29907227,1,0.0,0.0,0.0,0.0
2.531738281,0.08107605,0.16676736,-0.9826573,-0.026405722,0.9859163,0.16514179,0.99635804,0.012558731,0.0843378,0.081639975,0.19313566,-0.9777697,-0.028863106,0.9810912,0.19138178,0.9962439,0.012597065,0.08567076,9.973282,0.0657959,0.80158997,9.770935,0.12315908,0.8270713,-0.046188354,0.0095825195,-0.017242432,-40.67993,21.539307,0.29907227,1,0.0,0.0,0.0,0.0
2.540039062,0.08108831,0.16679049,-0.9826523,-0.026456613,0.9859118,0.16516052,0.9963557,0.012605065,0.08435864,0.0816191,0.19209398,-0.9779766,-0.02876486,0.9812957,0.1903453,0.9962484,0.012595548,0.08561803,9.958923,0.09211731,0.80158997,9.770912,0.12361346,0.8272757,-0.043441772,0.014465332,-0.015258789,-40.67993,21.539307,0.29907227,1,0.0,0.0,0.0,0.0
2.548339843,0.0811222,0.16661862,-0.9826787,-0.02645346,0.98594075,0.16498792,0.99635303,0.012611069,0.084389314,0.08159931,0.19109426,-0.9781741,-0.02867259,0.9814909,0.18935035,0.9962527,0.012595926,0.085568145,9.974487,0.061019897,0.75613403,9.770885,0.12367234,0.82757646,-0.04664612,0.03263855,-0.0068511963,-40.73944,21.598816,0.29907227,1,0.0,0.0,0.0,0.0
2.556640625,0.081247404,0.16685407,-0.9826283,-0.026459206,0.9859013,0.1652221,0.9963427,0.012575702,0.08451676,0.08159042,0.19060585,-0.9782701,-0.028627822,0.9815858,0.18886425,0.99625474,0.01259623,0.08554463,9.974487,0.061019897,0.75613403,9.770784,0.12332551,0.8288263,-0.057785034,0.042419434,-0.006088257,-40.73944,21.598816,0.29907227,1,0.0,0.0,0.0,0.0
2.564941406,0.081755586,0.15865803,-0.98394287,-0.025667846,0.98725545,0.15705945,0.9963218,0.012415208,0.08478607,0.0815779,0.18966731,-0.9784536,-0.028541325,0.9817676,0.1879301,0.9962582,0.012595417,0.08550389,9.973282,-0.0023956299,0.8039856,9.77058,0.121751614,0.83146745,-0.070007324,0.03845215,-0.010681152,-40.618896,21.299744,0.059509277,1,0.0,0.0,0.0,0.0
2.573242187,0.08215394,0.15447223,-0.9845756,-0.02522917,0.9879208,0.15289192,0.9963002,0.012279351,0.085058786,0.08158677,0.18844272,-0.9786893,-0.028427234,0.9820035,0.18671104,0.99626076,0.012588281,0.0854754,9.969696,0.017944336,0.82192993,9.770368,0.1204193,0.8341418,-0.0765686,0.035705566,-0.015716553,-40.499878,21.539307,0.0,1,0.0,0.0,0.0,0.0
2.581542968,0.08240697,0.15494798,-0.98447967,-0.025225542,0.9878474,0.1533665,0.9962795,0.012195567,0.08531415,0.08159934,0.18776539,-0.9788185,-0.028363355,0.9821333,0.18603674,0.99626154,0.012582103,0.08546709,9.969696,0.017944336,0.82192993,9.770164,0.11959765,0.83664596,-0.071380615,0.027145386,-0.010375977,-40.499878,21.539307,0.0,1,0.0,0.0,0.0,0.0
2.58984375,0.08267345,0.15544905,-0.9843783,-0.02519717,0.98776996,0.15386845,0.9962581,0.012082715,0.08557923,0.08163358,0.18646954,-0.97906333,-0.02823957,0.98238033,0.1847467,0.99626225,0.0125667965,0.08546105,9.988831,0.0,0.92481995,9.769955,0.11849096,0.8392456,-0.077178955,-0.00340271,-0.014953613,-40.499878,21.539307,0.0,1,0.0,0.0,0.0,0.0
2.598144531,0.08270877,0.15600432,-0.9842875,-0.025208354,0.98768294,0.15442425,0.99625486,0.012040028,0.085622646,0.081676945,0.18524444,-0.9792923,-0.028119862,0.9826124,0.18352716,0.9962621,0.012547625,0.085465826,9.981659,0.037094116,0.89372253,9.769923,0.118072346,0.8396714,-0.057785034,-0.018508911,-0.018310547,-40.73944,21.598816,0.0,1,0.0,0.0,0.0,0.0
2.606445312,0.08264109,0.1558767,-0.98431337,-0.025189685,0.9877031,0.1542986,0.996261,0.012043139,0.08555135,0.08169852,0.18466115,-0.97940063,-0.028061999,0.9827223,0.1829466,0.99626195,0.012537474,0.08546892,9.981659,0.037094116,0.89372253,9.769983,0.11810285,0.8389722,-0.043273926,-0.025543213,-0.02960205,-40.73944,21.598816,0.0,1,0.0,0.0,0.0,0.0
2.614746093,0.08273411,0.14144373,-0.98648304,-0.023964755,0.9898728,0.13991989,0.9962835,0.012064676,0.0852859,0.08173767,0.18352413,-0.97961104,-0.027948875,0.9829354,0.18181491,0.9962619,0.012517897,0.08547215,9.979263,0.017944336,0.79800415,9.770204,0.11831406,0.83636904,-0.051834106,-0.026611328,-0.018920898,-41.09955,21.539307,-0.35858154,1,0.0,0.0,0.0,0.0
2.623046875,0.08247716,0.14095192,-0.9865749,-0.023900736,0.9899427,0.139435,0.9963063,0.012079665,0.08501652,0.08175939,0.18268555,-0.97976595,-0.027869565,0.9830918,0.18098004,0.9962624,0.012508833,0.08546836,9.979263,0.017944336,0.79800415,9.770428,0.11846106,0.8337273,-0.05580139,-0.019592285,-0.022125244,-41.09955,21.539307,-0.35858154,1,0.0,0.0,0.0,0.0
2.631347656,0.082083486,0.14680104,-0.9857544,-0.024337709,0.9890924,0.14527155,0.99632823,0.012066609,0.08476096,0.081791386,0.18103863,-0.9800689,-0.027712692,0.98339665,0.17934056,0.9962641,0.012491837,0.08545044,9.969696,0.013153076,0.7501526,9.770642,0.11833302,0.83122104,-0.064971924,-0.006149292,-0.02243042,-41.39862,21.539307,-0.23956299,1,0.0,0.0,0.0,0.0
2.639648437,0.081901506,0.14645053,-0.9858216,-0.024317604,0.98914385,0.14492378,0.9963437,0.012103344,0.08457371,0.081805535,0.17968671,-0.9803165,-0.027578851,0.9836447,0.17799537,0.99626666,0.012474998,0.08542314,9.970886,0.035888672,0.707077,9.770795,0.11869328,0.8293848,-0.06939697,0.018753052,-0.032058716,-41.39862,21.539307,-0.23956299,1,0.0,0.0,0.0,0.0
2.647949218,0.08210142,0.13456902,-0.9874971,-0.023406666,0.9908292,0.13307704,0.99634904,0.0121882,0.0844983,0.081808604,0.17902388,-0.9804376,-0.02751339,0.9837657,0.17733584,0.9962682,0.012467564,0.08540605,9.970886,0.035888672,0.707077,9.770846,0.11952542,0.8286453,-0.07244873,0.019363403,-0.03816223,-41.459656,21.77887,-0.47912598,1,0.0,0.0,0.0,0.0
2.65625,0.08213119,0.13462591,-0.98748684,-0.023567084,0.9908197,0.13312016,0.9963429,0.012338867,0.08454995,0.08182405,0.17726976,-0.9807549,-0.027350307,0.9840835,0.17558956,0.99627143,0.012456501,0.08537008,9.948166,0.04547119,0.74894714,9.770786,0.12100296,0.82915175,-0.07122803,0.030349731,-0.04335022,-41.459656,21.77887,-0.47912598,1,0.0,0.0,0.0,0.0
2.664550781,0.08217711,0.14425242,-0.9861228,-0.024514398,0.98946255,0.1426981,0.99631613,0.012447689,0.084847435,0.081839584,0.17558682,-0.9810564,-0.027200129,0.9843852,0.17391358,0.9962743,0.012451843,0.08533766,9.988831,0.007171631,0.8446655,9.770524,0.122070126,0.8320691,-0.0741272,0.058303833,-0.0309906,-41.39862,21.539307,-0.29907227,1,0.0,0.0,0.0,0.0
2.672851562,0.08256006,0.1449904,-0.9859826,-0.024706218,0.9893539,0.1434174,0.9962798,0.012519351,0.085263275,0.081847265,0.17496176,-0.9811674,-0.027146384,0.9844965,0.17329092,0.9962751,0.0124517605,0.08532792,9.988831,0.007171631,0.8446655,9.770167,0.1227729,0.8361471,-0.08053589,0.04852295,-0.032058716,-41.39862,21.539307,-0.29907227,1,0.0,0.0,0.0,0.0
2.681152343,0.08250619,0.16310321,-0.9831532,-0.026341733,0.98652893,0.16145264,0.99624234,0.012577115,0.08569115,0.081876926,0.17377777,-0.9813753,-0.027050138,0.98470616,0.17211077,0.9962753,0.012454438,0.08532543,9.990036,0.021530151,0.92123413,9.769801,0.12333938,0.8403432,-0.07336426,0.014312744,-0.029907227,-41.279602,21.598816,0.119018555,1,0.0,0.0,0.0,0.0
2.689453125,0.08265317,0.1633838,-0.9830942,-0.026469313,0.9864814,0.16172133,0.9962268,0.012655047,0.085860476,0.08190207,0.17335543,-0.9814479,-0.027022306,0.98478055,0.17168906,0.996274,0.012459296,0.08534003,10.017548,0.062210083,0.9152527,9.769648,0.12410361,0.84200364,-0.057174683,-0.025390625,-0.014190674,-41.279602,21.598816,0.119018555,1,0.0,0.0,0.0,0.0
2.697753906,0.082960255,0.14934139,-0.9852993,-0.025297493,0.98870444,0.1477275,0.9962317,0.012670089,0.08580115,0.08191705,0.17315616,-0.9814818,-0.027011355,0.98481554,0.17148986,0.99627304,0.012463211,0.08535036,10.017548,0.062210083,0.9152527,9.769696,0.124251135,0.8414219,-0.058547974,-0.032714844,-0.014953613,-41.218567,21.71936,-0.17852783,1,0.0,0.0,0.0,0.0
2.706054687,0.08269526,0.14883767,-0.9853978,-0.0251926,0.9887808,0.14723447,0.9962565,0.01264914,0.085517086,0.081958964,0.1722149,-0.9816439,-0.026944146,0.98498046,0.17055064,0.99627143,0.012471403,0.085368164,9.988831,0.061019897,0.8279114,9.769938,0.12404569,0.83863616,-0.067871094,-0.025238037,-0.009597778,-41.218567,21.71936,-0.17852783,1,0.0,0.0,0.0,0.0
2.714355468,0.08231954,0.14941125,-0.9853425,-0.025159854,0.9886946,0.14781758,0.99628836,0.012622794,0.08514806,0.08198874,0.17129093,-0.98180306,-0.026875159,0.98514146,0.16962907,0.99627084,0.012478441,0.085373975,9.930206,0.07058716,0.7405853,9.770251,0.12378733,0.83501726,-0.070007324,-0.0096588135,-0.015106201,-41.33911,21.598816,-0.17852783,1,0.0,0.0,0.0,0.0
2.72265625,0.08207184,0.14893638,-0.985435,-0.025063667,0.9887664,0.14735246,0.9963112,0.012605127,0.08488277,0.0819957,0.17085412,-0.98187864,-0.026840873,0.9852173,0.16919363,0.9962712,0.012481328,0.08536945,9.930206,0.07058716,0.7405853,9.770475,0.12361407,0.8324157,-0.06970215,-0.0037078857,-0.017242432,-41.33911,21.598816,-0.17852783,1,0.0,0.0,0.0,0.0
2.730957031,0.08218064,0.13814199,-0.986997,-0.024225876,0.9903311,0.13659152,0.99632293,0.01268569,0.08473267,0.08199948,0.16998772,-0.98202866,-0.026770327,0.98536706,0.16833027,0.9962728,0.0124862315,0.085350215,9.970886,0.114852905,0.75971985,9.770591,0.124404125,0.83094364,-0.059005737,0.0027160645,-0.015563965,-41.218567,21.958923,-0.35858154,1,0.0,0.0,0.0,0.0
2.739257812,0.08207754,0.13794787,-0.9870328,-0.024222866,0.9903579,0.13639832,0.9963315,0.012713524,0.08462763,0.08200813,0.16872978,-0.98224485,-0.02666929,0.9855831,0.16707662,0.99627477,0.01249413,0.08532574,9.968506,0.07417297,0.75852966,9.770675,0.12467708,0.82991356,-0.061141968,0.006225586,-0.01953125,-41.218567,21.958923,-0.35858154,1,0.0,0.0,0.0,0.0
2.747558593,0.08173311,0.14918932,-0.985425,-0.02517819,0.98872656,0.14760084,0.99633616,0.012747341,0.084568,0.0820103,0.16811566,-0.98235,-0.026620176,0.9856881,0.16646458,0.99627596,0.012498518,0.085311845,9.968506,0.07417297,0.75852966,9.7707205,0.12500872,0.82932884,-0.064819336,0.0181427,-0.023040771,-40.73944,22.31903,0.0,1,0.0,0.0,0.0,0.0
