Time,Rot1,Rot2,Rot3,Rot4,Rot5,Rot6,Rot7,Rot8,Rot9,FRot1,FRot2,FRot3,FRot4,FRot5,FRot6,FRot7,FRot8,FRot9,AccX,AccY,AccZ,GravX,GravY,GravZ,GyroX,GyroY,GyroZ,MagX,MagY,MagZ,Imid
0.0,0.0,0.0,0.0,0.0,0.0,0.0,0.0,0.0,0.0,1.0,0.0,0.0,0.0,1.0,0.0,0.0,0.0,1.0,9.976868,0.15434265,0.76091003,9.781981,0.2344373,0.65441316,-0.05595398,-0.055923462,-0.021972656,0.0,0.0,0.0,0,0.0,0.0,0.0,0.0
0.008300782,0.054591678,0.33654955,-0.9400821,-0.044833794,0.9413626,0.33440444,0.9975017,0.023891741,0.066479355,1.0,0.0,0.0,0.0,1.0,0.0,0.0,0.0,1.0,9.957733,0.15672302,0.7262268,9.78215,0.23429795,0.65193975,-0.05595398,-0.10189819,-0.019378662,-38.938904,22.738647,5.8792114,0,0.0,0.0,0.0,0.0
0.016601563,0.05409343,0.33577532,-0.9403876,-0.044607,0.9416389,0.3336562,0.99753904,0.023899263,0.0659144,0.99952376,0.0068669855,-0.030082982,-0.0068782535,0.9999763,-2.7109054E-4,0.030080408,4.7787983E-4,0.99954736,9.957733,0.15672302,0.7262268,9.7825165,0.2343717,0.6463995,-0.072143555,-0.11639404,-0.014801025,-38.938904,22.738647,5.8792114,0,0.0,0.0,0.0,0.0
0.024902344,0.05354055,0.33140907,-0.9419667,-0.044036724,0.94318557,0.3293349,0.9975942,0.02384836,0.06509286,0.9958829,0.020157898,-0.08837906,-0.02020323,0.9997958,3.8165832E-4,0.08836871,0.0014054554,0.99608684,9.94577,0.13877869,0.6903229,9.783057,0.23387253,0.6383429,-0.05870056,-0.10144043,-0.0119018555,-39.29901,22.37854,5.6396484,0,0.0,0.0,0.0,0.0
0.033203125,0.052702278,0.33006757,-0.942485,-0.043576993,0.9436577,0.32804152,0.997659,0.023782125,0.06411626,0.9890219,0.03273574,-0.14409715,-0.032724593,0.9994614,0.0024481146,0.14409968,0.0022942815,0.9895605,9.973282,0.16151428,0.5120697,9.783693,0.23322298,0.62876576,-0.050308228,-0.061431885,-0.016784668,-39.29901,22.37854,5.6396484,0,0.0,0.0,0.0,0.0
0.041503907,0.052003138,0.328188,-0.94317997,-0.043178312,0.9443136,0.3262018,0.997713,0.0237614,0.06327786,0.9845109,0.03880643,-0.17097458,-0.03870046,0.999243,0.0039539565,0.1709986,0.0027240817,0.9852675,9.973282,0.16151428,0.5120697,9.784223,0.23301972,0.6205439,-0.0594635,-0.061431885,-0.013580322,-39.29901,22.259521,5.5786133,0,0.0,0.0,0.0,0.0
0.049804688,0.051403113,0.3272211,-0.9435487,-0.042872675,0.9446497,0.3252673,0.99775726,0.023732703,0.06258678,0.97356933,0.050502893,-0.22273783,-0.050024938,0.9987176,0.007791128,0.22284567,0.003557243,0.97484726,9.984055,0.15194702,0.44267273,9.784657,0.23273832,0.6137666,-0.056869507,-0.013931274,-0.016021729,-39.29901,22.259521,5.5786133,0,0.0,0.0,0.0,0.0
0.058105469,0.051148012,0.32487133,-0.9443741,-0.042607054,0.9454606,0.3229375,0.99778175,0.023719385,0.062200252,0.96036786,0.06168911,-0.2718236,-0.06054538,0.9980859,0.012600789,0.27208063,0.004356272,0.9622646,9.98764,0.122039795,0.5048828,9.784897,0.23260772,0.6099761,-0.054275513,0.043945313,-0.020751953,-39.419556,21.899414,5.3985596,0,0.0,0.0,0.0,0.0
0.06640625,0.051197436,0.32495275,-0.9443435,-0.042605165,0.94543344,0.32301795,0.99777937,0.023696216,0.062248427,0.9530277,0.067062624,-0.2953655,-0.06546343,0.99773747,0.015311273,0.29572403,0.004743574,0.9552616,9.98764,0.122039795,0.5048828,9.784873,0.2323805,0.61044854,-0.04786682,0.050811768,-0.021362305,-39.419556,21.899414,5.3985596,0,0.0,0.0,0.0,0.0
0.074707032,0.05155963,0.3261548,-0.94390917,-0.042836286,0.9450187,0.3241983,0.99775076,0.023718022,0.062696084,0.937063,0.07748702,-0.34045368,-0.0747099,0.9969782,0.02128041,0.34107384,0.005494175,0.94002044,9.985245,0.15194702,0.6544342,9.784593,0.23259434,0.61483854,-0.05458069,0.052947998,-0.01586914,-39.59961,21.539307,5.279541,0,0.0,0.0,0.0,0.0
0.083007813,0.05199561,0.3268883,-0.9436315,-0.04305307,0.9447648,0.32490858,0.99771875,0.02373241,0.06319717,0.91962713,0.08754071,-0.3829132,-0.08321203,0.99614155,0.027888555,0.38387713,0.006215913,0.92336327,9.964905,0.15911865,0.67237854,9.784279,0.23273546,0.6197526,-0.049850464,0.043182373,-0.019683838,-39.59961,21.539307,5.279541,0,0.0,0.0,0.0,0.0
0.091308594,0.052855358,0.31724778,-0.94686866,-0.04267907,0.9480453,0.31525964,0.9976897,0.02374831,0.06364911,0.9104426,0.09242952,-0.40317613,-0.087181896,0.99569756,0.03139504,0.40434334,0.0065662796,0.9145837,9.964905,0.15911865,0.67237854,9.783994,0.23289135,0.6241845,-0.046188354,0.039367676,-0.023345947,-39.718628,21.659851,5.039978,0,0.0,0.0,0.0,0.0
0.099609375,0.053155567,0.3177548,-0.9466818,-0.042849142,0.94787467,0.31574926,0.9976665,0.023780674,0.06400033,0.8913332,0.10150794,-0.44183856,-0.09417998,0.9948083,0.03855527,0.44345835,0.007246758,0.8962657,9.970886,0.15434265,0.6305084,9.783767,0.23320876,0.6276289,-0.053359985,0.040740967,-0.0146484375,-39.718628,21.659851,5.039978,0,0.0,0.0,0.0,0.0
0.107910157,0.05357082,0.3148147,-0.94764006,-0.042782657,0.948855,0.31279975,0.99764717,0.023785628,0.06429955,0.8713676,0.11023984,-0.47808552,-0.10046954,0.9938736,0.04605572,0.48023373,0.007901568,0.87710494,9.96611,0.14476013,0.58384705,9.783577,0.23325734,0.63056326,-0.053207397,0.06654358,-0.019378662,-40.25879,21.479797,4.8599243,0,0.0,0.0,0.0,0.0
0.116210938,0.053917028,0.31541404,-0.94742125,-0.04293295,0.9486562,0.31338188,0.997622,0.023778968,0.064690374,0.8611343,0.11441059,-0.49533617,-0.10329602,0.99339956,0.04987256,0.4977727,0.008219282,0.86726856,9.96611,0.14476013,0.58384705,9.78333,0.23319201,0.63439584,-0.0493927,0.074020386,-0.022735596,-40.25879,21.479797,4.8599243,0,0.0,0.0,0.0,0.0
0.124511719,0.054921824,0.3054156,-0.95063394,-0.042553797,0.9519219,0.30337092,0.9975835,0.023791399,0.06527788,0.85076153,0.11850848,-0.51201624,-0.105964206,0.9929164,0.053745843,0.5147587,0.008530507,0.8572927,9.98764,0.14356995,0.6400757,9.782952,0.23331393,0.64015734,-0.042816162,0.08181763,-0.021057129,-40.559387,21.299744,4.499817,0,0.0,0.0,0.0,0.0
0.1328125,0.055493917,0.30642906,-0.95027447,-0.042833425,0.9515955,0.30435365,0.9975398,0.023813736,0.065933175,0.8297315,0.12604083,-0.5437456,-0.11046355,0.991983,0.061380293,0.5471228,0.009134899,0.8370025,9.963715,0.14476013,0.6388855,9.782524,0.23353298,0.64658356,-0.04664612,0.08456421,-0.021972656,-40.559387,21.299744,4.499817,0,0.0,0.0,0.0,0.0
0.141113282,0.05647635,0.29987305,-0.9523059,-0.042696983,0.95368105,0.29777393,0.9974905,0.023843404,0.0666641,0.8083835,0.13330975,-0.5733625,-0.114402436,0.99102676,0.069122925,0.57743245,0.009716239,0.8163807,9.980469,0.14715576,0.7034912,9.782041,0.23382393,0.6537515,-0.04710388,0.068222046,-0.021057129,-40.73944,20.819092,4.1397095,0,0.0,0.0,0.0,0.0
0.149414063,0.05717861,0.30115828,-0.95185834,-0.04305309,0.95327497,0.29902026,0.99743515,0.023882879,0.06747273,0.797654,0.1366966,-0.5874199,-0.11604956,0.9905625,0.07292764,0.5918451,0.00999881,0.8059897,9.9673,0.16270447,0.81355286,9.781498,0.23421104,0.6616815,-0.047714233,0.068222046,-0.017700195,-40.73944,20.819092,4.1397095,0,0.0,0.0,0.0,0.0
0.157714844,0.057753686,0.3022104,-0.9514901,-0.04332254,0.95294183,0.30004188,0.99739045,0.023892445,0.06812842,0.77612513,0.14331663,-0.6140768,-0.11899901,0.98962075,0.08056157,0.61924887,0.010548673,0.78512394,9.9673,0.16270447,0.81355286,9.781059,0.23430486,0.6681116,-0.051223755,0.026992798,-0.0132751465,-40.73944,20.819092,4.1397095,0,0.0,0.0,0.0,0.0
0.166015625,0.058080245,0.30378032,-0.9509702,-0.043531083,0.95244277,0.30159208,0.9973623,0.02388022,0.068541996,0.75458676,0.14971155,-0.6388939,-0.12149027,0.9886677,0.08818369,0.6448558,0.011077138,0.76422405,9.963715,0.16270447,0.8410797,9.780784,0.23418495,0.67216736,-0.055343628,-0.030883789,-0.015716553,-40.79895,20.759583,4.1397095,0,0.0,0.0,0.0,0.0
0.174316407,0.059130568,0.28179443,-0.957651,-0.04218521,0.9591781,0.27963904,0.99735856,0.023863498,0.0686043,0.74384147,0.1528437,-0.6506448,-0.12258591,0.98818547,0.09199092,0.6570179,0.011333223,0.7537898,9.9756775,0.13400269,0.8279114,9.780746,0.23402098,0.67277837,-0.06037903,-0.054397583,-0.014343262,-40.919495,20.819092,3.5995483,0,0.0,0.0,0.0,0.0
0.182617188,0.058894176,0.28135467,-0.9577949,-0.042026184,0.9593085,0.27921513,0.9973792,0.023808321,0.06832194,0.7225638,0.15801752,-0.67300224,-0.12378732,0.9873655,0.09892508,0.680131,0.011829469,0.7329951,9.980469,0.16390991,0.7788696,9.78095,0.23347989,0.67000943,-0.054275513,-0.093948364,-0.014953613,-40.919495,20.819092,3.5995483,0,0.0,0.0,0.0,0.0
0.190917969,0.058995456,0.2645353,-0.9625698,-0.0407625,0.96408343,0.26245296,0.9974257,0.023753218,0.06765966,0.7014706,0.16296439,-0.6938167,-0.12462412,0.9865552,0.10572421,0.7017178,0.012303876,0.71234876,9.9756775,0.14596558,0.7405853,9.7814045,0.2329395,0.6635146,-0.059005737,-0.1214447,-0.012817383,-41.038513,20.939636,3.239441,0,0.0,0.0,0.0,0.0
0.19921875,0.058267888,0.26317397,-0.9629872,-0.040407687,0.9644573,0.26113078,0.99748284,0.023696547,0.06683114,0.6910496,0.16501741,-0.7037185,-0.12467747,0.986211,0.10882715,0.7119733,0.012532883,0.7020947,9.970886,0.17826843,0.66041565,9.781965,0.23238374,0.6553896,-0.057785034,-0.12037659,-0.01663208,-41.038513,20.939636,3.239441,0,0.0,0.0,0.0,0.0
0.207519532,0.057421777,0.26159033,-0.9634693,-0.04006666,0.964888,0.2595876,0.99754566,0.02369702,0.06588664,0.67040586,0.16894393,-0.7225054,-0.12455276,0.9855403,0.11487824,0.7314661,0.012975004,0.68175435,9.984055,0.14476013,0.5623169,9.782581,0.23238839,0.6461272,-0.054885864,-0.09899902,-0.010986328,-41.038513,20.939636,3.239441,0,0.0,0.0,0.0,0.0
0.215820313,0.05662904,0.2575896,-0.9645936,-0.039555274,0.96596426,0.25563344,0.9976114,0.023678487,0.06489065,0.65006775,0.1726483,-0.74000293,-0.124153994,0.9848924,0.12071772,0.749665,0.013399632,0.6616818,9.984055,0.15672302,0.49771118,9.783226,0.23220664,0.63635993,-0.045272827,-0.052871704,-0.021972656,-41.159058,21.1792,3.239441,0,0.0,0.0,0.0,0.0
0.224121094,0.05591821,0.25994113,-0.9640041,-0.039511666,0.96533453,0.25800797,0.9976532,0.023662062,0.06425048,0.6400291,0.1743626,-0.74830514,-0.12382249,0.98458755,0.1235128,0.7583079,0.013605227,0.6517546,9.96611,0.14117432,0.54556274,9.783636,0.23204556,0.63008195,-0.050460815,-0.026306152,-0.012207031,-41.39862,20.698547,3.1799316,0,0.0,0.0,0.0,0.0
0.232421875,0.05560378,0.2593399,-0.9641841,-0.039355733,0.9654969,0.2574234,0.99767697,0.023632457,0.06389179,0.6202112,0.17778236,-0.76402324,-0.123084396,0.98397017,0.12904611,0.7747182,0.014003511,0.63215154,9.96611,0.14117432,0.54556274,9.78387,0.23175526,0.6265645,-0.049545288,-0.011489868,-0.01373291,-41.39862,20.698547,3.1799316,0,0.0,0.0,0.0,0.0
0.240722657,0.055408377,0.26156712,-0.9635936,-0.03944411,0.9648962,0.2596526,0.99768436,0.023621159,0.06378061,0.6007989,0.18104036,-0.77863026,-0.12216456,0.9833705,0.13438138,0.79001045,0.014384846,0.6129246,9.979263,0.1603241,0.6125641,9.783942,0.23164447,0.6254742,-0.05229187,-3.3569336E-4,-0.016326904,-41.279602,20.458984,3.1799316,0,0.0,0.0,0.0,0.0
0.249023438,0.055368315,0.2614899,-0.9636168,-0.03942159,0.96491724,0.25957766,0.99768746,0.023614928,0.06373419,0.5912482,0.18266529,-0.785531,-0.12167656,0.9830672,0.13701712,0.797258,0.014569586,0.60346276,9.990036,0.15434265,0.6125641,9.783972,0.23158334,0.6250189,-0.051834106,0.004547119,-0.016937256,-41.279602,20.458984,3.1799316,0,0.0,0.0,0.0,0.0
0.257324219,0.055375498,0.26150373,-0.9636126,-0.039435137,0.96491325,0.2595905,0.99768656,0.023625245,0.06374499,0.57248485,0.18581372,-0.79858273,-0.12059581,0.98247164,0.1421486,0.810998,0.014927809,0.5848585,9.978073,0.1483612,0.6053772,9.783962,0.2316845,0.6251248,-0.05168152,0.008361816,-0.02166748,-41.279602,20.458984,3.1799316,0,0.0,0.0,0.0,0.0
0.265625,0.05535516,0.26411852,-0.96290034,-0.039627403,0.9642003,0.26219702,0.99768007,0.023643287,0.06383981,0.55418706,0.18883616,-0.81068957,-0.11939385,0.9818898,0.14709671,0.82378507,0.015272252,0.5666965,9.968506,0.14596558,0.64845276,9.783899,0.23186144,0.62605464,-0.05732727,0.01171875,-0.019226074,-41.159058,20.219421,3.1799316,0,0.0,0.0,0.0,0.0
0.273925782,0.055405892,0.26532254,-0.96256644,-0.039729387,0.96386963,0.26339492,0.99767315,0.023648549,0.06394515,0.5452118,0.19035478,-0.8164001,-0.11878245,0.98159397,0.14954616,0.82984024,0.015439685,0.55778736,9.963715,0.13877869,0.69511414,9.783832,0.23191305,0.6270878,-0.04725647,0.0082092285,-0.01373291,-41.038513,20.759583,3.3599854,0,0.0,0.0,0.0,0.0
0.282226563,0.055425152,0.26535878,-0.96255535,-0.039694693,0.9638607,0.26343298,0.99767345,0.023607528,0.063955456,0.5276225,0.19334866,-0.8271824,-0.1175105,0.9810034,0.15434869,0.84131193,0.015764778,0.54032,9.991226,0.13998413,0.62571716,9.783834,0.23151077,0.6271888,-0.052444458,-0.020202637,-0.009765625,-41.038513,20.759583,3.3599854,0,0.0,0.0,0.0,0.0
0.290527344,0.0553148,0.26515093,-0.96261895,-0.039592545,0.9639192,0.263234,0.99768364,0.023551797,0.063817,0.5190117,0.1948009,-0.8322736,-0.11683891,0.98071355,0.156683,0.84674406,0.015921645,0.5317621,9.991226,0.13998413,0.62571716,9.783935,0.23096424,0.625831,-0.053207397,-0.028747559,-0.015716553,-41.038513,20.759583,3.3599854,0,0.0,0.0,0.0,0.0
0.298828125,0.055254504,0.26322255,-0.9631515,-0.039418455,0.9644483,0.26131555,0.99769396,0.023527082,0.063665934,0.50215685,0.1976092,-0.8418961,-0.11542687,0.98014665,0.1612118,0.85703856,0.01622382,0.51499677,9.976868,0.15672302,0.57307434,9.784035,0.23072185,0.62434953,-0.059921265,-6.4086914E-4,-0.01953125,-41.09955,20.698547,3.2989502,0,0.0,0.0,0.0,0.0
0.307128907,0.055140365,0.26300636,-0.9632172,-0.03938786,0.9645069,0.26110372,0.99770147,0.023541702,0.063542515,0.48580128,0.20022714,-0.85082674,-0.11390353,0.97961026,0.16549799,0.8666159,0.016513048,0.49870253,9.98645,0.14476013,0.5922241,9.784109,0.23086524,0.6231392,-0.053512573,0.0016479492,-0.01739502,-41.09955,20.698547,3.2989502,0,0.0,0.0,0.0,0.0
0.315429688,0.05427676,0.28150427,-0.9580237,-0.040425755,0.95927095,0.27958044,0.9977073,0.02355411,0.06344613,0.4778073,0.20149206,-0.85504454,-0.11311827,0.97934854,0.16757283,0.8711512,0.01665363,0.49073234,9.984055,0.15194702,0.5204315,9.784166,0.23098692,0.622194,-0.051376343,0.023025513,-0.022583008,-41.09955,20.579529,3.718567,0,0.0,0.0,0.0,0.0
0.323730469,0.054073654,0.28852975,-0.95594287,-0.040873453,0.95718074,0.28659135,0.9977001,0.02357564,0.06355146,0.4621009,0.20469083,-0.8628815,-0.11186406,0.9786803,0.17225356,0.8797438,0.016926907,0.47514656,9.98645,0.15434265,0.5252228,9.784096,0.23119806,0.62322694,-0.05229187,0.05937195,-0.017242432,-40.979004,20.399475,3.8391113,0,0.0,0.0,0.0,0.0
0.33203125,0.054435987,0.28921476,-0.9557151,-0.041032005,0.9569737,0.28725854,0.9976738,0.02357771,0.06396088,0.44686183,0.20804481,-0.8700758,-0.110665746,0.9779682,0.17700633,0.88773173,0.017190212,0.46004012,9.970886,0.1531372,0.5635071,9.783838,0.23121837,0.62724197,-0.05076599,0.08456421,-0.015716553,-40.979004,20.399475,3.8391113,0,0.0,0.0,0.0,0.0
0.340332032,0.055011813,0.29030317,-0.9553521,-0.041283637,0.9566442,0.28831857,0.9976319,0.023579484,0.06461151,0.43943307,0.20968476,-0.87345916,-0.11004483,0.97761565,0.1793258,0.89150923,0.017317971,0.45267138,9.970886,0.1531372,0.5635071,9.783427,0.23123576,0.63362247,-0.05076599,0.12060547,-0.020904541,-40.979004,20.399475,3.8391113,0,0.0,0.0,0.0,0.0
0.348632813,0.055862356,0.28963286,-0.9555062,-0.041513868,0.9568468,0.28761214,0.99757504,0.02360007,0.0654755,0.4249596,0.21290922,-0.87981766,-0.10877467,0.97691405,0.18386671,0.8986531,0.017565943,0.43830812,9.988831,0.15074158,0.5156555,9.782869,0.23143762,0.6420953,-0.05656433,0.13510132,-0.024261475,-40.919495,20.159912,3.718567,0,0.0,0.0,0.0,0.0
0.356933594,0.056687254,0.29120982,-0.9549782,-0.04189501,0.9563676,0.2891466,0.9975126,0.023617893,0.066414095,0.4110013,0.2159767,-0.8856817,-0.10743831,0.97623616,0.18820192,0.9052817,0.01780491,0.42443848,9.973282,0.14356995,0.54556274,9.782257,0.23161243,0.6512998,-0.10757446,0.13114929,-0.02319336,-40.919495,20.159912,3.718567,0,0.0,0.0,0.0,0.0
0.365234375,0.05720899,0.2989363,-0.95255667,-0.042628556,0.95398057,0.29682297,0.9974517,0.023625173,0.06731949,0.40421313,0.21749596,-0.88842964,-0.106768,0.9758967,0.19033195,0.908412,0.017921176,0.41769186,9.956528,0.14476013,0.9272156,9.78166,0.2316838,0.66017866,-0.10757446,0.11984253,-0.021514893,-40.73944,20.219421,3.8986206,0,0.0,0.0,0.0,0.0
0.373535157,0.05893438,0.28619272,-0.95635796,-0.042197965,0.95788103,0.2840481,0.9973696,0.023616157,0.06852887,0.39098462,0.22075477,-0.89353144,-0.105525285,0.9751605,0.19474702,0.91432786,0.018147068,0.40456796,9.970886,0.14715576,0.84706116,9.780855,0.23159541,0.6720387,-0.075805664,0.08898926,-0.018920898,-40.559387,20.579529,3.6590576,0,0.0,0.0,0.0,0.0
0.381835938,0.059678603,0.2875774,-0.95589626,-0.0425227,0.9574661,0.2853949,0.9973115,0.02361532,0.06936881,0.3783135,0.22336777,-0.8983239,-0.10404083,0.9745613,0.19850917,0.91981214,0.018363656,0.39192906,9.972092,0.15911865,0.74894714,9.780285,0.23158717,0.6802757,-0.051071167,0.053710938,-0.015716553,-40.559387,20.579529,3.6590576,0,0.0,0.0,0.0,0.0
0.390136719,0.06019571,0.2885392,-0.9555739,-0.042754594,0.9571766,0.28632987,0.9972705,0.023619348,0.06995431,0.37215725,0.22466277,-0.9005696,-0.10330434,0.9742615,0.20035633,0.9224029,0.018468695,0.3857871,9.972092,0.15911865,0.74894714,9.779883,0.23162669,0.68601745,-0.05152893,0.044555664,-0.019989014,-40.559387,20.579529,3.6590576,0,0.0,0.0,0.0,0.0
0.3984375,0.0601501,0.298178,-0.9526132,-0.043509845,0.9542173,0.2959328,0.9972406,0.023647664,0.070369944,0.36018902,0.2272132,-0.90478617,-0.10183671,0.973666,0.20397007,0.9273042,0.01867267,0.37384248,9.973282,0.15553284,0.73339844,9.77959,0.23190437,0.6900934,-0.051223755,0.02104187,-0.027008057,-40.618896,20.458984,3.8391113,0,0.0,0.0,0.0,0.0
0.406738282,0.06036583,0.29858008,-0.9524736,-0.043655578,0.9540905,0.29632014,0.99722123,0.023693174,0.07062914,0.34862214,0.23004976,-0.9085921,-0.10049821,0.97299594,0.20779572,0.9318598,0.018869689,0.36232752,9.98645,0.15553284,0.73339844,9.7794,0.23235068,0.6926353,-0.057632446,0.001953125,-0.014953613,-40.618896,20.458984,3.8391113,0,0.0,0.0,0.0,0.0
0.415039063,0.060604747,0.29568118,-0.9533623,-0.04354119,0.95499194,0.29341874,0.99721175,0.02372796,0.07075136,0.34299964,0.23143312,-0.910379,-0.0998248,0.9726659,0.20965691,0.9340162,0.01896616,0.35672683,9.978073,0.16749573,0.73698425,9.779307,0.23269184,0.6938339,-0.05732727,-0.0037078857,-0.018005371,-40.73944,20.339966,3.718567,0,0.0,0.0,0.0,0.0
0.423339844,0.060343742,0.30315077,-0.95103014,-0.0440118,0.95264786,0.30087385,0.99720687,0.023700695,0.07082854,0.33207807,0.23399915,-0.9137661,-0.098426305,0.97204804,0.21315433,0.93810254,0.019154739,0.34582755,9.970886,0.13877869,0.78245544,9.779259,0.23242444,0.69459075,-0.055496216,-0.018966675,-0.020751953,-40.73944,20.339966,3.8986206,0,0.0,0.0,0.0,0.0
0.431640625,0.060324255,0.30311418,-0.95104295,-0.04399684,0.95265955,0.3008387,0.9972087,0.023695018,0.070804544,0.32675397,0.23539542,-0.9153256,-0.09777416,0.97170913,0.21499212,0.9400384,0.019245662,0.34052542,9.970886,0.13877869,0.78245544,9.779278,0.23236877,0.6943554,-0.061904907,-0.029968262,-0.02243042,-40.73944,20.339966,3.8986206,0,0.0,0.0,0.0,0.0
0.439941407,0.060119435,0.30272987,-0.9511784,-0.043915864,0.95278144,0.30046436,0.9972246,0.02370807,0.07057533,0.3163999,0.2381018,-0.9182584,-0.09645679,0.971046,0.2185538,0.94370925,0.019421864,0.33020535,9.991226,0.15074158,0.73579407,9.779433,0.23249675,0.69210756,-0.05580139,-0.05973816,-0.014343262,-40.73944,20.339966,3.8986206,0,0.0,0.0,0.0,0.0
0.448242188,0.059629723,0.3030035,-0.95112205,-0.043756984,0.9526951,0.3007613,0.99726105,0.023683919,0.07006746,0.3064221,0.24068378,-0.9209652,-0.0951217,0.9704059,0.2219558,0.94713116,0.019591605,0.32024804,9.980469,0.14237976,0.6520386,9.779791,0.23225993,0.6871271,-0.055496216,-0.070739746,-0.019378662,-40.499878,20.399475,3.9596558,0,0.0,0.0,0.0,0.0
0.456542969,0.0590954,0.30201045,-0.9514711,-0.04348728,0.95301086,0.29979822,0.9973047,0.023660198,0.06945218,0.30156362,0.2419411,-0.9222385,-0.09445083,0.9700915,0.22361033,0.9487563,0.019673456,0.3153958,9.980469,0.14237976,0.6520386,9.780217,0.23202726,0.6810932,-0.06266785,-0.070739746,-0.019378662,-40.499878,20.399475,3.9596558,0,0.0,0.0,0.0,0.0
0.46484375,0.0592162,0.2866355,-0.95620793,-0.042363755,0.9577474,0.28447345,0.9973458,0.023663118,0.06885712,0.29210135,0.24433962,-0.9246486,-0.09308873,0.96948695,0.22678098,0.95184624,0.019831335,0.30593368,9.978073,0.15074158,0.64486694,9.780622,0.23205593,0.6752577,-0.072143555,-0.046463013,-0.02029419,-40.618896,20.399475,3.5995483,0,0.0,0.0,0.0,0.0
0.473144532,0.058129393,0.30087763,-0.9518895,-0.043117546,0.9533688,0.29871213,0.9973775,0.023679188,0.06839185,0.283031,0.24602424,-0.92701966,-0.09154354,0.9690577,0.22923137,0.954732,0.01998308,0.29679528,9.949356,0.15672302,0.6544342,9.780932,0.23221351,0.67069495,-0.06266785,-0.034240723,-0.023651123,-40.438843,20.339966,3.9596558,0,0.0,0.0,0.0,0.0
0.481445313,0.05782602,0.30031276,-0.9520863,-0.04300815,0.9535461,0.29816106,0.9973998,0.023706006,0.06805567,0.2785884,0.24712987,-0.9280708,-0.090861246,0.9687748,0.23069394,0.9561029,0.020057004,0.29234394,9.949356,0.15672302,0.6544342,9.781151,0.2324765,0.6673981,-0.05961609,-0.02722168,-0.019226074,-40.438843,20.339966,3.9596558,0,0.0,0.0,0.0,0.0
0.489746094,0.05757997,0.2998546,-0.95224565,-0.042899027,0.9536903,0.2977155,0.99741876,0.023707962,0.067776926,0.26994544,0.24925163,-0.93005544,-0.08949512,0.96822804,0.23350611,0.9587075,0.02020151,0.28367555,9.972092,0.13998413,0.5778656,9.781337,0.2324957,0.6646646,-0.0594635,0.0056152344,-0.016479492,-40.438843,20.339966,3.9596558,0,0.0,0.0,0.0,0.0
0.498046875,0.058114827,0.2863278,-0.9563677,-0.042028934,0.95783913,0.2842144,0.9974248,0.02367804,0.0676987,0.2616221,0.2512698,-0.9318892,-0.08813407,0.96770334,0.23618346,0.961138,0.02034037,0.275318,9.970886,0.13160706,0.57547,9.781396,0.23220226,0.6638975,-0.055648804,0.040740967,-0.022888184,-40.19928,20.579529,3.718567,0,0.0,0.0,0.0,0.0
0.506347657,0.058226556,0.28653368,-0.9562992,-0.042065218,0.95777774,0.28441548,0.9974167,0.0236664,0.0678212,0.25760356,0.25197446,-0.93281794,-0.087385505,0.9675187,0.23721585,0.9622911,0.020407125,0.27125517,9.970886,0.13160706,0.57547,9.781317,0.23208812,0.6650988,-0.051376343,0.04852295,-0.019683838,-40.19928,20.579529,3.718567,0,0.0,0.0,0.0,0.0
0.514648438,0.05822289,0.29591662,-0.9534378,-0.0427867,0.95492005,0.29376385,0.9973863,0.023690673,0.068259485,0.24980018,0.25334963,-0.9345661,-0.08591524,0.96715677,0.23922028,0.9644783,0.0205362,0.26336253,9.960129,0.15672302,0.7154541,9.781018,0.23232614,0.6693969,-0.045272827,0.04699707,-0.014801025,-40.19928,20.27893,3.8391113,0,0.0,0.0,0.0,0.0
0.522949219,0.059027668,0.28784764,-0.95585537,-0.04241991,0.95738333,0.2856882,0.9973547,0.023683794,0.068722576,0.24227777,0.25504544,-0.93608403,-0.0845768,0.9667083,0.24149911,0.96651345,0.02066112,0.25578287,9.9673,0.14955139,0.7728882,9.780708,0.23225868,0.6739383,-0.05229187,0.00592041,-0.016784668,-40.13977,20.579529,3.718567,0,0.0,0.0,0.0,0.0
0.53125,0.059263084,0.28828064,-0.95571035,-0.042505294,0.9572535,0.28611037,0.99733704,0.023666965,0.06898324,0.23864836,0.2557046,-0.9368362,-0.08387829,0.9665329,0.2424431,0.9674768,0.020721573,0.25210953,9.9673,0.14955139,0.7728882,9.780536,0.23209365,0.67649454,-0.049087524,-0.011795044,-0.015411377,-40.13977,20.579529,3.718567,0,0.0,0.0,0.0,0.0
0.539550782,0.05926004,0.288275,-0.9557122,-0.04248398,0.9572556,0.2861063,0.9973381,0.023647789,0.06897408,0.23160744,0.25700057,-0.9382477,-0.082511805,0.9661865,0.24428535,0.9693038,0.020838214,0.24498157,9.968506,0.14476013,0.7393799,9.780546,0.2319056,0.67640465,-0.05091858,-0.05683899,-0.015563965,-40.13977,20.579529,3.718567,0,0.0,0.0,0.0,0.0
0.547851563,0.058840815,0.2901901,-0.95515835,-0.04249525,0.9566769,0.28803363,0.99736243,0.023641562,0.06862335,0.2248373,0.25824448,-0.939552,-0.08117712,0.96585244,0.24604748,0.971009,0.020949477,0.2381232,9.978073,0.1531372,0.71784973,9.780785,0.23184453,0.67296517,-0.05747986,-0.08128357,-0.020141602,-40.13977,20.579529,3.779602,0,0.0,0.0,0.0,0.0
0.556152344,0.05834401,0.2892775,-0.95546556,-0.042273343,0.95695335,0.28714657,0.99740106,0.023637442,0.068061225,0.22154091,0.25888634,-0.94015825,-0.08052918,0.9656794,0.24693792,0.97182024,0.02100332,0.2347854,9.978073,0.1531372,0.71784973,9.781163,0.23180413,0.66745263,-0.053359985,-0.08784485,-0.014038086,-40.13977,20.579529,3.779602,0,0.0,0.0,0.0,0.0
0.564453125,0.05790336,0.28362903,-0.9571843,-0.041704692,0.95864326,0.2815385,0.99745077,0.023617053,0.06733732,0.21512172,0.26009506,-0.9413146,-0.07924317,0.9653523,0.24862723,0.9733669,0.021107633,0.228279,9.960129,0.15194702,0.6544342,9.781651,0.23160417,0.66035354,-0.052749634,-0.088760376,-0.010986328,-40.019226,20.518494,3.6590576,0,0.0,0.0,0.0,0.0
0.572753907,0.057775702,0.2712111,-0.9607843,-0.0407255,0.9622311,0.2691705,0.9974986,0.023576904,0.06663878,0.20894219,0.26103014,-0.94244707,-0.07793322,0.9650977,0.25002575,0.9748177,0.02120701,0.22199254,9.98764,0.13877869,0.5204315,9.78212,0.23121046,0.65350324,-0.05091858,-0.047225952,-0.016174316,-40.019226,20.639038,3.4194946,0,0.0,0.0,0.0,0.0
0.581054688,0.057144567,0.27004784,-0.96114963,-0.040417112,0.9625594,0.26804096,0.9975475,0.023529813,0.06591959,0.20594966,0.26123405,-0.9430491,-0.077234976,0.96504146,0.25045905,0.9755099,0.021254411,0.21892637,9.98764,0.13877869,0.5204315,9.782599,0.23074864,0.6464504,-0.057022095,-0.047225952,-0.016174316,-40.019226,20.639038,3.4194946,0,0.0,0.0,0.0,0.0
0.589355469,0.056707192,0.2692415,-0.9614017,-0.04022754,0.96278536,0.26725626,0.99758005,0.023519475,0.06542779,0.20011523,0.26158354,-0.94420755,-0.075856,0.9649448,0.25125167,0.9768315,0.021344522,0.21294285,9.979263,0.14117432,0.50608826,9.782919,0.23064727,0.64162743,-0.055496216,0.010345459,-0.021057129,-40.019226,20.639038,3.4194946,0,0.0,0.0,0.0,0.0
0.59765625,0.05575746,0.28787625,-0.9560431,-0.04127408,0.9573788,0.2858713,0.9975909,0.023520337,0.06526283,0.19727483,0.26173687,-0.9447626,-0.07517867,0.9649022,0.25161836,0.9774614,0.02138802,0.21002796,9.979263,0.14117432,0.50608826,9.783025,0.23065571,0.64000976,-0.056106567,0.0390625,-0.019989014,-40.019226,20.698547,3.8986206,0,0.0,0.0,0.0,0.0
0.605957032,0.055937573,0.2882039,-0.9559338,-0.04132496,0.95728076,0.28619182,0.9975787,0.02349505,0.065457985,0.19169572,0.26277593,-0.9456224,-0.07400574,0.96461797,0.25305215,0.9786603,0.021472465,0.20436005,9.980469,0.13160706,0.5312042,9.782905,0.23040771,0.6419235,-0.046798706,0.07356262,-0.014343262,-40.019226,20.698547,3.8986206,0,0.0,0.0,0.0,0.0
0.614257813,0.05665873,0.28305593,-0.95742846,-0.04115039,0.95881605,0.28103098,0.9975452,0.023475695,0.065973155,0.18634066,0.26378658,-0.946411,-0.07286942,0.96434027,0.25443646,0.9797792,0.02155256,0.19891778,9.968506,0.14356995,0.67237854,9.782577,0.23021793,0.64697564,-0.050308228,0.088531494,-0.023040771,-40.13977,20.819092,3.779602,0,0.0,0.0,0.0,0.0
0.622558594,0.05729162,0.28420734,-0.95704955,-0.041443206,0.9584749,0.2821497,0.99749696,0.023498388,0.06669104,0.18375975,0.26417303,-0.94680774,-0.07229601,0.9642336,0.25500363,0.98030895,0.021591023,0.196286,9.968506,0.14356995,0.67237854,9.782104,0.23044047,0.6540157,-0.044662476,0.087005615,-0.02243042,-40.13977,20.819092,3.779602,0,0.0,0.0,0.0,0.0
0.630859375,0.057617493,0.29356742,-0.9542004,-0.042249113,0.95564896,0.29146194,0.99744433,0.023520816,0.06746506,0.17635278,0.26535457,-0.94788533,-0.0706541,0.9639066,0.25669453,0.981788,0.021703193,0.188736,9.984055,0.1483612,0.74775696,9.781588,0.23066041,0.66160625,-0.04220581,0.04837036,-0.017547607,-40.499878,20.819092,3.9596558,0,0.0,0.0,0.0,0.0
0.639160157,0.058148816,0.29453796,-0.9538691,-0.04248529,0.9553504,0.2924054,0.9974035,0.023522371,0.06806601,0.1739814,0.26592118,-0.94816476,-0.07016234,0.96374965,0.2574178,0.9822462,0.021739546,0.18633215,9.960129,0.15074158,0.70947266,9.781187,0.23067567,0.66749954,-0.05366516,0.0370636,-0.015411377,-40.499878,20.819092,3.9596558,0,0.0,0.0,0.0,0.0
0.647460938,0.057897467,0.3081997,-0.9495582,-0.043436296,0.9510307,0.30602917,0.9973771,0.023526976,0.068449326,0.17166707,0.26649594,-0.9484252,-0.069683984,0.96359,0.25814414,0.9826874,0.021775205,0.18398717,9.960129,0.15074158,0.70947266,9.780929,0.23072082,0.67125857,-0.059310913,0.028671265,-0.023651123,-40.25879,21.238708,4.4387817,0,0.0,0.0,0.0,0.0
0.655761719,0.05803393,0.3084403,-0.9494718,-0.04351102,0.9509524,0.3062618,0.99736595,0.023538906,0.06860805,0.16495979,0.2689633,-0.9489189,-0.068433374,0.9629019,0.2610303,0.9839234,0.021878224,0.17724615,9.997208,0.13279724,0.81355286,9.780819,0.23083782,0.6728152,-0.0640564,-0.010116577,-0.032669067,-40.25879,21.238708,4.4387817,0,0.0,0.0,0.0,0.0
0.6640625,0.05835479,0.30386043,-0.95092773,-0.043336593,0.9524241,0.3016792,0.99735487,0.02360554,0.06874679,0.16281548,0.26975757,-0.9490637,-0.06802717,0.9626789,0.26195717,0.9843086,0.021911437,0.17508988,9.923035,0.18066406,0.6963043,9.78071,0.23149128,0.67417574,-0.0640564,-0.04447937,-0.027618408,-40.19928,21.238708,4.319763,0,0.0,0.0,0.0,0.0
0.672363282,0.058130708,0.30346477,-0.95106775,-0.04336701,0.9525471,0.30128613,0.9973666,0.02373099,0.0685326,0.16072276,0.27044317,-0.94922537,-0.06761192,0.96248585,0.26277316,0.9846811,0.02194532,0.17297855,9.923035,0.18066406,0.6963043,9.780826,0.23272151,0.6720752,-0.06253052,-0.042037964,-0.024108887,-40.19928,21.238708,4.319763,0,0.0,0.0,0.0,0.0
0.680664063,0.05788573,0.2998042,-0.952243,-0.04307967,0.953704,0.29764545,0.99739325,0.02379289,0.068121314,0.15665354,0.27175727,-0.9495302,-0.06679683,0.962114,0.26433858,0.9853922,0.022016034,0.16887109,9.994827,0.15074158,0.6029968,9.781087,0.23332855,0.6680419,-0.05152893,-0.029663086,-0.027008057,-40.25879,21.299744,4.258728,0,0.0,0.0,0.0,0.0
0.688964844,0.05756029,0.29922923,-0.95244354,-0.04303791,0.95388204,0.29708022,0.9974139,0.023891157,0.06778392,0.15273912,0.2728726,-0.94984806,-0.06597743,0.9617966,0.26569575,0.9860617,0.022086399,0.1649074,9.948166,0.17228699,0.5587311,9.781289,0.23429222,0.66473323,-0.05870056,0.0071411133,-0.027618408,-40.25879,21.299744,4.258728,0,0.0,0.0,0.0,0.0
0.697265625,0.057918627,0.28698418,-0.9561828,-0.042342,0.95763487,0.28485525,0.99742293,0.023988267,0.06761639,0.15083423,0.2734019,-0.9500002,-0.065574676,0.9616455,0.26634184,0.98638177,0.022122495,0.1629773,9.948166,0.17228699,0.5587311,9.781379,0.23524457,0.6630903,-0.060073853,0.011566162,-0.025939941,-40.078735,21.479797,4.019165,0,0.0,0.0,0.0,0.0
0.705566407,0.058056667,0.28722653,-0.95610166,-0.042444643,0.95756125,0.28508767,0.9974106,0.02403015,0.06778404,0.14716305,0.27394083,-0.9504207,-0.06471374,0.9614904,0.26711118,0.986993,0.022196382,0.15922359,9.993622,0.1483612,0.7848511,9.781257,0.23565528,0.66473436,-0.041900635,-0.025848389,-0.021820068,-40.078735,21.479797,4.019165,0,0.0,0.0,0.0,0.0
0.713867188,0.057915047,0.29005834,-0.9552549,-0.0426679,0.9567058,0.28791204,0.9974093,0.024084283,0.06778385,0.14364167,0.274468,-0.9508073,-0.06388712,0.9613384,0.26785636,0.9875655,0.022269001,0.15562323,9.984055,0.14117432,0.7262268,9.781244,0.23618613,0.66473246,-0.039154053,-0.07623291,-0.03327942,-40.19928,21.659851,4.1397095,0,0.0,0.0,0.0,0.0
0.722167969,0.05748401,0.2893069,-0.9555088,-0.04256998,0.95693123,0.28717655,0.9974384,0.02416793,0.067324035,0.14192912,0.27478057,-0.9509741,-0.06349391,0.9612482,0.26827303,0.9878384,0.022305308,0.153876,9.984055,0.14117432,0.7262268,9.781529,0.23700644,0.66022325,-0.036254883,-0.093185425,-0.031600952,-40.19928,21.659851,4.1397095,0,0.0,0.0,0.0,0.0
0.73046875,0.056566287,0.2922984,-0.9546528,-0.042649187,0.95601845,0.29018942,0.9974875,0.024300227,0.066544704,0.13858917,0.27535704,-0.9512999,-0.06272113,0.9610815,0.2690509,0.98836184,0.022379069,0.15046619,9.996017,0.15911865,0.6281128,9.782011,0.23830383,0.6525806,-0.036865234,-0.09577942,-0.036483765,-40.25879,21.899414,4.319763,0,0.0,0.0,0.0,0.0
0.738769532,0.055748083,0.29088867,-0.9551314,-0.042440448,0.95644486,0.28881156,0.99754244,0.02443551,0.06566541,0.13534229,0.27602965,-0.9515725,-0.06198798,0.9608868,0.26991495,0.9888579,0.022455148,0.14715913,9.968506,0.15553284,0.6017914,9.78255,0.2396305,0.6439577,-0.046340942,-0.10723877,-0.032211304,-40.25879,21.899414,4.319763,0,0.0,0.0,0.0,0.0
0.747070313,0.05522189,0.28196692,-0.95783365,-0.041771926,0.95910996,0.27993438,0.9975999,0.024552047,0.06474216,0.13375153,0.2763275,-0.9517109,-0.061624378,0.96080023,0.27030602,0.98909706,0.022494756,0.145537,9.968506,0.15553284,0.6017914,9.7831135,0.24077334,0.6349037,-0.05595398,-0.11656189,-0.024414063,-40.319824,21.958923,4.1397095,0,0.0,0.0,0.0,0.0
0.755371094,0.054351594,0.2804616,-0.9583252,-0.04151478,0.9595487,0.27846518,0.9976585,0.024649633,0.063796304,0.13065079,0.27655104,-0.9520766,-0.060861915,0.960734,0.27071387,0.98955864,0.022576226,0.14235209,9.940979,0.17108154,0.62213135,9.783688,0.24173033,0.62562805,-0.060836792,-0.11961365,-0.02609253,-40.319824,21.958923,4.1397095,0,0.0,0.0,0.0,0.0
0.763671875,0.05309962,0.28490326,-0.95708436,-0.04154203,0.95823705,0.2829416,0.9977248,0.024735138,0.06271749,0.12763888,0.27670604,-0.95244,-0.060113348,0.96068746,0.27104613,0.9899973,0.022658335,0.1392548,9.956528,0.17468262,0.51805115,9.784338,0.24256885,0.61504847,-0.07122803,-0.0973053,-0.014038086,-40.19928,21.598816,4.1992188,0,0.0,0.0,0.0,0.0
0.771972657,0.052203402,0.2833353,-0.95759904,-0.041202255,0.95870113,0.28141525,0.99778616,0.024764404,0.061721515,0.12615098,0.2768702,-0.9525906,-0.059757166,0.9606392,0.27129588,0.9902096,0.02269987,0.13773055,9.956528,0.17468262,0.51805115,9.78494,0.24285585,0.6052813,-0.07107544,-0.07746887,-0.015258789,-40.19928,21.598816,4.1992188,0,0.0,0.0,0.0,0.0
0.780273438,0.0520718,0.26760626,-0.96212023,-0.04008792,0.9632108,0.26573998,0.9978384,0.024731843,0.060883902,0.12322918,0.27712646,-0.95289844,-0.05904661,0.96056336,0.27171966,0.9906201,0.02278163,0.13473283,9.9673,0.16151428,0.45942688,9.785452,0.24253653,0.5970671,-0.06680298,-0.040039063,-0.008834839,-40.379333,21.659851,3.8391113,0,0.0,0.0,0.0,0.0
0.788574219,0.051588308,0.2667516,-0.9623836,-0.039854027,0.963449,0.26491055,0.9978729,0.024688575,0.060333837,0.119069785,0.27656734,-0.9535895,-0.05789976,0.9607218,0.27140623,0.9911963,0.02289632,0.13040611,10.000809,0.1758728,0.5539398,9.78579,0.24211222,0.59167284,-0.07595825,-9.460449E-4,-0.016326904,-40.379333,21.659851,3.8391113,0,0.0,0.0,0.0,0.0
0.796875,0.050932474,0.27604026,-0.95979565,-0.040224288,0.9608302,0.27420327,0.9978918,0.024641246,0.06004098,0.117728464,0.2763713,-0.95381284,-0.0575276,0.9607773,0.2712887,0.9913781,0.022932164,0.12900983,9.969696,0.1603241,0.5766754,9.785975,0.24164808,0.5888009,-0.07077026,0.013397217,-0.019989014,-40.19928,21.598816,4.0786743,0,0.0,0.0,0.0,0.0
0.805175782,0.050888043,0.27596223,-0.95982045,-0.040176243,0.9608533,0.27412912,0.9978959,0.024612082,0.059983067,0.115092434,0.27635822,-0.9541382,-0.05684583,0.9607794,0.27142477,0.99172693,0.022999844,0.12628826,9.969696,0.1603241,0.5766754,9.7860155,0.24136207,0.58823293,-0.052139282,0.014923096,-0.019683838,-40.19928,21.598816,4.0786743,0,0.0,0.0,0.0,0.0
0.813476563,0.05094933,0.27665964,-0.95961636,-0.04023269,0.9606528,0.27482235,0.9978905,0.024605934,0.060075384,0.112558186,0.2763425,-0.9544451,-0.05618865,0.9607824,0.271551,0.9920552,0.023063691,0.12367124,9.961319,0.1758728,0.59103394,9.785963,0.24130179,0.58913827,-0.053970337,0.003479004,-0.009597778,-40.13977,21.539307,4.0786743,0,0.0,0.0,0.0,0.0
0.821777344,0.051048193,0.27683342,-0.95956105,-0.040277205,0.96060276,0.27499124,0.9978837,0.024610631,0.0601871,0.11132955,0.27634886,-0.95458734,-0.055871766,0.96077985,0.27162546,0.9922117,0.023094539,0.12240329,9.9756775,0.16151428,0.6029968,9.785896,0.24134785,0.59023386,-0.044189453,0.002105713,-0.00440979,-40.13977,21.539307,4.0786743,0,0.0,0.0,0.0,0.0
0.830078125,0.050404802,0.2938058,-0.95453525,-0.04113981,0.9555497,0.29194567,0.9978812,0.024553936,0.060251407,0.108948864,0.27636808,-0.95485646,-0.05525879,0.9607729,0.27177548,0.99251026,0.023154575,0.11994688,9.98764,0.14237976,0.53001404,9.7858715,0.24079186,0.5908645,-0.04710388,0.013092041,-0.012207031,-40.25879,21.71936,4.559326,0,0.0,0.0,0.0,0.0
0.838378907,0.05032841,0.2936736,-0.95457995,-0.04103139,0.9555922,0.29182172,0.9978895,0.02448082,0.060143273,0.10777597,0.27671778,-0.9548883,-0.054998778,0.96067154,0.27218613,0.9926528,0.023182563,0.11875645,9.985245,0.16151428,0.47976685,9.7859535,0.24007484,0.58980405,-0.04786682,0.030349731,-0.009292603,-40.25879,21.71936,4.559326,0,0.0,0.0,0.0,0.0
0.846679688,0.04997127,0.30255726,-0.9518204,-0.04145111,0.95281816,0.30069822,0.9978901,0.024427742,0.060154866,0.106625065,0.27705777,-0.95491886,-0.054740798,0.9605729,0.27258596,0.9927913,0.023208529,0.11758752,9.985245,0.16151428,0.47976685,9.785959,0.23955432,0.5899177,-0.046340942,0.0491333,-0.015563965,-40.13977,21.539307,4.73938,0,0.0,0.0,0.0,0.0
0.854980469,0.05017297,0.3029064,-0.9516987,-0.04147782,0.9527087,0.3010412,0.9978789,0.024370259,0.060364123,0.10437306,0.2780715,-0.954873,-0.054274336,0.9602788,0.2737132,0.9930561,0.02325681,0.11531938,9.996017,0.14237976,0.46540833,9.78585,0.2389906,0.59196985,-0.050613403,0.090667725,-0.013885498,-40.13977,21.539307,4.73938,0,0.0,0.0,0.0,0.0
0.86328125,0.050985187,0.29741144,-0.9533871,-0.041317716,0.9544396,0.29553017,0.9978444,0.024324115,0.060950644,0.10221849,0.27905872,-0.95481807,-0.053823255,0.9599913,0.2748086,0.9933048,0.023300903,0.11314871,9.98764,0.14117432,0.5670929,9.785511,0.23853809,0.59772164,-0.048324585,0.115112305,-0.023651123,-39.839172,21.058655,4.4387817,0,0.0,0.0,0.0,0.0
0.871582032,0.051678784,0.2986351,-0.95296717,-0.04158967,0.95405793,0.29672155,0.9977973,0.02429938,0.061724693,0.10119136,0.2794268,-0.9548198,-0.053593516,0.95988375,0.27522892,0.9934224,0.023321368,0.1121074,9.98764,0.14117432,0.5670929,9.785049,0.23829551,0.60531247,-0.050460815,0.11816406,-0.01586914,-39.839172,21.058655,4.4387817,0,0.0,0.0,0.0,0.0
0.879882813,0.052307833,0.30396765,-0.9512452,-0.0422065,0.95237106,0.3020065,0.9977387,0.024351427,0.06264588,0.10019831,0.27981213,-0.9548117,-0.053373903,0.959771,0.2756644,0.9935348,0.023340927,0.1111021,9.956528,0.19142151,0.6053772,9.784474,0.23880593,0.61434627,-0.05015564,0.1131134,-0.015563965,-39.779663,21.299744,4.6188354,0,0.0,0.0,0.0,0.0
0.888183594,0.05320163,0.30551842,-0.95069873,-0.042608827,0.9518745,0.30351183,0.9976743,0.024360834,0.063659064,0.09737095,0.28123778,-0.9546854,-0.052786388,0.9593528,0.2772289,0.9938473,0.023400351,0.10825862,9.978073,0.15792847,0.69869995,9.783843,0.23889817,0.6242822,-0.05290222,0.082733154,-0.02885437,-39.779663,21.299744,4.6188354,0,0.0,0.0,0.0,0.0
0.896484375,0.054112338,0.30361894,-0.9512557,-0.04282442,0.9524806,0.30157384,0.9976162,0.024418108,0.06454326,0.09648378,0.2817252,-0.9546318,-0.05260545,0.95920926,0.2777593,0.99394345,0.02341956,0.10736842,9.978073,0.15792847,0.69869995,9.783273,0.23945984,0.63295317,-0.049545288,0.082733154,-0.02885437,-39.65912,21.539307,4.6188354,0,0.0,0.0,0.0,0.0
0.904785157,0.054798212,0.30479288,-0.950841,-0.04323631,0.952103,0.30270565,0.9975609,0.024523126,0.06535165,0.09563317,0.28216457,-0.9545875,-0.052429438,0.9590796,0.27823985,0.99403495,0.023439532,0.10651357,9.958923,0.16749573,0.7405853,9.782731,0.24048972,0.64088076,-0.049545288,0.07020569,-0.032058716,-39.65912,21.539307,4.6188354,0,0.0,0.0,0.0,0.0
0.913085938,0.055292916,0.30563933,-0.95054054,-0.043549508,0.9518292,0.3035204,0.99751997,0.024613043,0.06593985,0.09400998,0.2830638,-0.95448256,-0.052103173,0.95881355,0.2792164,0.99420696,0.023482442,0.10488657,9.958923,0.16749573,0.7405853,9.78233,0.24137151,0.64664906,-0.043121338,0.033096313,-0.026245117,-39.65912,21.539307,4.6188354,0,0.0,0.0,0.0,0.0
0.921386719,0.055327684,0.31200358,-0.9484686,-0.044082355,0.9497606,0.3098571,0.9974946,0.02466705,0.066301905,0.09247099,0.28396097,-0.9543664,-0.0518001,0.9585471,0.28018585,0.99436706,0.023527212,0.10334701,9.960129,0.15792847,0.7166443,9.782081,0.24190113,0.6501996,-0.043441772,0.013092041,-0.019226074,-39.538574,21.418762,4.73938,0,0.0,0.0,0.0,0.0
0.9296875,0.055872425,0.30431712,-0.9509308,-0.043706372,0.9522511,0.30217165,0.99748087,0.02467867,0.06650518,0.09172436,0.28452435,-0.95427066,-0.05166738,0.9583795,0.28078318,0.9944431,0.02355001,0.10260737,9.992432,0.16390991,0.6699829,9.781946,0.24201508,0.652193,-0.04573059,-5.0354004E-4,-0.0146484375,-39.718628,21.539307,4.559326,0,0.0,0.0,0.0,0.0
0.937988282,0.05587321,0.30431846,-0.95093036,-0.043723326,0.95225024,0.30217183,0.99748003,0.024694527,0.06651109,0.090299934,0.2853106,-0.95417184,-0.051381122,0.9581446,0.281636,0.9945883,0.023594705,0.10117997,9.956528,0.1758728,0.6687927,9.781938,0.24217059,0.65225095,-0.047714233,-0.013931274,-0.017700195,-39.718628,21.539307,4.559326,0,0.0,0.0,0.0,0.0
0.946289063,0.056007825,0.3000425,-0.95228016,-0.043421313,0.95360684,0.2979067,0.99748564,0.024664154,0.066437684,0.08893232,0.28606552,-0.95407426,-0.05110462,0.95791847,0.28245455,0.99472576,0.02363826,0.09980918,9.9756775,0.15434265,0.67836,9.781993,0.24187274,0.65153116,-0.048934937,-0.02355957,-0.014343262,-39.59961,21.479797,4.4387817,0,0.0,0.0,0.0,0.0
0.954589844,0.05589103,0.29984164,-0.9523503,-0.043328665,0.9536711,0.29771462,0.99749625,0.024624491,0.0662934,0.088272355,0.28634566,-0.95405143,-0.050960764,0.95783424,0.28276592,0.9947919,0.023658779,0.09914268,9.963715,0.16390991,0.61854553,9.782097,0.24148378,0.6501162,-0.049697876,-0.030731201,-0.015258789,-39.59961,21.479797,4.4387817,0,0.0,0.0,0.0,0.0
0.962890625,0.055668157,0.2994584,-0.952484,-0.04320468,0.9537922,0.2973446,0.99751407,0.02459914,0.06603385,0.08698735,0.2868812,-0.9540086,-0.050676655,0.957673,0.28336242,0.99491966,0.02369702,0.09784361,9.972092,0.1531372,0.624527,9.782271,0.24123517,0.64757085,-0.055496216,-0.022033691,-0.014801025,-39.59961,21.479797,4.4387817,0,0.0,0.0,0.0,0.0
0.971191407,0.05544089,0.29906756,-0.9526201,-0.0430611,0.9539159,0.2969683,0.9975329,0.02455668,0.06576412,0.0857445,0.28738022,-0.9539709,-0.05039709,0.9575225,0.28392035,0.9950417,0.023732748,0.09658542,9.972092,0.1531372,0.624527,9.782456,0.24081877,0.6449257,-0.054733276,-0.031951904,-0.012817383,-39.59961,21.479797,4.4387817,0,0.0,0.0,0.0,0.0
0.979492188,0.05555514,0.2886347,-0.9558262,-0.04232052,0.95712507,0.28656712,0.9975583,0.024530781,0.06538838,0.08454222,0.28784385,-0.9539384,-0.050121326,0.9573825,0.28444105,0.99515855,0.023765378,0.09536636,9.980469,0.1603241,0.55274963,9.782705,0.2405648,0.64124095,-0.059310913,-0.0015563965,-0.021362305,-39.65912,21.539307,4.1992188,0,0.0,0.0,0.0,0.0
0.987792969,0.05532417,0.28823552,-0.95596,-0.04222273,0.95724535,0.2861795,0.99757534,0.024530597,0.06512889,0.08396305,0.28785965,-0.9539848,-0.04996617,0.95737725,0.28448567,0.9952153,0.023780683,0.09476757,9.980469,0.1603241,0.55274963,9.782872,0.24056299,0.63869625,-0.06022644,-0.0015563965,-0.021362305,-39.65912,21.539307,4.1992188,0,0.0,0.0,0.0,0.0
0.99609375,0.05520399,0.2879338,-0.9560579,-0.042164367,0.95733607,0.2858841,0.99758434,0.02452963,0.06498931,0.08228046,0.28788176,-0.9541247,-0.04951246,0.95736957,0.28459102,0.99537855,0.023824783,0.09302654,9.973282,0.15553284,0.5252228,9.782961,0.24055351,0.63732743,-0.06512451,0.048980713,-0.023803711,-39.839172,21.77887,4.258728,0,0.0,0.0,0.0,0.0
1.004394532,0.055332825,0.28815496,-0.9559838,-0.042235106,0.95726913,0.2860978,0.99757427,0.024545476,0.06513866,0.08228046,0.28788176,-0.9541247,-0.04951246,0.95736957,0.28459102,0.99537855,0.023824783,0.09302654,9.973282,0.15553284,0.5252228,9.782862,0.2407089,0.63879204,-0.06512451,0.048980713,-0.023803711,-39.839172,21.77887,4.258728,0,0.0,0.0,0.0,0.0
1.012695313,0.055573408,0.28856793,-0.95584524,-0.04237259,0.95714384,0.2864964,0.9975551,0.024580058,0.065419115,0.08121432,0.28789258,-0.95421284,-0.049225204,0.9573656,0.2846542,0.9954803,0.02385332,0.09192336,10.00798,0.16989136,0.6652069,9.782674,0.24104802,0.6415424,-0.060073853,0.061813354,-0.029769897,-39.839172,21.77887,4.258728,0,0.0,0.0,0.0,0.0
1.020996094,0.05592333,0.29311138,-0.9544413,-0.042880107,0.95576036,0.291004,0.99751383,0.024652634,0.066017956,0.08019977,0.28791934,-0.95429057,-0.048955113,0.95735687,0.2847302,0.9955759,0.023882102,0.09087492,10.005585,0.16390991,0.72143555,9.7822695,0.24175976,0.647415,-0.067718506,0.04333496,-0.023956299,-39.89868,21.479797,4.258728,0,0.0,0.0,0.0,0.0
1.029296875,0.05588274,0.30426872,-0.95094573,-0.04375138,0.9522654,0.3021199,0.99747825,0.024721898,0.066527374,0.07971406,0.28802326,-0.9542999,-0.048836455,0.9573252,0.28485698,0.9956208,0.023897514,0.090378314,9.999603,0.15553284,0.71784973,9.78192,0.24243902,0.6524107,-0.05961609,0.029129028,-0.02670288,-39.65912,21.71936,4.6188354,0,0.0,0.0,0.0,0.0
1.037597657,0.056144126,0.30471247,-0.95078814,-0.04391934,0.9521221,0.30254656,0.9974562,0.02477178,0.06683884,0.07876748,0.28866822,-0.9541836,-0.048650697,0.95713013,0.2855435,0.9957052,0.023930158,0.08943464,9.999603,0.15553284,0.71784973,9.781704,0.24292818,0.6554651,-0.061141968,0.0051574707,-0.027008057,-39.65912,21.71936,4.6188354,0,0.0,0.0,0.0,0.0
1.045898438,0.05626793,0.30492267,-0.9507134,-0.04406361,0.95205253,0.30274427,0.99744284,0.024857072,0.06700603,0.07831372,0.28898993,-0.95412356,-0.048563633,0.95703256,0.28588495,0.99574524,0.023946991,0.088983186,9.934998,0.18185425,0.73339844,9.781573,0.24376461,0.6571047,-0.06726074,-0.0041656494,-0.023498535,-39.65912,21.71936,4.6188354,0,0.0,0.0,0.0,0.0
1.054199219,0.056379117,0.3011436,-0.95191073,-0.04387541,0.95325345,0.29896975,0.9974449,0.02490982,0.06695638,0.077438295,0.2896225,-0.9540032,-0.048399597,0.95684046,0.28655514,0.99582165,0.02398303,0.0881137,9.936203,0.17347717,0.702301,9.781593,0.2442819,0.6566178,-0.058395386,-0.034851074,-0.020904541,-39.718628,21.659851,4.499817,0,0.0,0.0,0.0,0.0
1.0625,0.056129154,0.30071634,-0.9520605,-0.043793343,0.9533876,0.29855365,0.99746263,0.024936344,0.06668221,0.07660276,0.2900795,-0.9539318,-0.048230335,0.9567011,0.2870486,0.9958945,0.024019735,0.08727657,9.944565,0.17347717,0.6412811,9.781767,0.244542,0.6539291,-0.05381775,-0.029815674,-0.014953613,-39.718628,21.659851,4.499817,0,0.0,0.0,0.0,0.0
1.070800782,0.055057935,0.31673726,-0.94691396,-0.04459782,0.94818604,0.31456965,0.99748665,0.024910744,0.06633096,0.07619257,0.2902926,-0.9538998,-0.04814618,0.95663595,0.28727958,0.99593,0.024038067,0.08686503,9.970886,0.15792847,0.60658264,9.782002,0.24429096,0.65048456,-0.0493927,-0.035003662,-0.01373291,-39.65912,21.77887,4.978943,0,0.0,0.0,0.0,0.0
1.079101563,0.054261114,0.32567963,-0.9439219,-0.044941965,0.9451531,0.32352093,0.99751484,0.024867097,0.06592174,0.07535164,0.2913442,-0.953646,-0.048027664,0.95631534,0.28836486,0.99599975,0.024072627,0.08605251,9.969696,0.15672302,0.55633545,9.782279,0.24386293,0.64647144,-0.053512573,-0.029052734,-0.015411377,-39.59961,21.899414,5.279541,0,0.0,0.0,0.0,0.0
1.087402344,0.053932294,0.32513484,-0.9441286,-0.04474378,0.9453418,0.32299674,0.9975416,0.024823925,0.06553221,0.07451141,0.29271144,-0.9532933,-0.04793366,0.955897,0.28976434,0.99606746,0.02410409,0.08525595,9.957733,0.1603241,0.53001404,9.782542,0.24343957,0.6426515,-0.05656433,-0.017745972,-0.012207031,-39.59961,21.899414,5.279541,0,0.0,0.0,0.0,0.0
1.095703125,0.053739876,0.32481602,-0.9442492,-0.04460222,0.94545263,0.32269156,0.9975583,0.024774205,0.065296024,0.07409737,0.2933634,-0.9531252,-0.047883287,0.95569676,0.29043236,0.99610084,0.024118485,0.08486182,9.957733,0.1603241,0.53001404,9.782705,0.24295196,0.64033526,-0.05656433,0.016143799,-0.01159668,-39.59961,21.899414,5.279541,0,0.0,0.0,0.0,0.0
1.104003907,0.054091785,0.31806776,-0.9465237,-0.04420057,0.9477451,0.3159522,0.9975572,0.02474646,0.065323986,0.07328641,0.29461524,-0.95280164,-0.047778342,0.9553109,0.2917162,0.9961658,0.024144452,0.08408753,9.9756775,0.18185425,0.5694885,9.782695,0.24267988,0.6406095,-0.060836792,0.04257202,-0.015258789,-39.538574,21.899414,5.0994873,0,0.0,0.0,0.0,0.0
1.112304688,0.05427126,0.31836602,-0.9464131,-0.044261277,0.9476453,0.31624243,0.99754477,0.024726575,0.06552119,0.07252266,0.2955475,-0.9525714,-0.0476544,0.9550223,0.29267982,0.9962276,0.024168294,0.08334489,9.999603,0.14596558,0.58743286,9.782573,0.24248488,0.6425434,-0.059005737,0.053253174,-0.013427734,-39.538574,21.899414,5.0994873,0,0.0,0.0,0.0,0.0
1.120605469,0.054296635,0.3256275,-0.94393784,-0.044731833,0.9451765,0.32348177,0.9975224,0.024660096,0.06588582,0.071796484,0.29645443,-0.95234454,-0.04753641,0.9547406,0.29361656,0.99628586,0.0241904,0.082639396,10.010376,0.13639832,0.6316986,9.782353,0.24183293,0.6461192,-0.063583374,0.046081543,-0.02029419,-39.239502,22.019958,5.3390503,0,0.0,0.0,0.0,0.0
1.12890625,0.054657415,0.32797718,-0.9431032,-0.04504151,0.9443635,0.32580507,0.99748874,0.024671124,0.06638905,0.07144451,0.29704073,-0.95218825,-0.047490567,0.95455813,0.2942167,0.9963134,0.024199793,0.082304575,9.963715,0.17347717,0.7346039,9.782023,0.24194108,0.65105414,-0.07183838,0.03111267,-0.021514893,-38.99994,22.198486,5.4595947,0,0.0,0.0,0.0,0.0
1.137207032,0.054982882,0.32849962,-0.9429024,-0.045229487,0.9441809,0.3263076,0.99746233,0.024705656,0.06677166,0.070775904,0.29827207,-0.95185316,-0.047413696,0.95417356,0.2954737,0.9963647,0.024218459,0.08167469,9.960129,0.17468262,0.76330566,9.781764,0.24227972,0.65480626,-0.07839966,-0.011184692,-0.022888184,-38.99994,22.198486,5.4595947,0,0.0,0.0,0.0,0.0
1.145507813,0.055078734,0.32865342,-0.9428431,-0.045313038,0.9441263,0.32645366,0.9974533,0.024742438,0.06689358,0.07045838,0.29887968,-0.95168614,-0.047379546,0.9539832,0.2960933,0.99638885,0.024228202,0.081376895,9.960129,0.17468262,0.76330566,9.781675,0.24264044,0.6560019,-0.07107544,-0.027374268,-0.020141602,-38.99994,22.198486,5.4595947,0,0.0,0.0,0.0,0.0
1.153808594,0.054918665,0.32934785,-0.94261026,-0.045320705,0.9438842,0.32715246,0.99746174,0.02475298,0.066763125,0.069846064,0.30006456,-0.95135844,-0.047315378,0.95361066,0.29730114,0.99643505,0.024248566,0.08080361,9.972092,0.15672302,0.73339844,9.781758,0.24274382,0.65472263,-0.06970215,-0.051498413,-0.018615723,-39.118958,22.31903,5.519104,0,0.0,0.0,0.0,0.0
1.162109375,0.054590564,0.32882282,-0.94281244,-0.04517913,0.9440669,0.32664436,0.99748623,0.02476375,0.06639308,0.06925183,0.30122975,-0.95103353,-0.047253247,0.9532428,0.29848862,0.99647945,0.024268541,0.08024789,9.936203,0.16390991,0.6616211,9.781999,0.24284944,0.65109366,-0.05000305,-0.057144165,-0.017089844,-39.118958,22.31903,5.519104,0,0.0,0.0,0.0,0.0
1.170410157,0.0541532,0.3294668,-0.9426128,-0.0450788,0.9438422,0.3273067,0.99751455,0.024767155,0.06596405,0.06895712,0.30178416,-0.95087916,-0.047219843,0.9530671,0.2990542,0.9965015,0.024278445,0.07997096,9.978073,0.19142151,0.6233368,9.782276,0.24288283,0.6468864,-0.053512573,-0.04875183,-0.020446777,-39.29901,22.079468,5.4595947,0,0.0,0.0,0.0,0.0
1.178710938,0.053955656,0.32445696,-0.9443604,-0.044676784,0.9455753,0.32232177,0.99754333,0.0247999,0.065514825,0.06808225,0.30341947,-0.9504217,-0.047117054,0.952547,0.3007228,0.99656653,0.024307186,0.07914777,9.958923,0.1603241,0.6017914,9.782558,0.24320395,0.64248097,-0.049087524,-0.034088135,-0.015716553,-38.99994,22.198486,5.3985596,0,0.0,0.0,0.0,0.0
1.187011719,0.053609435,0.32389998,-0.94457126,-0.044486705,0.94576705,0.32178518,0.9975706,0.02477014,0.06511128,0.067798495,0.3038417,-0.95030713,-0.047074243,0.9524122,0.30115634,0.9965879,0.02431704,0.07887523,9.968506,0.16749573,0.5659027,9.782825,0.2429121,0.6385235,-0.052597046,-0.034088135,-0.015716553,-38.99994,22.198486,5.3985596,0,0.0,0.0,0.0,0.0
1.1953125,0.053303536,0.32340777,-0.94475716,-0.04429686,0.9459367,0.3213123,0.99759537,0.0247227,0.06474771,0.06723422,0.30463865,-0.950092,-0.04698292,0.9521571,0.30197603,0.99663043,0.02433498,0.07833035,9.994827,0.15194702,0.5635071,9.783069,0.24244687,0.6349582,-0.05870056,-0.0053863525,-0.011123657,-38.99994,22.198486,5.3985596,0,0.0,0.0,0.0,0.0
1.203613282,0.05302499,0.32402378,-0.9445618,-0.044198625,0.9457271,0.32194233,0.9976146,0.024677344,0.06446857,0.06695449,0.3050152,-0.94999087,-0.046934515,0.95203626,0.30236402,0.9966515,0.024342736,0.078058854,9.972092,0.1603241,0.5276184,9.7832575,0.24200207,0.63222075,-0.04725647,0.006225586,-0.011123657,-39.118958,22.138977,5.3985596,0,0.0,0.0,0.0,0.0
1.211914063,0.052936014,0.3238798,-0.9446161,-0.044101715,0.94577765,0.32180664,0.99762356,0.024624033,0.06434936,0.06667467,0.30539665,-0.9498881,-0.046885155,0.9519139,0.302757,0.99667263,0.024349429,0.07778712,9.972092,0.1603241,0.5276184,9.783345,0.24147928,0.63105166,-0.041763306,0.019515991,-0.01159668,-39.118958,22.138977,5.3985596,0,0.0,0.0,0.0,0.0
1.220214844,0.05365735,0.30877477,-0.9496204,-0.043193262,0.95081806,0.3067236,0.9976248,0.024559231,0.06435537,0.06612834,0.3061308,-0.94969,-0.04678492,0.95167774,0.30351385,0.9967137,0.024360301,0.07725517,9.98645,0.14955139,0.5240326,9.783358,0.24084379,0.6311106,-0.048324585,0.036758423,-0.011749268,-39.239502,22.31903,5.039978,0,0.0,0.0,0.0,0.0
1.228515625,0.053414717,0.31919214,-0.9461835,-0.043831855,0.9473723,0.31711873,0.9976099,0.024534173,0.0645944,0.06563431,0.30623552,-0.94969046,-0.046644144,0.9516439,0.30364177,0.996753,0.02436818,0.07674458,9.98764,0.15792847,0.59939575,9.783212,0.24059805,0.63345474,-0.052749634,0.051574707,-0.022888184,-39.479065,21.899414,5.1589966,0,0.0,0.0,0.0,0.0
1.236816407,0.05370097,0.31966662,-0.94600713,-0.043981194,0.9472119,0.3175771,0.997588,0.024552329,0.06492551,0.06538918,0.30649522,-0.9496236,-0.046591155,0.9515602,0.30391204,0.9967716,0.0243715,0.0765017,9.98764,0.15792847,0.59939575,9.782996,0.2407761,0.63670176,-0.047561646,0.047607422,-0.02166748,-39.479065,21.899414,5.1589966,0,0.0,0.0,0.0,0.0
1.245117188,0.05411262,0.32034883,-0.9457528,-0.044181615,0.946981,0.31823695,0.9975569,0.024564251,0.06539716,0.064924814,0.30701795,-0.9494866,-0.04649389,0.95139146,0.30445468,0.99680644,0.024378661,0.076043375,9.9673,0.16151428,0.707077,9.782692,0.24089302,0.6413271,-0.059005737,0.03982544,-0.015258789,-39.479065,21.899414,5.1589966,0,0.0,0.0,0.0,0.0
1.253417969,0.054409377,0.32145593,-0.9453602,-0.044364553,0.94660586,0.31932613,0.9975326,0.024566142,0.06576547,0.06449528,0.30754706,-0.9493446,-0.046408013,0.95122033,0.3050019,0.99683833,0.024386011,0.07562187,9.960129,0.16270447,0.6963043,9.782454,0.24091156,0.64493895,-0.053207397,0.02027893,-0.023345947,-39.779663,22.259521,5.279541,0,0.0,0.0,0.0,0.0
1.26171875,0.05461007,0.32178524,-0.9452365,-0.044488765,0.94649315,0.31964275,0.99751616,0.024596691,0.06600388,0.06429294,0.30782586,-0.9492679,-0.046369992,0.95113003,0.3052891,0.9968531,0.024389612,0.075424835,9.960129,0.16270447,0.6963043,9.782291,0.24121113,0.64727694,-0.05885315,0.003326416,-0.022888184,-39.779663,22.259521,5.279541,0,0.0,0.0,0.0,0.0
1.270019532,0.05459545,0.32223096,-0.9450854,-0.044537187,0.946341,0.32008624,0.99751484,0.024616193,0.06601718,0.06390824,0.30837995,-0.9491141,-0.046300776,0.9509504,0.3058589,0.9968811,0.02439781,0.0750518,9.943375,0.16749573,0.67237854,9.782279,0.24140239,0.6474074,-0.05305481,-0.021728516,-0.012969971,-40.019226,22.439575,5.3390503,0,0.0,0.0,0.0,0.0
1.278320313,0.05411768,0.3283103,-0.9430184,-0.044804003,0.9442496,0.32616776,0.9975289,0.024599554,0.06581021,0.0635384,0.30892968,-0.9489601,-0.046236012,0.9507717,0.30642366,0.9969078,0.024406461,0.074694194,9.982849,0.1651001,0.6316986,9.782417,0.24123922,0.64537776,-0.05305481,-0.028137207,-0.015563965,-39.959717,22.439575,5.519104,0,0.0,0.0,0.0,0.0
1.286621094,0.053908598,0.32797006,-0.9431487,-0.044691306,0.94436806,0.32583964,0.99754524,0.024584992,0.06556697,0.06334931,0.3093186,-0.94884604,-0.04621102,0.9506451,0.3068198,0.996921,0.024410322,0.07451664,9.982849,0.1651001,0.6316986,9.7825775,0.2410964,0.6429924,-0.052597046,-0.024627686,-0.01586914,-39.959717,22.439575,5.519104,0,0.0,0.0,0.0,0.0
1.294921875,0.0536422,0.32753643,-0.94331455,-0.044530176,0.9445196,0.32542259,0.9975669,0.024549581,0.065251365,0.06297413,0.31005955,-0.94862926,-0.04615769,0.9504036,0.30757535,0.9969472,0.02441724,0.07416247,9.973282,0.15074158,0.5694885,9.782789,0.24074915,0.6398973,-0.046188354,-0.022033691,-0.010986328,-39.959717,22.439575,5.519104,0,0.0,0.0,0.0,0.0
1.303222657,0.05397182,0.314034,-0.94787645,-0.043659158,0.9490944,0.31195158,0.99758756,0.024546891,0.06493481,0.062603205,0.31075367,-0.94842654,-0.04609957,0.95017666,0.3082842,0.9969733,0.02442248,0.07380972,9.958923,0.17108154,0.5515442,9.782992,0.24072278,0.63679296,-0.045425415,-0.016220093,-0.01663208,-39.959717,22.439575,5.1589966,0,0.0,0.0,0.0,0.0
1.311523438,0.053730804,0.3136381,-0.9480212,-0.043559626,0.94922507,0.31156754,0.9976049,0.024554674,0.06466458,0.062430453,0.31081933,-0.9484165,-0.046051376,0.95015514,0.30835772,0.9969863,0.024424968,0.07363228,9.958923,0.17108154,0.5515442,9.783162,0.2407991,0.63414294,-0.049087524,-0.00843811,-0.01739502,-39.959717,22.439575,5.1589966,0,0.0,0.0,0.0,0.0
1.319824219,0.053105067,0.32276714,-0.9449875,-0.04402581,0.94615936,0.32069328,0.9976179,0.024573395,0.064455934,0.062085748,0.31093103,-0.9484024,-0.045953743,0.9501184,0.3084853,0.9970123,0.024430104,0.07327726,9.9673,0.17228699,0.5264282,9.78329,0.2409827,0.6320968,-0.04786682,0.025314331,-0.021514893,-40.319824,22.439575,5.3985596,0,0.0,0.0,0.0,0.0
1.328125,0.05346205,0.31385875,-0.94796336,-0.04354398,0.94915074,0.31179613,0.99762005,0.024608836,0.06441021,0.061729148,0.31140062,-0.9482717,-0.045881595,0.94996446,0.3089698,0.99703777,0.024435777,0.07292805,9.974487,0.16870117,0.55633545,9.783311,0.24133024,0.63164836,-0.056106567,0.03111267,-0.02319336,-40.25879,22.439575,5.1589966,0,0.0,0.0,0.0,0.0
1.336425782,0.05355818,0.31401783,-0.94790524,-0.04362882,0.9490971,0.31194758,0.99761117,0.02464864,0.06453214,0.061563697,0.31144983,-0.94826627,-0.045835286,0.94994825,0.30902654,0.99705017,0.02443924,0.07275772,9.974487,0.16870117,0.55633545,9.783223,0.24172057,0.6328441,-0.06022644,0.0332489,-0.018920898,-40.25879,22.439575,5.1589966,0,0.0,0.0,0.0,0.0
1.344726563,0.053752363,0.31433922,-0.94778764,-0.043719117,0.9489905,0.3122587,0.9975968,0.024651801,0.064753115,0.061246485,0.3115516,-0.9482534,-0.04574877,0.94991475,0.3091426,0.9970737,0.02444753,0.07243204,9.958923,0.16749573,0.59461975,9.783082,0.24175158,0.63501114,-0.05961609,0.04058838,-0.015258789,-40.25879,22.439575,5.1589966,0,0.0,0.0,0.0,0.0
1.353027344,0.053273883,0.32989317,-0.9425139,-0.044664305,0.9436968,0.32778266,0.9975806,0.024634471,0.06500884,0.06109648,0.31160736,-0.94824475,-0.04570862,0.94989634,0.30920503,0.99708474,0.024451617,0.07227846,9.958923,0.16749573,0.59461975,9.782924,0.24158163,0.63751894,-0.065582275,0.04043579,-0.018310547,-40.25879,22.439575,5.5786133,0,0.0,0.0,0.0,0.0
1.361328125,0.053550165,0.33034554,-0.9423397,-0.044785418,0.94353867,0.3282208,0.9975603,0.024626797,0.06532132,0.060785644,0.31233376,-0.94802564,-0.045672745,0.9496575,0.30994293,0.99710536,0.024458857,0.07199068,9.973282,0.1758728,0.6520386,9.782725,0.24150638,0.64058334,-0.07397461,0.026535034,-0.0132751465,-40.25879,22.439575,5.5786133,0,0.0,0.0,0.0,0.0
1.369628907,0.05381229,0.33029738,-0.9423417,-0.044838283,0.9435565,0.3281627,0.99754393,0.024593795,0.06558491,0.060498305,0.3130492,-0.9478081,-0.045642618,0.94942176,0.3106688,0.9971242,0.024465509,0.071726784,9.961319,0.17347717,0.7034912,9.782564,0.24118274,0.6431683,-0.061904907,5.79834E-4,-0.008224487,-40.078735,22.619629,5.6396484,0,0.0,0.0,0.0,0.0
1.377929688,0.05392149,0.33047387,-0.94227356,-0.044830557,0.94349617,0.32833725,0.9975384,0.024538215,0.065690055,0.060364153,0.3133952,-0.9477022,-0.045628797,0.9493075,0.3110197,0.99713296,0.024468075,0.07160399,9.961319,0.17347717,0.7034912,9.78251,0.24063769,0.6441994,-0.056259155,-0.011489868,-0.0066986084,-40.078735,22.619629,5.6396484,0,0.0,0.0,0.0,0.0
1.386230469,0.05390003,0.32850528,-0.9429629,-0.04458925,0.9441855,0.3263825,0.9975503,0.024453983,0.065539435,0.060108267,0.31407344,-0.94749403,-0.045601387,0.94908327,0.31170735,0.9971497,0.02447085,0.07136994,9.974487,0.16749573,0.59939575,9.782627,0.23981166,0.6427223,-0.05000305,-0.017288208,-0.0050201416,-39.779663,22.198486,5.4595947,0,0.0,0.0,0.0,0.0
1.39453125,0.05373413,0.32823363,-0.943067,-0.04443499,0.94428194,0.32612464,0.99756616,0.024381144,0.06532523,0.059861626,0.31464636,-0.94731957,-0.04556474,0.9488935,0.31228992,0.9971662,0.024470186,0.07113909,9.984055,0.16390991,0.5694885,9.782782,0.23909734,0.6406216,-0.04145813,-0.002029419,-0.009902954,-39.779663,22.198486,5.4595947,0,0.0,0.0,0.0,0.0
1.402832032,0.053211015,0.3368798,-0.94004285,-0.044827756,0.94123334,0.33476895,0.9975766,0.024326615,0.06518555,0.05973867,0.31491876,-0.9472367,-0.045543797,0.9488032,0.31256726,0.99717456,0.024468403,0.07102284,9.984055,0.16390991,0.5694885,9.782885,0.23856261,0.6392518,-0.04449463,0.009277344,-0.008682251,-39.479065,22.138977,5.6991577,0,0.0,0.0,0.0,0.0
1.411132813,0.0531864,0.3368399,-0.9400585,-0.044725403,0.9412498,0.3347363,0.9975825,0.024241077,0.06512699,0.059479054,0.31579173,-0.9469625,-0.045520794,0.9485131,0.31344968,0.99719113,0.024462791,0.07079176,10.018753,0.1375885,0.5395813,9.782943,0.23772377,0.63867766,-0.042510986,0.027755737,-0.016021729,-39.479065,22.138977,5.6991577,0,0.0,0.0,0.0,0.0
1.419433594,0.0537014,0.32861102,-0.9429374,-0.04430431,0.94415414,0.32651186,0.9975737,0.02424205,0.06526129,0.059228696,0.31662834,-0.9466987,-0.045494236,0.9482344,0.31429568,0.9972073,0.02445401,0.07056745,9.964905,0.17945862,0.5970154,9.782856,0.2377333,0.6399946,-0.04649353,0.037231445,-0.01449585,-39.35852,22.439575,5.5786133,0,0.0,0.0,0.0,0.0
1.427734375,0.05387846,0.32889447,-0.94282854,-0.044391215,0.9440554,0.32678568,0.99756026,0.02424659,0.065464266,0.059117746,0.31686854,-0.94662523,-0.045471743,0.94815433,0.31454057,0.9972148,0.024449771,0.0704613,9.964905,0.17945862,0.5970154,9.782724,0.23777783,0.6419852,-0.057174683,0.035232544,-0.010818481,-39.35852,22.439575,5.5786133,0,0.0,0.0,0.0,0.0
1.436035157,0.053764768,0.33635846,-0.94019794,-0.044872448,0.94142246,0.33423054,0.9975449,0.024219159,0.0657086,0.058909763,0.31734574,-0.9464784,-0.045431428,0.9479949,0.31502652,0.997229,0.024441725,0.070263624,9.993622,0.16151428,0.59939575,9.782574,0.23750882,0.6443812,-0.052444458,0.041046143,-0.01586914,-39.35852,22.558594,5.819702,0,0.0,0.0,0.0,0.0
1.444335938,0.05399377,0.33672112,-0.940055,-0.04493125,0.9412941,0.33458424,0.9975299,0.024172388,0.06595332,0.05870523,0.31810108,-0.9462375,-0.04541291,0.9477419,0.31578937,0.9972419,0.02443291,0.0700833,9.961319,0.13639832,0.56111145,9.782427,0.23705016,0.64678115,-0.05076599,0.055099487,-0.016784668,-39.35852,22.558594,5.819702,0,0.0,0.0,0.0,0.0
1.452636719,0.05478808,0.32648286,-0.94361395,-0.04440911,0.944895,0.32434762,0.99750996,0.024134673,0.066267796,0.05861058,0.3184747,-0.9461177,-0.045404926,0.9476166,0.31616652,0.9972478,0.024427699,0.070000686,9.961319,0.13639832,0.56111145,9.782231,0.2366803,0.6498651,-0.051376343,0.06272888,-0.01663208,-39.419556,22.738647,5.5786133,0,0.0,0.0,0.0,0.0
1.4609375,0.055163603,0.32707793,-0.94338584,-0.044585228,0.9446889,0.32492262,0.99748135,0.024137175,0.066695295,0.058458887,0.31879228,-0.9460201,-0.045366693,0.94751006,0.31649095,0.9972584,0.024416097,0.06985293,9.976868,0.17706299,0.6006012,9.781951,0.23670483,0.65405744,-0.042816162,0.06654358,-0.010375977,-39.419556,22.738647,5.5786133,0,0.0,0.0,0.0,0.0
1.469238282,0.05538932,0.33337036,-0.9411674,-0.0450807,0.94248825,0.33118513,0.99744666,0.024084369,0.067232355,0.058328155,0.3191209,-0.9459174,-0.045336828,0.94739974,0.3168254,0.9972675,0.024405051,0.06972801,9.978073,0.16270447,0.70588684,9.7816105,0.23618698,0.6593242,-0.05015564,0.059524536,-0.008529663,-39.65912,22.679138,5.6991577,0,0.0,0.0,0.0,0.0
1.477539063,0.05589221,0.334171,-0.94085383,-0.04527282,0.9422059,0.33196175,0.9974099,0.024041025,0.06779082,0.05826917,0.31940666,-0.9458246,-0.045332473,0.94730365,0.31711334,0.9972711,0.024398638,0.06967808,9.978073,0.16270447,0.70588684,9.78125,0.23576193,0.6648009,-0.05168152,0.05203247,-0.015411377,-39.65912,22.679138,5.6991577,0,0.0,0.0,0.0,0.0
1.485839844,0.056567617,0.3289102,-0.9426655,-0.045074366,0.944056,0.32669052,0.99738073,0.024009943,0.06822841,0.05817484,0.3199928,-0.9456322,-0.04533135,0.94710606,0.31770283,0.99727666,0.024384476,0.06960345,9.972092,0.15792847,0.68196106,9.780965,0.23545714,0.6690922,-0.051376343,0.038604736,-0.02029419,-39.839172,22.499084,5.4595947,0,0.0,0.0,0.0,0.0
1.494140625,0.05689249,0.32943612,-0.9424622,-0.045223497,0.9438726,0.32719916,0.9973555,0.024006264,0.06859752,0.05811092,0.32034647,-0.9455164,-0.04532165,0.9469869,0.3180593,0.99728084,0.024369644,0.06954891,9.974487,0.15553284,0.71066284,9.780717,0.23542103,0.67271185,-0.05168152,0.028671265,-0.02029419,-39.839172,22.499084,5.4595947,0,0.0,0.0,0.0,0.0
1.502441407,0.057744402,0.3178201,-0.94639105,-0.04463831,0.9478468,0.31558532,0.997333,0.02402201,0.06891979,0.05808638,0.32052857,-0.9454562,-0.04531984,0.94692546,0.31824234,0.9972823,0.024362376,0.06952978,9.974487,0.15553284,0.71066284,9.780496,0.23557544,0.6758723,-0.046798706,0.05065918,-0.022888184,-39.959717,22.799683,5.218506,0,0.0,0.0,0.0,0.0
1.510742188,0.058209073,0.31857023,-0.9461103,-0.044864256,0.9475945,0.31630975,0.9972958,0.024034439,0.06945102,0.058073066,0.3204214,-0.94549334,-0.04529286,0.9469621,0.31813723,0.99728435,0.024348896,0.06950579,10.021133,0.11843872,0.7286072,9.78013,0.23569731,0.6810818,0.017654419,0.11663818,-0.032211304,-39.959717,22.799683,5.218506,0,0.0,0.0,0.0,0.0
1.519042969,0.0586863,0.32155785,-0.94506955,-0.04542242,0.94658077,0.31925145,0.9972425,0.024191659,0.07015727,0.058078516,0.3203481,-0.94551784,-0.04527591,0.9469872,0.31806493,0.9972848,0.024336442,0.069503665,9.943375,0.1758728,0.62094116,9.779609,0.23723914,0.6880078,0.020401001,0.11923218,-0.024871826,-40.19928,22.499084,5.1589966,0,0.0,0.0,0.0,0.0
1.52734375,0.05935785,0.32266182,-0.9446513,-0.0458865,0.94620144,0.320308,0.99718153,0.024333948,0.0709703,0.058090683,0.32037234,-0.9455089,-0.04527883,0.9469791,0.31808862,0.99728394,0.024333546,0.06951675,9.943375,0.1758728,0.62094116,9.779011,0.23863453,0.6959809,-0.035491943,0.08731079,-0.019989014,-40.19928,22.499084,5.1589966,0,0.0,0.0,0.0,0.0
1.535644532,0.06124437,0.30165944,-0.95144665,-0.044921167,0.95310324,0.2992931,0.99711144,0.024410076,0.0719231,0.058141008,0.32046297,-0.9454751,-0.045302797,0.9469484,0.3181765,0.99727994,0.02433356,0.06957441,9.992432,0.16270447,0.879364,9.778323,0.23938107,0.7053247,-0.03488159,0.057388306,-0.030212402,-40.319824,22.37854,4.499817,0,0.0,0.0,0.0,0.0
1.543945313,0.061716534,0.30245334,-0.95116407,-0.04522881,0.95284915,0.3000545,0.99706835,0.024501694,0.072486155,0.058263697,0.31972072,-0.94571877,-0.045289673,0.9471992,0.31743103,0.9972734,0.024336591,0.06966738,9.948166,0.1651001,0.8003998,9.777901,0.24027956,0.71084636,-0.040985107,0.026229858,-0.024261475,-40.319824,22.37854,4.499817,0,0.0,0.0,0.0,0.0
1.552246094,0.06201443,0.3035915,-0.95078206,-0.045504995,0.95248497,0.30116722,0.99703735,0.02458862,0.072882734,0.05833254,0.3193764,-0.9458309,-0.04528953,0.9473153,0.31708452,0.9972694,0.024339892,0.06972372,9.948166,0.1651001,0.8003998,9.777596,0.24113199,0.7147355,-0.03778076,0.028518677,-0.021514893,-40.618896,22.198486,4.4387817,0,0.0,0.0,0.0,0.0
1.560546875,0.062117744,0.3037679,-0.9507189,-0.045565773,0.95242834,0.30133694,0.9970282,0.024601873,0.07300413,0.058477953,0.3187529,-0.9460322,-0.04530018,0.9475251,0.31645572,0.9972604,0.024349744,0.06984889,9.9756775,0.13400269,0.653244,9.777507,0.24126196,0.71592593,-0.04801941,0.033096313,-0.016479492,-40.618896,22.198486,4.4387817,0,0.0,0.0,0.0,0.0
1.568847657,0.062341098,0.30154577,-0.9514115,-0.045492534,0.95313334,0.29911065,0.9970175,0.024635231,0.07313746,0.05862161,0.31816098,-0.94622254,-0.04531266,0.9477237,0.31585848,0.99725133,0.024359727,0.06997381,9.9673,0.17347717,0.73579407,9.777403,0.24158911,0.71723354,-0.05519104,0.018585205,-0.02243042,-40.79895,22.439575,4.4387817,0,0.0,0.0,0.0,0.0
1.577148438,0.0625127,0.30183727,-0.9513077,-0.045598373,0.95304036,0.29939064,0.99700195,0.024662366,0.07334042,0.058695715,0.3178296,-0.9463293,-0.045317385,0.9478347,0.3155244,0.99724674,0.024365237,0.070037045,9.9673,0.17347717,0.73579407,9.777249,0.2418552,0.71922386,-0.06283569,7.324219E-4,-0.017547607,-40.79895,22.439575,4.4387817,0,0.0,0.0,0.0,0.0
1.585449219,0.06224645,0.3089896,-0.94902617,-0.046092995,0.9507455,0.30652618,0.9969959,0.024663297,0.0734228,0.058846407,0.317198,-0.94653183,-0.045330737,0.94804597,0.3148872,0.99723727,0.024377005,0.070167914,9.969696,0.15911865,0.7657013,9.77719,0.24186432,0.7200317,-0.06436157,-0.030578613,-0.017547607,-40.67993,22.198486,4.559326,0,0.0,0.0,0.0,0.0
1.59375,0.062054466,0.30866227,-0.94914544,-0.0460042,0.950852,0.30620953,0.99701196,0.024662998,0.07320436,0.058980655,0.31687346,-0.94663215,-0.04536197,0.9481542,0.31455663,0.9972279,0.024388345,0.070296764,9.957733,0.17228699,0.6915283,9.777348,0.24186139,0.71788955,-0.068481445,-0.036071777,-0.014343262,-40.67993,22.198486,4.559326,0,0.0,0.0,0.0,0.0
1.602050782,0.061589185,0.31207603,-0.94805866,-0.046111763,0.9497373,0.30963302,0.9970358,0.024646614,0.07288393,0.059042063,0.31670946,-0.9466833,-0.045375332,0.94820887,0.3143899,0.99722373,0.024393838,0.070355006,9.957733,0.17228699,0.6915283,9.777581,0.24170072,0.7147472,-0.07382202,-0.031188965,-0.01373291,-40.438843,22.37854,4.73938,0,0.0,0.0,0.0,0.0
1.610351563,0.06136216,0.3116954,-0.9481986,-0.045978945,0.9498631,0.309267,0.997056,0.024619877,0.072617084,0.059142806,0.31652611,-0.94673824,-0.045404967,0.9482698,0.3142017,0.99721634,0.024403848,0.0704552,9.963715,0.17108154,0.71784973,9.77778,0.24143852,0.7121303,-0.06253052,-0.02645874,-0.017700195,-40.438843,22.37854,4.73938,0,0.0,0.0,0.0,0.0
1.618652344,0.06174502,0.2991657,-0.9522013,-0.045087747,0.95388377,0.2967706,0.99707305,0.02460851,0.07238629,0.05923063,0.316335,-0.94679666,-0.045428135,0.9483334,0.31400648,0.9972101,0.024412403,0.0705409,9.951752,0.17468262,0.78364563,9.777946,0.24132705,0.709867,-0.059158325,-0.043411255,-0.011749268,-40.559387,22.499084,4.4387817,0,0.0,0.0,0.0,0.0
1.626953125,0.061580826,0.29888895,-0.95229894,-0.045003317,0.95397085,0.29650354,0.997087,0.024597678,0.0721973,0.059280787,0.3159926,-0.9469078,-0.045422055,0.9484474,0.31366274,0.99720734,0.024416324,0.07057774,9.951752,0.17468262,0.78364563,9.778083,0.2412208,0.70801365,-0.05305481,-0.056228638,-0.01159668,-40.559387,22.499084,4.4387817,0,0.0,0.0,0.0,0.0
1.635253907,0.06124687,0.2983876,-0.95247763,-0.044784747,0.95412964,0.29602534,0.99711746,0.024525845,0.071800664,0.05937171,0.31531724,-0.9471273,-0.045406748,0.94867194,0.31298515,0.9972027,0.024423506,0.07064181,9.952942,0.1483612,0.7393799,9.778382,0.2405164,0.70412403,-0.05381775,-0.08067322,-0.0146484375,-40.67993,22.138977,4.319763,0,0.0,0.0,0.0,0.0
1.643554688,0.060722914,0.2974864,-0.95279306,-0.04449094,0.95441246,0.29515654,0.9971626,0.024467893,0.071190156,0.05944611,0.31464872,-0.9473449,-0.045383148,0.9488938,0.31231537,0.9971994,0.024427557,0.0706878,9.992432,0.15194702,0.6927185,9.778825,0.23994806,0.698137,-0.046035767,-0.089523315,-0.014343262,-40.67993,22.138977,4.319763,0,0.0,0.0,0.0,0.0
1.651855469,0.060275126,0.29273146,-0.954293,-0.043939877,0.95588267,0.29044378,0.99721426,0.024424985,0.070478536,0.059471827,0.31430647,-0.94745684,-0.04536563,0.9490072,0.31197318,0.9971986,0.024428364,0.0706979,9.992432,0.15194702,0.6927185,9.779331,0.23952729,0.69115835,-0.049850464,-0.10220337,-0.010681152,-40.67993,22.259521,4.258728,0,0.0,0.0,0.0,0.0
1.66015625,0.059571173,0.29152414,-0.9547067,-0.043575585,0.956253,0.28927732,0.9972725,0.024369318,0.06966844,0.05948821,0.3138765,-0.9475984,-0.045337245,0.9491495,0.31154415,0.99719894,0.024428297,0.0706935,9.973282,0.16390991,0.6388855,9.779902,0.23898138,0.68321407,-0.0594635,-0.10983276,-0.0119018555,-40.67993,22.259521,4.258728,0,0.0,0.0,0.0,0.0
1.668457032,0.058682837,0.29,-0.95522577,-0.043132972,0.9567177,0.28780314,0.9973444,0.024312625,0.06865147,0.059492514,0.31299454,-0.9478898,-0.045267116,0.9494408,0.3106656,0.99720186,0.024425961,0.07065298,9.96611,0.15194702,0.5922241,9.780607,0.2384254,0.67324096,-0.061904907,-0.10861206,-0.0132751465,-40.67993,22.259521,4.258728,0,0.0,0.0,0.0,0.0
1.676757813,0.057713278,0.29066366,-0.95508313,-0.042857874,0.9565171,0.28851026,0.9974128,0.02428196,0.067660965,0.059461843,0.31208736,-0.9481908,-0.04518141,0.94973946,0.30976373,0.9972075,0.02442147,0.07057381,9.96611,0.15194702,0.5922241,9.781279,0.23812468,0.6635274,-0.051376343,-0.091049194,-0.021972656,-40.919495,22.31903,4.319763,1,0.0,0.0,0.0,0.0
1.685058594,0.056597102,0.29586267,-0.9535523,-0.042891875,0.95492196,0.29374182,0.9974753,0.024274712,0.06673592,0.059427626,0.31166044,-0.9483334,-0.045133963,0.9498797,0.3093403,0.9972117,0.024418682,0.070515566,9.979263,0.14476013,0.5479584,9.781892,0.23805362,0.65445584,-0.053359985,-0.073028564,-0.020904541,-40.859985,22.31903,4.499817,1,0.0,0.0,0.0,0.0
1.693359375,0.055896692,0.29466358,-0.9539649,-0.042639554,0.9552915,0.2925749,0.99752563,0.024322666,0.06596195,0.05931655,0.31103647,-0.94854516,-0.04504314,0.9500844,0.30872443,0.9972225,0.024412982,0.070365794,9.992432,0.17706299,0.5395813,9.782385,0.23852389,0.6468658,-0.061141968,-0.062194824,-0.01953125,-40.859985,22.31903,4.499817,1,0.0,0.0,0.0,0.0
1.701660157,0.05595459,0.28085423,-0.9581179,-0.041678194,0.9594419,0.27880833,0.99756306,0.02433202,0.06539068,0.059182383,0.31038985,-0.9487653,-0.044945493,0.9502959,0.30808696,0.9972348,0.024409404,0.0701914,9.963715,0.14955139,0.5970154,9.782752,0.23861562,0.64126354,-0.06175232,-0.049819946,-0.023956299,-41.09955,21.899414,4.019165,1,0.0,0.0,0.0,0.0
1.709960938,0.055481736,0.28001678,-0.9583905,-0.041543107,0.95968515,0.2779901,0.9975951,0.02439115,0.06487776,0.059119247,0.30980194,-0.9489614,-0.04487779,0.9504878,0.30750442,0.9972416,0.024407858,0.070095345,9.9756775,0.17228699,0.57307434,9.783066,0.23919548,0.63623357,-0.059005737,-0.04096985,-0.025787354,-41.09955,21.899414,4.019165,1,0.0,0.0,0.0,0.0
1.718261719,0.05509047,0.27932376,-0.9586153,-0.041435547,0.95988584,0.27731273,0.99762124,0.024443462,0.06445448,0.05897813,0.30862796,-0.9493526,-0.04474065,0.9508696,0.30634165,0.99725616,0.024407197,0.06988873,9.976868,0.16989136,0.5694885,9.783322,0.23970848,0.6320826,-0.06266785,-0.032714844,-0.020141602,-41.09955,21.899414,4.019165,1,0.0,0.0,0.0,0.0
1.7265625,0.05498715,0.27412137,-0.9601218,-0.041080575,0.9613835,0.27212888,0.9976416,0.024478765,0.06412481,0.058827065,0.30747285,-0.94973665,-0.044604503,0.9512437,0.30519792,0.9972711,0.024408633,0.06967355,9.976868,0.16989136,0.5694885,9.783523,0.2400547,0.62884957,-0.052597046,-0.019119263,-0.018615723,-41.09955,21.899414,3.8986206,1,0.0,0.0,0.0,0.0
1.734863282,0.055508528,0.25561544,-0.9651837,-0.039971627,0.96646804,0.2536568,0.9976578,0.024499848,0.06386458,0.05875196,0.30680937,-0.94995594,-0.04453089,0.9514579,0.30454037,0.9972789,0.024410037,0.06956251,9.982849,0.16390991,0.55752563,9.783681,0.24026145,0.6262976,-0.05870056,-0.016220093,-0.015258789,-41.038513,21.598816,3.3599854,1,0.0,0.0,0.0,0.0
1.743164063,0.055317562,0.25526857,-0.96528655,-0.039882883,0.96656024,0.2533198,0.99767196,0.024485372,0.06364859,0.058629893,0.30479777,-0.95061076,-0.04434158,0.9521041,0.30254176,0.9972945,0.024413593,0.06933697,9.982849,0.17108154,0.58026123,9.78382,0.24011947,0.6241794,-0.05656433,-0.008743286,-0.01373291,-41.038513,21.598816,3.3599854,1,0.0,0.0,0.0,0.0
1.751464844,0.054474216,0.2737356,-0.96026117,-0.040921118,0.96149313,0.2717654,0.99767625,0.02449075,0.06357814,0.058504663,0.30285093,-0.95124054,-0.04415644,0.9527251,0.30060783,0.9973101,0.024416436,0.06911168,9.978073,0.19262695,0.63290405,9.783862,0.2401722,0.6234886,-0.051986694,-0.008743286,-0.0119018555,-40.859985,21.598816,3.8391113,1,0.0,0.0,0.0,0.0
1.759765625,0.054410182,0.27362093,-0.96029747,-0.040889904,0.961526,0.27165416,0.9976811,0.024485715,0.06350513,0.058425475,0.30227128,-0.9514297,-0.044088952,0.9529092,0.30003387,0.99731773,0.024417922,0.069001,9.96611,0.18304443,0.65682983,9.783909,0.24012282,0.6227725,-0.051986694,-0.01423645,-0.009765625,-40.859985,21.598816,3.8391113,1,0.0,0.0,0.0,0.0
1.768066407,0.054300707,0.27342486,-0.96035945,-0.040792227,0.96158296,0.27146673,0.99769104,0.024434367,0.06336824,0.058269247,0.3011417,-0.9517975,-0.043957025,0.9532667,0.29891548,0.9973327,0.024420606,0.06878342,9.961319,0.16749573,0.61854553,9.784007,0.23961928,0.62143016,-0.05076599,-0.021881104,-0.0119018555,-40.859985,21.598816,3.8391113,1,0.0,0.0,0.0,0.0
1.776367188,0.05369609,0.2811891,-0.95814896,-0.041097637,0.95934254,0.27923623,0.99771124,0.024383765,0.06306915,0.05803962,0.2995185,-0.95232356,-0.043763593,0.9537779,0.2973087,0.99735457,0.024421414,0.068464905,9.996017,0.1531372,0.5288086,9.784205,0.23912305,0.6184971,-0.05229187,-0.0052337646,-0.010818481,-40.499878,21.839905,4.1397095,1,0.0,0.0,0.0,0.0
1.784667969,0.053045534,0.2906,-0.95537317,-0.041514147,0.9565348,0.2886483,0.99772877,0.024349997,0.0628039,0.057953633,0.29915297,-0.9524436,-0.043708526,0.95389265,0.2969485,0.997362,0.024420662,0.06835707,9.996017,0.1531372,0.5288086,9.784377,0.2387919,0.61589587,-0.048324585,0.00592041,-0.016479492,-40.438843,21.77887,4.3792725,1,0.0,0.0,0.0,0.0
1.79296875,0.05291586,0.29037443,-0.95544887,-0.041422304,0.9566041,0.2884314,0.9977395,0.024314297,0.062647514,0.057855822,0.29898208,-0.9525032,-0.04366375,0.95394623,0.29678285,0.99736965,0.024419248,0.06824602,9.996017,0.1531372,0.5288086,9.784482,0.23844181,0.61436224,-0.05000305,0.017059326,-0.017852783,-40.438843,21.77887,4.3792725,1,0.0,0.0,0.0,0.0
1.801269532,0.052884284,0.2903195,-0.9554674,-0.041385703,0.95662147,0.2883795,0.99774265,0.024291942,0.062605314,0.057757463,0.29881018,-0.9525631,-0.043618053,0.9540002,0.29661623,0.99737734,0.024417149,0.06813415,9.972092,0.17347717,0.5850525,9.784513,0.23822258,0.6139484,-0.052749634,0.013549805,-0.015411377,-40.438843,21.77887,4.3792725,1,0.0,0.0,0.0,0.0
1.809570313,0.0523983,0.3032592,-0.9514665,-0.0421336,0.95259833,0.3012996,0.99773705,0.024301114,0.06269192,0.05756521,0.2984744,-0.95268005,-0.043527976,0.9541054,0.2962908,0.9973924,0.02441219,0.06791527,9.958923,0.16870117,0.61135864,9.784458,0.23831251,0.6147977,-0.062057495,0.0056152344,-0.016326904,-40.379333,21.659851,4.6798706,1,0.0,0.0,0.0,0.0
1.817871094,0.05239754,0.30325782,-0.95146686,-0.042104475,0.95259935,0.30130008,0.9977383,0.024273627,0.062682375,0.057360273,0.29866406,-0.95263296,-0.043473728,0.95404613,0.29648945,0.99740654,0.024407793,0.06770839,9.985245,0.14356995,0.57069397,9.784471,0.23804297,0.61470413,-0.05885315,0.008972168,-0.013580322,-40.379333,21.659851,4.6798706,1,0.0,0.0,0.0,0.0
1.826171875,0.05308061,0.28741035,-0.9563356,-0.04117404,0.95750123,0.28547534,0.99774104,0.024222994,0.062658586,0.057260923,0.298756,-0.9526101,-0.043446824,0.9540174,0.2965858,0.9974134,0.024405109,0.067607924,9.960129,0.18185425,0.57547,9.784497,0.23754643,0.61447084,-0.06283569,0.0025634766,-0.0119018555,-39.89868,21.539307,4.258728,1,0.0,0.0,0.0,0.0
1.834472657,0.052380726,0.3030424,-0.95153636,-0.041985214,0.9526703,0.30109233,0.99774426,0.024179026,0.062624864,0.057096425,0.29830754,-0.9527605,-0.04335489,0.95415795,0.2961469,0.99742687,0.024397897,0.0674121,9.972092,0.15792847,0.5515442,9.784529,0.23711525,0.61414015,-0.06726074,0.012634277,-0.01586914,-39.59961,21.539307,4.6798706,1,0.0,0.0,0.0,0.0
1.842773438,0.052458204,0.30317476,-0.95149004,-0.041976687,0.9526292,0.30122346,0.99774045,0.024138756,0.06269948,0.056909453,0.29849514,-0.9527129,-0.04330155,0.9540995,0.29634297,0.9974398,0.02438923,0.06722258,9.976868,0.15553284,0.59939575,9.784492,0.23672034,0.6148719,-0.060836792,0.015991211,-0.01373291,-39.59961,21.539307,4.6798706,1,0.0,0.0,0.0,0.0
1.851074219,0.05257931,0.30338162,-0.9514174,-0.041985147,0.9525644,0.3014271,0.9977338,0.02409657,0.0628227,0.056820378,0.29858878,-0.95268893,-0.043275505,0.95407027,0.2964407,0.99744606,0.02438422,0.06713222,9.976868,0.15553284,0.59939575,9.784427,0.23630665,0.6160803,-0.060836792,0.024856567,-0.01159668,-39.59961,21.539307,4.6798706,1,0.0,0.0,0.0,0.0
1.859375,0.052846305,0.3014509,-0.95201606,-0.041885924,0.9531783,0.29949385,0.9977238,0.02404893,0.0629985,0.056652095,0.29877874,-0.9526394,-0.04322519,0.95401114,0.29663843,0.9974578,0.024372831,0.06696149,10.000809,0.14596558,0.6006012,9.784328,0.23583944,0.6178043,-0.056869507,0.029129028,-0.016784668,-39.65912,21.539307,4.6188354,1,0.0,0.0,0.0,0.0
1.867675782,0.053035118,0.30177435,-0.95190316,-0.041942112,0.9530767,0.2998096,0.9977115,0.02402439,0.06320358,0.05650134,0.2988846,-0.95261514,-0.043172598,0.9539783,0.29675165,0.99746865,0.024360005,0.06680467,10.000809,0.14596558,0.6006012,9.784207,0.23559879,0.6198154,-0.05519104,0.016921997,-0.014953613,-39.65912,21.539307,4.6188354,1,0.0,0.0,0.0,0.0
1.875976563,0.052780595,0.3126293,-0.94840765,-0.042574473,0.9495723,0.31064388,0.9976981,0.023981987,0.06342903,0.056431912,0.29894242,-0.95260113,-0.04314819,0.95396036,0.2968129,0.99747366,0.024353294,0.06673263,9.985245,0.1603241,0.6915283,9.784077,0.23518296,0.62202626,-0.058242798,0.006225586,-0.017089844,-39.89868,21.659851,4.9194336,1,0.0,0.0,0.0,0.0
1.884277344,0.0528332,0.31271887,-0.9483752,-0.042618625,0.94954246,0.31072947,0.9976935,0.024001613,0.06349501,0.05628672,0.29948562,-0.95243907,-0.043127287,0.9537903,0.2973618,0.9974827,0.024338592,0.06660173,9.956528,0.16151428,0.6663971,9.784031,0.23537542,0.6226734,-0.04067993,-0.019897461,-0.022888184,-39.89868,21.659851,4.9194336,1,0.0,0.0,0.0,0.0
1.892578125,0.052675996,0.31353253,-0.9481153,-0.042707108,0.94927216,0.31154233,0.99769807,0.02408046,0.06339392,0.056149475,0.30001077,-0.9522819,-0.043108813,0.9536257,0.29789224,0.9974913,0.024325248,0.066478685,9.976868,0.19621277,0.65922546,9.784076,0.23614866,0.621682,-0.0493927,-0.040512085,-0.0119018555,-39.65912,21.539307,4.9194336,1,0.0,0.0,0.0,0.0
1.900878907,0.05245976,0.3131649,-0.9482488,-0.042655952,0.9493923,0.3111827,0.99771154,0.024123885,0.063163236,0.05607977,0.3002818,-0.95220053,-0.04310166,0.95354044,0.29816586,0.99749553,0.024320353,0.06641698,9.976868,0.19621277,0.65922546,9.784208,0.2365745,0.61941975,-0.042678833,-0.040649414,-0.01449585,-39.65912,21.539307,4.9194336,1,0.0,0.0,0.0,0.0
1.909179688,0.052251503,0.30972084,-0.94939077,-0.042351,0.9505214,0.3077588,0.9977355,0.024126785,0.06278315,0.055936083,0.30079305,-0.95204765,-0.04308576,0.9533795,0.2986824,0.9975043,0.024312573,0.06628821,9.976868,0.17468262,0.5898285,9.784443,0.23660295,0.6156924,-0.050460815,-0.036834717,-0.016937256,-39.779663,21.238708,4.73938,1,0.0,0.0,0.0,0.0
1.917480469,0.051942308,0.30918452,-0.9495825,-0.042223327,0.95069575,0.3072374,0.9977571,0.024135916,0.062436126,0.05578997,0.3011471,-0.95194423,-0.04305796,0.9532679,0.29904237,0.99751365,0.024305213,0.06614958,9.980469,0.18185425,0.5479584,9.784655,0.23669249,0.61228925,-0.05305481,-0.020339966,-0.011444092,-39.779663,21.238708,4.73938,1,0.0,0.0,0.0,0.0
1.92578125,0.05187586,0.30416867,-0.95120466,-0.04186071,0.95231235,0.30223992,0.99777585,0.024139147,0.062134735,0.055712797,0.30130807,-0.95189786,-0.043041863,0.9532171,0.2992065,0.99751866,0.024301825,0.06607525,9.997208,0.16630554,0.5048828,9.784839,0.23672418,0.60933363,-0.051376343,-0.0124053955,-0.013427734,-39.839172,21.238708,4.6188354,1,0.0,0.0,0.0,0.0
1.934082032,0.0516192,0.30642352,-0.95049465,-0.04191463,0.9515895,0.3045002,0.9977868,0.024121575,0.061963923,0.055560857,0.3014214,-0.95187086,-0.042995576,0.95318145,0.29932675,0.99752915,0.024295384,0.06591937,9.98764,0.16870117,0.5479584,9.784946,0.23655185,0.6076585,-0.06314087,0.011566162,-0.015106201,-39.959717,21.058655,4.6188354,1,0.0,0.0,0.0,0.0
1.942382813,0.051615354,0.30641675,-0.9504971,-0.04186943,0.95159286,0.30449635,0.99778897,0.024080083,0.061946288,0.05540456,0.30161962,-0.9518172,-0.04295355,0.953119,0.29953182,0.9975397,0.024288502,0.06576277,9.999603,0.14237976,0.5539398,9.784967,0.23614495,0.6074856,-0.0594635,0.023330688,-0.01663208,-39.959717,21.058655,4.6188354,1,0.0,0.0,0.0,0.0
1.950683594,0.051736735,0.30663052,-0.9504216,-0.041906044,0.95152456,0.30470517,0.9977812,0.024063952,0.06207843,0.05532865,0.3017156,-0.95179117,-0.042932235,0.95308864,0.2996312,0.99754477,0.024284333,0.06568643,9.984055,0.14715576,0.57188416,9.784891,0.23598675,0.60878146,-0.0594635,0.0320282,-0.022735596,-39.959717,21.058655,4.6188354,1,0.0,0.0,0.0,0.0
1.958984375,0.05136263,0.3200286,-0.9460145,-0.042759426,0.94710094,0.31807455,0.9977643,0.024113894,0.062329847,0.055186134,0.3019104,-0.95173764,-0.042892277,0.9530272,0.29983234,0.9975544,0.024275606,0.06554351,9.976868,0.17228699,0.6029968,9.784725,0.23647653,0.611247,-0.061294556,0.03416443,-0.02243042,-40.25879,21.1792,4.978943,1,0.0,0.0,0.0,0.0
1.967285157,0.05158904,0.3204246,-0.94586813,-0.042922676,0.9469655,0.31845528,0.9977456,0.024170391,0.06260653,0.05510937,0.30227384,-0.9516268,-0.042890877,0.95291203,0.30019826,0.9975587,0.024272371,0.065479174,9.976868,0.17228699,0.6029968,9.784542,0.23703057,0.6139603,-0.06266785,0.03416443,-0.020446777,-40.25879,21.1792,4.978943,1,0.0,0.0,0.0,0.0
1.975585938,0.05215946,0.31229803,-0.9485512,-0.042591125,0.94967556,0.3103262,0.99773014,0.02421341,0.06283569,0.054969702,0.30299473,-0.9514056,-0.04289443,0.95268315,0.3009233,0.9975663,0.024268335,0.06536549,10.010376,0.16151428,0.66760254,9.78439,0.23745245,0.61620766,-0.06375122,0.022415161,-0.021057129,-40.25879,21.299744,4.798889,1,0.0,0.0,0.0,0.0
1.983886719,0.05198553,0.3209131,-0.9456808,-0.043157663,0.9467985,0.31891996,0.9977149,0.024234153,0.06306969,0.054858148,0.30336374,-0.9512944,-0.042883374,0.95256585,0.30129623,0.9975729,0.02426616,0.06526525,9.957733,0.16870117,0.67118835,9.784241,0.23765586,0.6185024,-0.06266785,0.007293701,-0.019989014,-40.13977,20.999146,4.9194336,1,0.0,0.0,0.0,0.0
1.9921875,0.05210442,0.32112223,-0.9456034,-0.043238845,0.94672704,0.3191213,0.99770516,0.024259165,0.06321362,0.05480064,0.30371574,-0.95118535,-0.042889766,0.9524536,0.3016497,0.99757576,0.024265518,0.06522137,9.957733,0.16870117,0.67118835,9.784145,0.23790115,0.6199138,-0.048477173,-9.460449E-4,-0.016937256,-40.13977,20.999146,4.9194336,1,0.0,0.0,0.0,0.0
2.000488282,0.052068602,0.32105923,-0.9456267,-0.043185107,0.94674927,0.3190625,0.99770933,0.024223855,0.06316089,0.054693732,0.30440703,-0.9509705,-0.04290518,0.95223296,0.3023435,0.9975809,0.024265267,0.06514181,9.990036,0.13998413,0.6053772,9.784186,0.23755488,0.61939675,-0.057022095,-0.0124053955,-0.016021729,-40.13977,20.999146,4.9194336,1,0.0,0.0,0.0,0.0
2.008789063,0.051622424,0.327499,-0.9434403,-0.043484464,0.9445411,0.32550177,0.9977195,0.024221804,0.06300061,0.05458962,0.30506825,-0.9507646,-0.04291775,0.95202136,0.30300727,0.9975861,0.024263626,0.06506333,9.979263,0.16870117,0.5790558,9.7842865,0.23753476,0.617825,-0.048934937,-0.009506226,-0.018463135,-40.078735,21.1792,5.1589966,1,0.0,0.0,0.0,0.0
2.017089844,0.051485524,0.32726178,-0.94353,-0.04342863,0.94462305,0.32527113,0.99772906,0.024229465,0.062846944,0.05453024,0.30551857,-0.95062345,-0.042930227,0.95187694,0.30345887,0.9975888,0.024262791,0.06502206,9.979263,0.16870117,0.5790558,9.784379,0.23760986,0.6163179,-0.055038452,-0.0070648193,-0.015258789,-40.078735,21.1792,5.1589966,1,0.0,0.0,0.0,0.0
2.025390625,0.05199725,0.31399864,-0.9479985,-0.0426486,0.94911486,0.31202915,0.99773616,0.024206147,0.06274296,0.05440951,0.30638272,-0.9503522,-0.04295216,0.95159924,0.30432564,0.9975945,0.02426147,0.06493585,9.958923,0.14596558,0.5862427,9.78445,0.2373812,0.61529833,-0.046188354,-0.004928589,-0.018463135,-40.019226,21.299744,4.8599243,1,0.0,0.0,0.0,0.0
2.033691407,0.051866993,0.31404555,-0.9479902,-0.04262383,0.94909906,0.31208083,0.99774396,0.024220273,0.06261273,0.054313857,0.30668464,-0.9502603,-0.04294084,0.95150197,0.30463105,0.99760014,0.02425928,0.064849034,9.997208,0.17108154,0.55633545,9.784526,0.23751974,0.6140211,-0.0493927,-6.4086914E-4,-0.018005371,-40.13977,21.299744,4.8599243,1,0.0,0.0,0.0,0.0
2.041992188,0.051763177,0.31386486,-0.94805557,-0.042600974,0.94915813,0.3119039,0.99775034,0.024242958,0.06250239,0.05426485,0.30683205,-0.9502154,-0.042934842,0.95145446,0.30478022,0.99760306,0.0242585,0.06480432,9.997208,0.17108154,0.55633545,9.784588,0.2377422,0.61293906,-0.048934937,-0.0018615723,-0.018920898,-40.13977,21.299744,4.8599243,1,0.0,0.0,0.0,0.0
2.050292969,0.051669035,0.31370097,-0.948115,-0.042581856,0.9492117,0.3117433,0.997756,0.02426502,0.062402826,0.054165468,0.30711088,-0.95013106,-0.04292223,0.9513646,0.30506265,0.997609,0.024257883,0.06471299,9.98764,0.16749573,0.5407715,9.784644,0.23795855,0.6119627,-0.055648804,0.014465332,-0.019683838,-40.13977,21.299744,4.8599243,1,0.0,0.0,0.0,0.0
2.05859375,0.051837765,0.31051975,-0.9491524,-0.042385377,0.9502579,0.30856654,0.9977556,0.024234785,0.06242075,0.054066617,0.3073721,-0.95005226,-0.04290942,0.9512802,0.30532745,0.9976149,0.024258167,0.06462166,9.992432,0.13279724,0.56829834,9.78464,0.23766206,0.61213845,-0.056411743,0.022567749,-0.01953125,-40.078735,21.359253,4.798889,1,0.0,0.0,0.0,0.0
2.066894532,0.0519337,0.31068632,-0.94909275,-0.042397406,0.9502043,0.3087302,0.9977501,0.024205562,0.062519915,0.054022014,0.30743507,-0.9500344,-0.042899083,0.9512598,0.30539227,0.9976178,0.024257699,0.064577654,9.992432,0.13279724,0.56829834,9.784587,0.2373755,0.61311096,-0.057632446,0.023788452,-0.019378662,-40.078735,21.359253,4.798889,1,0.0,0.0,0.0,0.0
2.075195313,0.05199393,0.3131811,-0.94826907,-0.04259745,0.94938475,0.31121394,0.9977385,0.024212614,0.062702954,0.05393915,0.30756393,-0.94999737,-0.042879455,0.9512182,0.30552456,0.99762315,0.024255635,0.06449607,9.979263,0.1531372,0.61016846,9.784472,0.23744464,0.61490595,-0.06297302,0.024856567,-0.021972656,-40.019226,21.539307,4.9194336,1,0.0,0.0,0.0,0.0
2.083496094,0.052231945,0.31238094,-0.9485199,-0.042631052,0.94964796,0.31040493,0.9977246,0.02422335,0.06291909,0.053824466,0.30789456,-0.94989675,-0.04286342,0.9511113,0.30585945,0.99763,0.024253104,0.06439047,9.972092,0.1531372,0.6400757,9.784336,0.23754992,0.6170255,-0.062210083,0.0025634766,-0.020141602,-39.839172,21.598816,4.9194336,1,0.0,0.0,0.0,0.0
2.091796875,0.052366193,0.31260973,-0.9484371,-0.042696875,0.94957256,0.31062657,0.99771476,0.024228968,0.063072965,0.053824466,0.30789456,-0.94989675,-0.04286342,0.9511113,0.30585945,0.99763,0.024253104,0.06439047,9.972092,0.1531372,0.6400757,9.78424,0.23760502,0.6185345,-0.062210083,0.0025634766,-0.020141602,-39.839172,21.598816,4.9194336,1,0.0,0.0,0.0,0.0
2.100097657,0.05242283,0.3127062,-0.94840217,-0.04271185,0.9495411,0.31072083,0.9977112,0.024219148,0.06313389,0.053766515,0.3080814,-0.94983953,-0.042857036,0.9510508,0.30604836,0.9976334,0.024252148,0.06433814,9.978073,0.1651001,0.59820557,9.7842045,0.23750871,0.619132,-0.06542969,0.01171875,-0.021820068,-39.839172,21.598816,4.9194336,1,0.0,0.0,0.0,0.0
2.108398438,0.052346397,0.3147442,-0.947732,-0.042842165,0.9488672,0.3127549,0.9977096,0.0242313,0.0631541,0.053739674,0.30817398,-0.9498109,-0.042854268,0.95102084,0.30614188,0.997635,0.024251487,0.06431413,9.978073,0.1651001,0.59820557,9.784188,0.23762786,0.61933017,-0.05747986,0.006225586,-0.015563965,-39.718628,21.418762,4.9194336,1,0.0,0.0,0.0,0.0
2.116699219,0.052363496,0.31477347,-0.94772136,-0.042854954,0.94885737,0.31278294,0.99770814,0.024236144,0.06317509,0.05368448,0.30843446,-0.9497295,-0.04285413,0.95093644,0.30640402,0.9976379,0.02425069,0.06426822,9.964905,0.16151428,0.5922241,9.784175,0.23767538,0.619536,-0.06297302,0.012176514,-0.019836426,-39.718628,21.418762,4.9194336,1,0.0,0.0,0.0,0.0
2.125,0.05222842,0.3181577,-0.94659805,-0.043045677,0.947728,0.31616247,0.997707,0.024234291,0.06319365,0.053632237,0.30868575,-0.9496509,-0.0428545,0.9508549,0.3066569,0.9976407,0.024250114,0.06422505,9.980469,0.15434265,0.5922241,9.784163,0.23765722,0.619718,-0.05381775,0.008056641,-0.018463135,-39.538574,21.839905,5.1589966,1,0.0,0.0,0.0,0.0
2.133300782,0.052250974,0.31819525,-0.94658417,-0.04305701,0.94771534,0.31619877,0.99770534,0.024235388,0.06321959,0.053604197,0.30887547,-0.94959074,-0.04285857,0.95079327,0.30684727,0.99764204,0.024249798,0.06420447,9.980469,0.15434265,0.5922241,9.784147,0.23766798,0.6199724,-0.054885864,0.009277344,-0.018310547,-39.538574,21.839905,5.1589966,1,0.0,0.0,0.0,0.0
2.141601563,0.053392604,0.29401138,-0.9543095,-0.041757084,0.9554941,0.29204008,0.9977001,0.024256399,0.06329337,0.053550586,0.30924508,-0.9494735,-0.042866856,0.9506732,0.30721813,0.9976446,0.02424923,0.064165466,9.98645,0.1603241,0.62094116,9.784096,0.23787402,0.62069595,-0.049697876,0.0082092285,-0.02243042,-39.59961,21.598816,4.4387817,1,0.0,0.0,0.0,0.0
2.149902344,0.053445764,0.29410246,-0.95427835,-0.04182713,0.95546484,0.29212552,0.9976944,0.024301857,0.06336702,0.053544674,0.30864328,-0.9496696,-0.042822585,0.95086867,0.3066186,0.9976468,0.024249513,0.06413086,9.961319,0.1603241,0.62094116,9.7840395,0.23831981,0.6214182,-0.048934937,0.0095825195,-0.029296875,-39.59961,21.598816,4.4387817,1,0.0,0.0,0.0,0.0
2.158203125,0.053163875,0.30139,-0.9520177,-0.042307623,0.9531898,0.29939845,0.9976892,0.02436042,0.06342635,0.05354292,0.3083532,-0.9497639,-0.042802565,0.95096284,0.30632943,0.99764776,0.024250561,0.06411563,9.993622,0.15434265,0.62094116,9.783989,0.23889412,0.62200004,-0.05381775,0.0066833496,-0.024719238,-39.779663,21.418762,4.559326,1,0.0,0.0,0.0,0.0
2.166503907,0.053177178,0.30141294,-0.9520096,-0.04237587,0.95318085,0.29941672,0.9976855,0.024420103,0.06346011,0.053528044,0.30807778,-0.94985414,-0.04278284,0.9510519,0.3060553,0.99764943,0.024254913,0.0640884,9.98764,0.15672302,0.63290405,9.783953,0.23947941,0.6223311,-0.05290222,-0.0066070557,-0.026550293,-39.779663,21.418762,4.559326,1,0.0,0.0,0.0,0.0
2.174804688,0.052980527,0.3043766,-0.9510773,-0.042601064,0.9522368,0.30237454,0.99768645,0.024496939,0.06341677,0.05351433,0.30781412,-0.9499403,-0.04276663,0.9511372,0.30579266,0.99765086,0.024261456,0.06406364,9.979263,0.16989136,0.62571716,9.783961,0.2402329,0.62190604,-0.052139282,-0.015609741,-0.0289917,-39.35852,21.659851,4.73938,1,0.0,0.0,0.0,0.0
2.183105469,0.052849837,0.30415612,-0.9511551,-0.04264601,0.9523048,0.30215415,0.99769145,0.024594171,0.063300185,0.053503633,0.3077454,-0.9499633,-0.042763263,0.9511593,0.30572432,0.9976516,0.024266165,0.064050674,9.979263,0.16989136,0.62571716,9.784011,0.24118643,0.62076277,-0.05305481,-0.025848389,-0.0289917,-39.35852,21.659851,4.73938,1,0.0,0.0,0.0,0.0
2.19140625,0.052662097,0.30311137,-0.9514989,-0.042587403,0.9526359,0.3011165,0.99770385,0.024664441,0.06307653,0.053477827,0.3076033,-0.95001066,-0.04275854,0.95120484,0.305583,0.9976531,0.024279153,0.064021036,9.950546,0.15911865,0.604187,9.784133,0.24187554,0.6185695,-0.056411743,-0.029205322,-0.020141602,-39.419556,21.539307,4.6798706,1,0.0,0.0,0.0,0.0
2.199707032,0.0524224,0.30270374,-0.9516419,-0.04255312,0.9527638,0.3007165,0.997718,0.02473105,0.062827155,0.05344546,0.30742556,-0.95007,-0.042751573,0.95126194,0.30540627,0.99765515,0.02429441,0.06398355,9.984055,0.17826843,0.6305084,9.784271,0.24252875,0.6161239,-0.062057495,-0.03929138,-0.02166748,-39.419556,21.539307,4.6798706,1,0.0,0.0,0.0,0.0
2.208007813,0.052164946,0.3021276,-0.95183915,-0.04248016,0.9529455,0.30015066,0.9977346,0.024776936,0.06254477,0.05342493,0.3073312,-0.95010173,-0.042747464,0.9512922,0.30531257,0.99765646,0.02430314,0.06396035,9.984055,0.17826843,0.6305084,9.784434,0.24297874,0.6133547,-0.05595398,-0.0345459,-0.01663208,-39.35852,21.539307,4.6798706,1,0.0,0.0,0.0,0.0
2.216308594,0.051835313,0.30156776,-0.9520346,-0.04236035,0.9531222,0.29960588,0.9977569,0.024798356,0.06217991,0.053375065,0.3071253,-0.9501711,-0.042736597,0.95135826,0.30510834,0.9976596,0.024321903,0.0639043,9.973282,0.18544006,0.5479584,9.784653,0.2431888,0.6097766,-0.054885864,-0.01927185,-0.016021729,-39.35852,21.539307,4.6798706,1,0.0,0.0,0.0,0.0
2.224609375,0.051669613,0.30046615,-0.95239186,-0.04221219,0.9534705,0.29851633,0.9977717,0.024778325,0.061948787,0.05331414,0.3069054,-0.95024556,-0.042721324,0.9514287,0.30489063,0.9976635,0.02434077,0.06383601,9.978073,0.17228699,0.5659027,9.784799,0.24299239,0.60751015,-0.0544281,0.0018005371,-0.009155273,-39.239502,21.958923,4.798889,1,0.0,0.0,0.0,0.0
2.232910157,0.0515934,0.3003396,-0.95243603,-0.04214423,0.9535114,0.29839578,0.99777853,0.024744432,0.061852466,0.053281214,0.30677673,-0.950289,-0.042710878,0.95147,0.30476326,0.99766576,0.02434952,0.06379818,9.978073,0.17228699,0.5659027,9.784864,0.24265997,0.6065655,-0.05595398,0.0082092285,-0.0119018555,-39.239502,21.958923,4.798889,1,0.0,0.0,0.0,0.0
2.241210938,0.051147748,0.31171566,-0.94879776,-0.04273694,0.9498541,0.30975884,0.9977762,0.024705248,0.061904673,0.05321444,0.30652207,-0.9503749,-0.042687953,0.9515517,0.30451137,0.99767023,0.024365157,0.06372108,9.964905,0.16390991,0.5970154,9.7848425,0.24227573,0.6070775,-0.053512573,0.013244629,-0.016326904,-38.819885,22.439575,5.279541,1,0.0,0.0,0.0,0.0
2.249511719,0.051248316,0.31187597,-0.9487397,-0.0427147,0.94980323,0.30991825,0.99777204,0.024642346,0.061997496,0.053132646,0.30672795,-0.9503131,-0.04269032,0.951485,0.30471936,0.9976745,0.024378622,0.06364922,9.9756775,0.1375885,0.60658264,9.7848015,0.24165887,0.60798776,-0.048171997,0.009429932,-0.013122559,-38.819885,22.439575,5.279541,1,0.0,0.0,0.0,0.0
2.2578125,0.05100256,0.31926045,-0.94629353,-0.043068387,0.9473484,0.31729507,0.9977695,0.024572479,0.06206723,0.053058095,0.30693197,-0.95025134,-0.04269168,0.9514189,0.30492538,0.9976784,0.024389068,0.06358391,9.979263,0.14476013,0.6149597,9.784777,0.24097373,0.60867167,-0.04786682,0.0054626465,-0.01739502,-38.459778,22.679138,5.5786133,1,0.0,0.0,0.0,0.0
2.266113282,0.05107047,0.319366,-0.9462543,-0.043050148,0.947314,0.3174002,0.99776673,0.02452661,0.06212852,0.052976705,0.30742118,-0.95009774,-0.04270747,0.9512608,0.30541617,0.9976821,0.024396328,0.063523844,10.001999,0.15434265,0.5970154,9.78475,0.24052389,0.6092727,-0.056106567,0.0095825195,-0.017700195,-38.459778,22.679138,5.5786133,1,0.0,0.0,0.0,0.0
2.274414063,0.049534604,0.3528087,-0.93438345,-0.044839226,0.93537414,0.35080573,0.99776536,0.024520006,0.062153056,0.052901287,0.30789512,-0.94994843,-0.042721845,0.9511073,0.30589163,0.99768543,0.024401492,0.06346865,9.981659,0.15672302,0.58265686,9.784736,0.24045913,0.6095133,-0.056259155,0.011871338,-0.018310547,-37.919617,23.278809,6.77948,1,0.0,0.0,0.0,0.0
2.282714844,0.049580745,0.35287583,-0.9343556,-0.044880595,0.9353484,0.3508692,0.99776125,0.024538077,0.06221255,0.05283484,0.30880058,-0.9496582,-0.042766366,0.95081365,0.306797,0.99768704,0.02440386,0.063442364,9.955338,0.16870117,0.6089783,9.784696,0.24063635,0.6100967,-0.05366516,0.011871338,-0.017547607,-37.919617,23.278809,6.77948,1,0.0,0.0,0.0,0.0
2.291015625,0.04871379,0.37233713,-0.92681825,-0.04597291,0.92777234,0.37030408,0.9977543,0.024569616,0.062312726,0.05277059,0.309689,-0.9493724,-0.04281068,0.9505246,0.30768523,0.99768853,0.024406547,0.06341774,9.955338,0.16870117,0.6089783,9.784627,0.24094562,0.6110791,-0.058395386,0.004852295,-0.017547607,-37.319946,23.999023,7.6797485,1,0.0,0.0,0.0,0.0
2.299316407,0.048777387,0.37242377,-0.92678005,-0.045999072,0.9277376,0.37038755,0.99774987,0.02456448,0.06238377,0.052613843,0.31219792,-0.9485591,-0.042942435,0.9497034,0.31019264,0.9976912,0.024413006,0.06337408,9.98764,0.15911865,0.63290405,9.784584,0.24089527,0.6117758,-0.059921265,-0.009048462,-0.019073486,-37.319946,23.999023,7.6797485,1,0.0,0.0,0.0,0.0
2.307617188,0.048522897,0.3773492,-0.9247989,-0.046258137,0.92574495,0.37530816,0.9977503,0.024568437,0.06237531,0.052539006,0.31341583,-0.9481615,-0.04300659,0.949302,0.31140977,0.99769235,0.024416035,0.06335433,9.98764,0.15911865,0.63290405,9.784588,0.24093406,0.61169285,-0.055648804,-0.008895874,-0.023803711,-37.139893,24.479675,8.039856,1,0.0,0.0,0.0,0.0
2.315917969,0.048430454,0.3772269,-0.9248536,-0.046244353,0.925794,0.37518886,0.9977554,0.024598692,0.062281247,0.052384,0.31597725,-0.9473195,-0.043141775,0.9484524,0.3139695,0.9976947,0.02442207,0.063315555,9.988831,0.17468262,0.604187,9.784638,0.24123077,0.6107704,-0.052597046,-0.018051147,-0.011444092,-37.139893,24.479675,8.039856,1,0.0,0.0,0.0,0.0
2.32421875,0.04748761,0.3937181,-0.9180038,-0.047014393,0.91890305,0.39167175,0.99776477,0.024559837,0.062146924,0.05223105,0.31843016,-0.94650626,-0.043270774,0.9476315,0.31642088,0.9976971,0.024429064,0.06327451,9.9756775,0.14356995,0.6053772,9.78473,0.24084973,0.60945314,-0.0640564,-0.02003479,-0.016174316,-36.779785,25.138855,8.879089,1,0.0,0.0,0.0,0.0
2.332519532,0.04735897,0.39355665,-0.9180797,-0.046894133,0.9189735,0.3915208,0.9977765,0.02451053,0.06197714,0.052139055,0.31995785,-0.945996,-0.043350257,0.9471167,0.31794763,0.9976985,0.024431681,0.063252024,9.9756775,0.14356995,0.6053772,9.784845,0.2403662,0.60778815,-0.059158325,-0.02003479,-0.016784668,-36.779785,25.138855,8.879089,1,0.0,0.0,0.0,0.0
2.340820313,0.046840053,0.40068898,-0.91501606,-0.047210433,0.9158858,0.39865315,0.99778616,0.024525369,0.06181684,0.051954575,0.32291326,-0.9450014,-0.04349952,0.9461131,0.32090157,0.99770164,0.024434803,0.06320148,9.985245,0.16870117,0.6161499,9.78494,0.24051172,0.60621613,-0.051223755,-0.020507813,-0.021057129,-36.479187,25.498962,9.298706,1,0.0,0.0,0.0,0.0
2.349121094,0.046599157,0.40039563,-0.9151567,-0.047092095,0.91601384,0.39837274,0.997803,0.024532814,0.061540943,0.05175742,0.32603958,-0.9439382,-0.043656632,0.94504017,0.32402647,0.997705,0.024438389,0.063146636,9.972092,0.15194702,0.53359985,9.785105,0.24058473,0.6035105,-0.051071167,-0.017745972,-0.019683838,-36.479187,25.498962,9.298706,1,0.0,0.0,0.0,0.0
2.357421875,0.046337932,0.40079087,-0.91499704,-0.047007732,0.91584104,0.39878,0.9978191,0.024533292,0.061278448,0.051656645,0.32754868,-0.9434211,-0.04373055,0.9445182,0.32553512,0.997707,0.024440276,0.063114524,9.972092,0.15194702,0.53359985,9.785263,0.24058942,0.6009363,-0.048934937,-0.017745972,-0.016784668,-36.419678,25.439453,9.298706,1,0.0,0.0,0.0,0.0
2.365722657,0.046131246,0.40053907,-0.9151177,-0.046910487,0.91595095,0.398539,0.9978333,0.024543513,0.06104344,0.051350158,0.33191657,-0.94191,-0.04393868,0.9429919,0.32990238,0.9977136,0.024445744,0.06300676,9.973282,0.16749573,0.5288086,9.785402,0.24068965,0.5986317,-0.04878235,-3.0517578E-5,-0.016479492,-36.419678,25.439453,9.298706,1,0.0,0.0,0.0,0.0
2.374023438,0.0456734,0.40732938,-0.9121385,-0.047181666,0.912952,0.40533015,0.9978416,0.024523411,0.060916107,0.05124756,0.33330798,-0.9414242,-0.044003226,0.94250095,0.33129385,0.99771607,0.0244477,0.0629675,9.968506,0.15194702,0.550354,9.785483,0.24049252,0.59738296,-0.04878235,0.01461792,-0.018463135,-36.358643,25.439453,9.539795,1,0.0,0.0,0.0,0.0
2.382324219,0.0456637,0.40731767,-0.91214424,-0.047164015,0.91295755,0.40531972,0.99784285,0.024511985,0.060899757,0.05113811,0.3348108,-0.9408967,-0.044072643,0.9419682,0.33279666,0.99771863,0.024449214,0.06292647,9.968506,0.15194702,0.550354,9.785496,0.24038047,0.5972226,-0.054733276,0.02027893,-0.019836426,-36.358643,25.439453,9.539795,1,0.0,0.0,0.0,0.0
2.390625,0.046197865,0.39808407,-0.9161849,-0.046748236,0.91702074,0.39609003,0.9978378,0.024531517,0.06097413,0.050925028,0.3377239,-0.93986654,-0.044205997,0.94092757,0.33570993,0.99772364,0.024451703,0.062846184,9.98764,0.16749573,0.5479584,9.785446,0.240572,0.59795195,-0.05458069,0.025009155,-0.01876831,-37.01935,25.559998,9.239197,1,0.0,0.0,0.0,0.0
2.398925782,0.046358023,0.39828196,-0.9160908,-0.046828486,0.9169349,0.39627925,0.9978266,0.024528421,0.061158244,0.050740454,0.34014297,-0.9390038,-0.04431473,0.9400557,0.3381294,0.9977283,0.024454862,0.0627722,9.981659,0.1531372,0.58265686,9.7853365,0.24054165,0.5997575,-0.055343628,0.033554077,-0.016937256,-37.01935,25.559998,9.239197,1,0.0,0.0,0.0,0.0
2.407226563,0.047302727,0.38366854,-0.92225856,-0.046163097,0.92314523,0.3816697,0.9978133,0.024520297,0.06137862,0.050654117,0.34131956,-0.93858147,-0.04436864,0.93962914,0.33930606,0.99773026,0.024456333,0.06273997,9.981659,0.1531372,0.58265686,9.785207,0.24046199,0.6019187,-0.057785034,0.02973938,-0.023040771,-37.139893,25.19989,8.578491,1,0.0,0.0,0.0,0.0
2.415527344,0.047515452,0.3839399,-0.9221347,-0.046263352,0.92303264,0.3819299,0.99779856,0.02451347,0.06162066,0.050587814,0.34217373,-0.9382739,-0.04440663,0.9393183,0.3401604,0.99773186,0.024457613,0.06271284,9.993622,0.13400269,0.60658264,9.785061,0.24039501,0.6042922,-0.056411743,0.024246216,-0.02670288,-37.139893,25.19989,8.578491,1,0.0,0.0,0.0,0.0
2.423828125,0.047663778,0.38412908,-0.9220483,-0.046404287,0.92295235,0.38210693,0.997785,0.024574334,0.06181663,0.05046743,0.34384122,-0.93767065,-0.04448363,0.93870914,0.34182784,0.99773455,0.024459824,0.062669545,9.968506,0.16870117,0.63768005,9.784928,0.24099189,0.60621405,-0.053512573,0.003326416,-0.01953125,-37.139893,25.19989,8.578491,1,0.0,0.0,0.0,0.0
2.432128907,0.04859536,0.36603773,-0.9293303,-0.045512863,0.9302746,0.36402977,0.9977811,0.024606325,0.061866462,0.050357718,0.3454494,-0.9370853,-0.04456263,0.93811846,0.34343553,0.99773663,0.024464358,0.06263564,9.968506,0.16870117,0.63768005,9.78489,0.24130562,0.60670274,-0.059921265,-0.022033691,-0.018615723,-37.5,24.778748,7.798767,1,0.0,0.0,0.0,0.0
2.440429688,0.04858847,0.36424822,-0.9300336,-0.04540063,0.9309764,0.36224556,0.9977865,0.024623152,0.06177181,0.05032269,0.3458628,-0.9369347,-0.0445822,0.937966,0.34384906,0.99773747,0.024467198,0.0626203,9.998413,0.15911865,0.6233368,9.784944,0.24147063,0.6057745,-0.057632446,-0.026306152,-0.019836426,-37.919617,24.35913,7.559204,1,0.0,0.0,0.0,0.0
2.448730469,0.048424024,0.36402225,-0.9301305,-0.04531192,0.9310648,0.3620289,0.9977985,0.024615105,0.06158046,0.05025442,0.3465935,-0.9366683,-0.044615634,0.93769616,0.3445801,0.99773943,0.024473375,0.06258686,9.979263,0.17706299,0.6077728,9.785061,0.24139173,0.60389805,-0.055343628,-0.027526855,-0.014190674,-37.919617,24.35913,7.559204,1,0.0,0.0,0.0,0.0
2.45703125,0.048873037,0.35006747,-0.93544865,-0.044484198,0.9364014,0.3480999,0.9978139,0.024599986,0.06133725,0.050182223,0.347286,-0.9364156,-0.044644248,0.93743974,0.34527332,0.9977418,0.024478987,0.06254713,9.970886,0.15911865,0.58384705,9.785212,0.24124345,0.60151297,-0.044662476,-0.021728516,-0.012817383,-37.979126,24.058533,7.019043,1,0.0,0.0,0.0,0.0
2.465332032,0.048628062,0.34972215,-0.93559057,-0.04437788,0.9365302,0.3477668,0.99783057,0.024608297,0.06106158,0.050156068,0.34734163,-0.93639636,-0.044641137,0.93741906,0.34532985,0.99774325,0.024481408,0.06252298,9.984055,0.18304443,0.5383911,9.785376,0.24132496,0.59880954,-0.05381775,-0.01789856,-0.012969971,-37.979126,24.058533,7.019043,1,0.0,0.0,0.0,0.0
2.473632813,0.048453078,0.34947544,-0.9356918,-0.044291783,0.9366223,0.34752944,0.99784297,0.024604589,0.060861133,0.050095472,0.347436,-0.93636465,-0.044630833,0.937384,0.34542647,0.99774677,0.024486434,0.06246505,9.972092,0.18664551,0.5288086,9.785497,0.2412886,0.59684384,-0.045425415,-0.0050811768,-0.01373291,-37.979126,24.058533,7.019043,1,0.0,0.0,0.0,0.0
2.481933594,0.048507333,0.34577858,-0.93706137,-0.044074,0.93799293,0.34384084,0.99784994,0.024621248,0.06073939,0.050030503,0.3475168,-0.9363381,-0.044617582,0.9373539,0.34550977,0.99775064,0.024491113,0.062401645,9.972092,0.18664551,0.5288086,9.785565,0.24145196,0.59564996,-0.04374695,0.010955811,-0.020751953,-38.09967,23.878479,6.8389893,1,0.0,0.0,0.0,0.0
2.490234375,0.048386104,0.34778938,-0.9363232,-0.04418022,0.93724906,0.34585017,0.9978512,0.02463263,0.060715247,0.05,0.34748206,-0.9363526,-0.044606633,0.9373667,0.34547642,0.9977526,0.024493717,0.06236834,9.976868,0.1603241,0.5383911,9.785578,0.24156359,0.5954132,-0.042510986,0.017364502,-0.021514893,-38.578796,23.458862,6.7199707,1,0.0,0.0,0.0,0.0
2.498535157,0.04841823,0.3478367,-0.93630403,-0.044238396,0.9372304,0.3458932,0.997847,0.024673054,0.06076678,0.04993612,0.3474942,-0.93635154,-0.04458978,0.937362,0.34549126,0.99775654,0.024499217,0.06230291,9.988831,0.16270447,0.5288086,9.785537,0.24196,0.59591854,-0.046340942,0.025161743,-0.022888184,-38.578796,23.458862,6.7199707,1,0.0,0.0,0.0,0.0
2.506835938,0.049214482,0.3331539,-0.9415872,-0.043577865,0.9425481,0.3312162,0.9978371,0.024731727,0.060905147,0.049876045,0.34750775,-0.9363497,-0.0445759,0.93735677,0.34550712,0.9977602,0.024506103,0.06224212,9.988831,0.1758728,0.54556274,9.7854395,0.2425354,0.5972755,-0.047714233,0.03340149,-0.02029419,-39.29901,23.098755,6.1187744,1,0.0,0.0,0.0,0.0
2.515136719,0.049368557,0.33339158,-0.94149494,-0.04367123,0.9424634,0.33144456,0.99782544,0.024753306,0.061087683,0.04986297,0.34722146,-0.9364566,-0.044555634,0.9374628,0.34522212,0.9977618,0.024510616,0.062215354,9.973282,0.15672302,0.5515442,9.785325,0.24274701,0.59906554,-0.046951294,0.031417847,-0.020446777,-39.29901,23.098755,6.1187744,1,0.0,0.0,0.0,0.0
2.5234375,0.04958508,0.3337256,-0.94136524,-0.04380671,0.94234425,0.33176523,0.9978087,0.024787508,0.061345644,0.049843833,0.34667525,-0.93665993,-0.044520207,0.9376647,0.34467798,0.9977643,0.024520226,0.062170856,9.969696,0.1651001,0.5862427,9.785161,0.24308242,0.6015953,-0.05366516,0.035705566,-0.023345947,-39.29901,23.098755,6.1187744,1,0.0,0.0,0.0,0.0
2.531738282,0.050100505,0.32763347,-0.9434756,-0.04362814,0.94447815,0.32566485,0.9977908,0.024846112,0.061612874,0.049833737,0.34616366,-0.93684965,-0.04449165,0.93785334,0.3441679,0.997766,0.024530813,0.06213813,9.969696,0.17347717,0.5766754,9.784986,0.24365714,0.6042159,-0.05747986,0.04638672,-0.019226074,-39.419556,22.439575,5.6991577,1,0.0,0.0,0.0,0.0
2.540039063,0.050439548,0.32793593,-0.9433524,-0.04381848,0.94437176,0.3259474,0.99776536,0.024895636,0.062003344,0.049839243,0.34579435,-0.93698573,-0.04447432,0.9379895,0.3437991,0.99776655,0.024537118,0.062127654,9.976868,0.17228699,0.6424713,9.784736,0.2441428,0.6080451,-0.057632446,0.043640137,-0.02319336,-40.019226,22.37854,5.6396484,1,0.0,0.0,0.0,0.0
2.548339844,0.050747458,0.32843834,-0.9431611,-0.04400706,0.944196,0.32643092,0.99774146,0.02494021,0.062369164,0.049863167,0.3450895,-0.93724436,-0.044448487,0.93824863,0.34309453,0.99776655,0.024551313,0.062122755,9.976868,0.17228699,0.6424713,9.784501,0.2445799,0.6116325,-0.05595398,0.01828003,-0.019073486,-40.019226,22.37854,5.6396484,1,0.0,0.0,0.0,0.0
2.556640625,0.05088423,0.33031613,-0.94249773,-0.044196587,0.9435405,0.32829547,0.99772614,0.024950124,0.06261018,0.049898047,0.34443212,-0.93748426,-0.04443129,0.9384898,0.34243664,0.99776554,0.024566714,0.062132366,9.957733,0.16270447,0.66041565,9.784351,0.24467714,0.61399615,-0.057632446,-0.0011138916,-0.018615723,-40.319824,21.958923,5.519104,1,0.0,0.0,0.0,0.0
2.564941407,0.050961368,0.33044535,-0.9424484,-0.04423862,0.94349515,0.32842025,0.9977203,0.024955865,0.06270024,0.049917787,0.34415048,-0.9375866,-0.044426806,0.93859285,0.3421545,0.9977647,0.024574382,0.06214199,9.968506,0.17706299,0.66400146,9.784294,0.24473344,0.61487937,-0.05152893,-0.008743286,-0.016021729,-40.319824,21.958923,5.519104,1,0.0,0.0,0.0,0.0
2.573242188,0.050909296,0.33035812,-0.94248176,-0.044207107,0.9435259,0.3283362,0.9977244,0.024949025,0.06263841,0.049959008,0.34360912,-0.93778294,-0.04441975,0.9387908,0.341612,0.997763,0.024589486,0.062164087,9.980469,0.16749573,0.6520386,9.784334,0.24466637,0.61427295,-0.053207397,-0.028137207,-0.015258789,-40.319824,21.958923,5.519104,1,0.0,0.0,0.0,0.0
2.581542969,0.05095344,0.32550976,-0.94416475,-0.043879665,0.94520944,0.32350188,0.9977366,0.024946101,0.06244494,0.049977988,0.34334475,-0.9378787,-0.04441568,0.9388873,0.34134713,0.9977622,0.024596678,0.06217359,9.9756775,0.14237976,0.57307434,9.784453,0.24463768,0.6123757,-0.053207397,-0.03929138,-0.019683838,-40.19928,21.77887,5.3390503,1,0.0,0.0,0.0,0.0
2.58984375,0.050566062,0.32688755,-0.94370943,-0.043824136,0.9447344,0.32489437,0.99775875,0.024928628,0.062097065,0.050016712,0.34264082,-0.93813413,-0.04439488,0.9391441,0.34064278,0.9977612,0.024610516,0.062184393,9.996017,0.1651001,0.55274963,9.784671,0.24446633,0.6089642,-0.051223755,-0.032562256,-0.02243042,-40.379333,21.659851,5.3390503,1,0.0,0.0,0.0,0.0
2.598144532,0.050266407,0.3263765,-0.94390225,-0.043724842,0.94490993,0.3243964,0.9977782,0.024965739,0.061768,0.050038442,0.34201878,-0.9383599,-0.04437235,0.93937045,0.34002095,0.99776113,0.024623115,0.062180806,9.960129,0.19023132,0.5276184,9.7848625,0.24483028,0.6057372,-0.040527344,-0.021255493,-0.023803711,-40.379333,21.659851,5.3390503,1,0.0,0.0,0.0,0.0
2.606445313,0.05001009,0.32593927,-0.9440671,-0.043696918,0.9450589,0.32396692,0.99779236,0.025051206,0.06150501,0.050043114,0.3417068,-0.9384733,-0.044359364,0.9394838,0.33970934,0.9977614,0.024629967,0.062172588,9.960129,0.19023132,0.5276184,9.785001,0.24566843,0.6031581,-0.040527344,-0.0056915283,-0.022277832,-40.379333,21.659851,5.3390503,1,0.0,0.0,0.0,0.0
2.614746094,0.05057037,0.3086397,-0.94983375,-0.0427681,0.95084745,0.30669206,0.99780434,0.025113055,0.06128464,0.050041966,0.3410842,-0.93869984,-0.044332877,0.93970966,0.33908772,0.99776274,0.024646647,0.06214616,9.985245,0.17706299,0.49412537,9.785118,0.24627495,0.60099703,-0.044189453,0.0037841797,-0.022888184,-40.979004,21.299744,4.73938,1,0.0,0.0,0.0,0.0
2.623046875,0.050441023,0.308409,-0.9499156,-0.042765085,0.95092094,0.30646455,0.997811,0.025164833,0.06115456,0.050063767,0.33980674,-0.9391619,-0.044270612,0.94017184,0.33781224,0.9977644,0.024665115,0.062111992,9.982849,0.17826843,0.51805115,9.785183,0.2467827,0.5997213,-0.05091858,0.01461792,-0.015258789,-40.979004,21.299744,4.73938,1,0.0,0.0,0.0,0.0
2.631347657,0.05060421,0.30489522,-0.9510405,-0.042598367,0.9520529,0.30295315,0.9978099,0.02518207,0.061165918,0.05007174,0.3391823,-0.93938714,-0.044240266,0.940397,0.33718878,0.99776536,0.02467511,0.06209283,9.991226,0.16390991,0.5383911,9.785172,0.24695176,0.5998328,-0.054275513,0.028518677,-0.013580322,-40.73944,21.359253,4.6798706,1,0.0,0.0,0.0,0.0
2.639648438,0.050531365,0.3091447,-0.9496716,-0.04284311,0.95068204,0.30719396,0.9978031,0.025163954,0.06128398,0.050093763,0.33783266,-0.93987215,-0.044174876,0.94088215,0.33584124,0.9977671,0.024695186,0.062056042,9.970886,0.15792847,0.57188416,9.785107,0.2467741,0.6009906,-0.060684204,0.02973938,-0.019989014,-40.438843,21.539307,4.8599243,1,0.0,0.0,0.0,0.0
2.647949219,0.050702795,0.30944258,-0.9495655,-0.042907223,0.95058554,0.3074839,0.9977917,0.025152922,0.061474655,0.050111726,0.33670235,-0.9402767,-0.044121876,0.94128674,0.33471256,0.9977686,0.024713749,0.062025446,9.976868,0.15792847,0.58026123,9.784994,0.24666591,0.60286045,-0.06375122,0.024551392,-0.015106201,-40.438843,21.539307,4.8599243,1,0.0,0.0,0.0,0.0
2.65625,0.050887793,0.309764,-0.9494507,-0.042955697,0.9504816,0.30779803,0.9977802,0.025121156,0.061674044,0.050123885,0.3361598,-0.9404702,-0.044097584,0.94148046,0.33417064,0.997769,0.024722533,0.06201449,9.976868,0.15792847,0.58026123,9.784882,0.24635439,0.6048158,-0.05671692,0.03187561,-0.011444092,-40.438843,21.539307,4.8599243,1,0.0,0.0,0.0,0.0
2.664550782,0.050861552,0.31558436,-0.9475335,-0.043290958,0.9485664,0.3136046,0.997767,0.025069213,0.0619075,0.050154507,0.33511937,-0.9408398,-0.044052497,0.9418509,0.3331311,0.9977695,0.024738315,0.062000908,9.993622,0.18185425,0.5742798,9.784752,0.245845,0.6071052,-0.060073853,0.042877197,-0.014038086,-40.13977,21.958923,5.1589966,1,0.0,0.0,0.0,0.0
2.672851563,0.051129803,0.316036,-0.9473685,-0.043397933,0.9484163,0.3140433,0.9977486,0.025056861,0.06220764,0.050182793,0.33434844,-0.9411125,-0.044022582,0.9421244,0.3323605,0.99776936,0.024751421,0.06199732,9.992432,0.17228699,0.58026123,9.784573,0.24572389,0.6100486,-0.052139282,0.048217773,-0.015411377,-40.13977,21.958923,5.1589966,1,0.0,0.0,0.0,0.0
2.681152344,0.05151221,0.31495658,-0.94770706,-0.043444403,0.94877523,0.3129502,0.9977269,0.025051815,0.062556624,0.050201736,0.3339834,-0.94124115,-0.04401027,0.94225377,0.33199537,0.997769,0.02475753,0.062001474,9.992432,0.14237976,0.6233368,9.784359,0.24567439,0.6134709,-0.043121338,0.050201416,-0.019683838,-40.078735,21.899414,5.0994873,1,0.0,0.0,0.0,0.0
2.689453125,0.0520476,0.31140757,-0.94885,-0.043355197,0.9499465,0.3093893,0.997703,0.025034614,0.06294358,0.050253782,0.33323246,-0.9415045,-0.04398857,0.9425193,0.3312437,0.9977673,0.024769185,0.06202358,9.96611,0.16749573,0.65682983,9.784124,0.2455057,0.61726564,-0.05015564,0.036010742,-0.021820068,-40.25879,21.899414,4.978943,1,0.0,0.0,0.0,0.0
2.697753907,0.05230702,0.31184834,-0.948691,-0.04353807,0.9498004,0.30981246,0.9976815,0.025098808,0.0632585,0.050324913,0.33237147,-0.941805,-0.04396464,0.94282293,0.3303815,0.99776477,0.024779696,0.062060077,9.930206,0.18544006,0.6412811,9.783914,0.24613523,0.620354,-0.051376343,0.0181427,-0.022888184,-40.25879,21.899414,4.978943,1,0.0,0.0,0.0,0.0
2.706054688,0.05245208,0.31209475,-0.94860196,-0.043654002,0.94971806,0.31004813,0.9976688,0.025147602,0.06343887,0.050364543,0.33196253,-0.94194716,-0.043956764,0.9429669,0.32997164,0.99776316,0.024786077,0.062084097,9.930206,0.18544006,0.6412811,9.78379,0.24661376,0.6221229,-0.051376343,0.0051574707,-0.0119018555,-40.25879,21.899414,4.978943,1,0.0,0.0,0.0,0.0
2.714355469,0.052887067,0.3033692,-0.9514042,-0.043191776,0.9525409,0.3013307,0.99766594,0.025156345,0.06348015,0.050446987,0.33117846,-0.9422186,-0.043946065,0.94324213,0.3291853,0.9977594,0.024800397,0.062137716,9.954147,0.18664551,0.6089783,9.783761,0.24669948,0.62252766,-0.055496216,0.0027160645,-0.013122559,-40.73944,21.77887,4.6798706,1,0.0,0.0,0.0,0.0
2.72265625,0.05290548,0.30340123,-0.951393,-0.043184504,0.9525311,0.30136275,0.9976653,0.025141696,0.06349635,0.0504958,0.33062497,-0.94241035,-0.043932024,0.94343615,0.32863086,0.99775755,0.024807516,0.062164586,9.954147,0.18664551,0.6089783,9.783754,0.2465558,0.6226865,-0.055496216,0.008666992,-0.0119018555,-40.73944,21.77887,4.6798706,1,0.0,0.0,0.0,0.0
2.730957032,0.053564418,0.28961203,-0.9556441,-0.04233472,0.9568161,0.28759432,0.99766654,0.025052108,0.063511945,0.050591268,0.32955188,-0.94278103,-0.04390438,0.9438111,0.32755598,0.9977539,0.024820747,0.062217373,9.976868,0.14476013,0.57307434,9.783767,0.24567726,0.62283945,-0.04649353,0.021194458,-0.007461548,-41.218567,21.479797,4.1992188,1,0.0,0.0,0.0,0.0
2.739257813,0.053776145,0.28769407,-0.9562114,-0.04217547,0.95739686,0.28567883,0.9976619,0.024965964,0.06361874,0.050709605,0.32798088,-0.94332236,-0.04384549,0.94435793,0.32598397,0.9977505,0.02482991,0.062268507,9.992432,0.15194702,0.5850525,9.783721,0.24483249,0.62388676,-0.04710388,0.027450562,-0.012359619,-41.09955,21.238708,4.0786743,1,0.0,0.0,0.0,0.0
2.747558594,0.05393657,0.28798592,-0.9561146,-0.042184636,0.9573107,0.28596646,0.9976529,0.024909291,0.063782625,0.050771378,0.3271807,-0.9435969,-0.043813877,0.94463545,0.32518336,0.99774873,0.02483263,0.062295496,9.992432,0.15194702,0.5850525,9.783632,0.24427669,0.6254939,-0.044189453,0.03340149,-0.018157959,-41.09955,21.238708,4.0786743,1,0.0,0.0,0.0,0.0
2.755859375,0.054198883,0.28846303,-0.95595586,-0.042272817,0.9571676,0.28643197,0.99763495,0.024886655,0.06407155,0.050897535,0.3256387,-0.9441234,-0.04375293,0.945168,0.32364032,0.99774504,0.024835667,0.06235437,9.960129,0.15553284,0.66041565,9.783457,0.24405472,0.6283273,-0.053970337,0.02470398,-0.016021729,-41.09955,21.238708,4.0786743,1,0.0,0.0,0.0,0.0
2.764160157,0.054597184,0.2848714,-0.9570097,-0.042150516,0.9582424,0.28283367,0.9976184,0.024896529,0.0643248,0.051028825,0.32417563,-0.9446196,-0.04369795,0.9456708,0.32217577,0.9977407,0.024837688,0.062422283,9.978073,0.1758728,0.6520386,9.783295,0.24415155,0.63081086,-0.052139282,0.02470398,-0.02029419,-41.09955,21.1792,3.9596558,1,0.0,0.0,0.0,0.0
