Time,Rot1,Rot2,Rot3,Rot4,Rot5,Rot6,Rot7,Rot8,Rot9,FRot1,FRot2,FRot3,FRot4,FRot5,FRot6,FRot7,FRot8,FRot9,AccX,AccY,AccZ,GravX,GravY,GravZ,GyroX,GyroY,GyroZ,MagX,MagY,MagZ,Imid
0.0,0.0,0.0,0.0,0.0,0.0,0.0,0.0,0.0,0.0,1.0,0.0,0.0,0.0,1.0,0.0,0.0,0.0,1.0,9.759125,0.047851563,1.9094696,9.609074,0.08497747,1.9567477,0.0,0.0,0.0,0.0,0.0,0.0,0,0.0,0.0,0.0,0.0
0.008300781,0.0,0.0,0.0,0.0,0.0,0.0,0.0,0.0,0.0,1.0,0.0,0.0,0.0,1.0,0.0,0.0,0.0,1.0,9.756729,0.062210083,1.8412781,9.609477,0.08602259,1.9547222,-0.018081665,-0.003250122,-0.02670288,0.0,0.0,0.0,0,0.0,0.0,0.0,0.0
0.016601563,-0.095872864,0.89692295,0.43166834,-0.17474325,-0.4420969,0.87978125,0.9799353,0.008916023,0.19911633,1.0,0.0,0.0,0.0,1.0,0.0,0.0,0.0,1.0,9.756729,0.062210083,1.853241,9.609882,0.08743632,1.9526643,-0.018081665,0.0016479492,-0.027313232,-24.778748,-6.7199707,8.459473,0,0.0,0.0,0.0,0.0
0.024902344,-0.09398265,0.9018597,0.42168272,-0.17556563,-0.43193296,0.8846528,0.9799714,0.009109022,0.19892977,0.99530584,0.08025207,-0.054091822,-0.08015304,0.99677455,0.004001328,0.054238465,3.5307888E-4,0.99852794,9.710068,0.105285645,1.8233337,9.610237,0.089329,1.9508348,-0.036865234,0.005004883,-0.021057129,-24.719238,-6.4193726,8.21991,0,0.0,0.0,0.0,0.0
0.033203125,-0.094032936,0.90190756,0.42156893,-0.17538683,-0.43182966,0.8847386,0.9799986,0.009256928,0.19878896,0.9820972,0.15640326,-0.10499025,-0.15559241,0.987693,0.015920894,0.10618822,6.998188E-4,0.9943458,9.710068,0.105285645,1.8233337,9.610503,0.09077946,1.9494538,-0.032440186,0.012939453,-0.014190674,-24.719238,-6.4193726,8.21991,0,0.0,0.0,0.0,0.0
0.041503906,-0.094061635,0.901935,0.421504,-0.17526264,-0.43177047,0.88479215,0.980018,0.009351097,0.19868857,0.9726762,0.19303438,-0.12899145,-0.19147564,0.98119164,0.024497112,0.13129412,8.709634E-4,0.9913431,9.725632,0.19262695,1.8568268,9.610694,0.09170294,1.9484693,-0.03488159,0.0138549805,-0.011123657,-24.719238,-6.4193726,8.21991,0,0.0,0.0,0.0,0.0
0.049804688,-0.097499795,0.8934928,0.43836555,-0.17338969,-0.4489779,0.87655854,0.9800152,0.009456217,0.1986977,0.94894123,0.26330364,-0.17372933,-0.259224,0.96471226,0.046186246,0.1797598,0.0012067816,0.9837098,9.747162,0.13519287,1.8723907,9.610666,0.092733815,1.9485588,-0.041900635,0.034622192,-0.0146484375,-24.899292,-6.7199707,8.1588745,0,0.0,0.0,0.0,0.0
0.058105469,-0.097561605,0.8935539,0.43822727,-0.17353418,-0.44885594,0.87659246,0.9799835,0.009474352,0.19885325,0.91939,0.33021992,-0.21372133,-0.32201126,0.94390273,0.07318679,0.2258999,0.0015334642,0.97414935,9.747162,0.13519287,1.8723907,9.610355,0.09291166,1.9500843,-0.039154053,0.05218506,-0.025939941,-24.899292,-6.7199707,8.1588745,0,0.0,0.0,0.0,0.0
0.06640625,-0.103021786,0.87937015,0.46485987,-0.17071775,-0.47604376,0.8626923,0.97991943,0.009516264,0.19916695,0.9028383,0.36211112,-0.23185912,-0.3511811,0.93213344,0.088312894,0.24810271,0.0016922844,0.9687323,9.692123,0.052642822,1.9142609,9.609727,0.09332267,1.9531606,-0.031829834,0.055541992,-0.021972656,-25.318909,-6.8984985,7.4386597,0,0.0,0.0,0.0,0.0
0.074707031,-0.105841726,0.8719632,0.47799322,-0.1695337,-0.4894791,0.8553762,0.9798244,0.009498537,0.19963449,0.8663373,0.4238667,-0.2641906,-0.4060778,0.9057223,0.1215229,0.29079285,0.0020021186,0.9567839,9.71965,0.0023956299,1.9956207,9.608795,0.09314883,1.9577457,-0.016708374,0.057540894,-0.018157959,-25.2594,-7.0785522,7.319641,0,0.0,0.0,0.0,0.0
0.083007813,-0.10599196,0.87213707,0.47764283,-0.17001075,-0.48917004,0.8554584,0.9797255,0.009467292,0.20012075,0.8263866,0.48191243,-0.29128277,-0.4553755,0.87621635,0.1577277,0.33123767,0.0022989814,0.94354457,9.71965,0.0023956299,1.9956207,9.607825,0.09284242,1.9625142,-0.011978149,0.062576294,-0.020599365,-25.2594,-7.0785522,7.319641,0,0.0,0.0,0.0,0.0
0.091308594,-0.10615568,0.87232625,0.47726086,-0.17044418,-0.4888324,0.85556513,0.97963244,0.009476757,0.20057526,0.78412193,0.5357271,-0.31328785,-0.49862158,0.8443873,0.19592519,0.3694987,0.0025828513,0.92922765,9.779465,0.01675415,1.9992065,9.606913,0.09293524,1.9669715,-0.026031494,0.022720337,-0.012207031,-25.2594,-7.0785522,7.319641,0,0.0,0.0,0.0,0.0
0.099609375,-0.10435393,0.87772214,0.4676688,-0.17197429,-0.47907782,0.8607609,0.97955865,0.0093967635,0.20093928,0.7623783,0.5610818,-0.3224384,-0.5180414,0.82775587,0.2155304,0.38783047,0.0027207318,0.9217267,9.808182,-0.032302856,2.0446625,9.606189,0.09215077,1.9705412,-0.028015137,0.016448975,-0.0119018555,-25.19989,-6.9595337,7.4386597,0,0.0,0.0,0.0,0.0
0.107910156,-0.10434962,0.87771726,0.46767887,-0.17220786,-0.47908905,0.8607079,0.97951806,0.009276572,0.20114258,0.74046713,0.5852483,-0.33044335,-0.53587645,0.81084913,0.23528735,0.40564123,0.0028542543,0.9140279,9.808182,-0.032302856,2.0446625,9.605791,0.090972096,1.9725349,-0.027709961,0.010192871,-0.010818481,-25.19989,-6.9595337,7.4386597,0,0.0,0.0,0.0,0.0
0.116210938,-0.10786045,0.86725837,0.48603404,-0.17011067,-0.4977761,0.85045946,0.97950417,0.009051374,0.20122024,0.6961208,0.63067067,-0.34303123,-0.5674803,0.77604437,0.27517483,0.43975216,0.0031085818,0.8981138,9.759125,-0.09451294,1.9884338,9.605655,0.08876366,1.9732965,-0.035186768,0.010955811,-0.009902954,-25.379944,-7.258606,7.319641,0,0.0,0.0,0.0,0.0
0.124511719,-0.10455904,0.8762267,0.47041923,-0.17222221,-0.4818185,0.85918015,0.9794932,0.008818421,0.20128416,0.6510485,0.67297935,-0.35104796,-0.59449476,0.7396537,0.31541774,0.47192353,0.0033439198,0.8816331,9.828522,-0.06460571,2.0207367,9.605547,0.086479165,1.9739233,-0.03152466,0.0031738281,-0.007156372,-25.079346,-7.019043,7.499695,0,0.0,0.0,0.0,0.0
0.1328125,-0.104455955,0.8761116,0.47065616,-0.17232178,-0.48203093,0.85904086,0.97948664,0.008627624,0.20132414,0.6066785,0.7111317,-0.35529292,-0.6161961,0.70304984,0.35499763,0.5022387,0.003560713,0.8647217,9.767502,0.0023956299,2.0207367,9.605483,0.08460809,1.9743154,-0.02709961,-0.020202637,-0.01020813,-25.079346,-7.019043,7.499695,0,0.0,0.0,0.0,0.0
0.141113281,-0.10438129,0.87602824,0.47082797,-0.17227432,-0.48218396,0.85896456,0.979503,0.008548264,0.20124817,0.58472425,0.7289311,-0.3560294,-0.6253728,0.6845772,0.37451681,0.5167266,0.0036620526,0.85614264,9.767502,0.0023956299,2.0207367,9.605643,0.083829835,1.9735705,-0.016860962,-0.02798462,-0.014343262,-25.079346,-7.019043,7.499695,0,0.0,0.0,0.0,0.0
0.149414063,-0.107022926,0.8680918,0.48472947,-0.17032441,-0.49633008,0.8512614,0.9795589,0.008543223,0.20097594,0.54149514,0.762095,-0.3549567,-0.6406168,0.6474537,0.41281196,0.54442,0.003855549,0.8388039,9.725632,0.028717041,1.9728851,9.606192,0.0837804,1.9709008,-0.019607544,-0.048294067,-0.023498535,-25.079346,-7.0785522,7.1395874,0,0.0,0.0,0.0,0.0
0.157714844,-0.10692472,0.86797565,0.48495921,-0.16996206,-0.4965325,0.8512159,0.9796326,0.008591345,0.20061453,0.5200846,0.7777098,-0.35309982,-0.6469457,0.6286111,0.43163574,0.5576498,0.0039493036,0.8300669,9.725632,0.028717041,1.9728851,9.606914,0.084252305,1.9673563,-0.021133423,-0.04219055,-0.025024414,-25.079346,-7.0785522,7.1395874,0,0.0,0.0,0.0,0.0
0.166015625,-0.111595735,0.85301006,0.5098236,-0.16637433,-0.5218244,0.8366713,0.97972757,0.008547389,0.20015238,0.478241,0.8066774,-0.34721345,-0.65687007,0.5909776,0.46825972,0.5829299,0.004133131,0.812512,9.829712,-0.071777344,1.8987122,9.607845,0.08382125,1.9628243,-0.02999878,-0.024475098,-0.02670288,-25.2594,-7.499695,7.019043,0,0.0,0.0,0.0,0.0
0.174316406,-0.11151198,0.85299224,0.5098719,-0.16604753,-0.5218521,0.8367189,0.9797925,0.00864121,0.19983001,0.43710762,0.83342946,-0.3381304,-0.66396314,0.552609,0.503762,0.606704,0.0043079373,0.7949161,9.774673,0.035888672,1.9226379,9.608481,0.084741324,1.9596629,-0.036865234,-0.0256958,-0.018920898,-25.079346,-7.4386597,6.9595337,0,0.0,0.0,0.0,0.0
0.182617188,-0.111423336,0.8528827,0.5100744,-0.1657615,-0.5220305,0.8366643,0.97985095,0.008673227,0.1995415,0.41715384,0.84575266,-0.33269367,-0.66633004,0.53355706,0.520885,0.61805093,0.004394604,0.7861258,9.774673,0.035888672,1.9226379,9.609056,0.085055314,1.9568338,-0.039764404,-0.022949219,-0.012664795,-25.079346,-7.4386597,6.9595337,0,0.0,0.0,0.0,0.0
0.190917969,-0.111359,0.8528033,0.5102213,-0.16552608,-0.5221597,0.8366304,0.9798981,0.008711392,0.19930834,0.37854984,0.86842096,-0.32022655,-0.66893077,0.49580657,0.5538118,0.63971215,0.0045640394,0.768601,9.755539,0.06819153,1.9369965,9.609518,0.08542958,1.9545472,-0.04801941,-0.017745972,-0.01953125,-25.079346,-7.4386597,6.9595337,0,0.0,0.0,0.0,0.0
0.19921875,-0.10780779,0.86367154,0.49239093,-0.16755538,-0.5039773,0.84730864,0.9799503,0.008843728,0.19904551,0.3417657,0.8886096,-0.30589077,-0.66897184,0.45863995,0.58491546,0.6600552,0.0047282767,0.7512022,9.76152,0.13160706,1.8999023,9.61003,0.08672735,1.9519697,-0.060836792,-0.028900146,-0.028076172,-24.719238,-7.258606,7.319641,0,0.0,0.0,0.0,0.0
0.207519531,-0.107800074,0.86366266,0.4924082,-0.16720301,-0.5039895,0.84737104,0.9800114,0.009014535,0.19873713,0.32435825,0.8976451,-0.2983706,-0.6679948,0.44069284,0.5996438,0.6697571,0.0048105866,0.7425646,9.76152,0.13160706,1.8999023,9.610629,0.08840239,1.9489455,-0.06542969,-0.034088135,-0.03312683,-24.719238,-7.258606,7.319641,0,0.0,0.0,0.0,0.0
0.215820313,-0.10544626,0.8706553,0.4804587,-0.16838282,-0.49180815,0.854267,0.98006546,0.009178265,0.1984627,0.29094478,0.91414064,-0.28230843,-0.6645588,0.4053667,0.6277256,0.6882679,0.0049770647,0.7254395,9.753143,0.107681274,1.9453583,9.611159,0.090008035,1.9462543,-0.063583374,-0.011947632,-0.023345947,-24.778748,-7.1395874,7.499695,0,0.0,0.0,0.0,0.0
0.224121094,-0.10546649,0.8706778,0.48041326,-0.16817375,-0.49176556,0.8543325,0.98009914,0.009310554,0.19828995,0.27512744,0.9215337,-0.2740082,-0.6620917,0.38826537,0.64100283,0.6970936,0.00506109,0.7169623,9.753143,0.107681274,1.9453583,9.611489,0.091305345,1.9445602,-0.059158325,-9.460449E-4,-0.020751953,-24.778748,-7.1395874,7.499695,0,0.0,0.0,0.0,0.0
0.232421875,-0.11145135,0.8522124,0.5111874,-0.16414294,-0.5231132,0.8363071,0.98012024,0.00929976,0.19818634,0.24488138,0.9349638,-0.25666296,-0.6560066,0.3547047,0.6662132,0.7139248,0.005229371,0.70020294,9.712463,0.056228638,1.8939209,9.611696,0.091199495,1.9435441,-0.06741333,0.0028686523,-0.0119018555,-24.958801,-7.4386597,6.9595337,0,0.0,0.0,0.0,0.0
0.240722656,-0.11134009,0.85207546,0.51144004,-0.16422074,-0.5233398,0.8361501,0.9801198,0.00910797,0.19819714,0.21553396,0.9471751,-0.23749626,-0.6488942,0.32067165,0.69000435,0.72971326,0.0053905603,0.68373203,9.748352,-0.03111267,1.9573364,9.611692,0.08931867,1.94365,-0.05580139,0.007446289,-0.009902954,-24.958801,-7.4386597,6.9595337,0,0.0,0.0,0.0,0.0
0.249023438,-0.112062804,0.8493387,0.51581556,-0.16377468,-0.52777284,0.83344686,0.98011214,0.008920871,0.19824389,0.20155808,0.95265466,-0.22764741,-0.6448712,0.30400515,0.7012289,0.737235,0.005464909,0.67561424,9.748352,-0.03111267,1.9573364,9.611617,0.08748386,1.9441085,-0.04801941,0.015533447,-0.012664795,-24.899292,-7.4386597,6.8389893,0,0.0,0.0,0.0,0.0
0.257324219,-0.11202285,0.8492887,0.51590663,-0.16392286,-0.52785563,0.8333654,0.9800919,0.008787064,0.19834971,0.17484763,0.96250546,-0.20739244,-0.6360582,0.2712046,0.7224113,0.7515705,0.005601766,0.659629,9.775879,-0.01914978,1.9752808,9.611419,0.086171664,1.9451463,-0.03503418,0.012634277,-0.011291504,-24.899292,-7.4386597,6.8389893,0,0.0,0.0,0.0,0.0
0.265625,-0.111272216,0.8517692,0.51196456,-0.16451769,-0.52384377,0.83577615,0.9800778,0.0087714335,0.19842035,0.14992218,0.9709043,-0.18673036,-0.62632567,0.23939942,0.7418923,0.7650095,0.0057279053,0.64399356,9.773483,0.037094116,1.9788666,9.61128,0.086018376,1.9458389,-0.026031494,-0.009048462,-0.018615723,-25.019836,-7.3791504,6.8389893,0,0.0,0.0,0.0,0.0
0.273925781,-0.111272044,0.8517689,0.5119649,-0.16447322,-0.52384365,0.83578473,0.9800852,0.00879497,0.19838236,0.13816659,0.9745791,-0.1763676,-0.621157,0.2239688,0.75100064,0.7714104,0.0057887766,0.63631165,9.773483,0.037094116,1.9788666,9.611353,0.086249195,1.9454664,-0.021133423,-0.01576233,-0.017242432,-25.019836,-7.3791504,6.8389893,0,0.0,0.0,0.0,0.0
0.282226563,-0.11257077,0.84732443,0.5190078,-0.16334137,-0.5310023,0.83147836,0.98012626,0.008824712,0.19817849,0.11589913,0.9810095,-0.15552442,-0.6103452,0.19386993,0.76804507,0.78361094,0.005907823,0.62122375,9.767502,0.023925781,1.907074,9.611755,0.08654086,1.9434671,-0.02281189,-0.014083862,-0.021209717,-25.2594,-7.6187134,6.9595337,0,0.0,0.0,0.0,0.0
0.290527344,-0.11253521,0.8472799,0.51908803,-0.16310789,-0.53107184,0.83147967,0.98016924,0.008903378,0.19796236,0.09502627,0.98636526,-0.13436358,-0.5990463,0.16446057,0.78364295,0.7950557,0.006023333,0.6065066,9.707687,-0.059814453,1.8915253,9.612177,0.08731231,1.9413476,-0.022979736,-0.007675171,-0.018157959,-25.2594,-7.6187134,6.9595337,0,0.0,0.0,0.0,0.0
0.298828125,-0.111668825,0.8496128,0.5154494,-0.16351266,-0.5273331,0.83377653,0.9802008,0.0088243345,0.19780913,0.0756819,0.9906797,-0.113252036,-0.58734244,0.1360739,0.7978175,0.8057922,0.0061373836,0.59216654,9.707687,-0.059814453,1.8915253,9.612487,0.08653716,1.939845,-0.022369385,0.008972168,-0.016326904,-25.19989,-7.6797485,7.1990967,0,0.0,0.0,0.0,0.0
0.307128906,-0.11155602,0.8494764,0.51569873,-0.16350216,-0.5275553,0.83363813,0.98021543,0.008679493,0.19774319,0.066612154,0.9924676,-0.10281456,-0.58136874,0.122350655,0.8043884,0.81090885,0.0061911233,0.5851397,9.774673,-0.090927124,1.9142609,9.61263,0.08511675,1.9391983,-0.021896362,0.0082092285,-0.018310547,-25.19989,-7.6797485,7.1990967,0,0.0,0.0,0.0,0.0
0.315429688,-0.11384245,0.84183556,0.52759165,-0.16183573,-0.5396646,0.82617885,0.98022914,0.008671049,0.19767578,0.04951466,0.9953954,-0.08207469,-0.5692622,0.095647246,0.81657344,0.8206637,0.0062896637,0.5713769,9.811768,0.007171631,1.886734,9.612764,0.085033946,1.9385372,-0.030914307,-0.002029419,-0.020751953,-25.2594,-7.739258,6.8984985,0,0.0,0.0,0.0,0.0
0.323730469,-0.11379162,0.8417711,0.5277055,-0.16174452,-0.5397654,0.82613087,0.98025006,0.008653293,0.1975726,0.041306343,0.99658054,-0.071560904,-0.56316406,0.08238334,0.8222282,0.8253121,0.0063372916,0.56464136,9.811768,0.007171631,1.886734,9.612969,0.084859826,1.9375254,-0.04374695,-0.0029449463,-0.012207031,-25.2594,-7.739258,6.8984985,0,0.0,0.0,0.0,0.0
0.33203125,-0.11446078,0.8396792,0.53088385,-0.16122356,-0.5430125,0.82410216,0.9802579,0.00873639,0.19752969,0.025860503,0.99837613,-0.050757512,-0.55089164,0.05660175,0.8326552,0.83417606,0.0064290054,0.5514608,9.78186,0.110076904,1.9656982,9.613047,0.08567472,1.9371046,-0.05809021,-0.008590698,-0.01159668,-25.379944,-7.8598022,6.9595337,0,0.0,0.0,0.0,0.0
0.340332031,-0.11445777,0.83967537,0.53089046,-0.16104105,-0.54301673,0.824135,0.98028827,0.008833482,0.1973747,0.011560187,0.9994776,-0.030178674,-0.538585,0.031652406,0.8419764,0.8424918,0.0065203784,0.53866965,9.771088,0.14596558,1.9046936,9.613345,0.08662687,1.9355848,-0.06297302,-0.022338867,-0.017242432,-25.379944,-7.8598022,6.9595337,0,0.0,0.0,0.0,0.0
0.348632813,-0.117157325,0.83023554,0.5449616,-0.15880772,-0.55734116,0.81495464,0.9803338,0.008933785,0.1971444,0.0048477952,0.99978745,-0.020038223,-0.53243566,0.019542536,0.84624493,0.84645665,0.006566641,0.5324172,9.771088,0.14596558,1.9046936,9.6137905,0.08761051,1.9333262,-0.068481445,-0.025390625,-0.019683838,-25.439453,-8.039856,6.77948,0,0.0,0.0,0.0,0.0
0.356933594,-0.117034934,0.8300757,0.5452312,-0.15859193,-0.5575797,0.8148333,0.9803833,0.008894701,0.19689964,-0.008102743,0.99996704,4.9935165E-4,-0.5201737,-0.004641457,0.85404783,0.854022,0.0066603804,0.5201942,9.78186,0.041870117,1.927414,9.614276,0.08722722,1.9309258,-0.06802368,-0.021118164,-0.01373291,-25.439453,-8.039856,6.77948,0,0.0,0.0,0.0,0.0
0.365234375,-0.10945512,0.8545813,0.5076518,-0.16362189,-0.5192439,0.8388168,0.9804323,0.00874984,0.19666211,-0.019981138,0.9995886,0.020576973,-0.50799745,-0.027876703,0.8609074,0.8611268,0.0067488602,0.5083454,9.773483,-0.026321411,1.9286194,9.614757,0.085806616,1.9285966,-0.072753906,-0.021118164,-0.022583008,-25.2594,-7.6187134,7.3791504,0,0.0,0.0,0.0,0.0
0.373535156,-0.109296426,0.8543938,0.50800145,-0.1634678,-0.5195545,0.83865446,0.98047566,0.008620067,0.19645134,-0.025080113,0.99924576,0.029645089,-0.5019787,-0.038232896,0.86403453,0.8645162,0.00678888,0.502559,9.773483,-0.026321411,1.9286194,9.615182,0.08453398,1.9265295,-0.071380615,-0.016983032,-0.014801025,-25.2594,-7.6187134,7.3791504,0,0.0,0.0,0.0,0.0
0.381835938,-0.108837605,0.85515237,0.506822,-0.16349185,-0.5183068,0.8394214,0.98052275,0.008499361,0.19622175,-0.034622427,0.9982738,0.0474416,-0.49008554,-0.058329575,0.8697205,0.87098646,0.006861395,0.49125907,9.736389,-0.029907227,1.866394,9.6156435,0.083350256,1.9242781,-0.054275513,-0.00340271,-0.020141602,-25.498962,-7.6187134,7.3791504,0,0.0,0.0,0.0,0.0
0.390136719,-0.10883495,0.8551494,0.50682795,-0.16336681,-0.518311,0.8394433,0.98054385,0.008561907,0.19611336,-0.043307617,0.99696434,0.0647035,-0.478414,-0.07755076,0.87470335,0.87706584,0.006926259,0.48032025,9.701706,0.01914978,1.9058838,9.61585,0.08396363,1.9232152,-0.041763306,1.2207031E-4,-0.018310547,-25.498962,-7.6187134,7.3791504,0,0.0,0.0,0.0,0.0
0.3984375,-0.11277987,0.8424219,0.5268834,-0.16060933,-0.53874916,0.82701516,0.98055357,0.008648264,0.19606087,-0.047361836,0.9961959,0.07314822,-0.47266924,-0.086864136,0.87694836,0.8799663,0.0069589717,0.47498518,9.723236,0.08973694,1.9034882,9.615946,0.0848105,1.9227004,-0.046035767,0.012939453,-0.023345947,-25.79956,-7.9193115,7.1395874,0,0.0,0.0,0.0,0.0
0.406738281,-0.112866,0.84252995,0.5266921,-0.16061512,-0.53857833,0.8271253,0.9805428,0.008759635,0.19611022,-0.055370424,0.99435604,0.0904996,-0.46132356,-0.10586169,0.8808939,0.8855025,0.0070258677,0.46458146,9.717255,0.09690857,1.9286194,9.61584,0.085902676,1.9231843,-0.044662476,0.0095825195,-0.01953125,-25.79956,-7.9193115,7.1395874,0,0.0,0.0,0.0,0.0
0.415039063,-0.11347565,0.8405623,0.52969646,-0.16027695,-0.5416444,0.82518643,0.9805277,0.008740429,0.1961862,-0.06266359,0.992249,0.10730875,-0.4502462,-0.12406273,0.8842436,0.8907029,0.0070945253,0.45453057,9.851257,-0.009567261,1.9405823,9.615692,0.085714325,1.9239295,-0.042373657,4.272461E-4,-0.01876831,-25.619507,-7.9193115,7.0785522,0,0.0,0.0,0.0,0.0
0.423339844,-0.113439925,0.8405173,0.52977544,-0.16028668,-0.541715,0.8251382,0.9805303,0.008687675,0.19617586,-0.06609131,0.99109733,0.11557728,-0.44480902,-0.13294874,0.8857029,0.8931835,0.0071274433,0.44963577,9.851257,-0.009567261,1.9405823,9.615718,0.085196994,1.923828,-0.031219482,-0.012252808,-0.014953613,-25.619507,-7.9193115,7.0785522,0,0.0,0.0,0.0,0.0
0.431640625,-0.116732724,0.8289728,0.5469713,-0.15782763,-0.5592217,0.813856,0.98054266,0.008676441,0.19611427,-0.07247244,0.98863506,0.13171346,-0.43415037,-0.15016325,0.8882367,0.8979204,0.0071892287,0.44009897,9.734009,0.021530151,1.9656982,9.615839,0.08508682,1.9232241,-0.025268555,-0.02798462,-0.012817383,-25.738525,-7.978821,6.5994263,0,0.0,0.0,0.0,0.0
0.439941406,-0.11665665,0.8288698,0.5471436,-0.15751511,-0.5593731,0.8138125,0.98060197,0.008753274,0.1958141,-0.07861436,0.9858501,0.14805165,-0.42372054,-0.16747232,0.89017636,0.902375,0.007248123,0.43089068,9.768692,0.090927124,1.8747711,9.616421,0.08584029,1.9202805,-0.022979736,-0.040512085,-0.008987427,-25.738525,-7.978821,6.5994263,0,0.0,0.0,0.0,0.0
0.448242188,-0.11082588,0.84826326,0.51784855,-0.1612199,-0.52950144,0.83284837,0.9806762,0.00881366,0.19543937,-0.081469014,0.9843895,0.15601337,-0.41861048,-0.17585336,0.89097744,0.9045043,0.0072782263,0.42640236,9.768692,0.090927124,1.8747711,9.617148,0.08643248,1.9166055,-0.022201538,-0.043411255,-0.0132751465,-25.679016,-7.8598022,7.3791504,0,0.0,0.0,0.0,0.0
0.456542969,-0.11068774,0.84809625,0.51815134,-0.16078958,-0.5297679,0.83276194,0.9807624,0.008863211,0.19500388,-0.08619382,0.98162186,0.17026171,-0.40872428,-0.19069494,0.8925132,0.9085786,0.0073390296,0.41764942,9.743576,0.0765686,1.8520508,9.617994,0.086918406,1.9123349,-0.026489258,-0.037750244,-0.009460449,-25.679016,-7.8598022,7.3791504,0,0.0,0.0,0.0,0.0
0.46484375,-0.11029955,0.8484354,0.5176789,-0.16046879,-0.5292254,0.83316886,0.98085874,0.00882684,0.19452071,-0.09046411,0.9787508,0.18401942,-0.39913395,-0.20491987,0.8937002,0.91241896,0.0073993877,0.40919057,9.797409,0.025131226,1.8113708,9.618938,0.08656173,1.9075966,-0.02709961,-0.02432251,-0.0062408447,-25.2594,-7.8598022,7.499695,0,0.0,0.0,0.0,0.0
0.473144531,-0.11009611,0.8481964,0.5181136,-0.16010167,-0.52960944,0.83299536,0.98094153,0.0087586865,0.1941056,-0.09243151,0.9772866,0.1907023,-0.39444876,-0.21179183,0.89417803,0.9142574,0.0074279364,0.40506575,9.797409,0.025131226,1.8113708,9.619751,0.08589338,1.9035258,-0.028625488,-0.015304565,-0.012359619,-25.2594,-7.8598022,7.499695,0,0.0,0.0,0.0,0.0
0.481445313,-0.111134194,0.84408885,0.5245599,-0.15910465,-0.53613317,0.8290036,0.9809867,0.008670721,0.1938812,-0.09606982,0.97430384,0.20372206,-0.38529718,-0.2251136,0.89491343,0.9177782,0.0074806344,0.39702314,9.745972,0.013153076,1.8520508,9.6201935,0.08503073,1.9013251,-0.033355713,0.0010375977,-0.006088257,-25.318909,-7.9193115,7.3791504,0,0.0,0.0,0.0,0.0
0.489746094,-0.111082576,0.8440269,0.5246705,-0.15909463,-0.53623164,0.82894176,0.98099416,0.008608738,0.19384617,-0.09944816,0.97119564,0.21653908,-0.37641937,-0.23816474,0.8953134,0.9210964,0.007527762,0.38926187,9.754349,0.033493042,1.9202423,9.620267,0.08442288,1.9009815,-0.033355713,-0.0029449463,-0.014038086,-25.318909,-7.9193115,7.3791504,0,0.0,0.0,0.0,0.0
0.498046875,-0.11460932,0.83166796,0.5433168,-0.1565472,-0.55520725,0.8168463,0.9809983,0.008563487,0.19382721,-0.10100447,0.9696244,0.2227704,-0.3720954,-0.24448223,0.895418,0.9226826,0.007549382,0.38548657,9.754349,0.033493042,1.9202423,9.620307,0.08397912,1.9007957,-0.040527344,-0.0055389404,-0.009460449,-25.498962,-8.099365,7.019043,0,0.0,0.0,0.0,0.0
0.506347656,-0.114588745,0.8316417,0.5433612,-0.15655904,-0.55524695,0.8168169,0.98099875,0.008529915,0.1938261,-0.10419537,0.9662278,0.23568428,-0.36358267,-0.25757748,0.8952438,0.92571646,0.007589541,0.3781421,9.773483,0.04067993,1.9656982,9.620312,0.08364989,1.9007847,-0.04573059,-0.027679443,-0.008834839,-25.498962,-8.099365,7.019043,0,0.0,0.0,0.0,0.0
0.514648438,-0.114517316,0.83155066,0.5435156,-0.1564911,-0.5553842,0.8167367,0.981018,0.008475142,0.1937314,-0.1056643,0.96451634,0.24195705,-0.3594389,-0.26391336,0.89507174,0.927167,0.007608348,0.3745709,9.750748,0.0035858154,1.9908295,9.620501,0.08311275,1.8998561,-0.050613403,-0.027679443,-0.01020813,-25.498962,-8.099365,7.019043,0,0.0,0.0,0.0,0.0
0.522949219,-0.115461655,0.82728094,0.5497952,-0.15551472,-0.5617267,0.812575,0.98106253,0.008319999,0.19351228,-0.10836723,0.9610752,0.25414765,-0.35136998,-0.27618122,0.8945742,0.9299439,0.0076426733,0.367622,9.737595,-0.0382843,1.9513397,9.620937,0.08159132,1.8977072,-0.04006958,-0.03012085,-0.010375977,-25.318909,-8.1588745,6.9595337,0,0.0,0.0,0.0,0.0
0.53125,-0.112050496,0.8387122,0.5329225,-0.15764865,-0.5445116,0.82380444,0.9811175,0.008293194,0.19323467,-0.10965757,0.95930666,0.26020363,-0.34742558,-0.28226244,0.89421666,0.9312737,0.00765622,0.3642399,9.72084,0.04067993,1.8987122,9.621476,0.08132845,1.8949847,-0.037322998,-0.020812988,-0.012817383,-25.19989,-7.978821,7.258606,0,0.0,0.0,0.0,0.0
0.539550781,-0.11196872,0.83861244,0.53309673,-0.15742648,-0.5446651,0.8237456,0.98116255,0.008310203,0.19300526,-0.11174512,0.95600563,0.27123114,-0.3398349,-0.29324785,0.8935983,0.93382293,0.0076814448,0.35765308,9.729218,0.059814453,1.8448639,9.621918,0.08149526,1.8927351,-0.037628174,-0.007369995,-0.01586914,-25.19989,-7.978821,7.258606,0,0.0,0.0,0.0,0.0
0.547851563,-0.11542399,0.8261715,0.5514688,-0.15472662,-0.5633567,0.8115964,0.9811916,0.008350796,0.19285563,-0.11359488,0.95271474,0.2818349,-0.33251834,-0.30376852,0.8928361,0.93623066,0.007706343,0.35130164,9.729218,0.059814453,1.8448639,9.622203,0.08189333,1.8912677,-0.038848877,-0.0056915283,-0.017852783,-25.439453,-8.1588745,6.8984985,0,0.0,0.0,0.0,0.0
0.556152344,-0.11539919,0.8261394,0.5515222,-0.15458106,-0.5634031,0.811592,0.98121744,0.008402176,0.19272177,-0.114584684,0.95093787,0.28738043,-0.3289097,-0.30928558,0.8922784,0.93738395,0.0077192322,0.3482121,9.73999,0.071777344,1.8759766,9.622457,0.08239721,1.889955,-0.038848877,-0.0050811768,-0.018920898,-25.439453,-8.1588745,6.8984985,0,0.0,0.0,0.0,0.0
0.564453125,-0.115390085,0.8261276,0.55154186,-0.15440542,-0.5634192,0.81161433,0.9812462,0.008491195,0.19257155,-0.11639422,0.94739836,0.2981421,-0.3218914,-0.319963,0.8910722,0.93959475,0.007746278,0.34220123,9.795013,0.08734131,1.8376923,9.622738,0.08327018,1.8884819,-0.03366089,-0.0035552979,-0.018005371,-25.439453,-8.1588745,6.8984985,0,0.0,0.0,0.0,0.0
0.572753906,-0.1107021,0.84289217,0.5265717,-0.15769069,-0.53801316,0.8280552,0.9812639,0.008631995,0.19247545,-0.11799436,0.9438859,0.3084748,-0.31513372,-0.33018014,0.8897594,0.94168365,0.0077757766,0.3364097,9.834503,0.10887146,1.8963165,9.622911,0.084650956,1.8875395,-0.04220581,-0.014083862,-0.022277832,-25.2594,-8.039856,7.559204,0,0.0,0.0,0.0,0.0
0.581054688,-0.110196225,0.8444993,0.524097,-0.15786862,-0.53548616,0.82965773,0.9812921,0.008686679,0.19232851,-0.11853326,0.94234633,0.31294295,-0.31192228,-0.3345485,0.8892591,0.94268465,0.0077929012,0.33359393,9.834503,0.041870117,1.8903351,9.623189,0.08518723,1.8860984,-0.043441772,-0.016067505,-0.019073486,-25.138855,-7.8598022,7.3791504,0,0.0,0.0,0.0,0.0
0.589355469,-0.11011665,0.8444043,0.5242668,-0.15768838,-0.535636,0.8295953,0.9813301,0.00868147,0.1921352,-0.11946219,0.93934184,0.3215054,-0.30569643,-0.34289306,0.8882421,0.94460493,0.007828294,0.3281162,9.808182,0.026321411,1.8939209,9.623561,0.08513614,1.8842027,-0.04878235,-0.028289795,-0.01586914,-25.138855,-7.8598022,7.3791504,0,0.0,0.0,0.0,0.0
0.59765625,-0.111869775,0.83770186,0.53454727,-0.1560985,-0.54605955,0.8230748,0.9813859,0.008635165,0.19185156,-0.12025489,0.93638426,0.3297321,-0.29970765,-0.35088843,0.8871599,0.9464217,0.00786208,0.32283756,9.808182,0.026321411,1.8939209,9.624108,0.08468205,1.8814211,-0.05381775,-0.039123535,-0.0079193115,-25.2594,-8.1588745,7.499695,0,0.0,0.0,0.0,0.0
0.605957031,-0.111549914,0.83732104,0.5352102,-0.15583454,-0.54664725,0.8227346,0.98146427,0.008371733,0.19146201,-0.120675296,0.9348372,0.33394134,-0.29676798,-0.35498914,0.8865165,0.9472941,0.007877542,0.32026815,9.762711,-0.10647583,1.8364868,9.624877,0.08209866,1.877601,-0.05366516,-0.030578613,-0.011749268,-25.2594,-8.1588745,7.499695,0,0.0,0.0,0.0,0.0
0.614257813,-0.111261085,0.8369768,0.5358085,-0.15561597,-0.54717803,0.82242316,0.9815318,0.008123334,0.19112659,-0.121415116,0.9317742,0.34213337,-0.29105005,-0.36295247,0.8851866,0.9489722,0.007897112,0.31526083,9.762711,-0.10647583,1.8364868,9.625539,0.079662696,1.8743116,-0.057632446,-0.023406982,-0.019378662,-25.2594,-8.1588745,7.499695,0,0.0,0.0,0.0,0.0
0.622558594,-0.10952382,0.8421163,0.5280575,-0.15647353,-0.53923666,0.8274901,0.9815908,0.0080028605,0.19082816,-0.12203269,0.9287594,0.35002002,-0.28554812,-0.37059882,0.88380927,0.9505632,0.00790607,0.31043068,9.792633,-0.0382843,1.8065796,9.626118,0.07848125,1.871385,-0.04725647,-0.014083862,-0.016174316,-25.019836,-8.21991,7.9193115,0,0.0,0.0,0.0,0.0
0.630859375,-0.107140124,0.8499228,0.5158996,-0.1578378,-0.5268458,0.8351771,0.98163545,0.008052529,0.19059624,-0.1222437,0.9273453,0.35367668,-0.2828988,-0.37412322,0.88317615,0.95132786,0.007908005,0.3080791,9.769897,0.07417297,1.8065796,9.626555,0.07896833,1.8691107,-0.035491943,-0.007980347,-0.016479492,-24.778748,-8.039856,8.099365,0,0.0,0.0,0.0,0.0
0.639160156,-0.1071174,0.8498982,0.5159446,-0.15767293,-0.5268844,0.8351838,0.9816644,0.008112221,0.19044442,-0.12243595,0.92478395,0.36025563,-0.27782264,-0.3804104,0.8821012,0.952798,0.007913728,0.3035018,9.735199,0.07417297,1.8029938,9.62684,0.079553716,1.8676219,-0.029083252,0.0069885254,-0.014801025,-24.778748,-8.039856,8.099365,0,0.0,0.0,0.0,0.0
0.647460938,-0.10319211,0.8629117,0.49470663,-0.16028759,-0.505288,0.8479339,0.9816615,0.00820476,0.1904558,-0.122558735,0.9222832,0.36656943,-0.272945,-0.38643372,0.8810051,0.95419097,0.007921589,0.2990934,9.774673,0.095718384,1.8305054,9.626811,0.08046121,1.8677334,-0.034423828,0.02180481,-0.018157959,-24.659729,-7.798767,8.459473,0,0.0,0.0,0.0,0.0
0.655761719,-0.103306815,0.8630281,0.49447963,-0.16038033,-0.50508755,0.84803575,0.98163426,0.008303059,0.19059174,-0.122461565,0.92125225,0.36918485,-0.270642,-0.38888487,0.880637,0.9548592,0.007927252,0.29695302,9.772293,0.090927124,1.8675995,9.626544,0.0814252,1.8690665,-0.033050537,0.02180481,-0.021209717,-24.659729,-7.798767,8.459473,0,0.0,0.0,0.0,0.0
0.6640625,-0.10344967,0.86317307,0.49419683,-0.16049922,-0.50483793,0.8481619,0.98159975,0.008423866,0.19076389,-0.12224181,0.91923696,0.37424648,-0.26618093,-0.39362472,0.87989056,0.9561405,0.007942134,0.29280072,9.772293,0.090927124,1.9010925,9.626205,0.08260991,1.8707547,-0.029388428,0.0152282715,-0.020446777,-24.659729,-7.798767,8.459473,0,0.0,0.0,0.0,0.0
0.672363281,-0.10099233,0.8713179,0.4802142,-0.1622187,-0.49064428,0.8561269,0.981573,0.008562517,0.19089536,-0.12212096,0.9182529,0.37669373,-0.2640216,-0.3959147,0.8795136,0.9567545,0.007951769,0.29078808,9.82254,0.061019897,1.9010925,9.625943,0.083969615,1.8720441,-0.029693604,0.011413574,-0.024261475,-24.479675,-7.499695,8.459473,0,0.0,0.0,0.0,0.0
0.680664063,-0.09529616,0.8881009,0.4496614,-0.1657075,-0.4595673,0.8725474,0.9815598,0.008638134,0.19095999,-0.12169474,0.9165864,0.38086718,-0.25991613,-0.39975715,0.8789982,0.9579321,0.007975955,0.28688392,9.701706,0.08015442,1.8580322,9.6258135,0.084711164,1.8726778,-0.033355713,-0.0018615723,-0.010681152,-24.35913,-7.1395874,8.938599,0,0.0,0.0,0.0,0.0
0.688964844,-0.095321275,0.88812375,0.44961116,-0.16565658,-0.4595223,0.87258077,0.98156595,0.008694471,0.19092576,-0.12089871,0.91553414,0.3836414,-0.25614747,-0.40216064,0.8790081,0.95904744,0.008002178,0.28313246,9.789032,0.049057007,1.8795624,9.625874,0.085263625,1.872342,-0.044052124,-0.0015563965,-0.013580322,-24.35913,-7.1395874,8.938599,0,0.0,0.0,0.0,0.0
0.697265625,-0.09528985,0.8880952,0.449674,-0.1655971,-0.45957753,0.8725629,0.98157907,0.008681672,0.19085906,-0.120505586,0.9150219,0.3849849,-0.25431925,-0.40332457,0.87900573,0.95958334,0.008016025,0.28131056,9.8022,0.041870117,1.8855438,9.626002,0.08513812,1.8716881,-0.04145813,-0.0050811768,-0.011749268,-24.35913,-7.1395874,8.938599,0,0.0,0.0,0.0,0.0
0.705566406,-0.09340098,0.8930459,0.440165,-0.16661884,-0.44988313,0.87740713,0.9815877,0.00861091,0.1908178,-0.11972802,0.9140226,0.38759235,-0.2507708,-0.40558347,0.8789858,0.9606139,0.008042386,0.2777699,9.725632,0.0011901855,1.8735809,9.626087,0.08444418,1.8712834,-0.04206848,1.2207031E-4,-0.015106201,-24.41864,-6.9595337,8.938599,0,0.0,0.0,0.0,0.0
0.713867188,-0.09332844,0.89298075,0.44031245,-0.16665512,-0.4500144,0.87733287,0.9815884,0.008499774,0.190819,-0.11885418,0.9132334,0.3897158,-0.24741563,-0.40735692,0.87911654,0.961592,0.008064899,0.27436426,9.787842,-0.035888672,1.9190369,9.626095,0.08335432,1.8712953,-0.036865234,-0.00843811,-0.011123657,-24.41864,-6.9595337,8.938599,0,0.0,0.0,0.0,0.0
0.722167969,-0.09544259,0.886795,0.4522006,-0.16540268,-0.4620874,0.87127334,0.981597,0.0083613945,0.19078107,-0.11842405,0.9128482,0.390748,-0.24578911,-0.40821937,0.87917274,0.9620621,0.008073596,0.27271113,9.787842,-0.035888672,1.9190369,9.626179,0.081997275,1.8709233,-0.042373657,-0.012863159,-0.0065460205,-24.539185,-7.1990967,8.938599,0,0.0,0.0,0.0,0.0
0.73046875,-0.092362635,0.89486754,0.4366705,-0.16703245,-0.44625515,0.87917936,0.9816156,0.008265174,0.19068924,-0.11770502,0.911878,0.3932227,-0.24257177,-0.41038176,0.8790596,0.9629665,0.008084994,0.26949987,9.759125,0.027511597,1.915451,9.626361,0.08105367,1.8700227,-0.050460815,-0.018814087,-0.004714966,-24.598694,-6.9595337,9.059143,0,0.0,0.0,0.0,0.0
0.738769531,-0.0922125,0.89473414,0.43697575,-0.16689003,-0.44652522,0.8790694,0.981654,0.008134293,0.19049738,-0.116826035,0.9112316,0.39497948,-0.23956427,-0.41181505,0.87921405,0.96382606,0.008092129,0.26640922,9.753143,0.01675415,1.8771667,9.626738,0.07977017,1.8681412,-0.04220581,-0.02645874,-0.00440979,-24.598694,-6.9595337,9.059143,0,0.0,0.0,0.0,0.0
0.747070313,-0.091429986,0.8963258,0.43386707,-0.16703774,-0.44332302,0.8806606,0.981702,0.008046615,0.19025326,-0.11639354,0.9109147,0.395837,-0.23810269,-0.41251534,0.8792827,0.9642405,0.0080929715,0.26490536,9.745972,0.020339966,1.8472595,9.627209,0.078910336,1.8657471,-0.04220581,-0.02003479,-0.018005371,-24.598694,-6.7199707,8.699036,0,0.0,0.0,0.0,0.0
0.755371094,-0.09134395,0.8962465,0.4340491,-0.16677757,-0.4434834,0.8806292,0.9817543,0.0080505,0.18998331,-0.11550695,0.910357,0.3973767,-0.23527625,-0.41374466,0.879466,0.9650405,0.008091135,0.26197577,9.8033905,0.0382843,1.7850494,9.627721,0.07894844,1.8630998,-0.033050537,0.002105713,-0.019836426,-24.598694,-6.7199707,8.699036,0,0.0,0.0,0.0,0.0
0.763671875,-0.09180207,0.8949311,0.43665874,-0.16635616,-0.44613123,0.8793706,0.9817831,0.008087172,0.18983305,-0.11464491,0.9098169,0.39886042,-0.23255198,-0.41493088,0.8796317,0.9658034,0.008089526,0.25914943,9.769897,0.056228638,1.8221283,9.628003,0.07930807,1.8616263,-0.037322998,0.0082092285,-0.01739502,-24.719238,-6.8389893,8.81958,0,0.0,0.0,0.0,0.0
0.771972656,-0.0918264,0.89495337,0.43660784,-0.16630284,-0.44608542,0.87940395,0.9817899,0.008143373,0.1897957,-0.1142371,0.9095298,0.39963156,-0.2312211,-0.41555995,0.8796855,0.96617115,0.008089478,0.25777486,9.769897,0.056228638,1.8221283,9.62807,0.079859205,1.86126,-0.037322998,0.004852295,-0.017700195,-24.719238,-6.8389893,8.81958,0,0.0,0.0,0.0,0.0
0.780273438,-0.093515776,0.89045316,0.4453628,-0.16534436,-0.45500126,0.8750057,0.9817922,0.008188606,0.18978119,-0.11344084,0.90897226,0.40112412,-0.2286372,-0.41677803,0.87978464,0.9668796,0.008091612,0.25510454,9.725632,0.055038452,1.8604126,9.628093,0.0803028,1.8611177,-0.039916992,0.016296387,-0.021209717,-24.839783,-6.9595337,8.699036,0,0.0,0.0,0.0,0.0
0.788574219,-0.09358163,0.8905153,0.44522452,-0.1653799,-0.4548782,0.8750629,0.98177993,0.008258634,0.1898416,-0.11275974,0.9082699,0.40290323,-0.22611058,-0.41830638,0.87971234,0.9675532,0.0080954535,0.25253755,9.76152,0.059814453,1.8568268,9.627973,0.08098954,1.8617102,-0.043441772,0.0051574707,-0.024261475,-24.839783,-6.9595337,8.699036,0,0.0,0.0,0.0,0.0
0.796875,-0.093624875,0.8905562,0.4451338,-0.16536702,-0.45479718,0.8751076,0.981778,0.008321389,0.18984894,-0.1124273,0.9079294,0.4037627,-0.22488637,-0.41904488,0.8796747,0.9678772,0.008098718,0.25129306,9.809372,0.037094116,1.853241,9.6279545,0.08160496,1.8617823,-0.031982422,4.272461E-4,-0.022277832,-24.839783,-6.9595337,8.699036,0,0.0,0.0,0.0,0.0
0.805175781,-0.09771376,0.87909406,0.46652502,-0.1629614,-0.47657442,0.86389834,0.98178184,0.008389195,0.1898263,-0.11177763,0.9072685,0.4054252,-0.22251138,-0.42047366,0.8795968,0.96850115,0.008107536,0.24887712,9.805786,0.053833008,1.8640137,9.627992,0.082269914,1.8615602,-0.03778076,0.0054626465,-0.012969971,-25.138855,-7.3791504,8.639526,0,0.0,0.0,0.0,0.0
0.813476563,-0.097732425,0.8791125,0.46648642,-0.1629443,-0.47653994,0.8639206,0.98178285,0.008421761,0.18981977,-0.111362815,0.90622014,0.40787667,-0.22012122,-0.42272818,0.8791174,0.96909493,0.008118689,0.2465545,9.756729,0.0657959,1.861618,9.628001,0.08258927,1.8614961,-0.037322998,-0.0023345947,-0.008377075,-25.138855,-7.3791504,8.639526,0,0.0,0.0,0.0,0.0
0.821777344,-0.099474594,0.8738463,0.4759174,-0.16184321,-0.48612955,0.8587693,0.98178995,0.008401734,0.18978365,-0.111157686,0.9057099,0.40906408,-0.21896236,-0.42382005,0.87888116,0.969381,0.008124751,0.24542724,9.757935,0.1040802,1.8544312,9.628071,0.082392864,1.8611418,-0.042373657,-0.010116577,-0.0024261475,-24.839783,-7.499695,8.578491,0,0.0,0.0,0.0,0.0
0.830078125,-0.0988457,0.8756336,0.47275305,-0.16212013,-0.48290277,0.860536,0.9818079,0.008417497,0.18969068,-0.11084438,0.90453154,0.41174775,-0.21666628,-0.4263291,0.87823635,0.9699326,0.008135721,0.24323767,9.777069,0.07417297,1.8317108,9.628246,0.082547456,1.8602301,-0.04159546,-0.009963989,-0.0132751465,-24.958801,-7.319641,8.338928,0,0.0,0.0,0.0,0.0
0.838378906,-0.098801024,0.875588,0.47284672,-0.16198047,-0.48298514,0.86051595,0.98183537,0.008427926,0.18954758,-0.11067151,0.90398896,0.4129839,-0.21555974,-0.4274782,0.8779501,0.97019887,0.008141356,0.2421733,9.777069,0.07417297,1.8317108,9.628516,0.08264973,1.8588269,-0.044189453,-0.0096588135,-0.017547607,-24.958801,-7.319641,8.338928,0,0.0,0.0,0.0,0.0
0.846679688,-0.09875242,0.87553847,0.47294867,-0.16189156,-0.48307532,0.8604821,0.9818549,0.008408291,0.18944713,-0.110327035,0.9029304,0.41538498,-0.21340859,-0.42970946,0.8773862,0.9707135,0.008152704,0.24010167,9.795013,0.01675415,1.861618,9.628708,0.08245717,1.8578417,-0.040222168,-8.087158E-4,-0.021209717,-24.958801,-7.319641,8.338928,0,0.0,0.0,0.0,0.0
0.854980469,-0.09749526,0.8790643,0.46662682,-0.16255876,-0.47662956,0.8639438,0.9818703,0.008376151,0.18936872,-0.109984875,0.90190685,0.41769293,-0.21134096,-0.43185347,0.87683386,0.9712046,0.008162825,0.23810722,9.806976,-0.011962891,1.8352966,9.628859,0.08214199,1.8570728,-0.032440186,0.008514404,-0.01586914,-24.958801,-7.258606,8.459473,0,0.0,0.0,0.0,0.0
0.86328125,-0.097468756,0.87903786,0.4666823,-0.16253993,-0.4766789,0.86392015,0.981876,0.008350705,0.18934004,-0.109783225,0.90147215,0.41868314,-0.2103537,-0.43276,0.87662435,0.9714417,0.008167092,0.2371378,9.806976,-0.011962891,1.8352966,9.628915,0.08189244,1.8567916,-0.024658203,0.0036315918,-0.020751953,-24.958801,-7.258606,8.459473,0,0.0,0.0,0.0,0.0
0.871582031,-0.09803885,0.8775201,0.46941125,-0.16223346,-0.47946638,0.86243397,0.98187,0.008397821,0.18936944,-0.109385505,0.90062505,0.42060587,-0.20843841,-0.43452004,0.876211,0.9718993,0.008174362,0.23525505,9.718445,0.034698486,1.8711853,9.628856,0.08235449,1.8570799,-0.018234253,-0.0015563965,-0.016174316,-24.839783,-7.1395874,8.1588745,0,0.0,0.0,0.0,0.0
0.879882813,-0.09298556,0.89195687,0.44245526,-0.16517216,-0.452042,0.8765708,0.98187166,0.008427146,0.18935981,-0.10902453,0.89975345,0.42256042,-0.20658693,-0.4363218,0.87575406,0.9723351,0.008183211,0.23344709,9.789032,0.013153076,1.8759766,9.628872,0.08264207,1.8569854,-0.039764404,-0.0137786865,-0.018005371,-24.778748,-6.77948,8.459473,0,0.0,0.0,0.0,0.0
0.888183594,-0.092946544,0.8919192,0.44253933,-0.16510415,-0.4521166,0.876545,0.98188674,0.008406753,0.18928224,-0.10871975,0.89960027,0.42296502,-0.20575656,-0.43663752,0.8757922,0.97254527,0.00818809,0.23256978,9.789032,0.013153076,1.8759766,9.62902,0.08244208,1.8562248,-0.037017822,-0.010574341,-0.019073486,-24.778748,-6.77948,8.459473,0,0.0,0.0,0.0,0.0
0.896484375,-0.09290527,0.8918794,0.44262835,-0.16495563,-0.45219502,0.87653255,0.9819156,0.008420457,0.18913181,-0.10812518,0.8993011,0.4237528,-0.20414273,-0.43725315,0.87586266,0.9729515,0.008196749,0.23086385,9.78186,0.027511597,1.8161469,9.629303,0.082576476,1.8547496,-0.037628174,0.007446289,-0.021057129,-24.778748,-6.77948,8.459473,0,0.0,0.0,0.0,0.0
0.904785156,-0.09209049,0.894085,0.43832803,-0.16534768,-0.44781783,0.87870324,0.9819264,0.008443688,0.18907462,-0.10755034,0.89901185,0.42451218,-0.20258698,-0.43784738,0.87592703,0.97334033,0.0082056075,0.22921874,9.796219,0.04307556,1.8053894,9.629409,0.08280429,1.8541887,-0.031677246,0.010192871,-0.01739502,-24.958801,-6.6589355,8.338928,0,0.0,0.0,0.0,0.0
0.913085938,-0.0921118,0.89410585,0.4382809,-0.16531841,-0.44777527,0.87873036,0.9819293,0.0084855305,0.18905754,-0.1072508,0.89891446,0.42479423,-0.2018418,-0.43804735,0.8759991,0.9735282,0.008210369,0.22841944,9.796219,0.04307556,1.8053894,9.629437,0.08321463,1.8540212,-0.03488159,0.014465332,-0.017852783,-24.958801,-6.6589355,8.338928,0,0.0,0.0,0.0,0.0
0.921386719,-0.092672594,0.892822,0.44077247,-0.16513647,-0.4503286,0.8774587,0.9819071,0.008528775,0.18917064,-0.106669255,0.8987259,0.4253391,-0.20039476,-0.43843368,0.87613803,0.97389096,0.008221266,0.22686736,9.775879,0.056228638,1.8831482,9.62922,0.08363871,1.8551303,-0.045578003,0.014007568,-0.013885498,-25.079346,-6.7199707,8.338928,0,0.0,0.0,0.0,0.0
0.9296875,-0.09270844,0.8928747,0.4406585,-0.16522156,-0.45022413,0.87749654,0.98188955,0.008545057,0.18926172,-0.1061352,0.89849514,0.42595986,-0.19899613,-0.43890625,0.87622017,0.974236,0.008233443,0.22538045,9.74118,0.08973694,1.9441681,9.629047,0.083798386,1.8560234,-0.04725647,-0.018356323,-0.010070801,-24.778748,-6.6589355,8.279419,0,0.0,0.0,0.0,0.0
0.937988281,-0.09273786,0.89290357,0.44059363,-0.1652489,-0.4501662,0.87752104,0.98188215,0.008571816,0.18929881,-0.105876185,0.8983841,0.42625833,-0.19831958,-0.43913326,0.8762598,0.9744022,0.008239675,0.22466092,9.74118,0.08973694,1.9441681,9.628975,0.084060796,1.8563873,-0.056106567,-0.027679443,-0.009460449,-24.778748,-6.6589355,8.279419,0,0.0,0.0,0.0,0.0
0.946289063,-0.09265001,0.89281726,0.44078714,-0.165045,-0.45033792,0.87747127,0.98192465,0.008548013,0.18907882,-0.10537353,0.89816964,0.42683458,-0.1970079,-0.43957165,0.876336,0.9747227,0.0082528265,0.22326572,9.800995,0.06341553,1.8675995,9.629392,0.08382737,1.8542299,-0.052139282,-0.026306152,-0.0066986084,-24.778748,-6.6589355,8.279419,0,0.0,0.0,0.0,0.0
0.954589844,-0.09032876,0.8987072,0.42914566,-0.16605228,-0.4384662,0.88327456,0.98197114,0.0085244775,0.1888385,-0.10488632,0.89796,0.42739516,-0.19574021,-0.4399994,0.87640536,0.97503054,0.008264516,0.2219168,9.787842,0.01914978,1.8759766,9.629848,0.08359657,1.8518732,-0.044662476,-0.0345459,-0.014038086,-25.079346,-6.3598633,8.039856,0,0.0,0.0,0.0,0.0
0.962890625,-0.09020613,0.8985836,0.42943034,-0.16585022,-0.43872106,0.88318604,0.98201656,0.008447672,0.18860562,-0.10459527,0.897975,0.42743507,-0.19514902,-0.43996876,0.8765526,0.9751803,0.008269715,0.22125758,9.787842,0.01914978,1.8759766,9.630293,0.08284337,1.8495893,-0.046798706,-0.023864746,-0.009292603,-25.079346,-6.3598633,8.039856,0,0.0,0.0,0.0,0.0
0.971191406,-0.09196931,0.8933331,0.43988368,-0.16456772,-0.44931725,0.87808394,0.9820688,0.008366127,0.18833719,-0.10402603,0.8979991,0.42752337,-0.19399354,-0.43991947,0.8768337,0.9754717,0.0082767615,0.21996908,9.726822,0.06460571,1.8448639,9.630805,0.08204368,1.846957,-0.042373657,-0.01927185,-0.0132751465,-25.079346,-6.5994263,8.1588745,0,0.0,0.0,0.0,0.0
0.979492188,-0.09192043,0.8932838,0.43999407,-0.16437487,-0.4494149,0.8780701,0.9821056,0.008388615,0.1881438,-0.103791825,0.8979068,0.42777416,-0.19340421,-0.44010788,0.8768694,0.9756137,0.008278548,0.21933855,9.726822,0.06460571,1.8448639,9.631166,0.082264215,1.8450605,-0.040985107,-0.01927185,-0.021209717,-25.079346,-6.5994263,8.1588745,0,0.0,0.0,0.0,0.0
0.987792969,-0.09193946,0.8931655,0.44023007,-0.16413732,-0.44964847,0.877995,0.98214364,0.00846421,0.18794222,-0.103334896,0.8977255,0.42826483,-0.19225322,-0.4404773,0.876937,0.9758896,0.008282906,0.21810728,9.769897,0.06700134,1.8364868,9.631539,0.08300554,1.8430836,-0.03213501,-0.013168335,-0.023651123,-25.019836,-6.4193726,7.798767,0,0.0,0.0,0.0,0.0
0.99609375,-0.09193954,0.8931656,0.4402299,-0.16396093,-0.44964677,0.87802887,0.9821731,0.008545067,0.18778458,-0.10289622,0.8975467,0.4287449,-0.19113852,-0.44084132,0.8769977,0.9761549,0.008290087,0.21691665,9.789032,0.052642822,1.8281097,9.631827,0.083798476,1.8415376,-0.028015137,-0.0017242432,-0.022735596,-25.019836,-6.4193726,7.798767,0,0.0,0.0,0.0,0.0
1.004394531,-0.08898407,0.9011953,0.42418033,-0.16549082,-0.43332732,0.8859121,0.9821887,0.0086341165,0.18769877,-0.102683075,0.89746,0.42897758,-0.19059432,-0.44101787,0.8770274,0.9762838,0.008295187,0.21633585,9.789032,0.052642822,1.8281097,9.631981,0.08467176,1.8406961,-0.02267456,-0.0029449463,-0.020904541,-24.899292,-6.298828,8.1588745,0,0.0,0.0,0.0,0.0
1.012695313,-0.08904628,0.90125626,0.42403755,-0.16541052,-0.43319795,0.8859903,0.98219657,0.008753874,0.18765195,-0.10213382,0.8976091,0.42879653,-0.18960738,-0.44071394,0.87739396,0.97653353,0.008308607,0.21520513,9.737595,0.07777405,1.8424683,9.632058,0.085846186,1.840237,-0.018234253,-0.0012512207,-0.021362305,-24.899292,-6.298828,8.1588745,0,0.0,0.0,0.0,0.0
1.020996094,-0.09086327,0.89638954,0.4338544,-0.16431423,-0.44318008,0.88124466,0.98221415,0.008784333,0.18755835,-0.10160911,0.8977548,0.42861626,-0.1886559,-0.44041678,0.8777483,0.9767725,0.00832624,0.2141171,9.779465,0.029907227,1.8149567,9.632231,0.08614488,1.8393191,-0.025268555,-0.0027923584,-0.012054443,-24.958801,-6.478882,8.1588745,0,0.0,0.0,0.0,0.0
1.029296875,-0.0908319,0.8963583,0.4339255,-0.16423477,-0.44324344,0.88122773,0.9822304,0.008777926,0.18747383,-0.10139632,0.89772755,0.42872372,-0.18816967,-0.4404722,0.8778248,0.97688836,0.0083354,0.21358736,9.779465,0.029907227,1.8149567,9.63239,0.08608205,1.8384904,-0.029541016,-3.3569336E-4,-0.011291504,-24.958801,-6.478882,8.1588745,0,0.0,0.0,0.0,0.0
1.037597656,-0.09201925,0.89287764,0.44079703,-0.16350156,-0.45021525,0.8778232,0.98224217,0.00870562,0.18741535,-0.10098208,0.8976734,0.42893478,-0.18722312,-0.4405822,0.877972,0.9771131,0.008352926,0.21255614,9.797409,0.007171631,1.8209381,9.632505,0.08537297,1.8379167,-0.035949707,0.0053100586,-0.009155273,-24.659729,-6.539917,8.099365,0,0.0,0.0,0.0,0.0
1.045898438,-0.091921404,0.89277965,0.4410158,-0.16352883,-0.45041224,0.87771696,0.9822468,0.008562197,0.18739773,-0.10063783,0.89748544,0.42940882,-0.186282,-0.44096473,0.8779802,0.97732854,0.008366892,0.21156311,9.772293,0.021530151,1.9250183,9.632551,0.08396647,1.837744,-0.048477173,0.009429932,-0.0013580322,-24.659729,-6.539917,8.099365,0,0.0,0.0,0.0,0.0
1.054199219,-0.08851909,0.90176725,0.42306048,-0.16555321,-0.4321397,0.88648033,0.9822202,0.008431405,0.18754308,-0.10046869,0.89739233,0.42964292,-0.1858261,-0.44115406,0.8779816,0.97743267,0.008370798,0.21108109,9.772293,0.021530151,1.9250183,9.63229,0.08268384,1.8391694,-0.05000305,0.008666992,-0.0019683838,-24.35913,-6.3598633,8.459473,0,0.0,0.0,0.0,0.0
1.0625,-0.08852096,0.90176904,0.4230564,-0.1656676,-0.432137,0.88646036,0.98220074,0.008383588,0.18764707,-0.09998854,0.8975674,0.4293892,-0.18502937,-0.4407978,0.8783288,0.97763306,0.008373199,0.21015106,9.757935,0.090927124,1.902298,9.632099,0.082214914,1.8401892,-0.039001465,-0.008895874,-0.0012054443,-24.35913,-6.3598633,8.459473,0,0.0,0.0,0.0,0.0
1.070800781,-0.08628062,0.9075317,0.41102535,-0.16679609,-0.41989926,0.89211184,0.9822091,0.008414549,0.18760191,-0.099528156,0.89773524,0.42914513,-0.18426825,-0.4404558,0.8786603,0.9778238,0.008373611,0.20926186,9.773483,0.1375885,1.8592224,9.632181,0.08251854,1.8397462,-0.041900635,-0.027832031,-0.013885498,-24.41864,-6.1798096,8.518982,0,0.0,0.0,0.0,0.0
1.079101563,-0.08628079,0.90753186,0.411025,-0.16662052,-0.4198974,0.8921456,0.9822389,0.008489826,0.18744251,-0.09925542,0.89793575,0.42878875,-0.1839247,-0.44004694,0.87893707,0.9779162,0.008374429,0.20882961,9.773483,0.1375885,1.8592224,9.632473,0.08325675,1.8381832,-0.044662476,-0.023254395,-0.01159668,-24.41864,-6.1798096,8.518982,0,0.0,0.0,0.0,0.0
1.087402344,-0.08513352,0.91016024,0.40541416,-0.16697322,-0.4141696,0.89475334,0.9822791,0.008480192,0.1872321,-0.09872694,0.89832425,0.42809638,-0.18325047,-0.43925315,0.8794748,0.97809625,0.008379,0.20798446,9.7495575,0.041870117,1.8305054,9.632867,0.08316227,1.8361197,-0.037628174,-0.01576233,-0.016937256,-24.35913,-6.1798096,8.758545,0,0.0,0.0,0.0,0.0
1.095703125,-0.08510913,0.91013896,0.40546703,-0.16674112,-0.414215,0.8947756,0.98232067,0.008545557,0.18701106,-0.09817099,0.89880615,0.42721185,-0.18261926,-0.43826613,0.8800983,0.97827023,0.008383008,0.20716433,9.814163,0.07298279,1.8029938,9.633275,0.08380329,1.8339521,-0.03060913,-0.010116577,-0.01876831,-24.35913,-6.1798096,8.758545,0,0.0,0.0,0.0,0.0
1.104003906,-0.08079066,0.9205226,0.38224465,-0.16869262,-0.3905939,0.90497464,0.9823521,0.008631657,0.18684171,-0.09790128,0.89903903,0.42678353,-0.18230808,-0.4377882,0.88040066,0.97835535,0.008386258,0.2067621,9.814163,0.07298279,1.8029938,9.633583,0.08464764,1.8322912,-0.027862549,0.004547119,-0.01876831,-24.299622,-5.819702,8.879089,0,0.0,0.0,0.0,0.0
1.112304688,-0.08083219,0.92055684,0.38215354,-0.16865584,-0.39051175,0.905017,0.982355,0.008702077,0.1868232,-0.09719332,0.8999361,0.42505127,-0.18179551,-0.4359411,0.8814226,0.9785213,0.008395977,0.20597489,9.771088,0.058624268,1.8436737,9.633612,0.08533823,1.8321098,-0.023590088,-8.087158E-4,-0.023498535,-24.299622,-5.819702,8.879089,0,0.0,0.0,0.0,0.0
1.120605469,-0.08391343,0.91309357,0.39902234,-0.16711302,-0.40765858,0.8977126,0.9823603,0.008648312,0.18679783,-0.09651716,0.90079564,0.42338127,-0.18129964,-0.4341619,0.8824023,0.9786802,0.008408099,0.20521799,9.774673,-0.033493042,1.8233337,9.633664,0.08481097,1.831861,-0.022369385,1.2207031E-4,-0.018920898,-24.35913,-6.1187744,8.879089,0,0.0,0.0,0.0,0.0
1.12890625,-0.083867095,0.91305405,0.39912227,-0.16709314,-0.40774798,0.8976756,0.98236763,0.008594849,0.1867617,-0.09625654,0.90104914,0.42290086,-0.1810223,-0.4336354,0.88271815,0.9787572,0.008412902,0.20485023,9.774673,-0.033493042,1.8233337,9.633737,0.08428668,1.8315068,-0.026031494,0.0065307617,-0.017242432,-24.35913,-6.1187744,8.879089,0,0.0,0.0,0.0,0.0
1.137207031,-0.08296436,0.915038,0.39474368,-0.16755186,-0.40327844,0.8996072,0.98236614,0.0084953,0.18677402,-0.09575003,0.90153855,0.4219717,-0.18048267,-0.4326168,0.88332814,0.9789065,0.008420107,0.20413516,9.747162,-0.057434082,1.8364868,9.633721,0.08331044,1.8316275,-0.03152466,0.00592041,-0.018005371,-24.299622,-6.059265,8.938599,0,0.0,0.0,0.0,0.0
1.145507813,-0.08290943,0.9149919,0.3948618,-0.16757384,-0.40338445,0.89955544,0.98236704,0.00841312,0.18677308,-0.09522665,0.90209115,0.42090783,-0.17998405,-0.4314633,0.88399386,0.9790493,0.008423084,0.20344883,9.806976,0.03111267,1.8640137,9.63373,0.082504526,1.8316183,-0.03289795,0.002105713,-0.013580322,-24.299622,-6.059265,8.938599,0,0.0,0.0,0.0,0.0
1.153808594,-0.08150406,0.91835123,0.38728285,-0.16830048,-0.39567697,0.9028369,0.9823604,0.008404985,0.18680826,-0.09497226,0.90235764,0.42039382,-0.1797422,-0.43090573,0.88431495,0.97911847,0.008422885,0.20311585,9.806976,0.03111267,1.8640137,9.633665,0.08242475,1.8319632,-0.03564453,0.002105713,-0.01159668,-24.238586,-5.819702,8.699036,0,0.0,0.0,0.0,0.0
1.162109375,-0.08153154,0.91837454,0.38722187,-0.16831647,-0.39562234,0.902858,0.9823555,0.00843559,0.18683326,-0.09442014,0.90301687,0.4191007,-0.17930502,-0.42952254,0.8850763,0.97925204,0.008422177,0.20247103,9.751953,0.07896423,1.8556366,9.633616,0.082724884,1.8322085,-0.040527344,0.0013427734,-0.009597778,-24.238586,-5.819702,8.699036,0,0.0,0.0,0.0,0.0
1.170410156,-0.079677425,0.92267656,0.37725273,-0.16917437,-0.38548237,0.90707415,0.9823602,0.00845184,0.18680744,-0.09389239,0.903649,0.41785496,-0.17888446,-0.4281911,0.88580626,0.97937965,0.008422708,0.20185265,9.775879,0.08135986,1.8269196,9.633662,0.08288423,1.8319551,-0.039154053,-0.0024719238,-0.01373291,-24.238586,-5.6991577,8.81958,0,0.0,0.0,0.0,0.0
1.178710938,-0.079685576,0.9226832,0.37723458,-0.16911416,-0.38546553,0.9070924,0.98236984,0.008486475,0.18675484,-0.09359764,0.90404904,0.41705492,-0.17870013,-0.42734572,0.88625157,0.9794415,0.008423291,0.20155223,9.775879,0.08135986,1.8269196,9.633758,0.08322389,1.8314394,-0.03488159,-0.009506226,-0.017700195,-24.238586,-5.6991577,8.81958,0,0.0,0.0,0.0,0.0
1.187011719,-0.08259725,0.91583717,0.39296317,-0.16764653,-0.40146014,0.90040237,0.9823809,0.00849185,0.18669641,-0.09302708,0.9048234,0.41550034,-0.17833884,-0.42570364,0.8871142,0.9795617,0.008425794,0.20096712,9.7986145,0.051452637,1.8604126,9.633866,0.08327661,1.8308665,-0.046340942,-0.0023345947,-0.011749268,-23.999023,-5.819702,8.518982,0,0.0,0.0,0.0,0.0
1.1953125,-0.08258182,0.9158238,0.39299753,-0.16761112,-0.40149075,0.9003954,0.9823883,0.008485536,0.18665807,-0.09260247,0.90527177,0.4146176,-0.17792447,-0.42474926,0.8876547,0.9796773,0.008428409,0.20040283,9.765106,0.044265747,1.807785,9.633939,0.083214685,1.8304905,-0.03564453,-5.0354004E-4,-0.014038086,-23.999023,-5.819702,8.518982,0,0.0,0.0,0.0,0.0
1.203613281,-0.078648135,0.9248676,0.37206766,-0.16941136,-0.38019466,0.90925884,0.98240227,0.008479027,0.1865847,-0.09239653,0.90548855,0.41418993,-0.17772242,-0.42428687,0.88791627,0.97973347,0.008429551,0.20012826,9.765106,0.044265747,1.807785,9.634075,0.083150856,1.8297708,-0.031677246,-6.4086914E-4,-0.017852783,-23.878479,-5.5786133,8.81958,0,0.0,0.0,0.0,0.0
1.211914063,-0.07862275,0.92484725,0.3721236,-0.16938937,-0.38024473,0.9092421,0.9824081,0.008453334,0.18655518,-0.0918336,0.9062963,0.41254526,-0.17741176,-0.42255878,0.888802,0.97984266,0.008431511,0.19959272,9.774673,0.025131226,1.8424683,9.634133,0.08289889,1.8294815,-0.04664612,-5.0354004E-4,-0.008987427,-23.878479,-5.5786133,8.81958,0,0.0,0.0,0.0,0.0
1.220214844,-0.08054919,0.9203038,0.38282216,-0.16847906,-0.3911147,0.90478957,0.9824086,0.0083825365,0.18655588,-0.0912934,0.907068,0.41096613,-0.17711118,-0.4208997,0.88964885,0.97994757,0.008432375,0.19907723,9.808182,0.0059814453,1.8652039,9.634137,0.0822046,1.8294883,-0.03869629,-0.0055389404,-0.012512207,-23.878479,-5.758667,8.81958,0,0.0,0.0,0.0,0.0
1.228515625,-0.08049128,0.9202565,0.3829481,-0.1684863,-0.39122775,0.90473926,0.98241204,0.00830211,0.18654102,-0.0910723,0.9073422,0.41040957,-0.17694391,-0.42030835,0.88996166,0.97999835,0.008431379,0.19882712,9.808182,0.0059814453,1.8652039,9.6341715,0.08141589,1.8293426,-0.03869629,-0.008132935,-0.012969971,-23.878479,-5.758667,8.81958,0,0.0,0.0,0.0,0.0
1.236816406,-0.083708495,0.9122503,0.4009892,-0.16671725,-0.40955064,0.8969245,0.982445,0.008228384,0.18637072,-0.09064174,0.90787107,0.4093338,-0.176619,-0.41916472,0.89056534,0.9800968,0.008426259,0.1983411,9.806976,-0.0059814453,1.7874451,9.634495,0.08069289,1.8276725,-0.036865234,-0.022491455,-0.01739502,-23.999023,-5.999756,8.639526,0,0.0,0.0,0.0,0.0
1.245117188,-0.08363475,0.9121864,0.4011497,-0.16651255,-0.409693,0.89689744,0.982486,0.008215338,0.18615508,-0.09036325,0.9080464,0.40900624,-0.17622975,-0.41878486,0.8908211,0.9801926,0.008418422,0.19786756,9.804596,0.0047912598,1.8089752,9.634897,0.08056495,1.8255578,0.0032958984,-0.015609741,-0.026245117,-23.999023,-5.999756,8.639526,0,0.0,0.0,0.0,0.0
1.253417969,-0.08019749,0.92034,0.38280898,-0.16795431,-0.39103174,0.90492296,0.9825272,0.008278143,0.18593483,-0.0902268,0.90813017,0.40885055,-0.17603673,-0.41860345,0.8909446,0.98023987,0.008414361,0.1976335,9.804596,0.0047912598,1.8089752,9.635301,0.08118085,1.8233978,0.013671875,2.746582E-4,-0.025482178,-24.119568,-5.819702,8.938599,0,0.0,0.0,0.0,0.0
1.26171875,-0.0803928,0.92049897,0.38238543,-0.1678924,-0.39065108,0.9050988,0.98252183,0.008563828,0.18595032,-0.089819185,0.9086295,0.40782967,-0.17572574,-0.41751865,0.89151484,0.98033315,0.008408968,0.19717076,9.754349,0.14596558,1.8879395,9.635248,0.08398247,1.8235497,-0.022506714,0.0031738281,-0.023651123,-24.119568,-5.819702,8.938599,0,0.0,0.0,0.0,0.0
1.270019531,-0.08856841,0.90053606,0.4256647,-0.16386198,-0.43469465,0.8855449,0.9824993,0.008681052,0.18606384,-0.089435995,0.9091145,0.40683177,-0.17542373,-0.41646138,0.8920687,0.98042226,0.0084151,0.19672689,9.694519,-0.124420166,2.2695923,9.635027,0.08513205,1.824663,-0.030303955,0.01171875,-0.011291504,-24.539185,-6.298828,8.21991,0,0.0,0.0,0.0,0.0
1.278320313,-0.08864911,0.9006138,0.42548332,-0.16454808,-0.43453735,0.8854948,0.98237735,0.008485866,0.18671565,-0.089422956,0.9089465,0.40720966,-0.17519176,-0.41682762,0.89194316,0.9804649,0.008420419,0.1965139,9.694519,-0.124420166,2.2695923,9.633831,0.08321792,1.831055,-0.038085938,0.027297974,-0.0019683838,-24.539185,-6.298828,8.21991,0,0.0,0.0,0.0,0.0
1.286621094,-0.09627242,0.87878734,0.4674018,-0.16016944,-0.47714096,0.8641078,0.98238355,0.008326263,0.18669039,-0.08941132,0.90878326,0.4075764,-0.17497814,-0.41718343,0.8918187,0.9805041,0.008421728,0.19631813,9.847656,-0.044265747,1.7383881,9.633892,0.08165275,1.8308073,-0.020065308,0.023330688,-0.0063934326,-25.079346,-6.9595337,7.9193115,0,0.0,0.0,0.0,0.0
1.294921875,-0.09621638,0.8787272,0.46752644,-0.1598358,-0.47725022,0.8641093,0.9824434,0.008414008,0.18637134,-0.08971303,0.9076723,0.4099788,-0.17439558,-0.41959527,0.8908008,0.9805804,0.008417948,0.1959372,9.816559,0.14356995,1.537384,9.634479,0.08251323,1.8276786,-0.033355713,0.0030212402,-0.0068511963,-25.079346,-6.9595337,7.9193115,0,0.0,0.0,0.0,0.0
1.303222656,-0.09593339,0.8792138,0.4666691,-0.15951873,-0.47635165,0.86466354,0.98252255,0.008507639,0.18594906,-0.08999911,0.9065971,0.41228855,-0.17382237,-0.42191333,0.8898173,0.98065585,0.008417792,0.19555868,9.816559,0.14356995,1.537384,9.635255,0.083431445,1.8235373,-0.03945923,-0.0037078857,-0.007461548,-25.2594,-6.9595337,7.9193115,0,0.0,0.0,0.0,0.0
1.311523438,-0.09590355,0.8791815,0.4667359,-0.15926449,-0.47640955,0.8646784,0.9825667,0.008591269,0.18571177,-0.090131566,0.9060821,0.4133903,-0.1735376,-0.42301816,0.8893483,0.9806941,0.008419588,0.19536659,9.766312,0.13279724,1.6941223,9.635688,0.08425157,1.8212104,-0.045272827,-0.008590698,-0.0146484375,-25.2594,-6.9595337,7.9193115,0,0.0,0.0,0.0,0.0
1.319824219,-0.09589377,0.87917095,0.4667579,-0.15903313,-0.47642735,0.8647112,0.9826051,0.008690454,0.1855037,-0.090386465,0.9050778,0.41552916,-0.17297485,-0.42516252,0.8884349,0.98077005,0.008426387,0.19498463,9.765106,0.10169983,1.807785,9.6360655,0.08522425,1.8191701,-0.043121338,0.011260986,-0.013580322,-25.2594,-6.9595337,7.9193115,0,0.0,0.0,0.0,0.0
1.328125,-0.09860531,0.8709311,0.48141038,-0.15724976,-0.49132684,0.85666233,0.98262376,0.008769784,0.18540116,-0.090629324,0.9041081,0.4175821,-0.17242499,-0.42722043,0.8875541,0.9808445,0.008436844,0.19460954,9.799805,0.102890015,1.7001038,9.636248,0.08600221,1.8181642,-0.03366089,0.028213501,-0.021057129,-25.738525,-7.258606,7.8598022,0,0.0,0.0,0.0,0.0
1.336425781,-0.1047086,0.8516219,0.5135915,-0.15334852,-0.52408004,0.83774966,0.982609,0.008961094,0.18547064,-0.09097764,0.90288275,0.4201497,-0.17183045,-0.4298038,0.88642144,0.98091656,0.008450028,0.19424528,9.818954,0.15074158,1.7479553,9.636103,0.08787831,1.8188456,-0.039916992,0.04119873,-0.020751953,-26.159668,-7.739258,7.499695,0,0.0,0.0,0.0,0.0
1.344726563,-0.104895376,0.85184985,0.5131752,-0.15341069,-0.5237057,0.8379723,0.98257935,0.009172852,0.18561718,-0.09128006,0.9019577,0.4220668,-0.1714721,-0.43174168,0.8855487,0.9809512,0.008460249,0.19406998,9.780655,0.10169983,1.8376923,9.635812,0.08995495,1.8202827,-0.033203125,0.036621094,-0.021209717,-26.159668,-7.739258,7.499695,0,0.0,0.0,0.0,0.0
1.353027344,-0.112288326,0.82615036,0.5521476,-0.14842278,-0.56337285,0.81276184,0.9825284,0.009312394,0.1858797,-0.09187059,0.90015817,0.42576408,-0.1707786,-0.43548045,0.88385034,0.98101705,0.008488468,0.1937356,9.780655,0.10169983,1.8376923,9.635312,0.09132339,1.8228573,-0.028167725,0.015686035,-0.019226074,-26.399231,-8.1588745,6.8389893,0,0.0,0.0,0.0,0.0
1.361328125,-0.11243791,0.82635367,0.55181277,-0.14863057,-0.5630733,0.8129314,0.9824799,0.009388064,0.1861322,-0.092321366,0.8988659,0.42838863,-0.1703578,-0.4381412,0.8826157,0.98104787,0.008504947,0.19357862,9.769897,0.0657959,1.9142609,9.634836,0.09206546,1.8253334,-0.033813477,0.0039367676,-0.015258789,-26.399231,-8.1588745,6.8389893,0,0.0,0.0,0.0,0.0
1.369628906,-0.11239992,0.826302,0.55189776,-0.14872813,-0.5631507,0.81285983,0.98246944,0.009282666,0.18619247,-0.093195856,0.8963423,0.43345702,-0.1695469,-0.4432804,0.8802024,0.9811057,0.008539919,0.19328396,9.816559,-0.041870117,1.8939209,9.634734,0.09103186,1.8259244,-0.048934937,-0.015457153,-0.014953613,-26.399231,-8.1588745,6.8389893,1,0.0,0.0,0.0,0.0
1.377929688,-0.11526657,0.8144487,0.5686712,-0.14644408,-0.58016455,0.8012261,0.9824804,0.009076036,0.18614477,-0.0940278,0.89388937,0.4383155,-0.16876754,-0.44820565,0.8778549,0.9811607,0.008569331,0.19300331,9.766312,-0.07298279,1.8951111,9.634842,0.08900551,1.8254566,-0.049545288,-0.019729614,0.0015411377,-26.278687,-8.578491,6.9595337,1,0.0,0.0,0.0,0.0
1.386230469,-0.12172282,0.7865345,0.60543126,-0.1409466,-0.6174828,0.7738534,0.9825058,0.008862144,0.1860211,-0.09449505,0.89250296,0.44103196,-0.16834985,-0.45095998,0.8765235,0.9811876,0.008579466,0.19286622,9.765106,-0.027511597,1.8675995,9.635091,0.086907946,1.8242439,-0.050613403,-0.015151978,-0.0027313232,-26.519775,-8.999634,6.3598633,1,0.0,0.0,0.0,0.0
1.394530029,-0.12156054,0.78629714,0.60577214,-0.1408432,-0.61778694,0.7736294,0.9825407,0.008723916,0.18584311,-0.095696375,0.8889448,0.44790554,-0.16735888,-0.4579338,0.87309086,0.9812407,0.008590659,0.1925954,9.76152,0.01675415,1.8089752,9.635433,0.08555239,1.8224984,-0.04298401,-0.013626099,-0.009765625,-26.519775,-8.999634,6.3598633,1,0.0,0.0,0.0,0.0
1.40283081,-0.12068309,0.789814,0.60135627,-0.14147538,-0.6132846,0.7770885,0.982558,0.008704336,0.18575233,-0.096835405,0.8854692,0.45449656,-0.1663938,-0.4646185,0.86973715,0.981293,0.008595936,0.19232811,9.74118,0.04547119,1.832901,9.635603,0.085360385,1.8216082,-0.025421143,-0.003250122,-0.019836426,-26.69983,-9.059143,6.539917,1,0.0,0.0,0.0,0.0
1.411131592,-0.120706365,0.7898475,0.60130763,-0.1413903,-0.6132403,0.777139,0.98256737,0.00878656,0.18569879,-0.097364545,0.8838187,0.45758572,-0.1659327,-0.4677506,0.868145,0.9813188,0.008598104,0.19219674,9.745972,0.07417297,1.8269196,9.6356945,0.086166725,1.8210831,-0.025421143,-0.0011138916,-0.019836426,-26.69983,-9.059143,6.539917,1,0.0,0.0,0.0,0.0
1.419432373,-0.120751314,0.7899121,0.60121363,-0.14131975,-0.61315554,0.77721864,0.982572,0.008886814,0.18566956,-0.098386794,0.8805855,0.46356153,-0.16503002,-0.47380927,0.865026,0.9813691,0.008605567,0.19193959,9.745972,0.07417297,1.8269196,9.63574,0.08714987,1.8207964,-0.020980835,-0.0018615723,-0.015106201,-26.69983,-9.059143,6.539917,1,0.0,0.0,0.0,0.0
1.427733154,-0.115754545,0.81094384,0.57356,-0.14545043,-0.58505595,0.7978432,0.98257065,0.008929443,0.18567501,-0.09936337,0.8774433,0.4692761,-0.16415487,-0.47960284,0.8619944,0.9814174,0.0086167045,0.19169155,9.768692,0.04307556,1.8388824,9.635726,0.08756791,1.8208498,-0.029388428,0.00592041,-0.021514893,-26.45874,-8.699036,6.9595337,1,0.0,0.0,0.0,0.0
1.436033935,-0.11937216,0.7962172,0.5931176,-0.14253443,-0.6049443,0.78340685,0.9825651,0.008977286,0.18570186,-0.09972033,0.8762438,0.47143674,-0.16379808,-0.4817908,0.8608414,0.98144084,0.008622959,0.19157138,9.76152,0.062210083,1.8388824,9.635673,0.088037096,1.8211132,-0.02923584,0.003326416,-0.022583008,-26.638794,-8.999634,6.7199707,1,0.0,0.0,0.0,0.0
1.444334717,-0.119443655,0.7963175,0.59296846,-0.14253841,-0.6048109,0.78350914,0.98255587,0.00906441,0.18574665,-0.10057145,0.873424,0.47646177,-0.16300488,-0.4868838,0.85812205,0.981486,0.008636991,0.191339,9.783051,0.093322754,1.7934265,9.635582,0.0888915,1.8215525,-0.03656006,0.016143799,-0.023040771,-26.638794,-8.999634,6.7199707,1,0.0,0.0,0.0,0.0
1.452635498,-0.11949171,0.79638493,0.5928683,-0.1425017,-0.60472095,0.7835853,0.9825553,0.009147202,0.18574533,-0.100983605,0.87204725,0.47889027,-0.16261894,-0.4893453,0.8567941,0.9815077,0.008645538,0.19122724,9.771088,0.07417297,1.7682953,9.635577,0.08970341,1.8215396,-0.045272827,0.01890564,-0.016784668,-26.638794,-8.999634,6.7199707,1,0.0,0.0,0.0,0.0
1.460936279,-0.11890464,0.7996029,0.5886398,-0.14317904,-0.60045755,0.78673404,0.9825281,0.0092654405,0.18588357,-0.10178145,0.86935824,0.48358735,-0.16186601,-0.49410635,0.85420036,0.9815498,0.008665404,0.19101042,9.751953,0.119644165,1.8221283,9.635309,0.09086294,1.8228952,-0.05305481,0.025314331,-0.020751953,-26.638794,-8.81958,6.5994263,1,0.0,0.0,0.0,0.0
1.46923706,-0.12005449,0.79562575,0.5937731,-0.14246777,-0.60571563,0.78282267,0.9824916,0.009387836,0.1860699,-0.102515355,0.8668567,0.48790377,-0.16116326,-0.4984817,0.8517878,0.9815891,0.008689165,0.19080748,9.790237,0.07058716,1.8759766,9.634953,0.09206323,1.8247226,-0.060836792,0.028060913,-0.024719238,-26.69983,-8.81958,6.4193726,1,0.0,0.0,0.0,0.0
1.477537842,-0.12020869,0.7958505,0.5934406,-0.14266363,-0.6054191,0.7830164,0.98244435,0.009462975,0.18631557,-0.102894865,0.86556935,0.49010444,-0.1608097,-0.50071347,0.85054463,0.9816073,0.008703138,0.1907128,9.790237,0.07058716,1.8759766,9.634488,0.09280009,1.8271316,-0.06893921,0.018753052,-0.027923584,-26.69983,-8.81958,6.4193726,1,0.0,0.0,0.0,0.0
1.485838623,-0.11626271,0.81249195,0.5712616,-0.14621273,-0.5828966,0.799283,0.9823975,0.009401099,0.1865658,-0.10363307,0.8630624,0.49435163,-0.16012952,-0.50502187,0.8481223,0.9816408,0.008733228,0.19053872,9.778275,-0.022735596,1.9489594,9.634028,0.09219329,1.8295856,-0.067871094,-9.460449E-4,-0.023956299,-26.638794,-8.578491,6.77948,1,0.0,0.0,0.0,0.0
1.494139404,-0.11623687,0.81245613,0.5713178,-0.14622654,-0.5829472,0.7992436,0.98239845,0.009359739,0.1865626,-0.10416412,0.86119854,0.49748045,-0.15959853,-0.50819314,0.84632623,0.9816711,0.008759676,0.19038153,9.804596,-0.0059814453,1.8448639,9.634038,0.09178768,1.8295541,-0.06037903,-0.0043182373,-0.026245117,-26.638794,-8.578491,6.77948,1,0.0,0.0,0.0,0.0
1.502440185,-0.11623569,0.81245446,0.57132035,-0.14621177,-0.58294934,0.79924476,0.98240083,0.0093669975,0.18654993,-0.10442028,0.86028975,0.49899703,-0.15934056,-0.50973,0.84545016,0.9816858,0.008771677,0.1903052,9.797409,0.037094116,1.9046936,9.634062,0.09185888,1.8294301,-0.06037903,-0.024627686,-0.01449585,-26.638794,-8.578491,6.77948,1,0.0,0.0,0.0,0.0
1.510740967,-0.11702845,0.80863047,0.57655966,-0.14533858,-0.5882433,0.7955165,0.9824363,0.009301694,0.18636642,-0.10491556,0.8585185,0.50193506,-0.15883826,-0.51270723,0.84374267,0.98171437,0.00879525,0.19015652,9.759125,0.011962891,1.8412781,9.634409,0.09121846,1.8276304,-0.064971924,-0.026611328,-0.015258789,-27.119446,-8.459473,6.3598633,1,0.0,0.0,0.0,0.0
1.519041748,-0.11687643,0.80840456,0.5769074,-0.14513707,-0.5885551,0.7953227,0.9824841,0.009223825,0.18611766,-0.10542424,0.85667413,0.5049703,-0.15832226,-0.51578254,0.8419634,0.9817432,0.008815305,0.19000657,9.762711,0.015548706,1.8245239,9.634878,0.090454824,1.8251909,-0.062210083,-0.03012085,-0.016937256,-27.119446,-8.459473,6.3598633,1,0.0,0.0,0.0,0.0
1.527342529,-0.11452129,0.8170051,0.56514376,-0.14668725,-0.5765578,0.80378103,0.9825313,0.009150638,0.18587239,-0.105667464,0.85577166,0.5064476,-0.1580671,-0.51727843,0.84109324,0.98175824,0.008823476,0.18992886,9.762711,0.015548706,1.8245239,9.635341,0.08973711,1.8227855,-0.053359985,-0.024017334,-0.01449585,-27.359009,-8.399963,6.5994263,1,0.0,0.0,0.0,0.0
1.53564331,-0.11547644,0.8125821,0.5712928,-0.14567941,-0.5827758,0.79946846,0.9825694,0.009094156,0.18567336,-0.106038146,0.854317,0.50882053,-0.15762609,-0.51967716,0.83969617,0.9817892,0.008836432,0.18976827,9.7986145,0.011962891,1.8221283,9.635715,0.08918321,1.8208337,-0.04220581,-0.005844116,-0.01876831,-27.119446,-8.578491,6.7199707,1,0.0,0.0,0.0,0.0
1.543944092,-0.1154164,0.81249684,0.5714263,-0.14559072,-0.5828951,0.7993977,0.98258966,0.009069226,0.18556765,-0.1064341,0.8527558,0.5113505,-0.1571639,-0.5222349,0.8381946,0.98182034,0.008846638,0.18960603,9.816559,0.010772705,1.8340912,9.635913,0.08893872,1.819797,-0.034576416,-0.013015747,-0.013122559,-27.119446,-8.578491,6.7199707,1,0.0,0.0,0.0,0.0
1.552244873,-0.115359075,0.8124153,0.57155365,-0.14552228,-0.5830091,0.7993269,0.9826065,0.009035827,0.18547994,-0.10662442,0.85199434,0.51257867,-0.15693757,-0.5234762,0.8374624,0.98183596,0.00885109,0.18952526,9.745972,0.025131226,1.807785,9.636078,0.08861119,1.8189368,-0.034576416,-0.004470825,-0.012969971,-27.119446,-8.578491,6.7199707,1,0.0,0.0,0.0,0.0
1.560545654,-0.11812348,0.8007699,0.58720887,-0.14319123,-0.5989045,0.78791463,0.98262054,0.008988066,0.18540795,-0.10699047,0.8505087,0.5149641,-0.15649492,-0.5258864,0.83603394,0.9818668,0.008858406,0.18936513,9.734009,0.114852905,1.7958069,9.636216,0.08814281,1.818231,-0.03427124,0.0069885254,-0.008834839,-27.059937,-8.699036,6.4193726,1,0.0,0.0,0.0,0.0
1.568846435,-0.11815258,0.8008129,0.58714443,-0.14314091,-0.5988461,0.7879683,0.98262435,0.0090560885,0.1853843,-0.10745918,0.848663,0.51790315,-0.15598379,-0.5288597,0.834252,0.98189694,0.00886354,0.18920851,9.796219,0.10647583,1.8592224,9.636253,0.08880989,1.817999,-0.03274536,0.010192871,-0.01739502,-27.059937,-8.699036,6.4193726,1,0.0,0.0,0.0,0.0
1.577147217,-0.11781365,0.802788,0.5845094,-0.14357159,-0.5961943,0.78989834,0.98260224,0.009141881,0.1854974,-0.10768638,0.8477647,0.51932514,-0.15573443,-0.53029835,0.83338493,0.9819116,0.008867391,0.18913206,9.796219,0.10647583,1.8927155,9.636036,0.08965123,1.819108,-0.032440186,0.0016479492,-0.018615723,-26.939392,-8.758545,6.5994263,1,0.0,0.0,0.0,0.0
1.585447998,-0.11939736,0.7967163,0.592442,-0.14235908,-0.6042826,0.7839493,0.9825875,0.009261988,0.18556954,-0.10811053,0.8460844,0.52197057,-0.15526567,-0.532975,0.8317633,0.98193926,0.008878262,0.18898807,9.799805,0.053833008,1.8592224,9.635892,0.09082908,1.8198155,-0.018844604,-0.0124053955,-0.016326904,-26.998901,-8.81958,6.4193726,1,0.0,0.0,0.0,0.0
1.593748779,-0.11940157,0.7967224,0.5924327,-0.14228614,-0.6042735,0.78396934,0.98259753,0.0093122255,0.18551381,-0.10834978,0.8451582,0.5234194,-0.15501606,-0.5344423,0.8308678,0.9819523,0.008885935,0.18891983,9.799805,0.053833008,1.8592224,9.63599,0.09132174,1.8192691,-0.022201538,-0.014694214,-0.017547607,-26.998901,-8.81958,6.4193726,1,0.0,0.0,0.0,0.0
1.60204956,-0.119351976,0.7966494,0.59254104,-0.14215429,-0.60436964,0.7839193,0.9826226,0.009330057,0.18537983,-0.108812734,0.84335417,0.52622575,-0.15452768,-0.5372844,0.8291241,0.9819781,0.008902817,0.18878494,9.786652,0.041870117,1.8257294,9.636236,0.0914966,1.8179551,-0.03289795,-0.010116577,-0.0119018555,-26.998901,-8.81958,6.4193726,1,0.0,0.0,0.0,0.0
1.610350342,-0.12057423,0.79106253,0.59973484,-0.14100628,-0.61166465,0.7784495,0.98263884,0.009294565,0.18529578,-0.10925387,0.84160995,0.52891994,-0.15405191,-0.54001224,0.82743865,0.98200387,0.008919735,0.18865006,9.72084,0.029907227,1.8340912,9.636395,0.09114855,1.8171309,-0.04496765,-0.0015563965,-0.011444092,-26.818848,-8.999634,6.478882,1,0.0,0.0,0.0,0.0
1.618651123,-0.12052584,0.79099214,0.59983736,-0.14100279,-0.6117565,0.7783779,0.9826453,0.009235904,0.18526459,-0.10949391,0.8406612,0.5303771,-0.15379958,-0.5414878,0.8265208,0.9820167,0.008927233,0.18858294,9.72084,0.029907227,1.8340912,9.636458,0.09057327,1.816825,-0.046340942,0.0013427734,-0.012054443,-26.818848,-8.999634,6.478882,1,0.0,0.0,0.0,0.0
1.626951904,-0.120236196,0.7921508,0.59836465,-0.1412348,-0.6102557,0.779513,0.9826474,0.009215768,0.1852541,-0.10995638,0.8388104,0.53320426,-0.15330869,-0.5443503,0.8247298,0.9820418,0.008939455,0.1884517,9.744766,0.023925781,1.8257294,9.636479,0.09037582,1.8167222,-0.04710388,0.01675415,-0.012359619,-26.759338,-8.81958,6.298828,1,0.0,0.0,0.0,0.0
1.635252685,-0.12025877,0.7923758,0.59806216,-0.14145382,-0.60996425,0.7797014,0.98261315,0.00916776,0.18543817,-0.11038614,0.8370648,0.535852,-0.15284425,-0.5470305,0.8230409,0.982066,0.008950398,0.18832514,9.735199,0.03111267,1.8879395,9.636144,0.08990501,1.8185272,-0.04725647,0.025009155,-0.014190674,-26.579285,-8.879089,6.4193726,1,0.0,0.0,0.0,0.0
1.643553467,-0.12035206,0.7925116,0.5978637,-0.14170256,-0.60978866,0.7797938,0.9825659,0.009130976,0.18569022,-0.110594034,0.836219,0.53712815,-0.15262294,-0.54832244,0.82222176,0.98207694,0.008954745,0.18826741,9.735199,0.03111267,1.8879395,9.63568,0.08954429,1.820999,-0.040222168,0.024093628,-0.014343262,-26.579285,-8.879089,6.4193726,1,0.0,0.0,0.0,0.0
1.651854248,-0.120483786,0.7927031,0.5975831,-0.14191742,-0.60953915,0.7799497,0.98251873,0.009163847,0.18593794,-0.11099918,0.83457714,0.5395925,-0.1522029,-0.5508181,0.8206301,0.98209643,0.008961724,0.18816543,9.735199,0.058624268,1.8855438,9.635218,0.089866646,1.8234284,-0.042510986,0.015686035,-0.02166748,-26.579285,-8.879089,6.4193726,1,0.0,0.0,0.0,0.0
1.660155029,-0.119600125,0.79722005,0.5917229,-0.1429263,-0.6036182,0.7843579,0.9824805,0.009236518,0.18613653,-0.11139141,0.83300006,0.5419436,-0.15180717,-0.5532002,0.8190996,0.9821133,0.008969729,0.18807714,9.771088,0.07417297,1.8484497,9.634843,0.0905793,1.8253758,-0.04374695,0.017059326,-0.025939941,-26.519775,-8.699036,6.3598633,1,0.0,0.0,0.0,0.0
1.66845581,-0.11972001,0.7973952,0.5914626,-0.14300565,-0.60338515,0.7845226,0.9824543,0.009340567,0.1862693,-0.11156193,0.83231527,0.54295975,-0.15163402,-0.55422986,0.8184354,0.9821207,0.008975064,0.18803826,9.771088,0.07417297,1.8484497,9.634586,0.09159967,1.8266779,-0.05076599,0.02394104,-0.023498535,-26.519775,-8.699036,6.3598633,1,0.0,0.0,0.0,0.0
1.676756592,-0.118428014,0.8033622,0.5835959,-0.14434962,-0.59541726,0.7903426,0.9824143,0.009356868,0.18647909,-0.11189672,0.8309892,0.5449185,-0.151301,-0.556216,0.8171486,0.982134,0.008989539,0.18796822,9.732803,0.028717041,1.866394,9.634193,0.09175954,1.8287352,-0.06159973,0.03111267,-0.02166748,-26.638794,-8.459473,6.239319,1,0.0,0.0,0.0,0.0
1.685057373,-0.12099057,0.79368883,0.5961704,-0.1425752,-0.60825,0.78083545,0.9823612,0.009474611,0.18675289,-0.112163,0.8299311,0.5464741,-0.15103126,-0.5577934,0.81612265,0.98214513,0.009004085,0.1879093,9.762711,0.11843872,1.866394,9.633673,0.092914194,1.8314202,-0.044662476,0.038909912,-0.022583008,-26.818848,-8.81958,6.298828,1,0.0,0.0,0.0,0.0
1.693358154,-0.121211626,0.79401696,0.5956886,-0.14280353,-0.6078196,0.781129,0.9823008,0.00961547,0.18706322,-0.1123454,0.8292371,0.547489,-0.15086743,-0.5588242,0.81544745,0.9821494,0.009013496,0.18788621,9.762711,0.11843872,1.866394,9.6330805,0.09429555,1.8344636,-0.036865234,0.042114258,-0.027313232,-26.818848,-8.81958,6.298828,1,0.0,0.0,0.0,0.0
1.701658935,-0.121513054,0.7944638,0.59503084,-0.14309432,-0.607232,0.7815326,0.98222125,0.009820879,0.18746988,-0.11270692,0.827899,0.5494365,-0.15055849,-0.5608045,0.814144,0.98215544,0.009037335,0.18785375,9.833298,0.13639832,1.9286194,9.6323,0.09630993,1.8384516,-0.028167725,0.041046143,-0.024108887,-26.818848,-8.81958,6.298828,1,0.0,0.0,0.0,0.0
1.709959717,-0.12485542,0.78141606,0.6113919,-0.14059956,-0.6239299,0.7687283,0.98216236,0.010018458,0.18776779,-0.1130645,0.8266256,0.5512772,-0.1502729,-0.56267923,0.81290233,0.98215806,0.009068364,0.18783848,9.871582,0.1375885,1.8783722,9.631722,0.09824751,1.8413731,-0.024032593,0.011413574,-0.010070801,-26.998901,-8.81958,5.758667,1,0.0,0.0,0.0,0.0
1.718260498,-0.12499753,0.7816428,0.6110729,-0.14068127,-0.62364364,0.7689455,0.98213255,0.01014978,0.18791643,-0.11330786,0.8257675,0.5525119,-0.15008885,-0.5639374,0.81206393,0.9821581,0.009087366,0.18783703,9.871582,0.1375885,1.8783722,9.631431,0.09953534,1.8428307,-0.026031494,-0.007827759,-0.008377075,-26.998901,-8.81958,5.758667,1,0.0,0.0,0.0,0.0
1.726561279,-0.12524493,0.7805552,0.612411,-0.14039665,-0.6250037,0.76789266,0.9821418,0.01019421,0.1878659,-0.11378468,0.8241052,0.55489075,-0.14973427,-0.5663633,0.81043965,0.9821572,0.009129437,0.18784025,9.76033,0.07777405,1.8771667,9.631521,0.099971056,1.8423351,-0.035186768,-0.029052734,0.005050659,-26.879883,-8.879089,5.819702,1,0.0,0.0,0.0,0.0
1.73486206,-0.12511528,0.78035074,0.6126981,-0.14027975,-0.62526053,0.767705,0.98217505,0.01010248,0.18769704,-0.1140209,0.8232765,0.55607104,-0.14955644,-0.5675668,0.80963004,0.9821569,0.009150732,0.1878408,9.76033,0.07777405,1.8771667,9.631847,0.09907149,1.8406792,-0.046035767,-0.035614014,0.005050659,-26.879883,-8.879089,5.819702,1,0.0,0.0,0.0,0.0
1.743162842,-0.12217953,0.791375,0.5989973,-0.14231552,-0.61125124,0.7785359,0.9822517,0.009874549,0.18730734,-0.114473656,0.8216562,0.55836976,-0.14920536,-0.5699093,0.8080478,0.98215765,0.009188422,0.18783511,9.796219,0.011962891,1.8065796,9.632599,0.09683625,1.8368576,-0.05000305,-0.046463013,-0.0010528564,-26.638794,-8.699036,6.059265,1,0.0,0.0,0.0,0.0
1.751463623,-0.12178251,0.7907708,0.5998755,-0.14198379,-0.61203754,0.7779786,0.98234904,0.0095715895,0.18681209,-0.11478632,0.8204975,0.56000715,-0.1489403,-0.5715759,0.80691874,0.9821614,0.009215594,0.18781424,9.857239,-0.086135864,1.7467651,9.6335535,0.09386523,1.8320009,-0.03945923,-0.026611328,-0.019836426,-26.638794,-8.699036,6.059265,1,0.0,0.0,0.0,0.0
1.759764404,-0.12212705,0.78755337,0.60402364,-0.14114083,-0.61617494,0.77485967,0.9824277,0.009378924,0.1864076,-0.11493012,0.81992304,0.56081843,-0.14880452,-0.57239944,0.80635977,0.9821651,0.009222714,0.1877942,9.857239,-0.086135864,1.7467651,9.634325,0.09197582,1.828034,-0.036254883,-0.018051147,-0.021362305,-26.399231,-8.879089,6.239319,1,0.0,0.0,0.0,0.0
1.768065185,-0.121901765,0.7872204,0.60450315,-0.14095144,-0.6166029,0.7745538,0.98248285,0.009213877,0.18612482,-0.11522428,0.8186867,0.5625615,-0.14850783,-0.5741663,0.8051575,0.9821756,0.0092289,0.18773928,9.858429,-0.11366272,1.7324066,9.634866,0.09035727,1.825261,-0.029083252,0.008056641,-0.023040771,-26.399231,-8.879089,6.239319,1,0.0,0.0,0.0,0.0
1.776365967,-0.11706468,0.807793,0.5777252,-0.14499044,-0.58939344,0.79472846,0.98248345,0.009269997,0.18611939,-0.11562977,0.8168987,0.565072,-0.1480718,-0.5767074,0.80341977,0.98219377,0.009228016,0.1876442,9.780655,0.041870117,1.7934265,9.634871,0.09090761,1.8252077,-0.04206848,0.028671265,-0.02166748,-26.098633,-8.459473,6.539917,1,0.0,0.0,0.0,0.0
1.784666748,-0.117140256,0.8078993,0.5775611,-0.14508845,-0.589247,0.794819,0.9824599,0.009307856,0.18624142,-0.115659155,0.8167185,0.56532633,-0.1480103,-0.57696253,0.8032479,0.98219955,0.009228855,0.18761376,9.706482,0.052642822,1.9202423,9.634641,0.09127889,1.8264045,-0.05015564,0.02394104,-0.022735596,-26.098633,-8.459473,6.539917,1,0.0,0.0,0.0,0.0
1.792967529,-0.12019596,0.7961621,0.5930251,-0.1429894,-0.6050111,0.7832724,0.98239857,0.009349874,0.18656264,-0.11571889,0.8163729,0.56581306,-0.14789476,-0.57745135,0.8029179,0.9822099,0.009231983,0.1875593,9.728027,0.06460571,1.907074,9.634039,0.09169094,1.8295546,-0.053970337,0.008666992,-0.014038086,-26.039124,-8.578491,6.239319,1,0.0,0.0,0.0,0.0
1.80126831,-0.120301746,0.7963167,0.5927961,-0.14317107,-0.6048073,0.78339654,0.9823592,0.009372723,0.18676889,-0.11581037,0.81597805,0.56636375,-0.14779802,-0.57800925,0.80253416,0.98221374,0.009234341,0.1875394,9.74118,0.06700134,1.9046936,9.633653,0.09191502,1.8315772,-0.05519104,-0.003250122,-0.012969971,-26.039124,-8.578491,6.239319,1,0.0,0.0,0.0,0.0
1.809569092,-0.11921121,0.80112684,0.58650196,-0.14421888,-0.5984214,0.7880944,0.98233885,0.009365045,0.18687613,-0.11590192,0.8155934,0.56689864,-0.14770678,-0.57855165,0.80216,0.9822166,0.009237108,0.18752393,9.74118,0.06700134,1.9046936,9.633453,0.09183972,1.8326288,-0.05015564,0.0028686523,-0.014343262,-25.559998,-8.459473,6.3598633,1,0.0,0.0,0.0,0.0
1.817869873,-0.11927479,0.80121684,0.5863661,-0.14426617,-0.5983001,0.78817785,0.9823241,0.0094169425,0.18695058,-0.11603496,0.8150298,0.56768155,-0.14757018,-0.57934535,0.80161214,0.9822214,0.009242175,0.18749839,9.742371,0.095718384,1.8831482,9.633309,0.092348665,1.833359,-0.037475586,0.010040283,-0.02166748,-25.559998,-8.459473,6.3598633,1,0.0,0.0,0.0,0.0
1.826170654,-0.11093101,0.8341598,0.5402515,-0.15086477,-0.5514408,0.82045895,0.98231065,0.009509423,0.18701722,-0.11616488,0.8144914,0.5684272,-0.14744066,-0.58010185,0.8010887,0.98222554,0.009249095,0.1874766,9.751953,0.093322754,1.8472595,9.633177,0.09325559,1.8340125,-0.033355713,0.012481689,-0.018615723,-25.439453,-7.6187134,6.539917,1,0.0,0.0,0.0,0.0
1.834471435,-0.111032926,0.8342984,0.54001665,-0.15091105,-0.5512293,0.8205925,0.98229194,0.009618325,0.18710944,-0.1160612,0.8148946,0.5678702,-0.14751098,-0.5795353,0.8014857,0.98222727,0.009254302,0.18746747,9.751953,0.093322754,1.8472595,9.632994,0.09432355,1.8349168,-0.03366089,0.01890564,-0.020141602,-25.439453,-7.6187134,6.539917,1,0.0,0.0,0.0,0.0
1.842772217,-0.10701867,0.84895086,0.5175224,-0.15396233,-0.52838326,0.8349292,0.98226404,0.00967406,0.18725331,-0.11586397,0.81568146,0.56677973,-0.14764884,-0.578427,0.8022605,0.98222977,0.009268717,0.18745327,9.748352,0.0657959,1.8580322,9.63272,0.09487012,1.8363278,-0.026641846,0.023483276,-0.015716553,-25.439453,-7.559204,7.1395874,1,0.0,0.0,0.0,0.0
1.851072998,-0.10710859,0.8490626,0.51732033,-0.15424852,-0.5282042,0.8349896,0.9822093,0.009638663,0.18754187,-0.11552052,0.81705576,0.5648672,-0.1479086,-0.5764839,0.8036102,0.9822312,0.009284769,0.18744528,9.795013,0.007171631,1.9489594,9.632183,0.094523,1.8391576,-0.028015137,0.023025513,-0.01663208,-25.439453,-7.559204,7.1395874,1,0.0,0.0,0.0,0.0
1.859373779,-0.10560975,0.85454804,0.5085216,-0.15562958,-0.51928353,0.8403119,0.9821538,0.00960413,0.18783435,-0.11535586,0.8177233,0.5639341,-0.14804,-0.57553655,0.8042647,0.9822307,0.009291846,0.18744726,9.795013,0.007171631,1.9489594,9.631639,0.09418435,1.8420258,-0.027252197,0.019515991,-0.016784668,-25.439453,-7.499695,7.319641,1,0.0,0.0,0.0,0.0
1.86767456,-0.10571362,0.8546735,0.5082891,-0.15583856,-0.5190765,0.840401,0.9821094,0.009630798,0.18806455,-0.11497995,0.81925285,0.5617867,-0.14835227,-0.5733569,0.8057626,0.9822277,0.009304212,0.18746258,9.795013,0.044265747,1.9465637,9.631204,0.09444587,1.8442832,-0.025115967,-0.0069122314,-0.020141602,-25.439453,-7.499695,7.319641,1,0.0,0.0,0.0,0.0
1.875975342,-0.103840046,0.86113775,0.49765354,-0.15711588,-0.5082785,0.8467394,0.98210585,0.009736183,0.18807806,-0.114622794,0.8207219,0.5597117,-0.1486593,-0.5712519,0.80719995,0.98222303,0.009317146,0.18748644,9.786652,0.095718384,1.8963165,9.631168,0.09547935,1.8444158,-0.028778076,-0.027832031,-0.017089844,-25.19989,-7.1990967,7.1990967,1,0.0,0.0,0.0,0.0
1.884276123,-0.1038433,0.8611416,0.49764612,-0.15693386,-0.50827,0.8467783,0.98213464,0.009834728,0.18792272,-0.114413604,0.82157606,0.5585,-0.14883578,-0.5700226,0.80803597,0.98222065,0.009325527,0.18749824,9.786652,0.095718384,1.8963165,9.631451,0.09644574,1.8428924,-0.03503418,-0.04096985,-0.019073486,-25.19989,-7.1990967,7.1990967,1,0.0,0.0,0.0,0.0
1.892576904,-0.10301311,0.86347294,0.493764,-0.15705702,-0.5042977,0.8491272,0.9822023,0.009922133,0.18756373,-0.11400664,0.8232285,0.55614513,-0.14917028,-0.5676333,0.8096547,0.98221725,0.00934569,0.18751518,9.833298,0.09690857,1.8305054,9.632114,0.097302884,1.8393719,-0.041290283,-0.04585266,-0.013580322,-25.2594,-7.1990967,7.319641,1,0.0,0.0,0.0,0.0
1.900877685,-0.102809854,0.8632315,0.494228,-0.15665378,-0.5047118,0.84895545,0.982288,0.009858292,0.18711786,-0.11358235,0.8249118,0.5537325,-0.14949735,-0.56518394,0.8113062,0.9822167,0.0093685165,0.18751703,9.815353,0.01675415,1.807785,9.632955,0.09667682,1.8349994,-0.041900635,-0.042648315,-0.008377075,-25.2594,-7.1990967,7.319641,1,0.0,0.0,0.0,0.0
1.909178467,-0.103599794,0.85964376,0.50027955,-0.15559559,-0.5108008,0.8455013,0.9823732,0.0097524645,0.18667562,-0.11337158,0.82572025,0.5525694,-0.14964786,-0.56400186,0.8121006,0.9822181,0.009378311,0.18750905,9.815353,0.01675415,1.807785,9.63379,0.095639005,1.8306626,-0.039764404,-0.03805542,-0.005935669,-25.2594,-7.1990967,7.1395874,1,0.0,0.0,0.0,0.0
1.917479248,-0.10336606,0.8593581,0.5008185,-0.15523988,-0.5112837,0.8452748,0.98245406,0.009625724,0.18625602,-0.11299084,0.8271271,0.5505396,-0.14989528,-0.56193644,0.8134856,0.9822242,0.0093931295,0.18747613,9.805786,0.013153076,1.7778625,9.634583,0.09439611,1.8265476,-0.045425415,-0.023864746,-0.012054443,-25.2594,-7.1990967,7.1395874,1,0.0,0.0,0.0,0.0
1.925780029,-0.097507104,0.8771807,0.4701556,-0.15857816,-0.48006493,0.86278075,0.9825199,0.009570859,0.18591146,-0.112614654,0.82846075,0.5486079,-0.15011844,-0.55996805,0.8148007,0.98223335,0.009402339,0.18742786,9.757935,0.052642822,1.7623138,9.635229,0.09385807,1.8231686,-0.046951294,-0.009506226,-0.012359619,-24.958801,-7.019043,7.9193115,1,0.0,0.0,0.0,0.0
1.93408081,-0.097401544,0.8770678,0.4703882,-0.15836588,-0.48027202,0.8627046,0.9825646,0.009535319,0.18567683,-0.11231922,0.8295079,0.54708415,-0.15030202,-0.55841583,0.8158316,0.9822391,0.009405711,0.18739754,9.757935,0.052642822,1.7623138,9.635668,0.09350954,1.8208678,-0.04496765,-0.0012512207,-0.008682251,-24.958801,-7.019043,7.9193115,1,0.0,0.0,0.0,0.0
1.942381592,-0.088714354,0.9014967,0.4235959,-0.1632956,-0.43268204,0.88663465,0.9825805,0.009485875,0.18559554,-0.11145903,0.83250105,0.5426959,-0.15081583,-0.5539434,0.81878036,0.9822584,0.009413332,0.18729635,9.750748,0.06341553,1.7814636,9.635822,0.093024656,1.8200704,-0.044662476,0.014923096,-0.012664795,-24.839783,-6.4193726,8.459473,1,0.0,0.0,0.0,0.0
1.950682373,-0.088696375,0.9014797,0.4236358,-0.16327658,-0.43271774,0.8866206,0.9825852,0.00947022,0.18557101,-0.11058882,0.83555126,0.5381674,-0.15137185,-0.5493317,0.8217793,0.98227113,0.009416203,0.1872289,9.76152,0.0657959,1.8281097,9.635869,0.09287114,1.8198301,-0.040985107,0.03187561,-0.019378662,-24.839783,-6.4193726,8.459473,1,0.0,0.0,0.0,0.0
1.958983154,-0.08918605,0.9003653,0.42589688,-0.16314587,-0.43503127,0.8855118,0.9825626,0.00949198,0.18568961,-0.110165365,0.8370212,0.5359656,-0.15163948,-0.54708946,0.8232245,0.98227745,0.009417283,0.18719576,9.773483,0.07777405,1.8293152,9.635648,0.09308453,1.8209931,-0.03579712,0.0320282,-0.01953125,-24.539185,-6.6589355,8.938599,1,0.0,0.0,0.0,0.0
1.967283935,-0.08929682,0.9004635,0.425666,-0.16331942,-0.43482646,0.88558036,0.9825237,0.009559995,0.18589179,-0.10936056,0.8398011,0.5317654,-0.15214778,-0.5428125,0.8259574,0.98228884,0.009420241,0.18713616,9.754349,0.07537842,1.8915253,9.635266,0.09375152,1.8229758,-0.041152954,0.024093628,-0.012969971,-24.539185,-6.6589355,8.938599,1,0.0,0.0,0.0,0.0
1.975584717,-0.08164013,0.92000735,0.38330302,-0.16762447,-0.3917832,0.90465903,0.9824648,0.009605513,0.186201,-0.10859058,0.8424553,0.5277093,-0.15263833,-0.5386838,0.82856584,0.98229814,0.009425775,0.18708695,9.73999,0.08255005,1.935791,9.634688,0.09419791,1.8260082,-0.04374695,0.02027893,-0.008987427,-24.058533,-6.059265,9.4192505,1,0.0,0.0,0.0,0.0
1.983885498,-0.0817566,0.92009705,0.3830632,-0.16792792,-0.39157203,0.90469426,0.9824032,0.0096377125,0.18652356,-0.10807577,0.8442425,0.5249516,-0.15298186,-0.53587836,0.83031976,0.9823015,0.00942937,0.18706927,9.753143,0.07298279,1.9010925,9.634085,0.09451368,1.8291713,-0.040374756,0.0053100586,-0.009597778,-24.058533,-6.059265,9.4192505,1,0.0,0.0,0.0,0.0
1.992186279,-0.07271655,0.9397378,0.3340737,-0.17224799,-0.34176025,0.9238672,0.98236597,0.009636912,0.18671957,-0.107080184,0.8476885,0.5195749,-0.15365462,-0.5304104,0.8336996,0.98230547,0.009437621,0.1870477,9.753143,0.07298279,1.9010925,9.633719,0.094505824,1.8310934,-0.03869629,-0.0040130615,-0.0079193115,-23.699951,-5.4595947,10.198975,1,0.0,0.0,0.0,0.0
2.00048706,-0.07272997,0.93974614,0.33404693,-0.17235659,-0.3417375,0.9238552,0.98234594,0.009616775,0.18682604,-0.106432825,0.8499119,0.5160637,-0.15409604,-0.52684015,0.8358791,0.98230666,0.009441606,0.18704113,9.777069,0.061019897,1.8915253,9.633523,0.094308354,1.8321376,-0.036254883,-0.0110321045,-0.014343262,-23.699951,-5.4595947,10.198975,1,0.0,0.0,0.0,0.0
2.008787842,-0.06813283,0.94845295,0.30950752,-0.17422171,-0.3167725,0.9323636,0.98234653,0.009601651,0.1868237,-0.10579733,0.8520766,0.51261336,-0.15452799,-0.52333194,0.8380004,0.9823075,0.009445109,0.1870368,9.777069,0.061019897,1.8915253,9.633529,0.09416003,1.8321146,-0.040222168,-0.017745972,-0.017700195,-23.579407,-5.1589966,10.618591,1,0.0,0.0,0.0,0.0
2.017088623,-0.06808822,0.9484278,0.30959436,-0.17419887,-0.31684926,0.9323418,0.9823537,0.009550505,0.18678875,-0.10439601,0.8567758,0.50501156,-0.15546836,-0.51560247,0.8426053,0.98230904,0.009451309,0.18702838,9.78186,0.007171631,1.9286194,9.633598,0.093658455,1.8317719,-0.036254883,-0.028747559,-0.019989014,-23.579407,-5.1589966,10.618591,1,0.0,0.0,0.0,0.0
2.025389404,-0.059095956,0.9633636,0.2616069,-0.17725179,-0.26802707,0.9469653,0.9823897,0.009591531,0.18659724,-0.10304034,0.8612215,0.49767482,-0.15635905,-0.5081419,0.84696144,0.9823108,0.009455237,0.18701887,9.779465,0.053833008,1.8628082,9.633952,0.094060786,1.829894,-0.032592773,-0.025238037,-0.021209717,-23.15979,-4.499817,11.338806,1,0.0,0.0,0.0,0.0
2.033690185,-0.05909312,0.96336234,0.2616122,-0.17704125,-0.2680297,0.9470039,0.98242784,0.009645266,0.18639359,-0.102218665,0.8638692,0.49323568,-0.15688755,-0.5036275,0.84955615,0.9823124,0.0094579635,0.18701044,9.779465,0.053833008,1.8628082,9.634326,0.09458776,1.8278967,-0.03717041,-0.018814087,-0.020141602,-23.15979,-4.499817,11.338806,1,0.0,0.0,0.0,0.0
2.041990967,-0.057591006,0.9654799,0.2540313,-0.17731884,-0.26030016,0.9491059,0.982467,0.009615428,0.18618871,-0.101409644,0.8664409,0.48887244,-0.15739717,-0.49919,0.8520771,0.9823147,0.009461709,0.18699801,9.810577,-0.007171631,1.8281097,9.634709,0.09429513,1.8258874,-0.034118652,-0.013473511,-0.021209717,-23.039246,-4.499817,11.878967,1,0.0,0.0,0.0,0.0
2.050291748,-0.05753719,0.9654578,0.25412726,-0.17718004,-0.26038313,0.9491089,0.9824951,0.00958278,0.18604158,-0.09977735,0.8715217,0.48009837,-0.15839927,-0.49026558,0.8570585,0.9823208,0.009467796,0.18696581,9.7986145,-0.03111267,1.8484497,9.634986,0.09397497,1.8244447,-0.03778076,-0.010879517,-0.020141602,-23.039246,-4.499817,11.878967,1,0.0,0.0,0.0,0.0
2.058592529,-0.05490451,0.9690792,0.24056438,-0.17792669,-0.2465673,0.9526526,0.98251086,0.0095021,0.18596268,-0.09819702,0.8763132,0.47162744,-0.15934105,-0.4816486,0.8617569,0.9823277,0.009472351,0.18692914,9.7986145,-0.03111267,1.8484497,9.63514,0.09318377,1.8236709,-0.05076599,-0.007980347,-0.010681152,-22.859192,-4.258728,11.938477,1,0.0,0.0,0.0,0.0
2.06689331,-0.054804962,0.9690408,0.24074128,-0.17789772,-0.24672242,0.95261765,0.98252165,0.009380852,0.18591176,-0.0973795,0.8787431,0.46725556,-0.15981944,-0.47720098,0.8641395,0.9823314,0.009472946,0.18690981,9.765106,0.007171631,1.7778625,9.635246,0.09199473,1.8231716,-0.049545288,-0.0015563965,-0.0146484375,-22.859192,-4.258728,11.938477,1,0.0,0.0,0.0,0.0
2.075194092,-0.054765984,0.96902585,0.24081056,-0.17783658,-0.24678269,0.95261353,0.9825349,0.00934589,0.18584351,-0.09578245,0.8833906,0.45874473,-0.16073541,-0.46854174,0.868696,0.98233896,0.009469299,0.18687025,9.775879,0.044265747,1.8113708,9.635376,0.09165187,1.8225023,-0.055648804,0.0010375977,-0.011123657,-22.859192,-4.258728,11.938477,1,0.0,0.0,0.0,0.0
2.083494873,-0.060583174,0.960389,0.2719977,-0.1759105,-0.27850595,0.94418746,0.98254013,0.009354624,0.18581526,-0.09423846,0.8877727,0.45053163,-0.16159812,-0.46018484,0.8729925,0.9823468,0.009464412,0.1868295,9.774673,0.07537842,1.8364868,9.635427,0.09173752,1.8222253,-0.052749634,-0.010269165,-0.016174316,-22.738647,-4.6798706,11.459351,1,0.0,0.0,0.0,0.0
2.091795654,-0.05732869,0.96531165,0.25472897,-0.17694962,-0.26093364,0.9490008,0.9825489,0.00933078,0.18577051,-0.09359324,0.8895695,0.44710892,-0.16194916,-0.45670182,0.8747548,0.98235065,0.009462216,0.18680924,9.808182,0.04547119,1.8604126,9.635513,0.0915037,1.8217864,-0.043121338,-0.0110321045,-0.017089844,-22.619629,-4.319763,11.279297,1,0.0,0.0,0.0,0.0
2.100096435,-0.05731249,0.9653047,0.25475883,-0.17677197,-0.2609583,0.949027,0.98258173,0.009356875,0.185595,-0.0922183,0.8933422,0.4398131,-0.16268854,-0.44927758,0.87845445,0.9823585,0.009457013,0.18676816,9.809372,0.044265747,1.8185425,9.635836,0.0917596,1.8200654,-0.03274536,-0.024780273,-0.02609253,-22.619629,-4.319763,11.279297,1,0.0,0.0,0.0,0.0
2.108397217,-0.06209496,0.9578792,0.28037798,-0.17492929,-0.28701666,0.94181806,0.98262095,0.009435842,0.18538338,-0.09089036,0.89690655,0.43277884,-0.16338092,-0.44211897,0.881951,0.98236734,0.009453046,0.18672179,9.809372,0.044265747,1.8185425,9.63622,0.092534,1.81799,-0.035339355,-0.005996704,-0.020141602,-22.619629,-4.6798706,10.978699,1,0.0,0.0,0.0,0.0
2.116697998,-0.062134113,0.95789784,0.2803053,-0.17477448,-0.28695098,0.94186676,0.98264605,0.009531847,0.18524554,-0.09033266,0.898377,0.42983574,-0.16365948,-0.43912342,0.8833947,0.9823724,0.0094527025,0.18669508,9.808182,0.06819153,1.8340912,9.636466,0.09347549,1.8166382,-0.029541016,-0.014083862,-0.016021729,-22.619629,-4.6798706,10.978699,1,0.0,0.0,0.0,0.0
2.124998779,-0.06215542,0.95790803,0.28026572,-0.17456454,-0.28691393,0.94191706,0.98268205,0.0096207885,0.18505004,-0.08924852,0.9012028,0.42410874,-0.16418801,-0.4332945,0.8861705,0.9823833,0.009455837,0.18663758,9.772293,0.09690857,1.7802582,9.636819,0.09434771,1.814721,-0.05656433,-0.020339966,-0.018615723,-22.619629,-4.6798706,10.978699,1,0.0,0.0,0.0,0.0
2.13329956,-0.067317106,0.94895875,0.30813268,-0.17242733,-0.31525135,0.9332124,0.98271924,0.009690663,0.18484822,-0.08769652,0.90516835,0.41590804,-0.16491714,-0.42494774,0.8900684,0.98240095,0.009465538,0.18654422,9.769897,0.06700134,1.8257294,9.637184,0.09503294,1.8127419,-0.05747986,0.003479004,-0.0068511963,-22.679138,-4.978943,10.379028,1,0.0,0.0,0.0,0.0
2.141600342,-0.067273036,0.9489344,0.3082173,-0.17234242,-0.3153256,0.933203,0.9827372,0.009660487,0.18475457,-0.086903594,0.9071472,0.41174227,-0.16526125,-0.42070672,0.8920171,0.9824136,0.009474453,0.18647721,9.769897,0.06700134,1.8257294,9.63736,0.094737016,1.8118234,-0.045272827,0.0013427734,-0.008987427,-22.679138,-4.978943,10.379028,1,0.0,0.0,0.0,0.0
2.149901123,-0.06724777,0.9489204,0.30826578,-0.17230637,-0.31536824,0.93319523,0.98274523,0.009639148,0.18471286,-0.086903594,0.9071472,0.41174227,-0.16526125,-0.42070672,0.8920171,0.9824136,0.009474453,0.18647721,9.775879,0.088531494,1.8089752,9.637439,0.09452775,1.8114144,-0.045272827,0.0013427734,-0.008987427,-22.679138,-4.978943,10.379028,1,0.0,0.0,0.0,0.0
2.158201904,-0.07387402,0.9359684,0.34424648,-0.1695594,-0.351952,0.920532,0.98274726,0.009633179,0.18470238,-0.08613744,0.90902704,0.4077379,-0.1655834,-0.41662928,0.89386916,0.9824268,0.009480974,0.18640718,9.775879,0.088531494,1.8089752,9.637459,0.09446922,1.8113117,-0.043441772,0.0053100586,-0.01159668,-23.039246,-5.4595947,9.899902,1,0.0,0.0,0.0,0.0
2.166502685,-0.07388093,0.935973,0.34423292,-0.16955057,-0.35193983,0.9205385,0.98274827,0.009645345,0.18469638,-0.0858939,0.90961003,0.40648714,-0.1656717,-0.41535482,0.8944458,0.9824332,0.009484018,0.18637308,9.722031,0.07896423,1.8472595,9.637468,0.094588526,1.8112528,-0.043441772,-0.0012512207,-0.010986328,-23.039246,-5.4595947,9.899902,1,0.0,0.0,0.0,0.0
2.174803467,-0.07389957,0.935985,0.34419617,-0.16958806,-0.35190752,0.92054397,0.98274046,0.009656243,0.18473768,-0.08542138,0.9107364,0.40405732,-0.16584171,-0.412879,0.89555985,0.9824457,0.009490406,0.18630679,9.736389,0.07896423,1.8472595,9.637392,0.0946954,1.8116578,-0.0435791,-0.0017242432,-0.017700195,-23.039246,-5.4595947,9.899902,1,0.0,0.0,0.0,0.0
2.183104248,-0.07380446,0.93618745,0.3436654,-0.16963385,-0.3513684,0.9207413,0.9827397,0.009657533,0.18474165,-0.084968105,0.9118125,0.4017193,-0.16600513,-0.41049698,0.89662397,0.98245746,0.009496973,0.1862447,9.743576,0.056228638,1.8400879,9.637384,0.09470805,1.8116968,-0.038391113,0.001953125,-0.013885498,-23.2193,-5.3985596,9.719849,1,0.0,0.0,0.0,0.0
2.191405029,-0.079133086,0.9246593,0.37248224,-0.16723625,-0.38067237,0.9094617,0.982736,0.009675974,0.18476035,-0.084746264,0.9123369,0.40057394,-0.16608492,-0.4093301,0.8971425,0.9824632,0.009500184,0.1862146,9.786652,0.037094116,1.8161469,9.637348,0.094888896,1.8118801,-0.026947021,0.007751465,-0.020141602,-23.519897,-5.758667,9.298706,1,0.0,0.0,0.0,0.0
2.19970581,-0.07913941,0.924664,0.37246916,-0.16726235,-0.38066086,0.90946156,0.9827309,0.009674175,0.18478678,-0.08452389,0.9128418,0.39946908,-0.16613415,-0.4082027,0.8976469,0.98247397,0.009507145,0.18615709,9.792633,0.026321411,1.8520508,9.637299,0.094871245,1.8121394,-0.017471313,0.012786865,-0.013580322,-23.519897,-5.758667,9.298706,1,0.0,0.0,0.0,0.0
2.208006592,-0.07916206,0.924681,0.37242243,-0.16736162,-0.3806201,0.90946054,0.98271227,0.009665555,0.18488677,-0.08441614,0.9130863,0.39893267,-0.16615841,-0.40765536,0.8978911,0.98247916,0.009510485,0.18612967,9.738785,0.07058716,1.8113708,9.6371155,0.09478672,1.8131199,-0.017623901,0.009124756,-0.015563965,-23.519897,-5.758667,9.298706,1,0.0,0.0,0.0,0.0
2.216307373,-0.0769681,0.92969686,0.36019397,-0.16844109,-0.36819774,0.9143621,0.98270214,0.009705245,0.18493862,-0.084208086,0.91356057,0.3978895,-0.1662092,-0.4065913,0.89836407,0.9824884,0.009516626,0.18608046,9.796219,0.07417297,1.8089752,9.637016,0.09517594,1.8136284,-0.02633667,0.008056641,-0.009155273,-23.638916,-5.6991577,9.658813,1,0.0,0.0,0.0,0.0
2.224608154,-0.07701647,0.9297309,0.36009568,-0.16851759,-0.3681108,0.91438293,0.9826852,0.009740089,0.1850266,-0.083922304,0.91422987,0.3964098,-0.16630353,-0.4050839,0.89902735,0.9824969,0.009524095,0.18603525,9.796219,0.07417297,1.8628082,9.63685,0.09551765,1.8144912,-0.039916992,0.004547119,-0.015716553,-23.638916,-5.6991577,9.658813,1,0.0,0.0,0.0,0.0
2.232908935,-0.079715446,0.92366993,0.3748057,-0.16730732,-0.383066,0.9084429,0.98267674,0.009709205,0.18507302,-0.083784685,0.9145544,0.3956897,-0.16635063,-0.4043506,0.89934874,0.9825007,0.009528415,0.18601508,9.84407,0.033493042,1.8628082,9.636767,0.09521478,1.8149463,-0.043884277,2.746582E-4,-0.011444092,-23.81897,-5.999756,9.719849,1,0.0,0.0,0.0,0.0
2.241209717,-0.07797366,0.9274889,0.36562863,-0.16808605,-0.3737254,0.91218215,0.98268366,0.009669099,0.1850387,-0.08362351,0.9149248,0.39486673,-0.16639034,-0.4035117,0.89971805,0.98250765,0.009535575,0.18597771,9.753143,0.046661377,1.8245239,9.636835,0.09482147,1.8146099,-0.040222168,-0.008895874,-0.0077667236,-23.939514,-5.9387207,9.959412,1,0.0,0.0,0.0,0.0
2.249510498,-0.077897966,0.9274361,0.36577904,-0.16801246,-0.37385863,0.91214126,0.98270226,0.009598502,0.18494362,-0.083400294,0.9154406,0.39371675,-0.16646117,-0.40233997,0.9002295,0.9825146,0.009540862,0.18594058,9.745972,0.0382843,1.812561,9.637017,0.09412915,1.8136774,-0.036102295,-0.010116577,-0.007003784,-23.939514,-5.9387207,9.959412,1,0.0,0.0,0.0,0.0
2.257811279,-0.07785354,0.92740494,0.3658673,-0.16796908,-0.37393677,0.9121171,0.9827132,0.00955715,0.18488766,-0.083290435,0.9156891,0.3931616,-0.16649398,-0.40177393,0.90047616,0.9825184,0.009542015,0.18592067,9.755539,0.041870117,1.8209381,9.637125,0.09372363,1.8131287,-0.036102295,0.0082092285,-0.021057129,-23.939514,-5.9387207,9.959412,1,0.0,0.0,0.0,0.0
2.26611206,-0.07785328,0.9273023,0.36612773,-0.16794391,-0.37419263,0.912017,0.9827175,0.009514586,0.18486686,-0.08307539,0.9161691,0.39208746,-0.16655569,-0.40067825,0.9009529,0.9825261,0.009542613,0.18587968,9.820145,0.008377075,1.8101654,9.637167,0.09330621,1.8129246,-0.04801941,0.006072998,-0.019683838,-24.058533,-5.999756,10.079956,1,0.0,0.0,0.0,0.0
2.274412842,-0.07781739,0.92727727,0.36619854,-0.16801135,-0.3742563,0.91197836,0.9827089,0.009442265,0.18491675,-0.08286889,0.9166244,0.39106575,-0.16661377,-0.3996356,0.90140516,0.98253375,0.009541504,0.18583961,9.787842,-0.017944336,1.8400879,9.637082,0.09259699,1.8134139,-0.04801941,0.0024108887,-0.017242432,-24.058533,-5.999756,10.079956,1,0.0,0.0,0.0,0.0
2.282713623,-0.0810248,0.9197581,0.38403147,-0.16651616,-0.39237458,0.9046075,0.9827041,0.0093482,0.18494663,-0.082768016,0.9168443,0.39057136,-0.16664316,-0.399131,0.90162325,0.98253727,0.009539519,0.18582112,9.787842,-0.017944336,1.8400879,9.637035,0.09167453,1.8137069,-0.049850464,8.8500977E-4,-0.013427734,-24.41864,-6.3598633,10.079956,1,0.0,0.0,0.0,0.0
2.291014404,-0.0791686,0.924115,0.37382323,-0.16744253,-0.38199982,0.90886694,0.98269796,0.009359822,0.18497854,-0.0826988,0.91696066,0.3903128,-0.16663833,-0.39886376,0.90174246,0.98254395,0.009531943,0.18578635,9.737595,0.07058716,1.8580322,9.636975,0.0917885,1.8140199,-0.03869629,-0.00340271,-0.012207031,-24.539185,-6.1798096,10.079956,1,0.0,0.0,0.0,0.0
2.299315185,-0.07916083,0.92410934,0.37383866,-0.16744062,-0.38201353,0.9088614,0.9826989,0.009350448,0.18497398,-0.082559034,0.9172499,0.38966218,-0.1666716,-0.3981983,0.9020303,0.98255,0.009525126,0.18575439,9.771088,0.055038452,1.861618,9.636985,0.091696575,1.8139752,-0.039154053,-0.013168335,-0.01739502,-24.539185,-6.1798096,10.079956,1,0.0,0.0,0.0,0.0
2.307615967,-0.07916216,0.92411035,0.3738361,-0.1673851,-0.38201073,0.9088729,0.9827083,0.009373744,0.1849231,-0.08249111,0.91738987,0.389347,-0.16668768,-0.39787582,0.90216964,0.982553,0.009521633,0.1857388,9.810577,0.028717041,1.8293152,9.637076,0.09192503,1.8134762,-0.03488159,-0.015914917,-0.021972656,-24.539185,-6.1798096,10.079956,1,0.0,0.0,0.0,0.0
2.315916748,-0.08095775,0.919871,0.3837749,-0.16624041,-0.3921072,0.904774,0.9827563,0.009449562,0.18466385,-0.08235923,0.9176612,0.38873497,-0.16671641,-0.39724976,0.90244013,0.98255914,0.009515776,0.18570636,9.841675,0.06819153,1.7443695,9.6375475,0.09266855,1.8109338,-0.029541016,-0.009353638,-0.020904541,-24.479675,-6.3598633,10.079956,1,0.0,0.0,0.0,0.0
2.324217529,-0.08098472,0.91989076,0.38372192,-0.16605558,-0.39205825,0.9048292,0.9827853,0.009558167,0.1845037,-0.08230361,0.9177492,0.3885389,-0.16669782,-0.39704642,0.9025331,0.982567,0.009513155,0.18566515,9.789032,0.08734131,1.7671051,9.637832,0.0937336,1.8093634,-0.039001465,0.0024108887,-0.021209717,-24.479675,-6.3598633,10.079956,1,0.0,0.0,0.0,0.0
2.33251831,-0.077945665,0.92698556,0.3669091,-0.1674081,-0.37497297,0.91179484,0.9828016,0.0096469065,0.18441239,-0.08227716,0.9177923,0.38844267,-0.16668509,-0.39694673,0.90257925,0.9825714,0.009514055,0.18564194,9.789032,0.08734131,1.7671051,9.637992,0.09460384,1.8084677,-0.041290283,0.0013427734,-0.014190674,-24.479675,-6.1187744,10.258484,1,0.0,0.0,0.0,0.0
2.340819092,-0.08165687,0.9184479,0.38702154,-0.16555794,-0.39542314,0.9034552,0.9828137,0.00969883,0.18434535,-0.08210541,0.91816634,0.38759425,-0.16671582,-0.3960808,0.902954,0.98258054,0.009519316,0.18559322,9.74118,0.088531494,1.8281097,9.63811,0.09511303,1.8078104,-0.0493927,0.009887695,-0.014801025,-24.778748,-6.298828,9.719849,1,0.0,0.0,0.0,0.0
2.349119873,-0.08171264,0.91849107,0.38690734,-0.1656105,-0.3953216,0.90348995,0.9828002,0.009750633,0.18441452,-0.08209643,0.91817194,0.3875828,-0.16669266,-0.39606765,0.90296406,0.9825852,0.009522906,0.18556826,9.74118,0.088531494,1.8281097,9.637978,0.09562104,1.8084887,-0.046340942,0.013702393,-0.022277832,-24.778748,-6.298828,9.719849,1,0.0,0.0,0.0,0.0
2.357420654,-0.08180369,0.91856146,0.38672084,-0.16562924,-0.39515516,0.90355927,0.98278946,0.009862199,0.18446578,-0.08208124,0.9181846,0.38755614,-0.16664992,-0.39603817,0.90298486,0.9825938,0.009531923,0.18552269,9.73999,0.093322754,1.8293152,9.637873,0.096715145,1.8089914,-0.049697876,0.008972168,-0.01739502,-24.778748,-6.298828,9.719849,1,0.0,0.0,0.0,0.0
2.365721435,-0.08402197,0.91336435,0.39837894,-0.16468471,-0.4070231,0.89844924,0.982761,0.009882555,0.18461604,-0.082070164,0.9181995,0.38752306,-0.16660939,-0.39600322,0.90300757,0.9826015,0.009545001,0.18548071,9.774673,0.052642822,1.861618,9.637594,0.09691477,1.8104651,-0.041290283,0.023025513,-0.013427734,-24.839783,-6.4193726,9.47876,1,0.0,0.0,0.0,0.0
2.374022217,-0.08408083,0.9134121,0.39825708,-0.16487134,-0.40691602,0.89846355,0.9827247,0.009882377,0.18480931,-0.08210952,0.9181042,0.38774067,-0.16657108,-0.39622417,0.90291774,0.98260474,0.009551753,0.18546337,9.774673,0.052642822,1.861618,9.637238,0.09691302,1.8123603,-0.039154053,0.023025513,-0.013427734,-24.839783,-6.4193726,9.47876,1,0.0,0.0,0.0,0.0
2.382322998,-0.09363581,0.8879984,0.4502124,-0.15980092,-0.45974103,0.8735571,0.9826984,0.009851867,0.18495117,-0.0821881,0.91792077,0.388158,-0.16650423,-0.39664853,0.90274376,0.9826095,0.009564847,0.18543747,9.755539,0.04547119,1.8699951,9.636979,0.09661382,1.8137515,-0.042510986,0.013702393,-0.01953125,-25.318909,-7.019043,8.578491,1,0.0,0.0,0.0,0.0
2.390623779,-0.09965327,0.87014335,0.48261762,-0.15632208,-0.49269995,0.8560433,0.9826661,0.009863721,0.18512177,-0.082650915,0.91682005,0.39065307,-0.16625416,-0.3991858,0.9016708,0.982613,0.009576213,0.18541823,9.759125,0.034698486,1.8771667,9.6366625,0.09673006,1.8154246,-0.04145813,0.010955811,-0.021972656,-25.559998,-7.319641,7.9193115,1,0.0,0.0,0.0,0.0
2.39892456,-0.09971968,0.8702169,0.48247126,-0.15645568,-0.49256963,0.8560939,0.98263806,0.009884041,0.18526925,-0.083001226,0.91598314,0.39253753,-0.1660732,-0.40110236,0.9008533,0.9826141,0.009581963,0.18541224,9.759125,0.034698486,1.8771667,9.636388,0.09692933,1.8168707,-0.047561646,0.006072998,-0.022277832,-25.559998,-7.319641,7.9193115,1,0.0,0.0,0.0,0.0
2.407225342,-0.09977512,0.87027824,0.4823491,-0.15653646,-0.49246055,0.85614187,0.9826196,0.009916442,0.18536559,-0.08368205,0.91435015,0.39618325,-0.16572571,-0.40481085,0.899257,0.982615,0.009593924,0.18540671,9.735199,0.046661377,1.8592224,9.636207,0.09724708,1.8178155,-0.052749634,0.0028686523,-0.022125244,-25.559998,-7.319641,7.9193115,1,0.0,0.0,0.0,0.0
2.415526123,-0.10354056,0.85829383,0.50260425,-0.15415768,-0.51306206,0.8443948,0.98260605,0.009948812,0.18543532,-0.08433635,0.9127697,0.3996735,-0.16539258,-0.40836164,0.89771163,0.98261523,0.009606695,0.18540506,9.76033,0.041870117,1.853241,9.636074,0.097564526,1.8184993,-0.033813477,0.0036315918,-0.020751953,-25.679016,-7.559204,7.6187134,1,0.0,0.0,0.0,0.0
2.423826904,-0.10357933,0.8583392,0.5025187,-0.15418541,-0.5129854,0.8444364,0.9825977,0.009985094,0.18547809,-0.08512153,0.9108498,0.403865,-0.16499193,-0.41262585,0.8958335,0.9826149,0.009620243,0.18540621,9.8022,0.058624268,1.8831482,9.635992,0.09792033,1.8189188,-0.034576416,-0.0017242432,-0.021972656,-25.679016,-7.559204,7.6187134,1,0.0,0.0,0.0,0.0
2.432127685,-0.10823698,0.8425528,0.5276263,-0.15104601,-0.53852034,0.8289637,0.9825832,0.0100286845,0.18555206,-0.08550241,0.90991205,0.40589324,-0.16479686,-0.41468942,0.894916,0.98261446,0.00962754,0.1854076,9.78186,0.047851563,1.8963165,9.63585,0.0983478,1.8196442,-0.023590088,-0.004623413,-0.0146484375,-25.79956,-7.8598022,7.258606,1,0.0,0.0,0.0,0.0
2.440428467,-0.11127521,0.83161044,0.5440973,-0.1488446,-0.55526817,0.81824356,0.9825798,0.010064282,0.18556832,-0.086438395,0.9075808,0.41088384,-0.16431522,-0.41976675,0.8926345,0.9826133,0.009643426,0.1854133,9.824936,0.052642822,1.7946167,9.635817,0.0986969,1.8198036,-0.024353027,-0.020645142,-0.012207031,-25.91858,-8.099365,7.0785522,1,0.0,0.0,0.0,0.0
2.448729248,-0.11120166,0.83151525,0.54425776,-0.14864075,-0.5554103,0.8181841,0.982619,0.010084555,0.18535963,-0.08695785,0.9062708,0.41365638,-0.16404496,-0.42258742,0.8913524,0.98261267,0.0096518425,0.18541646,9.824936,0.052642822,1.7946167,9.636201,0.0988957,1.817757,-0.028167725,-0.023864746,-0.0146484375,-25.91858,-8.099365,7.0785522,1,0.0,0.0,0.0,0.0
2.457030029,-0.11109164,0.8313729,0.5444977,-0.14836988,-0.5556233,0.81808877,0.9826724,0.010095775,0.18507579,-0.087961614,0.903701,0.41903126,-0.1635074,-0.42805487,0.88883877,0.9826129,0.009668978,0.18541421,9.8022,0.057434082,1.7599182,9.636724,0.09900574,1.8149735,-0.028778076,-0.00920105,-0.014343262,-25.91858,-8.099365,7.0785522,1,0.0,0.0,0.0,0.0
2.46533081,-0.11508224,0.81516325,0.56768394,-0.14496481,-0.5791445,0.80223244,0.9827213,0.010028491,0.18481922,-0.08891978,0.9011975,0.424189,-0.16297422,-0.4333004,0.88639164,0.98261523,0.00968588,0.18540093,9.850052,0.0011901855,1.7467651,9.637204,0.0983459,1.8124574,-0.035949707,-0.008132935,-0.014953613,-25.91858,-8.338928,6.7199707,1,0.0,0.0,0.0,0.0
2.473631592,-0.114957094,0.81499225,0.56795454,-0.14480166,-0.579386,0.8020873,0.98276,0.009964875,0.18461679,-0.0894729,0.89972305,0.42719206,-0.16265838,-0.43635365,0.8849507,0.9826174,0.009692732,0.18538933,9.850052,0.0011901855,1.7467651,9.637584,0.097722046,1.8104722,-0.037322998,-0.0056915283,-0.019683838,-25.91858,-8.338928,6.7199707,1,0.0,0.0,0.0,0.0
2.481932373,-0.11839924,0.8003608,0.587711,-0.14172208,-0.5994355,0.78777647,0.9828003,0.009980515,0.18440151,-0.090539075,0.89682734,0.4330166,-0.162033,-0.44227424,0.88212174,0.98262304,0.009703508,0.18535873,9.816559,0.046661377,1.7132568,9.6379795,0.097875424,1.8083613,-0.04067993,0.0036315918,-0.020599365,-25.91858,-8.459473,6.298828,1,0.0,0.0,0.0,0.0
2.490233154,-0.11682522,0.80664355,0.5793774,-0.14282276,-0.5909536,0.79396194,0.98282933,0.0100064995,0.18424532,-0.09171428,0.8935688,0.4394578,-0.16132773,-0.448821,0.87893856,0.9826301,0.009714478,0.18532075,9.828522,0.050247192,1.7156525,9.638264,0.09813024,1.8068293,-0.04449463,0.016296387,-0.021362305,-26.339722,-8.338928,6.298828,1,0.0,0.0,0.0,0.0
2.498533935,-0.116809815,0.8066209,0.57941186,-0.14274192,-0.59098387,0.7939539,0.9828429,0.010035252,0.18417135,-0.092247464,0.8920665,0.44238874,-0.16099915,-0.4517996,0.87747157,0.98263407,0.009720318,0.1852993,9.828522,0.050247192,1.7156525,9.638396,0.0984122,1.8061038,-0.050613403,0.019363403,-0.023651123,-26.339722,-8.338928,6.298828,1,0.0,0.0,0.0,0.0
2.506834717,-0.11684078,0.80666625,0.5793425,-0.14282066,-0.59092206,0.79398566,0.9828278,0.010027841,0.18425243,-0.09327848,0.8891223,0.44806322,-0.16035305,-0.45756614,0.87459713,0.98264235,0.009732789,0.18525454,9.826126,0.032302856,1.799408,9.638248,0.09833953,1.8068991,-0.06253052,0.014923096,-0.01739502,-26.339722,-8.338928,6.298828,1,0.0,0.0,0.0,0.0
2.515135498,-0.11109977,0.82943225,0.54744756,-0.14741011,-0.5585178,0.8162891,0.9828159,0.009990233,0.18431793,-0.09377736,0.8876814,0.45080754,-0.16003895,-0.46035504,0.87319,0.9826461,0.009738691,0.18523449,9.826126,0.032302856,1.799408,9.638131,0.09797072,1.8075414,-0.059921265,0.011108398,-0.016784668,-26.159668,-7.8598022,6.5994263,1,0.0,0.0,0.0,0.0
2.523436279,-0.11107999,0.82940483,0.54749334,-0.1475292,-0.5585605,0.8162386,0.9828003,0.009896522,0.18440631,-0.09483792,0.88456947,0.45666465,-0.15935102,-0.46630645,0.87015253,0.9826561,0.009753483,0.18518059,9.797409,0.0023956299,1.8568268,9.637979,0.09705173,1.8084081,-0.028930664,-0.00340271,-0.015106201,-26.159668,-7.8598022,6.5994263,1,0.0,0.0,0.0,0.0
2.53173706,-0.11180218,0.8267076,0.5514116,-0.14710139,-0.5625456,0.81357455,0.9827825,0.009845995,0.18450366,-0.09517573,0.8835644,0.45853636,-0.15913166,-0.4682081,0.869171,0.98265904,0.009756343,0.18516512,9.74118,0.07058716,1.8903351,9.637804,0.09655623,1.8093629,-0.026641846,-0.002166748,-0.0132751465,-26.159668,-8.099365,6.8389893,1,0.0,0.0,0.0,0.0
2.540037842,-0.11183438,0.82675105,0.55134,-0.14714338,-0.56248146,0.8136114,0.9827726,0.009863695,0.18455571,-0.095521614,0.8825302,0.46045202,-0.15890898,-0.47015446,0.8681606,0.9826615,0.009758136,0.18515188,9.74118,0.07058716,1.8903351,9.637707,0.09672981,1.8098732,-0.030151367,-0.009353638,-0.00730896,-26.159668,-8.099365,6.8389893,1,0.0,0.0,0.0,0.0
2.548338623,-0.11029974,0.83244395,0.54302037,-0.14821641,-0.5540213,0.8192022,0.9827847,0.009873263,0.18449025,-0.096192494,0.8805126,0.46416008,-0.15847667,-0.47392222,0.8661887,0.9826659,0.009762314,0.18512845,9.777069,0.09211731,1.8269196,9.637826,0.09682363,1.8092313,-0.017318726,-0.0053863525,-0.0034942627,-26.098633,-7.9193115,6.8389893,1,0.0,0.0,0.0,0.0
2.556639404,-0.11029316,0.8324351,0.54303527,-0.14804468,-0.5540331,0.8192254,0.9828114,0.009961468,0.18434364,-0.09677013,0.8787528,0.46736395,-0.1580955,-0.47717723,0.86446965,0.98267055,0.009766708,0.18510337,10.097717,0.16151428,1.8352966,9.638087,0.09768863,1.8077935,-0.018844604,-0.021728516,-0.01159668,-26.098633,-7.9193115,6.8389893,1,0.0,0.0,0.0,0.0
2.564940185,-0.10998045,0.8335395,0.5414022,-0.14802672,-0.55236804,0.82035226,0.9828491,0.010080713,0.18413576,-0.097049996,0.8778946,0.46891624,-0.15790637,-0.47875428,0.86363184,0.98267335,0.009770603,0.18508825,10.097717,0.16151428,1.8352966,9.638457,0.09885803,1.805755,-0.023117065,-0.02645874,-0.011123657,-25.91858,-7.978821,7.019043,1,0.0,0.0,0.0,0.0
2.573240967,-0.109927826,0.8334708,0.54151845,-0.147734,-0.55246973,0.82033634,0.982899,0.010177102,0.18386377,-0.09757951,0.8762594,0.47185558,-0.15753615,-0.48174033,0.8620375,0.9826803,0.009782883,0.18505052,9.754349,0.12562561,1.7647095,9.638947,0.09980328,1.8030877,-0.026641846,-0.018661499,-0.012054443,-25.91858,-7.978821,7.019043,1,0.0,0.0,0.0,0.0
2.581541748,-0.10751332,0.8419715,0.528701,-0.14923057,-0.5394255,0.828704,0.98294,0.010198375,0.18364334,-0.09808565,0.87467706,0.4746781,-0.15716729,-0.48460716,0.8604966,0.982689,0.009798495,0.18500362,9.728027,0.07537842,1.758728,9.639349,0.1000119,1.800926,-0.03579712,0.020126343,-0.01586914,-25.79956,-7.739258,7.0785522,1,0.0,0.0,0.0,0.0
2.589842529,-0.10751051,0.841968,0.5287075,-0.14918025,-0.53943086,0.8287098,0.982948,0.010222296,0.18359944,-0.098279975,0.8740574,0.47577798,-0.15701431,-0.48572364,0.8598948,0.98269403,0.009806492,0.18497643,9.728027,0.07537842,1.758728,9.639427,0.10024648,1.8004955,-0.04725647,0.020126343,-0.01586914,-25.79956,-7.739258,7.0785522,1,0.0,0.0,0.0,0.0
2.59814331,-0.103322715,0.8566859,0.50538474,-0.15222168,-0.51573795,0.843115,0.9829308,0.010182414,0.18369362,-0.098656446,0.87285084,0.47791046,-0.15671477,-0.48788834,0.85872316,0.98270416,0.009822958,0.18492194,9.744766,0.032302856,1.7431641,9.639258,0.09985537,1.801419,-0.041152954,0.033706665,-0.017700195,-25.679016,-7.3791504,7.258606,1,0.0,0.0,0.0,0.0
2.606444092,-0.10342176,0.8568076,0.50515807,-0.1524607,-0.5155356,0.8431956,0.98288333,0.010188019,0.18394709,-0.09884482,0.87222767,0.479008,-0.15653959,-0.48900118,0.85812193,0.9827131,0.0098371925,0.1848734,9.765106,0.055038452,1.8053894,9.638793,0.099910334,1.8039048,-0.037475586,0.052337646,-0.018615723,-25.679016,-7.3791504,7.258606,1,0.0,0.0,0.0,0.0
2.614744873,-0.097523406,0.87647325,0.47146994,-0.1567095,-0.4813421,0.86241055,0.98281807,0.010221391,0.1842938,-0.09893789,0.8719272,0.47953543,-0.15645935,-0.48953655,0.85783124,0.9827165,0.009844209,0.18485488,9.765106,0.055038452,1.8053894,9.638153,0.10023761,1.8073049,-0.03869629,0.054473877,-0.021514893,-25.619507,-7.0785522,7.8598022,1,0.0,0.0,0.0,0.0
2.623045654,-0.09770269,0.8766715,0.47106406,-0.1571186,-0.48098016,0.86253804,0.9827349,0.010259361,0.18473445,-0.09888179,0.87210864,0.47921702,-0.15646942,-0.48921302,0.858014,0.9827206,0.009859145,0.18483259,9.8033905,0.049057007,1.8580322,9.637338,0.100609966,1.8116262,-0.035339355,0.04058838,-0.018157959,-25.619507,-7.0785522,7.8598022,1,0.0,0.0,0.0,0.0
2.631346435,-0.101227604,0.8663548,0.48906276,-0.15539862,-0.49932325,0.852366,0.9826517,0.01028329,0.18517563,-0.09883508,0.87229085,0.47889486,-0.1564952,-0.48888767,0.8581947,0.98272115,0.009874994,0.18482858,9.832108,0.046661377,1.931015,9.636521,0.10084463,1.8159525,-0.041763306,0.011108398,-0.016784668,-25.379944,-7.1990967,7.499695,1,0.0,0.0,0.0,0.0
2.639647217,-0.101316966,0.8664587,0.48886004,-0.15563722,-0.49914286,0.85242796,0.9826047,0.010280614,0.18542486,-0.098883085,0.8721734,0.47909886,-0.15647368,-0.48909706,0.8580793,0.9827198,0.00988316,0.1848356,9.832108,0.046661377,1.931015,9.636061,0.10081839,1.8183968,-0.03793335,-0.014846802,-0.015258789,-25.379944,-7.1990967,7.499695,1,0.0,0.0,0.0,0.0
2.647947998,-0.09975517,0.87132186,0.48046547,-0.15671092,-0.4906056,0.8571743,0.98259383,0.010213381,0.18548611,-0.098979555,0.87194926,0.47948673,-0.15644117,-0.48949617,0.8578576,0.9827152,0.009898899,0.18485887,9.806976,0.011962891,1.984848,9.635954,0.10015906,1.8189974,-0.032440186,-0.04508972,-0.012359619,-25.318909,-7.1990967,7.798767,1,0.0,0.0,0.0,0.0
2.656248779,-0.09956001,0.871105,0.48089886,-0.1564159,-0.49099272,0.8570065,0.98266065,0.010103358,0.18513793,-0.09901032,0.8719244,0.4795256,-0.15645197,-0.4895402,0.8578306,0.9827104,0.009911352,0.18488382,9.785446,-0.01675415,1.8448639,9.636609,0.0990801,1.8155829,-0.027404785,-0.06311035,-0.01586914,-25.318909,-7.1990967,7.798767,1,0.0,0.0,0.0,0.0
2.66454956,-0.09472319,0.8848745,0.45609713,-0.15884255,-0.4657218,0.8705586,0.9827495,0.010014456,0.18467037,-0.099032015,0.87189204,0.47958001,-0.15645045,-0.48959774,0.8577979,0.98270845,0.009918954,0.18489376,9.732803,0.007171631,1.8604126,9.637481,0.09820826,1.8109977,-0.025421143,-0.06021118,-0.010986328,-25.19989,-6.77948,7.9193115,1,0.0,0.0,0.0,0.0
2.672850342,-0.094535366,0.88467467,0.4565237,-0.15843236,-0.4661026,0.8704295,0.98283374,0.009958248,0.18422426,-0.09894642,0.872158,0.47911376,-0.15649945,-0.48912367,0.8580594,0.9827092,0.009920864,0.18488929,9.732803,0.007171631,1.8604126,9.638307,0.09765705,1.8066229,-0.025726318,-0.022491455,-0.004257202,-25.19989,-6.77948,7.9193115,1,0.0,0.0,0.0,0.0
2.681151123,-0.09559544,0.88128626,0.4628133,-0.15796632,-0.47248173,0.86706847,0.9828062,0.009778879,0.18438062,-0.09877243,0.87266505,0.4782256,-0.15657829,-0.48821846,0.8585604,0.9827142,0.009922345,0.18486293,9.672989,-0.052642822,2.145172,9.638037,0.09589805,1.8081563,-0.012893677,0.050811768,-0.0051727295,-25.318909,-6.77948,7.6797485,1,0.0,0.0,0.0,0.0
2.689451904,-0.095672384,0.88137156,0.46263498,-0.15855727,-0.4723264,0.8670453,0.9827036,0.009598146,0.18493643,-0.098709114,0.8728402,0.47791895,-0.15660672,-0.48790535,0.85873324,0.9827161,0.009919476,0.18485335,9.672989,-0.052642822,2.145172,9.637031,0.09412566,1.8136069,0.02330017,0.04638672,-0.010070801,-25.318909,-6.77948,7.6797485,1,0.0,0.0,0.0,0.0
2.697752685,-0.0979352,0.8747261,0.47461858,-0.15720311,-0.4845211,0.8605384,0.98269826,0.009665487,0.18496136,-0.098589614,0.87318325,0.47731653,-0.15668507,-0.48729137,0.85906744,0.98271555,0.009906753,0.18485664,9.810577,0.08973694,1.6139526,9.636978,0.094786055,1.8138514,-0.009689331,0.039367676,-0.010513306,-25.079346,-6.77948,7.319641,1,0.0,0.0,0.0,0.0
2.706053467,-0.09807538,0.87488914,0.47428924,-0.15731116,-0.4842241,0.8606859,0.98266697,0.009801107,0.18512028,-0.098563775,0.8732445,0.47720975,-0.1567057,-0.4871817,0.8591259,0.98271483,0.0098971985,0.18486087,9.869202,0.16390991,1.4931183,9.636672,0.09611604,1.81541,-0.030761719,0.003326416,-0.018005371,-25.079346,-6.77948,7.319641,1,0.0,0.0,0.0,0.0
2.714354248,-0.10325961,0.85865605,0.5020431,-0.15397929,-0.51245606,0.84479535,0.98266363,0.009928997,0.18513125,-0.09855402,0.87327754,0.4771514,-0.15671782,-0.4871226,0.8591572,0.98271394,0.009895277,0.18486604,9.787842,0.1268158,1.7527466,9.636639,0.0973702,1.8155174,-0.04710388,0.0014953613,-0.017700195,-25.19989,-6.9595337,6.7199707,1,0.0,0.0,0.0,0.0
2.722655029,-0.10334656,0.8587683,0.5018333,-0.15411653,-0.51226723,0.844885,0.982633,0.009975157,0.18529141,-0.09874172,0.8727126,0.47814506,-0.156612,-0.48813388,0.8586023,0.9827119,0.009896613,0.18487644,9.818954,0.06939697,1.927414,9.636338,0.097822875,1.817088,-0.04145813,0.007598877,-0.023498535,-25.19989,-6.9595337,6.7199707,1,0.0,0.0,0.0,0.0
2.73095581,-0.105559886,0.8515439,0.5135465,-0.15258811,-0.5241864,0.83782184,0.9826362,0.010079275,0.18526852,-0.098925166,0.87217337,0.47909024,-0.15651575,-0.48909676,0.8580718,0.9827088,0.009899722,0.18489285,9.795013,0.10169983,1.7958069,9.63637,0.098843925,1.8168637,-0.049240112,-0.009963989,-0.020599365,-25.679016,-7.1990967,6.6589355,1,0.0,0.0,0.0,0.0
2.739256592,-0.10558835,0.8515819,0.5134778,-0.15246615,-0.5241228,0.837884,0.9826522,0.010182801,0.18517865,-0.099059306,0.8717748,0.47978738,-0.15643997,-0.4898067,0.85768056,0.9827073,0.009903314,0.18490033,9.795013,0.10169983,1.7958069,9.636526,0.09985916,1.8159822,-0.057174683,-0.008590698,-0.018615723,-25.679016,-7.1990967,6.6589355,1,0.0,0.0,0.0,0.0
2.747557373,-0.107542664,0.84478766,0.5241835,-0.15101708,-0.5350038,0.8312429,0.9826639,0.010233407,0.1851131,-0.09932074,0.8710012,0.48113638,-0.15628782,-0.49118075,0.85692215,0.9827052,0.009914383,0.18491133,9.785446,0.08135986,1.8400879,9.6366415,0.10035544,1.8153394,-0.057022095,-0.006454468,-0.014190674,-25.679016,-7.4386597,6.7199707,1,0.0,0.0,0.0,0.0
2.755858154,-0.10748537,0.8447114,0.5243181,-0.15089102,-0.5351243,0.8311882,0.98268956,0.010225683,0.18497741,-0.09965137,0.870006,0.48286545,-0.15608758,-0.49294108,0.85594726,0.9827035,0.009927016,0.18491939,9.795013,0.057434082,1.7874451,9.636892,0.1002797,1.8140086,-0.051376343,-0.013931274,-0.018615723,-25.679016,-7.4386597,6.7199707,1,0.0,0.0,0.0,0.0
2.764158935,-0.10755878,0.84410775,0.52527434,-0.15064643,-0.53607625,0.8306189,0.98271906,0.010209657,0.18482155,-0.09981054,0.86952066,0.48370612,-0.15598759,-0.49379662,0.8554722,0.9827032,0.009932989,0.18492055,9.795013,0.057434082,1.7874451,9.637182,0.100122534,1.8124802,-0.049240112,-0.012557983,-0.009597778,-25.559998,-7.4386597,6.7199707,1,0.0,0.0,0.0,0.0
