Time,Rot1,Rot2,Rot3,Rot4,Rot5,Rot6,Rot7,Rot8,Rot9,FRot1,FRot2,FRot3,FRot4,FRot5,FRot6,FRot7,FRot8,FRot9,AccX,AccY,AccZ,GravX,GravY,GravZ,GyroX,GyroY,GyroZ,MagX,MagY,MagZ,Imid
0.0,0.0,0.0,0.0,0.0,0.0,0.0,0.0,0.0,0.0,0.0,0.0,0.0,0.0,0.0,0.0,0.0,0.0,0.0,0.15322876,9.830582,0.53868103,0.18748474,9.794373,0.45204163,0.0,0.0,0.0,0.0,0.0,0.0,0,0.0,0.0,0.0,0.0
0.004394531,0.0,0.0,0.0,0.0,0.0,0.0,0.0,0.0,0.0,1.0,0.0,0.0,0.0,1.0,0.0,0.0,0.0,1.0,0.13885498,9.720444,0.47164917,0.18673706,9.794373,0.4523468,0.0,0.0,0.0,0.0,0.0,0.0,0,0.0,0.0,0.0,0.0
0.00881958,0.0,0.0,0.0,0.0,0.0,0.0,0.0,0.0,0.0,0.99999905,1.2264261E-4,0.0014009166,-1.2271642E-4,1.0,5.2600608E-5,-0.0014009101,-5.277247E-5,0.99999905,0.01914978,9.883255,0.36151123,0.1852417,9.794373,0.45144653,-0.0032043457,0.08520508,-0.007461548,0.0,0.0,0.0,0,0.0,0.0,0.0,0.0
0.013214111,0.8450218,-0.040506892,0.5331954,0.53440017,0.028861385,-0.8447386,0.018828982,0.9987623,0.046035394,0.99999905,1.2018976E-4,0.0013728981,-1.2026064E-4,1.0,5.1551964E-5,-0.001372892,-5.1717023E-5,0.99999905,0.18673706,9.739609,0.509964,0.1846466,9.794373,0.45144653,0.012771606,0.047927856,-0.020248413,11.654663,-32.600403,-20.947266,0,0.0,0.0,0.0,0.0
0.01763916,0.84505516,-0.040463127,0.53314584,0.53434855,0.028855514,-0.84477144,0.018797899,0.9987642,0.046005916,0.99980414,-0.018906876,-0.0058440026,0.018720314,0.99935997,-0.03048075,0.0064165588,0.03036538,0.9995182,0.08139038,9.854523,0.39982605,0.18434143,9.794373,0.45115662,0.007446289,0.02128601,-0.010650635,11.654663,-32.600403,-20.947266,0,0.0,0.0,0.0,0.0
0.022033691,0.84495944,-0.040588792,0.5332882,0.53449845,0.02895216,-0.8446735,0.018844431,0.9987564,0.04615804,0.9992276,-0.037487786,-0.011780035,0.036707677,0.9974853,-0.06062706,0.014023186,0.06014782,0.998091,0.028717041,9.8736725,0.62008667,0.1847992,9.794373,0.45265198,0.015975952,0.007461548,-0.0053253174,11.654663,-32.600403,-20.947266,0,0.0,0.0,0.0,0.0
0.02645874,0.8575276,-0.039756656,0.5128994,0.51409435,0.029796127,-0.85721594,0.018797621,0.99876505,0.045989677,0.9982873,-0.055966415,-0.017032424,0.054214954,0.99445844,-0.09007312,0.021979108,0.08899545,0.9957895,0.0622406,9.864105,0.52911377,0.18434143,9.794525,0.45100403,-0.017028809,-0.031951904,0.023422241,11.654663,-32.24182,-21.984863,0,0.0,0.0,0.0,0.0
0.030853271,0.85754323,-0.039734483,0.51287514,0.514069,0.029791968,-0.8572313,0.01878208,0.998766,0.04597416,0.99711263,-0.07307128,-0.020662874,0.07010645,0.99038315,-0.11927396,0.029179666,0.11748098,0.99264634,0.0,9.792282,0.6536102,0.18418884,9.794525,0.45085144,0.04260254,-0.03302002,-0.0021362305,11.654663,-32.24182,-21.984863,0,0.0,0.0,0.0,0.0
0.035247803,0.85749483,-0.039803423,0.51295054,0.51414514,0.029659934,-0.8571903,0.018905027,0.9987673,0.04589798,0.9957032,-0.089637265,-0.023242466,0.08524948,0.9853182,-0.14792085,0.036160447,0.14530386,0.9887261,0.21546936,9.830582,0.4955902,0.18539429,9.794525,0.45010376,0.020233154,-0.06817627,0.010650635,11.654663,-32.24182,-21.984863,0,0.0,0.0,0.0,0.0
0.039672851,0.822486,-0.04166474,0.56725746,0.56846976,0.02698803,-0.82226145,0.018950146,0.9987671,0.04588241,0.9940864,-0.105701804,-0.024884904,0.09972726,0.9793287,-0.17598225,0.042972144,0.17245989,0.9840787,0.05744934,9.696503,0.63446045,0.18583679,9.794525,0.44995117,0.020233154,-0.078826904,0.020217896,13.088989,-31.524658,-21.29364,0,0.0,0.0,0.0,0.0
0.044281006,0.8224935,-0.041654687,0.5672473,0.5684568,0.026865061,-0.8222745,0.019012457,0.9987709,0.045775224,0.992079,-0.122726515,-0.026782637,0.11476528,0.97223115,-0.20394966,0.05106895,0.19926049,0.9786149,0.1484375,9.792282,0.4812317,0.18644714,9.794525,0.44889832,0.020233154,-0.090545654,0.015960693,13.088989,-31.524658,-21.29364,0,0.0,0.0,0.0,0.0
0.048858642,0.82246244,-0.04169586,0.56728905,0.56849843,0.026761763,-0.8222488,0.01910272,0.99877185,0.045714583,0.9899608,-0.13887198,-0.026309002,0.12915231,0.96439505,-0.23078522,0.057421874,0.22507046,0.9726489,0.12449646,9.758759,0.49079895,0.18733215,9.794525,0.44830322,0.023422241,-0.09161377,0.012786865,13.088989,-31.524658,-21.29364,0,0.0,0.0,0.0,0.0
0.053833008,0.84584093,-0.04052674,0.5318935,0.5330908,0.02839598,-0.84558135,0.019165017,0.9987748,0.045622915,0.9876916,-0.1544027,-0.025000881,0.1429132,0.95579994,-0.25694796,0.06356931,0.2502124,0.9661018,0.10055542,9.7827,0.3040619,0.1879425,9.794525,0.44740295,0.015975952,-0.116119385,0.02128601,11.476135,-33.139038,-20.774841,0,0.0,0.0,0.0,0.0
0.05883789,0.8457646,-0.04062472,0.5320076,0.53320605,0.02822461,-0.84551454,0.01933308,0.9987757,0.04553271,0.98543,-0.16849801,-0.023152713,0.15523274,0.946654,-0.2823987,0.06950123,0.27469012,0.9590177,0.15800476,9.739609,0.3375702,0.18959045,9.794525,0.44651794,0.008514404,-0.10333252,0.015960693,11.476135,-33.139038,-20.774841,0,0.0,0.0,0.0,0.0
0.063812256,0.8457129,-0.04069086,0.5320845,0.5332822,0.028035747,-0.8454726,0.019485617,0.99877834,0.045409907,0.9829273,-0.18260899,-0.022535324,0.16697817,0.9367512,-0.30759647,0.07727987,0.29858208,0.95125,0.12927246,9.849731,0.29927063,0.19108582,9.794525,0.4453125,0.007446289,-0.11930847,0.036209106,11.476135,-33.139038,-20.774841,0,0.0,0.0,0.0,0.0
0.068817139,0.7863807,-0.04351097,0.61620796,0.617429,0.023602236,-0.78627247,0.019667584,0.9987741,0.045425273,0.9805036,-0.19554485,-0.019357145,0.17821005,0.92641443,-0.33165866,0.08278688,0.3217429,0.9432008,0.28729248,9.787491,0.39982605,0.1928711,9.794525,0.4454651,0.015975952,-0.11291504,0.034072876,14.881897,-32.600403,-21.29364,0,0.0,0.0,0.0,0.0
0.073791504,0.786231,-0.043695446,0.6163858,0.6176142,0.023548143,-0.7861286,0.019835496,0.9987674,0.04550121,0.97763556,-0.2097792,-0.014879048,0.19096568,0.9151405,-0.35503528,0.08809544,0.34425372,0.9347345,0.25856018,9.864105,0.45729065,0.19451904,9.794525,0.44621277,-0.008514404,-0.08947754,0.030883789,14.881897,-32.600403,-21.29364,0,0.0,0.0,0.0,0.0
0.078765869,0.7861468,-0.04379914,0.6164858,0.61771643,0.023423823,-0.7860519,0.019987948,0.9987657,0.045470014,0.97457486,-0.22377105,-0.011417292,0.20300114,0.9033896,-0.3777272,0.09483868,0.36580575,0.9258465,0.25378418,9.8688965,0.39024353,0.1960144,9.794525,0.4459076,-0.018096924,-0.0980072,0.027679443,14.881897,-32.600403,-21.29364,0,0.0,0.0,0.0,0.0
0.083770752,0.8264026,-0.04221557,0.5614949,0.56271875,0.026222136,-0.82623243,0.02015628,0.9987644,0.045425538,0.97157955,-0.23664404,-0.005734004,0.21470147,0.8911742,-0.39963946,0.0996823,0.38705042,0.91665447,0.31123352,9.902405,0.5434723,0.19766235,9.794373,0.4454651,0.0,-0.092681885,0.024490356,12.910461,-32.780457,-21.466064,0,0.0,0.0,0.0,0.0
0.088745117,0.82631135,-0.042333636,0.56162024,0.5628488,0.026192341,-0.8261446,0.020263556,0.99876004,0.04547047,0.97157955,-0.23664404,-0.005734004,0.21470147,0.8911742,-0.39963946,0.0996823,0.38705042,0.91665447,0.31123352,9.902405,0.5434723,0.19871521,9.794373,0.4459076,0.0,-0.092681885,0.024490356,12.910461,-32.780457,-21.466064,0,0.0,0.0,0.0,0.0
0.09375,0.8261795,-0.042504106,0.5618013,0.5630374,0.026181418,-0.8260165,0.020400342,0.9987532,0.045561958,0.966067,-0.2582476,0.0047564805,0.23375049,0.86629575,-0.44146615,0.10988706,0.42759773,0.89726526,0.3256073,9.792282,0.5626373,0.20005798,9.794373,0.44680786,-0.004272461,-0.0703125,0.010650635,12.910461,-32.780457,-21.466064,0,0.0,0.0,0.0,0.0
0.098724365,0.8032797,-0.043563586,0.5940067,0.5952504,0.024457457,-0.8031679,0.020460986,0.9987512,0.045577426,0.96334755,-0.26802254,0.011201084,0.24280494,0.8534347,-0.46118876,0.11404959,0.4470047,0.8872314,0.33996582,9.653412,0.56741333,0.20065308,9.794373,0.44696045,-0.012771606,-0.0745697,0.017028809,13.447571,-32.958984,-20.602417,0,0.0,0.0,0.0,0.0
0.10369873,0.803214,-0.043642357,0.5940897,0.595337,0.02445326,-0.803104,0.02052192,0.99874794,0.04562311,0.96334755,-0.26802254,0.011201084,0.24280494,0.8534347,-0.46118876,0.11404959,0.4470047,0.8872314,0.33996582,9.653412,0.56741333,0.20124817,9.79422,0.44740295,-0.012771606,-0.0745697,0.017028809,13.447571,-32.958984,-20.602417,0,0.0,0.0,0.0,0.0
0.108306885,0.8031888,-0.0436725,0.5941215,0.5953693,0.024412468,-0.80308115,0.02056859,0.9987475,0.045609087,0.96334755,-0.26802254,0.011201084,0.24280494,0.8534347,-0.46118876,0.11404959,0.4470047,0.8872314,0.33996582,9.653412,0.56741333,0.20170593,9.79422,0.44726563,-0.012771606,-0.0745697,0.017028809,13.447571,-32.958984,-20.602417,0,0.0,0.0,0.0,0.0
0.112701416,0.80313325,-0.043739133,0.5941918,0.59544116,0.024341416,-0.80303013,0.020660372,0.99874645,0.04559348,0.95473206,-0.2955862,0.03340012,0.26972514,0.81286997,-0.51622736,0.12543973,0.50186765,0.85580003,0.42137146,9.916779,0.41897583,0.2026062,9.79422,0.44711304,0.0095825195,-0.019180298,-0.0032043457,13.447571,-32.958984,-20.602417,0,0.0,0.0,0.0,0.0
0.116668701,0.80309916,-0.043779932,0.5942349,0.59548503,0.024290401,-0.8029992,0.020721044,0.9987459,0.045577895,0.95191026,-0.30355948,0.04145409,0.27803457,0.79906976,-0.53308934,0.12869962,0.5189789,0.8450428,0.3543396,9.830582,0.41418457,0.2032013,9.79422,0.44696045,-0.0021362305,-0.015975952,-0.0053253174,13.447571,-32.958984,-20.602417,0,0.0,0.0,0.0,0.0
0.120635986,0.80319315,-0.043667294,0.5941161,0.5953598,0.024226254,-0.8030939,0.020675732,0.99875236,0.04545611,0.94912475,-0.31094936,0.049727216,0.28601414,0.78517413,-0.54927,0.13175063,0.5355484,0.8341641,0.3543396,9.854523,0.3663025,0.20275879,9.794373,0.44577026,0.01171875,-0.010650635,-0.018112183,13.447571,-32.958984,-20.602417,0,0.0,0.0,0.0,0.0
0.124603271,0.8232273,-0.042838946,0.56609344,0.5673343,0.025711074,-0.8230861,0.020705268,0.99875104,0.045470055,0.946386,-0.31775317,0.058194146,0.29366937,0.7712199,-0.5647815,0.13458064,0.5515911,0.82318604,0.29208374,9.878464,0.4812317,0.2030487,9.794373,0.4459076,0.019165039,0.0053253174,-0.022369385,12.910461,-30.987549,-21.11969,0,0.0,0.0,0.0,0.0
0.128570556,0.82328856,-0.042756837,0.56601036,0.56724805,0.025734477,-0.82314485,0.020629087,0.9987541,0.045440633,0.94401604,-0.32312295,0.06652242,0.30013412,0.75749695,-0.57975674,0.13694218,0.56726533,0.8120695,0.27293396,9.897629,0.4860077,0.20230103,9.794373,0.44561768,0.007446289,0.004257202,-0.022369385,12.910461,-30.987549,-21.11969,0,0.0,0.0,0.0,0.0
0.132537842,0.8233839,-0.042629156,0.5658814,0.5671136,0.025751103,-0.82323694,0.020521829,0.99875903,0.045378618,0.9415949,-0.3283178,0.0748757,0.30656686,0.7437424,-0.59402347,0.13934027,0.582284,0.8009555,0.27293396,9.8688965,0.55784607,0.20124817,9.794373,0.44500732,0.012771606,0.003189087,-0.0234375,12.910461,-30.987549,-21.11969,0,0.0,0.0,0.0,0.0
0.136505127,0.8393466,-0.041792247,0.5419878,0.54321086,0.02692639,-0.8391645,0.020476796,0.9987635,0.045302577,0.93924046,-0.33299026,0.083335996,0.31273255,0.7300213,-0.60767365,0.14151235,0.59681356,0.78980243,0.30645752,9.720444,0.5530548,0.20080566,9.794373,0.44425964,0.023422241,0.013839722,-0.030899048,12.193298,-33.49762,-21.466064,0,0.0,0.0,0.0,0.0
0.140472412,0.8394549,-0.041652128,0.5418306,0.5430467,0.026895195,-0.8392715,0.020384809,0.99877006,0.04519636,0.9371293,-0.33676934,0.09151539,0.31812003,0.71653914,-0.6207828,0.14348628,0.61086667,0.7786229,0.21546936,9.816223,0.58657837,0.1999054,9.794525,0.44322205,0.027694702,-0.004257202,-0.02130127,12.193298,-33.49762,-21.466064,0,0.0,0.0,0.0,0.0
0.144439697,0.83954924,-0.041530192,0.5416939,0.5429033,0.0268321,-0.83936644,0.020324264,0.99877685,0.045073748,0.9351701,-0.3397419,0.10016093,0.3232081,0.70284116,-0.63368034,0.14489055,0.6249718,0.7670834,0.1819458,9.753967,0.38067627,0.1993103,9.794525,0.4420166,0.03727722,0.013839722,-0.019180298,12.193298,-33.49762,-21.466064,0,0.0,0.0,0.0,0.0
0.148406982,0.8576306,-0.0404467,0.5126731,0.5138679,0.028179664,-0.8574062,0.020232294,0.9987842,0.04495201,0.933187,-0.34265244,0.10840367,0.3281809,0.689511,-0.64565617,0.14649011,0.63809395,0.75589466,0.22505188,9.739609,0.55784607,0.19841003,9.794678,0.44082642,0.022369385,0.008514404,-0.0138549805,11.476135,-33.139038,-21.812439,0,0.0,0.0,0.0,0.0
0.152374267,0.8577431,-0.04029196,0.5124971,0.5136839,0.028118111,-0.8575187,0.020140655,0.9987923,0.044815447,0.931495,-0.3446916,0.11621037,0.3323267,0.67651683,-0.6571788,0.14790575,0.65077853,0.74472225,0.15322876,9.816223,0.5243225,0.19750977,9.794678,0.43948364,0.04046631,0.020217896,-0.02130127,11.476135,-33.139038,-21.812439,0,0.0,0.0,0.0,0.0
0.156341553,0.8578739,-0.040111817,0.51229227,0.5134689,0.02801751,-0.8576506,0.020048771,0.99880224,0.044631664,0.9298673,-0.3463661,0.124005005,0.3363064,0.6636346,-0.6681969,0.14914674,0.66303813,0.7335773,0.30645752,9.911987,0.42855835,0.1966095,9.794815,0.4376831,0.03727722,0.003189087,-0.019180298,11.476135,-33.139038,-21.812439,0,0.0,0.0,0.0,0.0
0.160308838,0.83130014,-0.041349035,0.55428374,0.5554649,0.02596861,-0.83113444,0.019972628,0.99880725,0.04455564,0.92841315,-0.3471834,0.13233523,0.34007034,0.650553,-0.67906773,0.14966995,0.6754587,0.72204876,0.22026062,9.821014,0.6009369,0.19586182,9.794815,0.43693542,0.04260254,0.02128601,-0.027694702,11.476135,-33.8562,-19.737244,0,0.0,0.0,0.0,0.0
0.164276123,0.83142555,-0.041203115,0.5541064,0.5552821,0.026014518,-0.83125526,0.01983549,0.99881214,0.044508487,0.9265604,-0.34882483,0.1407372,0.3446818,0.63758177,-0.688973,0.15059943,0.68688476,0.7109916,0.19152832,9.830582,0.67276,0.19451904,9.794968,0.43647766,0.03302002,0.02128601,-0.017044067,11.476135,-33.8562,-19.737244,0,0.0,0.0,0.0,0.0
0.168243408,0.8315911,-0.041010354,0.553872,0.5550382,0.025967192,-0.83141935,0.019714305,0.99882126,0.044356406,0.9247716,-0.35009423,0.14910215,0.34912702,0.6247718,-0.6984057,0.15135297,0.6979214,0.69999856,0.23461914,9.801849,0.4860077,0.19332886,9.794968,0.4349823,0.028762817,0.015960693,-0.03302002,11.476135,-33.8562,-19.737244,0,0.0,0.0,0.0,0.0
0.172424316,0.8093037,-0.041789304,0.585902,0.587063,0.024250016,-0.8091779,0.01960685,0.99883205,0.044158585,0.9230407,-0.3510234,0.15741168,0.35341984,0.61212325,-0.7073893,0.15195483,0.7085815,0.68907326,0.14364624,9.7827,0.33277893,0.192276,9.79512,0.43304443,0.041534424,0.01171875,-0.029830933,12.730408,-32.600403,-19.909668,0,0.0,0.0,0.0,0.0
0.176605224,0.8094388,-0.04162952,0.58572674,0.5868799,0.024202548,-0.80931234,0.019515201,0.99884003,0.044022013,0.9211558,-0.35170037,0.16667004,0.35828257,0.5990434,-0.716087,0.15200546,0.71934265,0.6778204,0.19631958,9.730026,0.4955902,0.19137573,9.79512,0.43170166,0.03727722,0.015960693,-0.020248413,12.730408,-32.600403,-19.909668,0,0.0,0.0,0.0,0.0
0.181030273,0.8096332,-0.04139945,0.5854743,0.5866167,0.024169128,-0.80950403,0.019362612,0.99885035,0.043853734,0.9192448,-0.3524604,0.17538679,0.36301345,0.58646435,-0.7240724,0.15234876,0.7292676,0.6670522,0.14364624,9.864105,0.49079895,0.18988037,9.795273,0.4300537,0.036209106,0.003189087,-0.022369385,12.730408,-32.600403,-19.909668,0,0.0,0.0,0.0,0.0
0.186248779,0.8005122,-0.04149514,0.5978781,0.59901035,0.023521796,-0.8003956,0.019149365,0.9988618,0.04368551,0.91738766,-0.35289672,0.18402109,0.36759645,0.5740768,-0.7316479,0.15255393,0.7388503,0.6563746,0.13406372,9.821014,0.44291687,0.18778992,9.795425,0.42840576,0.04473877,0.017028809,-0.027694702,14.703369,-30.628967,-21.812439,0,0.0,0.0,0.0,0.0
0.191467285,0.8006361,-0.041325945,0.5977241,0.59884787,0.023463145,-0.80051917,0.019057725,0.99887025,0.043533392,0.9154697,-0.3531901,0.19280045,0.37232327,0.56178325,-0.7387659,0.15261272,0.74810183,0.6457964,0.20588684,9.849731,0.3663025,0.18688965,9.795425,0.4269104,0.041534424,0.015960693,-0.042617798,14.703369,-30.628967,-21.812439,0,0.0,0.0,0.0,0.0
0.196716308,0.8007992,-0.041102998,0.59752095,0.598635,0.023464758,-0.80067813,0.018889584,0.9988793,0.04339625,0.9136751,-0.35273942,0.20192228,0.3769289,0.5494977,-0.7456385,0.15206027,0.75738174,0.63502014,0.13406372,9.821014,0.5817871,0.1852417,9.795563,0.42556763,0.027694702,0.019165039,-0.024505615,14.703369,-30.628967,-21.812439,0,0.0,0.0,0.0,0.0
0.201934814,0.84736365,-0.03883508,0.5295911,0.5306808,0.026656613,-0.8471525,0.01878213,0.99889,0.043196876,0.9118473,-0.35246605,0.21048105,0.38139436,0.53761494,-0.752003,0.15189777,0.7659882,0.6246513,0.0909729,9.897629,0.25616455,0.18418884,9.795715,0.4236145,0.045806885,0.014892578,-0.031951904,12.013245,-32.958984,-21.638489,0,0.0,0.0,0.0,0.0
0.20715332,0.84747326,-0.038687006,0.52942646,0.53050727,0.026521109,-0.8472654,0.018737182,0.99889934,0.04299967,0.9106941,-0.35107362,0.21767758,0.38424248,0.52651286,-0.7583811,0.15163757,0.7742942,0.61438954,0.13885498,9.840164,0.3184204,0.18374634,9.795715,0.42167664,0.031951904,0.01171875,-0.0138549805,12.013245,-32.958984,-21.638489,0,0.0,0.0,0.0,0.0
0.212402344,0.8474751,-0.038684428,0.52942353,0.53050524,0.026575923,-0.8472648,0.018706035,0.99889797,0.04304473,0.90963155,-0.34926507,0.22490929,0.3869092,0.5151999,-0.76476806,0.15123354,0.78267676,0.603776,0.10533142,9.883255,0.533905,0.18344116,9.795715,0.42211914,0.03514099,-0.0032043457,-0.007461548,12.013245,-32.958984,-21.638489,0,0.0,0.0,0.0,0.0
0.217620849,0.8112373,-0.040186454,0.5833346,0.5844203,0.02394081,-0.8110978,0.018629638,0.99890524,0.04290745,0.90855086,-0.34752318,0.23186839,0.38960853,0.5044842,-0.7705198,0.15079959,0.79039437,0.59374756,0.11012268,9.92157,0.3471527,0.18269348,9.795868,0.42077637,0.017044067,0.0010681152,-0.0053253174,13.447571,-32.600403,-20.947266,0,0.0,0.0,0.0,0.0
0.222503662,0.81127954,-0.040133607,0.5832795,0.5843627,0.023923086,-0.81114,0.018600125,0.99890786,0.042860884,0.90699315,-0.34626406,0.2397181,0.3934186,0.4935108,-0.7756732,0.15028429,0.79783976,0.5838376,0.11012268,9.821014,0.28489685,0.18240356,9.795868,0.4203186,0.022369385,-0.008529663,-0.0138549805,13.447571,-32.600403,-20.947266,0,0.0,0.0,0.0,0.0
0.226898193,0.8113116,-0.04009342,0.5832375,0.5843185,0.023897761,-0.8111725,0.018584607,0.9989101,0.042815857,0.90546274,-0.3448584,0.2474063,0.39711517,0.48264885,-0.78060853,0.14978904,0.80506074,0.573969,0.14364624,9.801849,0.3184204,0.18225098,9.795868,0.4198761,0.0053253174,-0.004257202,0.004257202,13.447571,-32.600403,-20.947266,0,0.0,0.0,0.0,0.0
0.231292724,0.8426722,-0.038650885,0.5370378,0.53810656,0.02605639,-0.84247386,0.018569099,0.99891293,0.042755295,0.90397173,-0.34323758,0.2549961,0.40074408,0.4720899,-0.7851976,0.14912823,0.81198466,0.5643064,0.15800476,9.82579,0.2609558,0.18209839,9.795868,0.419281,-0.006378174,-0.004257202,-0.004257202,12.193298,-32.421875,-21.466064,0,0.0,0.0,0.0,0.0
0.235687256,0.8427379,-0.03856216,0.5369411,0.53800684,0.026097242,-0.8425364,0.018477341,0.9989154,0.042739842,0.9029616,-0.34094182,0.26157033,0.4032815,0.46211648,-0.7898179,0.14840601,0.81866175,0.554769,0.06703186,9.7444,0.39024353,0.18119812,9.795868,0.41912842,0.0053253174,-0.019180298,0.0053253174,12.193298,-32.421875,-21.466064,0,0.0,0.0,0.0,0.0
0.240081787,0.84275335,-0.038541295,0.53691834,0.5379831,0.026092751,-0.84255165,0.018463353,0.99891627,0.04272432,0.9019838,-0.33851224,0.26802012,0.40575594,0.45234838,-0.7941934,0.1476057,0.82510024,0.5453642,0.12449646,9.849731,0.35194397,0.18106079,9.795868,0.41897583,0.0010528564,-0.02130127,-0.010650635,12.193298,-32.421875,-21.466064,0,0.0,0.0,0.0,0.0
0.244476318,0.8465403,-0.03831798,0.5309437,0.53200483,0.026334565,-0.8463316,0.018447546,0.9989185,0.042678624,0.9009958,-0.33616042,0.27423102,0.40822223,0.44299614,-0.7981911,0.14683695,0.83111405,0.5363658,0.2394104,9.667786,0.4093933,0.1809082,9.7960205,0.41853333,-0.020233154,0.0,0.0063934326,12.730408,-32.958984,-22.676086,0,0.0,0.0,0.0,0.0
0.248870849,0.84649193,-0.038386356,0.53101593,0.5320808,0.02638032,-0.8462825,0.018477328,0.99891466,0.04275537,0.9009958,-0.33616042,0.27423102,0.40822223,0.44299614,-0.7981911,0.14683695,0.83111405,0.5363658,0.2394104,9.667786,0.4093933,0.18119812,9.795868,0.419281,-0.020233154,0.0,0.0063934326,12.730408,-32.958984,-22.676086,0,0.0,0.0,0.0,0.0
0.253265381,0.84653795,-0.038321204,0.5309471,0.53200895,0.026368074,-0.84632796,0.018432256,0.9989175,0.04270881,0.8992764,-0.33067688,0.28627768,0.4126558,0.42450544,-0.80592203,0.14497337,0.8428807,0.51820344,0.08139038,9.753967,0.32800293,0.18075562,9.795868,0.41882324,-0.017028809,-0.020248413,0.0,12.730408,-32.958984,-22.676086,0,0.0,0.0,0.0,0.0
0.257659912,0.81107295,-0.03997075,0.5835777,0.584652,0.023827435,-0.81093407,0.018508485,0.9989166,0.04269477,0.89845026,-0.32780704,0.29211253,0.41480148,0.41554457,-0.8094829,0.14396839,0.84844875,0.509321,0.34475708,9.749176,0.35673523,0.1815033,9.795868,0.4186859,-0.019165039,0.0,0.010650635,13.447571,-32.958984,-20.947266,0,0.0,0.0,0.0,0.0
0.262054443,0.8110615,-0.0399849,0.5835926,0.5846684,0.02387231,-0.8109211,0.018492896,0.99891514,0.042739827,0.89702284,-0.32551417,0.29898262,0.4182244,0.4063239,-0.8123973,0.14296304,0.8537807,0.50061977,0.17237854,9.849731,0.54826355,0.18135071,9.795868,0.41912842,-0.0021362305,0.0095825195,0.007461548,13.447571,-32.958984,-20.947266,0,0.0,0.0,0.0,0.0
0.266448974,0.8110185,-0.040038142,0.5836488,0.58472717,0.02388781,-0.8108783,0.018523969,0.9989126,0.042784844,0.89570755,-0.3229953,0.30558452,0.4213972,0.39732996,-0.81520134,0.14188832,0.85895455,0.4920008,0.24899292,9.849731,0.53868103,0.18165588,9.795868,0.41957092,-0.010650635,0.0095825195,-0.015975952,13.447571,-32.958984,-20.947266,0,0.0,0.0,0.0,0.0
0.270843506,0.82971686,-0.039252363,0.55680245,0.5578769,0.025210902,-0.82954067,0.018523945,0.9989113,0.04281591,0.89441305,-0.32038978,0.31205076,0.42450678,0.38853163,-0.81782466,0.14078104,0.8639407,0.48351538,0.19631958,9.888046,0.509964,0.18165588,9.795868,0.4198761,-0.014907837,0.008514404,-0.008529663,12.730408,-32.958984,-21.29364,0,0.0,0.0,0.0,0.0
0.275238037,0.82974106,-0.039221272,0.5567688,0.5578427,0.025251467,-0.8295626,0.01847727,0.99891156,0.042831477,0.89341986,-0.3174517,0.31784505,0.42696834,0.38013765,-0.8204837,0.13963906,0.8687461,0.47516432,0.20588684,9.749176,0.57699585,0.18119812,9.795868,0.4200287,0.003189087,0.013839722,-0.0021362305,12.730408,-32.958984,-21.29364,0,0.0,0.0,0.0,0.0
0.279632568,0.8297786,-0.039172854,0.5567163,0.5577894,0.025321025,-0.8295963,0.018401029,0.9989116,0.042861044,0.89241105,-0.31417328,0.32387912,0.429576,0.3718944,-0.8228967,0.13808334,0.87349284,0.46684396,0.20111084,9.82579,0.51474,0.18045044,9.795868,0.4203186,0.010650635,0.02128601,-0.014907837,12.730408,-32.958984,-21.29364,0,0.0,0.0,0.0,0.0
0.284027099,0.8394683,-0.038654245,0.542032,0.543099,0.026014674,-0.8392655,0.018340388,0.99891394,0.04283158,0.8914581,-0.31110954,0.32941353,0.43193582,0.36388347,-0.8252395,0.13687174,0.877952,0.45876622,0.19152832,9.76355,0.39982605,0.17985535,9.795868,0.4200287,0.004257202,0.02128601,-0.015975952,12.193298,-31.34613,-21.11969,0,0.0,0.0,0.0,0.0
0.288421631,0.8394875,-0.038628075,0.5420043,0.5430695,0.025976876,-0.8392859,0.018340426,0.998916,0.04278499,0.89067644,-0.30786744,0.3345342,0.43393612,0.35616425,-0.8275545,0.13562797,0.8822498,0.4508219,0.21546936,9.76355,0.63446045,0.17985535,9.795868,0.41957092,0.006378174,0.027679443,-0.0138549805,12.193298,-31.34613,-21.11969,0,0.0,0.0,0.0,0.0
0.292816162,0.8395647,-0.038522456,0.5418921,0.542953,0.025993785,-0.83936054,0.018248403,0.99891955,0.042739354,0.88990843,-0.30459544,0.3395359,0.4358997,0.34861314,-0.8297351,0.13436686,0.8863918,0.44300684,0.27772522,9.792282,0.4812317,0.17895508,9.7960205,0.41912842,0.028762817,0.026611328,-0.0021362305,12.193298,-31.34613,-21.11969,0,0.0,0.0,0.0,0.0
0.297210693,0.82788676,-0.038912352,0.55954385,0.56060225,0.025164627,-0.8277027,0.018127149,0.9989257,0.042647813,0.8891075,-0.30079347,0.34498003,0.43811867,0.34121686,-0.8316389,0.13243853,0.8905585,0.43516168,0.19631958,9.897629,0.31362915,0.1777649,9.7960205,0.41822815,0.015975952,0.03300476,-0.027694702,13.269043,-31.34613,-21.812439,0,0.0,0.0,0.0,0.0
0.301605224,0.8279563,-0.03881599,0.5594477,0.5605025,0.025195003,-0.82776934,0.0180354,0.99892867,0.04261682,0.88818306,-0.29760236,0.35009107,0.44037968,0.33388734,-0.8334177,0.13113609,0.8944004,0.4276111,0.27293396,9.811432,0.51953125,0.17686462,9.7960205,0.41792297,0.013839722,0.027679443,-0.028762817,13.269043,-31.34613,-21.812439,0,0.0,0.0,0.0,0.0
0.305999756,0.82807857,-0.038646333,0.5592783,0.56032616,0.025204886,-0.8278884,0.017898308,0.99893504,0.04252618,0.88727665,-0.29437324,0.35508388,0.44259518,0.32673427,-0.8350774,0.12980635,0.89810306,0.42019185,0.16279602,9.792282,0.4668579,0.17552185,9.796173,0.41703796,0.018096924,0.034072876,-0.028762817,13.269043,-31.34613,-21.812439,0,0.0,0.0,0.0,0.0
0.310394287,0.8134183,-0.039174084,0.58035845,0.5814083,0.024316723,-0.81324846,0.01774585,0.99893653,0.04255581,0.8863892,-0.2911072,0.35995942,0.44476423,0.3197559,-0.8366247,0.12844832,0.9016722,0.41290227,0.14364624,9.758759,0.63446045,0.17402649,9.796173,0.41732788,0.024490356,0.036209106,-0.028762817,12.371826,-32.958984,-19.56482,0,0.0,0.0,0.0,0.0
0.314788818,0.81350833,-0.03906964,0.58023936,0.58128524,0.024339307,-0.8133358,0.01765411,0.99894005,0.042510834,0.88517475,-0.28744584,0.36584216,0.4477784,0.31281933,-0.8376386,0.12633325,0.90527284,0.40561184,0.22505188,9.844955,0.54826355,0.17312622,9.796173,0.41688538,0.014907837,0.04258728,-0.029830933,12.371826,-32.958984,-19.56482,0,0.0,0.0,0.0,0.0
0.319183349,0.8135604,-0.039009172,0.5801705,0.5812143,0.024365328,-0.8133858,0.017593456,0.9989418,0.042495348,0.88409054,-0.2842859,0.3708983,0.45030266,0.30604056,-0.83878887,0.12494593,0.90858173,0.39858225,0.25378418,9.888046,0.52911377,0.17253113,9.796173,0.4167328,0.022369385,0.051116943,-0.024505615,12.371826,-32.958984,-19.56482,0,0.0,0.0,0.0,0.0
0.323577881,0.81374234,-0.038797867,0.57992953,0.5809642,0.024354171,-0.81356484,0.017440876,0.9989503,0.04235819,0.8830227,-0.28110152,0.3758363,0.45277756,0.29942727,-0.83984274,0.12354544,0.9117704,0.39167753,0.07182312,9.892838,0.45729065,0.17103577,9.79631,0.41539,0.012771606,0.039398193,-0.018112183,12.371826,-32.958984,-19.56482,0,0.0,0.0,0.0,0.0
0.327972412,0.81382495,-0.038701814,0.57982,0.58085114,0.02438756,-0.8136445,0.017349124,0.9989532,0.042327195,0.8819194,-0.27730903,0.3812058,0.4554487,0.2926618,-0.8407827,0.12159228,0.9151223,0.38440415,0.19152832,9.849731,0.44770813,0.1701355,9.79631,0.41508484,0.036209106,0.026611328,-0.024505615,12.371826,-32.958984,-19.56482,0,0.0,0.0,0.0,0.0
0.332366943,0.8139421,-0.03856554,0.57966447,0.58069,0.024395514,-0.8137591,0.017241849,0.99895823,0.042251166,0.8808854,-0.27408904,0.38589644,0.45781952,0.28638142,-0.8416573,0.120175466,0.91807455,0.3777525,0.13885498,9.844955,0.42855835,0.16908264,9.79631,0.41433716,0.01171875,0.031936646,-0.022369385,12.371826,-32.958984,-19.56482,0,0.0,0.0,0.0,0.0
0.336761474,0.85486835,-0.036553588,0.5175558,0.5185604,0.027161904,-0.8546094,0.017181236,0.9989624,0.042175096,0.87986827,-0.2708536,0.3904742,0.46014217,0.280258,-0.8424516,0.11874753,0.9209201,0.37122127,0.16279602,9.854523,0.47644043,0.16848755,9.79631,0.41358948,0.017044067,0.023422241,-0.02130127,11.834717,-32.063293,-21.812439,0,0.0,0.0,0.0,0.0
0.341156006,0.85501707,-0.03634161,0.51732486,0.51831967,0.027099136,-0.85475755,0.017044207,0.998972,0.042006798,0.87955177,-0.2672046,0.39368826,0.4611132,0.27468014,-0.8437567,0.11731734,0.92366254,0.36480695,0.11012268,9.935928,0.26574707,0.16714478,9.796463,0.41194153,0.023422241,0.03300476,-0.010650635,11.834717,-32.063293,-21.812439,0,0.0,0.0,0.0,0.0
0.345550537,0.85515505,-0.03614497,0.51711065,0.51809657,0.027062897,-0.85489386,0.016905596,0.99898,0.041869555,0.8792444,-0.2630003,0.39719015,0.4621929,0.26907048,-0.84497267,0.115355924,0.926516,0.35813558,0.1197052,9.840164,0.20350647,0.16578674,9.796616,0.41059875,0.026626587,0.018096924,-0.027694702,11.834717,-32.063293,-21.812439,0,0.0,0.0,0.0,0.0
0.349945068,0.8316041,-0.037196204,0.5541218,0.55511326,0.025408544,-0.83138657,0.016844997,0.99898493,0.04177796,0.87894034,-0.25939706,0.40022123,0.46312493,0.26375276,-0.8461382,0.1139263,0.9290574,0.3519562,0.14364624,9.749176,0.38067627,0.16519165,9.796616,0.4096985,0.012771606,0.030883789,-0.0234375,12.730408,-32.600403,-21.29364,0,0.0,0.0,0.0,0.0
0.354339599,0.8316806,-0.037095852,0.5540139,0.5550012,0.025405422,-0.8314616,0.016768819,0.99898875,0.041717436,0.8782319,-0.25604764,0.40391624,0.46481472,0.25833,-0.8468842,0.11249903,0.93150693,0.34588835,0.0,9.797058,0.25616455,0.16444397,9.796616,0.4091034,0.022369385,0.026611328,-0.0138549805,12.730408,-32.600403,-21.29364,0,0.0,0.0,0.0,0.0
0.358734131,0.83177024,-0.03697806,0.5538871,0.55487084,0.025487185,-0.8315459,0.01663193,0.9989909,0.041717526,0.8775343,-0.25270993,0.4075184,0.46647257,0.25303876,-0.8475699,0.111071385,0.9338678,0.33993247,0.16279602,9.849731,0.35194397,0.1631012,9.796616,0.4091034,0.003189087,0.008514404,-0.008529663,12.730408,-32.600403,-21.29364,0,0.0,0.0,0.0,0.0
0.363128662,0.8431633,-0.036352776,0.53642714,0.53740305,0.026289057,-0.84291565,0.016540162,0.99899316,0.041702062,0.87673336,-0.24898262,0.4115169,0.46846545,0.24816917,-0.84791046,0.10898916,0.9361729,0.33421797,0.07661438,9.787491,0.35194397,0.16220093,9.796616,0.4089508,-0.004272461,0.03514099,-0.029830933,11.834717,-32.063293,-20.774841,0,0.0,0.0,0.0,0.0
0.367523193,0.84320366,-0.03629917,0.5363674,0.5373416,0.026323892,-0.8429537,0.016479239,0.9989941,0.04170145,0.8762525,-0.24557745,0.4145762,0.46969134,0.24323632,-0.8486615,0.10757213,0.93836445,0.328482,0.16758728,9.806641,0.3663025,0.16160583,9.796768,0.4089508,-0.0032043457,0.018096924,-0.015975952,11.834717,-32.063293,-20.774841,0,0.0,0.0,0.0,0.0
0.371917724,0.84318894,-0.03631864,0.53638905,0.537366,0.026438799,-0.84293455,0.016432755,0.9989905,0.041809313,0.8757784,-0.24219655,0.4175561,0.47089583,0.23842224,-0.84935975,0.106157325,0.9404763,0.32285437,0.0909729,9.82579,0.4237671,0.16114807,9.796616,0.41000366,0.0,0.026611328,-0.010650635,11.834717,-32.063293,-20.774841,0,0.0,0.0,0.0,0.0
0.376312256,0.82934016,-0.03698446,0.55751854,0.5585031,0.025579331,-0.8291079,0.016403157,0.99898845,0.04186991,0.8753104,-0.23884062,0.42046016,0.47208107,0.23372784,-0.85000634,0.10474278,0.9425107,0.31733656,0.17237854,9.897629,0.4524994,0.16085815,9.796616,0.41059875,-0.023422241,0.031936646,-0.0053253174,12.55188,-31.704712,-20.774841,0,0.0,0.0,0.0,0.0
0.380706787,0.82941717,-0.03688339,0.55741084,0.55839205,0.025631323,-0.8291812,0.016295835,0.99899083,0.04185445,0.874432,-0.23563685,0.42408,0.47406033,0.22919284,-0.8501396,0.10312811,0.94442886,0.31211963,0.04788208,9.926346,0.4237671,0.1598053,9.796616,0.41044617,-0.0095825195,0.027679443,-0.004257202,12.55188,-31.704712,-20.774841,0,0.0,0.0,0.0,0.0
0.385101318,0.8294471,-0.036844026,0.5573689,0.55834794,0.025604561,-0.8292116,0.016280308,0.99899286,0.041809414,0.8737431,-0.23244508,0.4272496,0.47563052,0.22460735,-0.8504864,0.10172798,0.94631964,0.30680707,0.12927246,9.686935,0.34236145,0.15965271,9.796616,0.41000366,0.006378174,0.027679443,-0.0138549805,12.55188,-31.704712,-20.774841,0,0.0,0.0,0.0,0.0
0.389495849,0.8606784,-0.03522861,0.507929,0.50889033,0.027710978,-0.8603853,0.016234966,0.998995,0.04177773,0.8730624,-0.22928217,0.43033922,0.47717258,0.22012855,-0.8507936,0.100341864,0.94814193,0.30159312,0.15322876,9.768341,0.3088379,0.1592102,9.796768,0.4096985,0.004257202,0.038330078,-0.0021362305,11.654663,-32.24182,-21.984863,0,0.0,0.0,0.0,0.0
0.393890381,0.8607139,-0.03517694,0.50787216,0.5088324,0.02777889,-0.86041725,0.016158722,0.99899495,0.041808847,0.87294924,-0.22589341,0.43235594,0.47766653,0.21602136,-0.85156876,0.09896566,0.94989836,0.2964774,0.2681427,9.854523,0.44291687,0.15846252,9.796768,0.41000366,0.0,0.029815674,-0.008529663,11.654663,-32.24182,-21.984863,0,0.0,0.0,0.0,0.0
0.398284912,0.8607597,-0.035110682,0.50779915,0.5087564,0.027765585,-0.8604626,0.016112087,0.9989976,0.04176228,0.8726255,-0.22224918,0.4348907,0.4786533,0.2122666,-0.8519589,0.09703438,0.95160294,0.29160956,0.25856018,9.844955,0.27053833,0.15800476,9.796768,0.4095459,-0.0053253174,0.041534424,-0.0234375,11.654663,-32.24182,-21.984863,0,0.0,0.0,0.0,0.0
0.402679443,0.79629445,-0.038007434,0.603714,0.604697,0.023583435,-0.79610634,0.01602031,0.9989991,0.04176234,0.8725146,-0.2189522,0.4367817,0.4791251,0.20833768,-0.85266316,0.095694385,0.95323414,0.28668317,0.19631958,9.830582,0.41418457,0.15710449,9.796768,0.4095459,0.0021209717,0.06602478,-0.017044067,13.6276245,-33.49762,-20.083618,0,0.0,0.0,0.0,0.0
0.407073974,0.7963098,-0.037989717,0.60369486,0.60467803,0.023636393,-0.7961192,0.015975175,0.9989985,0.041793436,0.87129205,-0.21616578,0.44059342,0.48160845,0.20400247,-0.8523124,0.09435861,0.95480645,0.281853,0.2394104,9.8736725,0.50038147,0.15666199,9.796768,0.40985107,0.0,0.041534424,-0.0234375,13.6276245,-33.49762,-20.083618,0,0.0,0.0,0.0,0.0
0.411468506,0.7964047,-0.037880126,0.6035765,0.60455614,0.023703173,-0.79620975,0.015853852,0.99900115,0.041777987,0.8698174,-0.21313736,0.44496092,0.48461273,0.19988267,-0.8515852,0.09256465,0.95635736,0.27715048,0.15800476,9.892838,0.34236145,0.1554718,9.796768,0.4096985,0.0021209717,0.04472351,-0.017044067,13.6276245,-33.49762,-20.083618,0,0.0,0.0,0.0,0.0
0.415863037,0.81592,-0.037011538,0.5769789,0.5779499,0.025005843,-0.81568897,0.01576206,0.9990019,0.04179358,0.8686295,-0.21038316,0.44857737,0.48698545,0.19576967,-0.85118705,0.09125759,0.9578169,0.27250487,0.22026062,9.878464,0.33277893,0.15457153,9.796768,0.40985107,-0.0021362305,0.06283569,-0.024505615,13.269043,-31.34613,-20.774841,0,0.0,0.0,0.0,0.0
0.420257568,0.81602967,-0.03686836,0.576833,0.57779884,0.025053717,-0.81579465,0.0156252,0.99900603,0.04174707,0.86778,-0.20751625,0.45154703,0.48873878,0.19190302,-0.85106266,0.08995609,0.95922375,0.2679509,0.11012268,9.849731,0.509964,0.15322876,9.796768,0.4093933,-0.007446289,0.060699463,-0.022369385,13.269043,-31.34613,-20.774841,0,0.0,0.0,0.0,0.0
0.424652099,0.81603557,-0.03686067,0.57682514,0.5777913,0.025097415,-0.81579864,0.015594067,0.99900526,0.04177816,0.86694455,-0.20466909,0.45444226,0.4904558,0.18813819,-0.85091543,0.088658154,0.96058035,0.2634865,0.23461914,9.854523,0.4381256,0.15292358,9.796768,0.4096985,0.018096924,0.06283569,-0.027694702,13.269043,-31.34613,-20.774841,0,0.0,0.0,0.0,0.0
0.429046631,0.86057127,-0.034647442,0.50815016,0.50909305,0.02808656,-0.86025304,0.015533378,0.99900484,0.04180926,0.86554545,-0.20170125,0.4584185,0.49324006,0.18455075,-0.8500913,0.086863,0.9619031,0.25922424,0.29208374,9.859314,0.4955902,0.15232849,9.796768,0.41000366,0.0,0.080947876,-0.010650635,11.654663,-32.958984,-21.984863,0,0.0,0.0,0.0,0.0
0.433441162,0.8606124,-0.034589205,0.50808465,0.5090265,0.02817476,-0.86028963,0.015441567,0.99900436,0.041854363,0.8655484,-0.1986192,0.45975694,0.49345458,0.18129459,-0.85066736,0.08560742,0.96316284,0.25492877,0.1819458,9.811432,0.4860077,0.15142822,9.796768,0.41044617,0.0010528564,0.07029724,-0.0234375,11.654663,-32.958984,-21.984863,0,0.0,0.0,0.0,0.0
0.437835693,0.8607008,-0.034463715,0.5079434,0.5088807,0.028217725,-0.86037445,0.015318693,0.9990075,0.041824933,0.8655501,-0.19557904,0.46105516,0.4936666,0.1781165,-0.8512155,0.08435839,0.96437716,0.25071958,0.21546936,9.835373,0.4093933,0.15022278,9.796768,0.41015625,-0.0021362305,0.07562256,-0.018112183,11.654663,-32.958984,-21.984863,0,0.0,0.0,0.0,0.0
0.442230224,0.7882524,-0.037754904,0.6141927,0.615164,0.023672774,-0.78804374,0.015212872,0.9990066,0.04188558,0.8655517,-0.1925792,0.46231312,0.49387443,0.17501408,-0.85173833,0.08311577,0.9655482,0.24659368,0.16758728,9.830582,0.6009369,0.14918518,9.796768,0.41075134,0.006378174,0.07562256,-0.029830933,13.447571,-31.88324,-19.218445,0,0.0,0.0,0.0,0.0
0.446624756,0.78836215,-0.037628386,0.61405957,0.61502594,0.023697212,-0.78815067,0.015105337,0.9990108,0.04182442,0.8636848,-0.18969929,0.466972,0.4974512,0.1715881,-0.85035276,0.08118449,0.9667325,0.24256416,0.1484375,9.811432,0.44291687,0.14813232,9.796921,0.41015625,0.006378174,0.08627319,-0.022369385,13.447571,-31.88324,-19.218445,0,0.0,0.0,0.0,0.0
0.451019287,0.78841317,-0.037569568,0.6139977,0.6149632,0.023801766,-0.7881965,0.014997971,0.9990105,0.04186953,0.8624343,-0.1872103,0.47027588,0.49980986,0.16816074,-0.8496541,0.07998207,0.96781933,0.23859715,0.13406372,9.806641,0.44291687,0.14707947,9.796921,0.41059875,0.019165039,0.07241821,-0.022369385,13.447571,-31.88324,-19.218445,0,0.0,0.0,0.0,0.0
0.455413818,0.84866166,-0.034793053,0.5277906,0.5287252,0.027622955,-0.84834355,0.014937322,0.99901277,0.041838504,0.86120176,-0.1847382,0.47350115,0.5021198,0.16482778,-0.848945,0.078786425,0.9688672,0.23471068,0.13885498,9.979019,0.375885,0.14648438,9.796921,0.41029358,-0.007446289,0.07774353,-0.019180298,11.834717,-31.704712,-21.11969,0,0.0,0.0,0.0,0.0
0.459808349,0.8487303,-0.034698047,0.5276865,0.5286189,0.027739257,-0.848406,0.014800398,0.9990128,0.041885186,0.8610453,-0.18194814,0.47486413,0.5025719,0.16196314,-0.84922874,0.077605106,0.9698777,0.23089962,0.009567261,9.945511,0.4237671,0.1451416,9.796921,0.41075134,0.006378174,0.07987976,-0.010650635,11.834717,-31.704712,-21.11969,0,0.0,0.0,0.0,0.0
0.464202881,0.84879106,-0.034613863,0.52759415,0.5285233,0.027757045,-0.8484648,0.014724189,0.99901515,0.041854165,0.86040735,-0.17902303,0.4771266,0.50392187,0.1594281,-0.8489083,0.07590674,0.9708416,0.22738674,0.04309082,9.849731,0.39024353,0.14439392,9.796921,0.41044617,-0.008514404,0.06816101,-0.017044067,11.834717,-31.704712,-21.11969,0,0.0,0.0,0.0,0.0
0.468597412,0.8059513,-0.03654943,0.5908525,0.591801,0.025074346,-0.80569404,0.014632417,0.99901724,0.04183869,0.86026275,-0.17631704,0.4783935,0.5043397,0.15669194,-0.8491696,0.07476267,0.97178185,0.22371992,0.08618164,9.911987,0.28489685,0.14349365,9.796921,0.41029358,0.0053253174,0.07029724,-0.0063934326,14.164734,-31.88324,-21.29364,0,0.0,0.0,0.0,0.0
0.472991943,0.8059651,-0.036531407,0.59083474,0.59178215,0.025051389,-0.8057085,0.014632435,0.99901843,0.04180918,0.8593461,-0.17388609,0.480924,0.50606614,0.15375379,-0.8486795,0.07362967,0.97268873,0.22012559,0.05265808,9.835373,0.35673523,0.14349365,9.796921,0.41000366,-0.006378174,0.050048828,-0.012786865,14.164734,-31.88324,-21.29364,0,0.0,0.0,0.0,0.0
0.477386474,0.80591214,-0.03660032,0.5909027,0.59185386,0.025112867,-0.8056539,0.014647935,0.9990144,0.04190081,0.8584417,-0.17148834,0.48339382,0.5077589,0.15088402,-0.84818333,0.07251715,0.97356343,0.21659985,0.1819458,9.7827,0.5722046,0.14364624,9.796921,0.41090393,0.0021209717,0.037261963,0.0095825195,14.164734,-31.88324,-21.29364,0,0.0,0.0,0.0,0.0
0.481781006,0.83109254,-0.035480164,0.55500114,0.5559411,0.026718367,-0.83079207,0.014647917,0.9990131,0.04193032,0.85734737,-0.1691603,0.48614836,0.5097738,0.148181,-0.8474509,0.07131711,0.97438556,0.21327609,0.1819458,9.844955,0.47644043,0.14364624,9.796921,0.41119385,-0.006378174,0.025543213,-0.0010681152,13.088989,-31.88324,-21.638489,0,0.0,0.0,0.0,0.0
0.486175537,0.8310965,-0.03547487,0.55499566,0.5559366,0.026794903,-0.8307927,0.014601211,0.9990113,0.04199093,0.8569177,-0.16670093,0.4877529,0.5106444,0.14559156,-0.84737563,0.0702456,0.9751994,0.20988488,0.16758728,9.844955,0.36151123,0.14318848,9.796921,0.41178894,-0.004272461,0.02128601,-0.008529663,13.088989,-31.88324,-21.638489,0,0.0,0.0,0.0,0.0
0.490570068,0.8310965,-0.03547487,0.55499566,0.5559366,0.026794903,-0.8307927,0.014601211,0.9990113,0.04199093,0.8564937,-0.16427809,0.48931706,0.5114994,0.14306477,-0.8472903,0.0691872,0.9759842,0.20656222,0.15322876,9.725235,0.42855835,0.14318848,9.796921,0.41178894,-0.017028809,0.02128601,-0.014907837,13.088989,-31.88324,-21.638489,0,0.0,0.0,0.0,0.0
0.494964599,0.8222772,-0.03587126,0.56795555,0.568901,0.026286539,-0.8219857,0.014556077,0.99901056,0.042022016,0.85607487,-0.16189507,0.49084187,0.5123394,0.14059372,-0.8471964,0.068147615,0.9767412,0.20330398,0.12927246,9.878464,0.42855835,0.14274597,9.796921,0.41209412,-0.0053253174,0.012786865,-0.004257202,12.013245,-34.39331,-19.56482,0,0.0,0.0,0.0,0.0
0.499359131,0.8222772,-0.03587126,0.56795555,0.568901,0.026286539,-0.8219857,0.014556077,0.99901056,0.042022016,0.85607487,-0.16189507,0.49084187,0.5123394,0.14059372,-0.8471964,0.068147615,0.9767412,0.20330398,0.12927246,9.878464,0.42855835,0.14274597,9.796921,0.41209412,-0.0053253174,0.012786865,-0.004257202,12.013245,-34.39331,-19.56482,0,0.0,0.0,0.0,0.0
0.503753662,0.82229346,-0.035852868,0.5679332,0.5688775,0.026261996,-0.8220029,0.014556098,0.99901193,0.04199096,0.8549249,-0.15713546,0.49438018,0.5145354,0.13560161,-0.8466791,0.06600455,0.9782232,0.19678096,0.15800476,9.811432,0.3375702,0.14274597,9.796921,0.41178894,-0.004272461,0.013839722,-0.004257202,12.013245,-34.39331,-19.56482,0,0.0,0.0,0.0,0.0
0.508148193,0.83212316,-0.035387773,0.55346066,0.5543997,0.02688542,-0.8318161,0.014556098,0.99901193,0.04199096,0.85436624,-0.15490913,0.49604583,0.5155879,0.13324979,-0.8464122,0.06501898,0.97890127,0.19371338,0.11491394,9.82579,0.38545227,0.14274597,9.796921,0.41178894,0.006378174,0.013839722,0.0053253174,12.193298,-32.780457,-20.428467,0,0.0,0.0,0.0,0.0
0.512542724,0.83211964,-0.035392214,0.5534657,0.5544055,0.026919678,-0.8318112,0.014540521,0.99901086,0.04202203,0.85387164,-0.15294108,0.49750605,0.51650226,0.13098373,-0.8462084,0.064254835,0.9795163,0.1908377,0.13406372,9.844955,0.50038147,0.14259338,9.796921,0.41209412,-0.007446289,0.010650635,0.014892578,12.193298,-32.780457,-20.428467,0,0.0,0.0,0.0,0.0
0.516937256,0.8321161,-0.03539665,0.5534707,0.55441123,0.026953936,-0.83180636,0.014524947,0.99900985,0.042053107,0.85350907,-0.15073489,0.49879983,0.5172193,0.12879169,-0.84610695,0.063296564,0.9801488,0.18788786,0.10055542,9.864105,0.49079895,0.1424408,9.796921,0.4123993,0.0,0.0010681152,0.0021362305,12.193298,-32.780457,-20.428467,0,0.0,0.0,0.0,0.0
0.521331787,0.82579476,-0.03572479,0.56283814,0.5637829,0.02653451,-0.8254966,0.014556059,0.9990093,0.042053085,0.8531512,-0.14856556,0.50006133,0.5179238,0.1266493,-0.8459994,0.06235396,0.980759,0.18499663,0.2106781,9.777908,0.41418457,0.14274597,9.796921,0.4123993,-0.010650635,0.012786865,0.012786865,12.55188,-31.704712,-20.428467,0,0.0,0.0,0.0,0.0
0.525726318,0.8256924,-0.035856552,0.56297976,0.5639303,0.026551258,-0.82539535,0.014648013,0.9990041,0.04214377,0.8526803,-0.14646351,0.5014824,0.5188086,0.1245184,-0.84577346,0.06143117,0.98134786,0.18216093,0.21546936,9.706085,0.42855835,0.14364624,9.796768,0.4132843,-0.018096924,0.010650635,-0.0032043457,12.55188,-31.704712,-20.428467,0,0.0,0.0,0.0,0.0
0.530120849,0.82571316,-0.035829928,0.5629512,0.5639009,0.02657008,-0.825415,0.0146169,0.9990046,0.04214379,0.8520614,-0.14477417,0.5030226,0.5199051,0.12254897,-0.8453877,0.06074541,0.98184633,0.17968808,0.03829956,9.892838,0.41418457,0.14334106,9.796768,0.4132843,-0.018096924,0.013839722,0.015960693,12.55188,-31.704712,-20.428467,0,0.0,0.0,0.0,0.0
0.534515381,0.82569194,-0.035857156,0.5629804,0.5639317,0.026607245,-0.8253925,0.014616871,0.9990026,0.042190384,0.8516053,-0.1427373,0.5043752,0.5207551,0.120509714,-0.8451576,0.059853412,0.9823968,0.17695789,0.17237854,9.926346,0.38067627,0.14334106,9.796768,0.41374207,0.006378174,0.010650635,-0.008529663,12.55188,-31.704712,-20.428467,0,0.0,0.0,0.0,0.0
0.538909912,0.82566434,-0.035892867,0.56301886,0.56397164,0.026600821,-0.8253657,0.014647976,0.99900156,0.0422059,0.85115546,-0.14073525,0.5056956,0.52159,0.11851711,-0.8449246,0.058977094,0.9829279,0.17428258,0.24420166,9.797058,0.4524994,0.14364624,9.796768,0.41389465,-0.015975952,0.026611328,-0.0010681152,12.55188,-31.704712,-20.428467,0,0.0,0.0,0.0,0.0
0.543304443,0.82568824,-0.035862003,0.56298566,0.56393766,0.026641442,-0.8253875,0.014601296,0.99900156,0.04222146,0.8507112,-0.13876908,0.5069847,0.5224104,0.116567016,-0.844689,0.05811902,0.9834405,0.17165928,0.10055542,9.878464,0.38067627,0.14318848,9.796768,0.41404724,-0.0010681152,0.017028809,-0.004257202,12.55188,-31.704712,-20.428467,0,0.0,0.0,0.0,0.0
0.547698974,0.8190441,-0.036181286,0.5725885,0.5735454,0.026287276,-0.8187518,0.014571701,0.9989994,0.04228205,0.84993005,-0.13678744,0.50883013,0.52379566,0.11475229,-0.8440794,0.05707003,0.9839315,0.1691801,0.13885498,9.821014,0.5530548,0.14289856,9.796768,0.41464233,-0.0032043457,0.04258728,-0.0053253174,13.269043,-33.8562,-21.11969,0,0.0,0.0,0.0,0.0
0.552093506,0.81903,-0.03619884,0.5726078,0.5735658,0.026310578,-0.818737,0.014571683,0.99899817,0.04231156,0.8493829,-0.13491248,0.5102425,0.52477175,0.1128593,-0.8437283,0.056243856,0.98440915,0.16665901,0.22026062,9.821014,0.6392517,0.14289856,9.796768,0.41493225,-0.0032043457,0.048980713,-0.0053253174,13.269043,-33.8562,-21.11969,0,0.0,0.0,0.0,0.0
0.556488037,0.8190438,-0.036181644,0.5725889,0.57354665,0.026341993,-0.8187492,0.01454056,0.9989979,0.04232711,0.84884375,-0.13306938,0.51162183,0.52572954,0.11100969,-0.84337735,0.055432726,0.98487025,0.16418839,0.25378418,9.830582,0.4668579,0.14259338,9.796768,0.41508484,0.014907837,0.031936646,-0.004257202,13.269043,-33.8562,-21.11969,0,0.0,0.0,0.0,0.0
0.560882568,0.816592,-0.036203593,0.57607883,0.5770351,0.026270123,-0.8162966,0.01441921,0.998999,0.04234272,0.8483133,-0.13125578,0.5129683,0.5266684,0.109203406,-0.84302723,0.05463431,0.98531544,0.16176698,0.15800476,9.854523,0.51953125,0.1414032,9.796768,0.41523743,0.003189087,0.05644226,-0.017044067,13.088989,-32.600403,-20.602417,0,0.0,0.0,0.0,0.0
0.565277099,0.8166495,-0.036131755,0.5760017,0.5769545,0.026229428,-0.816355,0.014388145,0.9990028,0.042266633,0.84740436,-0.1290604,0.5150237,0.52826506,0.10754796,-0.84224075,0.053310186,0.98578745,0.1593147,0.2681427,9.82579,0.4668579,0.14109802,9.796768,0.41448975,0.007446289,0.04685974,-0.02557373,13.088989,-32.600403,-20.602417,0,0.0,0.0,0.0,0.0
0.569671631,0.81676394,-0.03598896,0.57584846,0.57679594,0.026278567,-0.8164655,0.014251273,0.9990066,0.042221673,0.84685254,-0.12732118,0.5163624,0.52922523,0.10581073,-0.8418579,0.052549656,0.9862015,0.15698767,0.16758728,9.844955,0.2753296,0.13975525,9.796768,0.41404724,0.022369385,0.05644226,-0.017044067,13.088989,-32.600403,-20.602417,0,0.0,0.0,0.0,0.0
0.574066162,0.8526138,-0.034094162,0.52142805,0.5223492,0.02854087,-0.85225385,0.014174871,0.999011,0.0421434,0.84631205,-0.12560469,0.51766723,0.5301634,0.10411825,-0.8414786,0.051795054,0.98660165,0.15470754,0.13885498,9.854523,0.37109375,0.13900757,9.796921,0.4132843,0.0,0.04685974,-0.029830933,11.296082,-32.600403,-20.602417,0,0.0,0.0,0.0,0.0
0.578460693,0.8527367,-0.033931214,0.5212376,0.5221522,0.028555254,-0.852374,0.014038018,0.9990161,0.042067375,0.84647226,-0.12378066,0.5178446,0.52997965,0.10262642,-0.84177756,0.05105124,0.9869884,0.15247166,0.07182312,9.797058,0.39024353,0.1376648,9.796921,0.41253662,0.012771606,0.06390381,-0.014907837,11.296082,-32.600403,-20.602417,0,0.0,0.0,0.0,0.0
0.582855224,0.8528103,-0.033833664,0.52112365,0.5220345,0.028582651,-0.85244524,0.013946251,0.99901867,0.04203792,0.84637135,-0.121502064,0.5185487,0.5302569,0.101142794,-0.8417825,0.049830846,0.9874246,0.15003167,0.13406372,9.849731,0.33277893,0.13676453,9.796921,0.4122467,0.017044067,0.036209106,-0.024505615,11.296082,-32.600403,-20.602417,0,0.0,0.0,0.0,0.0
0.587249756,0.8478201,-0.033980347,0.5291943,0.53010356,0.028265798,-0.8474619,0.013838945,0.9990228,0.041977406,0.8465318,-0.11975021,0.5186943,0.5300673,0.09971392,-0.84207225,0.04911729,0.9877839,0.14788668,0.1771698,9.821014,0.25616455,0.13571167,9.796921,0.4116516,0.0010528564,0.05644226,-0.018112183,12.013245,-31.88324,-21.29364,0,0.0,0.0,0.0,0.0
0.591644287,0.84789467,-0.033876795,0.52908134,0.5299869,0.028313765,-0.847533,0.013731418,0.99902487,0.041961346,0.84658766,-0.11804663,0.5189935,0.530043,0.098293364,-0.8422546,0.048411693,0.9881313,0.14578375,0.04788208,9.931137,0.39024353,0.13465881,9.797058,0.41149902,0.0010528564,0.03300476,-0.028762817,12.013245,-31.88324,-21.29364,0,0.0,0.0,0.0,0.0
0.596038818,0.8479374,-0.033817437,0.5290166,0.52991927,0.028280715,-0.8475764,0.013701895,0.9990278,0.041900788,0.84646034,-0.11618018,0.51962197,0.53033465,0.097023845,-0.84221816,0.047433347,0.9884779,0.14374122,0.04309082,9.82579,0.25616455,0.1343689,9.797058,0.41090393,0.0,0.024490356,-0.0138549805,12.013245,-31.88324,-21.29364,0,0.0,0.0,0.0,0.0
0.600433349,0.7912935,-0.03643947,0.6103497,0.61128336,0.024802376,-0.79102314,0.013686339,0.9990281,0.0419008,0.84651756,-0.1145421,0.5198923,0.53030336,0.09565851,-0.84239405,0.04675746,0.9888021,0.14171867,0.11012268,9.816223,0.375885,0.13421631,9.797058,0.41090393,-0.006378174,0.008514404,-0.007461548,13.806152,-33.676147,-19.909668,0,0.0,0.0,0.0,0.0
0.604827881,0.7912995,-0.036432654,0.6103423,0.6112762,0.024845095,-0.79102725,0.013655208,0.9990272,0.041930325,0.84551907,-0.11312247,0.5218245,0.5319519,0.09409648,-0.8415302,0.046094123,0.98911536,0.13973609,0.05265808,9.902405,0.5243225,0.13391113,9.797058,0.41119385,-0.012771606,0.008514404,-0.012786865,13.806152,-33.676147,-19.909668,0,0.0,0.0,0.0,0.0
0.609222412,0.7913407,-0.036385845,0.61029166,0.6112239,0.024862774,-0.7910671,0.013610102,0.9990285,0.04191482,0.8445366,-0.1117237,0.52371347,0.53356624,0.09257314,-0.84067667,0.045441706,0.989418,0.1377934,0.009567261,9.92157,0.38545227,0.13346863,9.797058,0.41104126,-0.012771606,0.0,-0.0021362305,13.806152,-33.676147,-19.909668,0,0.0,0.0,0.0,0.0
0.613616943,0.79191667,-0.03636459,0.60954547,0.6104786,0.024973812,-0.79163903,0.013564953,0.99902654,0.041976977,0.84355086,-0.11061968,0.52553326,0.53515565,0.091037065,-0.83983374,0.045059133,0.9896846,0.13599315,0.009567261,9.773117,0.5530548,0.13302612,9.797058,0.4116516,-0.006378174,-0.0010681152,0.015960693,13.986206,-32.063293,-20.083618,0,0.0,0.0,0.0,0.0
0.618011474,0.79183644,-0.036461197,0.6096439,0.61058253,0.02509004,-0.79155505,0.013565053,0.99902,0.042129777,0.8426115,-0.10925239,0.5273232,0.5366869,0.08959413,-0.8390114,0.044418935,0.98996806,0.13412738,-0.03829956,9.945511,0.4333496,0.13302612,9.796921,0.41314697,-0.007446289,-0.017044067,0.01171875,13.986206,-32.063293,-20.083618,0,0.0,0.0,0.0,0.0
0.622406006,0.79170483,-0.036619715,0.6098053,0.61075145,0.025156349,-0.7914226,0.013641195,0.99901253,0.042281948,0.84168595,-0.10790831,0.5290752,0.5381888,0.0881886,-0.83819777,0.043790102,0.99024165,0.13230215,0.11491394,9.691727,0.5243225,0.1337738,9.796921,0.41464233,-0.03302002,-0.015975952,0.012786865,13.986206,-32.063293,-20.083618,0,0.0,0.0,0.0,0.0
0.626800537,0.8234746,-0.035316825,0.56625277,0.56718713,0.027113661,-0.82314235,0.013717592,0.99900824,0.042358667,0.84077275,-0.106590435,0.5307915,0.5396637,0.086815946,-0.8373924,0.04317686,0.99050564,0.13051549,0.0909729,9.935928,0.35673523,0.13452148,9.796768,0.41539,-0.024490356,-0.0138549805,0.018096924,12.910461,-32.063293,-20.774841,0,0.0,0.0,0.0,0.0
0.631195068,0.8233394,-0.03549169,0.56643856,0.5673806,0.027136382,-0.8230084,0.013838865,0.99900144,0.042479746,0.8405937,-0.10572251,0.53124845,0.53995657,0.08568998,-0.8373197,0.04300087,0.9906967,0.12911601,0.15322876,9.8736725,0.4812317,0.13571167,9.796768,0.4165802,-0.022369385,-0.020248413,0.023422241,12.910461,-32.063293,-20.774841,0,0.0,0.0,0.0,0.0
0.635589599,0.8232543,-0.03560154,0.56655526,0.56750214,0.027150607,-0.82292414,0.013915049,0.9989972,0.04255581,0.8402787,-0.10435687,0.5320163,0.5404934,0.0844851,-0.8370956,0.042409234,0.990945,0.12739523,0.12927246,9.811432,0.4381256,0.13645935,9.796768,0.41732788,-0.022369385,-0.029830933,0.023422241,12.910461,-32.063293,-20.774841,0,0.0,0.0,0.0,0.0
0.639984131,0.8110228,-0.036367882,0.583883,0.584846,0.02645366,-0.8107128,0.0140380645,0.9989883,0.042724136,0.839967,-0.10302035,0.53276855,0.54102266,0.08330413,-0.83687204,0.041833032,0.9911848,0.12570906,0.1771698,9.768341,0.6536102,0.1376648,9.796616,0.41897583,-0.017028809,-0.04473877,0.013839722,13.088989,-33.317566,-20.256042,0,0.0,0.0,0.0,0.0
0.644378662,0.8108328,-0.036594387,0.5841328,0.58510625,0.026510669,-0.8105233,0.014174852,0.9989785,0.042907324,0.8394299,-0.1017493,0.53385794,0.54189837,0.0821045,-0.83642393,0.04127341,0.9914161,0.12405876,0.16279602,9.931137,0.6536102,0.13900757,9.796616,0.42077637,-0.017028809,-0.046875,0.023422241,13.088989,-33.317566,-20.256042,0,0.0,0.0,0.0,0.0
0.648773193,0.8107414,-0.036703236,0.5842527,0.5852302,0.026466627,-0.8104352,0.014282395,0.99897563,0.04293743,0.8393036,-0.10105967,0.53418756,0.5420947,0.08098888,-0.83640546,0.041263606,0.9915784,0.122758165,0.14364624,9.797058,0.59135437,0.14006042,9.796463,0.42106628,-0.02130127,-0.051132202,0.026611328,13.088989,-33.317566,-20.256042,0,0.0,0.0,0.0,0.0
0.653167724,0.8144763,-0.03660381,0.5790411,0.58001924,0.026669906,-0.8141662,0.014358613,0.9989739,0.042952918,0.83877236,-0.0998316,0.5352519,0.5429573,0.07983811,-0.83595645,0.04072137,0.99179614,0.12117031,0.18673706,9.878464,0.50038147,0.1408081,9.796463,0.42121887,0.008514404,-0.054336548,0.02128601,14.164734,-32.600403,-21.984863,0,0.0,0.0,0.0,0.0
0.657562256,0.81442785,-0.036668025,0.57910514,0.58008534,0.026622724,-0.81412065,0.014434841,0.9989729,0.042952873,0.83831966,-0.098618194,0.5361852,0.54369533,0.07872261,-0.8355825,0.040193737,0.99200666,0.11961296,0.07182312,9.777908,0.5243225,0.14155579,9.796463,0.42121887,0.003189087,-0.07243347,0.010650635,14.164734,-32.600403,-21.984863,0,0.0,0.0,0.0,0.0
0.661956787,0.8144196,-0.03667892,0.579116,0.58009374,0.026427865,-0.81412077,0.014556276,0.99897754,0.042800587,0.8378736,-0.097430065,0.53709894,0.5444202,0.077628545,-0.8352129,0.039680634,0.99221027,0.118085794,0.16279602,9.768341,0.32321167,0.14274597,9.796463,0.4197235,0.006378174,-0.0703125,0.020217896,14.164734,-32.600403,-21.984863,0,0.0,0.0,0.0,0.0
0.666351318,0.7931445,-0.037655693,0.6078682,0.6088573,0.025019502,-0.7928851,0.014648079,0.99897754,0.042771023,0.8380755,-0.09636047,0.53697675,0.5441072,0.07599442,-0.835567,0.03970839,0.9924412,0.116119474,0.1819458,9.849731,0.52911377,0.14364624,9.796463,0.4194336,0.025558472,-0.07670593,0.023422241,14.523315,-32.24182,-20.947266,0,0.0,0.0,0.0,0.0
0.670745849,0.7930782,-0.037738502,0.6079497,0.6089404,0.024895202,-0.7928253,0.014785007,0.99897754,0.04272434,0.83724266,-0.09526971,0.53846854,0.5454239,0.07488318,-0.83480847,0.039209723,0.99263096,0.114657775,0.2106781,9.950287,0.4381256,0.14498901,9.796463,0.41897583,0.015975952,-0.08735657,0.013839722,14.523315,-32.24182,-20.947266,0,0.0,0.0,0.0,0.0
0.675140381,0.79305196,-0.03777114,0.60798174,0.6089715,0.024733413,-0.7928063,0.014907738,0.9989803,0.04261643,0.83642226,-0.09420207,0.5399295,0.5467157,0.07379132,-0.83406043,0.038728114,0.9928146,0.11322244,0.17237854,9.974243,0.32800293,0.14619446,9.796616,0.41792297,0.01171875,-0.0980072,0.02128601,14.523315,-32.24182,-20.947266,0,0.0,0.0,0.0,0.0
0.679534912,0.79097545,-0.03797133,0.6106686,0.61166185,0.02445798,-0.7907412,0.0150897745,0.99897945,0.042571273,0.83639854,-0.09331759,0.5401197,0.54674983,0.072364345,-0.83416307,0.038756683,0.99300313,0.111546814,0.27293396,9.911987,0.41897583,0.14797974,9.796616,0.41748047,0.012771606,-0.09161377,0.020217896,13.806152,-32.600403,-19.909668,0,0.0,0.0,0.0,0.0
0.683929443,0.7909139,-0.03804334,0.61074376,0.61173844,0.024343468,-0.7906856,0.015212698,0.9989796,0.042526156,0.8355541,-0.092293695,0.54160047,0.5480719,0.07131246,-0.83338565,0.038293384,0.9931749,0.11016901,0.26335144,9.768341,0.3375702,0.14918518,9.796616,0.41703796,0.010650635,-0.08842468,0.025543213,13.806152,-32.600403,-19.909668,0,0.0,0.0,0.0,0.0
0.688323974,0.7908991,-0.038060576,0.6107618,0.6117563,0.024290409,-0.79067326,0.01525783,0.99898016,0.042495064,0.83472264,-0.09129096,0.5430505,0.5493684,0.070279635,-0.8326193,0.037845228,0.9933412,0.108816385,0.1771698,9.892838,0.32321167,0.14962769,9.796616,0.4167328,0.0010528564,-0.10758972,0.014892578,13.806152,-32.600403,-19.909668,0,0.0,0.0,0.0,0.0
0.692718506,0.83700544,-0.036024675,0.5460074,0.5469805,0.027174488,-0.8367042,0.015304528,0.9989814,0.042449992,0.8339051,-0.09030625,0.5444696,0.55063874,0.06926865,-0.8318647,0.037407905,0.9935022,0.1074896,0.11491394,9.739609,0.533905,0.15008545,9.796616,0.41629028,-0.0010681152,-0.08842468,0.003189087,13.269043,-32.780457,-22.503662,0,0.0,0.0,0.0,0.0
0.697113037,0.8369688,-0.036075793,0.5460602,0.54703575,0.02719368,-0.8366675,0.015334054,0.99897903,0.042495012,0.83447576,-0.089207694,0.5437759,0.5497829,0.06804036,-0.8325318,0.037269536,0.9936863,0.1058229,0.1484375,9.8688965,0.49079895,0.15037537,9.796616,0.4167328,0.020233154,-0.057525635,0.01171875,13.269043,-32.780457,-22.503662,0,0.0,0.0,0.0,0.0
0.701507568,0.8369426,-0.03611223,0.5460979,0.5470731,0.0270781,-0.8366467,0.015425884,0.9989808,0.04241885,0.83453655,-0.08815271,0.5438545,0.54971933,0.06721991,-0.8326404,0.036841657,0.9938363,0.104556724,0.33039856,9.739609,0.42855835,0.15127563,9.796616,0.4159851,-0.0053253174,-0.038345337,0.0053253174,13.269043,-32.780457,-22.503662,0,0.0,0.0,0.0,0.0
0.705902099,0.8330632,-0.036289256,0.5519862,0.5529614,0.026721407,-0.8327782,0.015471057,0.99898404,0.04232718,0.834595,-0.08712141,0.543931,0.54965824,0.066411234,-0.8327457,0.036426846,0.9939816,0.10331348,0.18673706,9.844955,0.4093933,0.15171814,9.796616,0.41508484,0.018096924,-0.051132202,0.0021362305,13.269043,-32.421875,-22.157288,0,0.0,0.0,0.0,0.0
0.710296631,0.83300585,-0.036368366,0.5520676,0.5530453,0.026667003,-0.83272433,0.015562837,0.9989826,0.04232712,0.83457434,-0.086120404,0.5441223,0.5497164,0.06560296,-0.8327714,0.036022577,0.9941225,0.10209235,0.36390686,9.907196,0.4237671,0.15261841,9.796616,0.41508484,0.02130127,-0.03729248,0.0053253174,13.269043,-32.421875,-22.157288,0,0.0,0.0,0.0,0.0
0.714691162,0.8329987,-0.036378298,0.55207783,0.5530553,0.026624752,-0.8327191,0.015593969,0.9989834,0.04229759,0.83470774,-0.08507448,0.5440821,0.5495398,0.06476924,-0.8329531,0.035623264,0.9942672,0.10081519,0.24420166,9.844955,0.3375702,0.15292358,9.796616,0.41479492,0.004257202,-0.017044067,-0.0021362305,13.269043,-32.421875,-22.157288,0,0.0,0.0,0.0,0.0
0.719085693,0.7935803,-0.038129132,0.6072697,0.60826415,0.024035253,-0.79337066,0.015654657,0.99898374,0.042266488,0.8346824,-0.08411698,0.54426974,0.5496029,0.06399006,-0.8329717,0.035239212,0.99439913,0.099642314,0.31123352,9.792282,0.35194397,0.15351868,9.796616,0.41448975,0.0010528564,0.0,-0.007461548,14.164734,-33.317566,-20.602417,0,0.0,0.0,0.0,0.0
0.723480224,0.79358274,-0.03812614,0.6072666,0.6082612,0.024057187,-0.79337215,0.01563909,0.99898326,0.042282026,0.83391047,-0.08326556,0.54558235,0.55079734,0.063111626,-0.83224946,0.03486513,0.9945269,0.09849189,0.26335144,9.768341,0.4333496,0.15336609,9.796616,0.41464233,0.007446289,-0.0032043457,-0.0021362305,14.164734,-33.317566,-20.602417,0,0.0,0.0,0.0,0.0
0.727874756,0.7936222,-0.0380794,0.6072181,0.6082111,0.024074702,-0.7934102,0.01559399,0.9989847,0.042266525,0.83315206,-0.082427934,0.5468668,0.551967,0.062254637,-0.8315388,0.03449703,0.99465066,0.09736508,0.15322876,9.883255,0.2609558,0.15292358,9.796616,0.41448975,0.0021209717,0.03514099,-0.01171875,14.164734,-33.317566,-20.602417,0,0.0,0.0,0.0,0.0
0.732269287,0.8281671,-0.03652761,0.5592898,0.5602665,0.02632486,-0.8278941,0.015517765,0.9989859,0.042266577,0.8322272,-0.08157381,0.54840094,0.55339354,0.061625615,-0.830637,0.033962674,0.9947603,0.09642893,0.16758728,9.801849,0.44770813,0.1521759,9.796616,0.41448975,-0.0095825195,0.02128601,-0.008529663,13.269043,-33.139038,-21.812439,0,0.0,0.0,0.0,0.0
0.736663818,0.8281837,-0.036505606,0.55926645,0.560243,0.02637779,-0.82790804,0.015471076,0.99898523,0.04229767,0.832154,-0.08069038,0.5486426,0.55352515,0.060901172,-0.83060277,0.033608668,0.9948769,0.095343314,0.21546936,9.768341,0.38545227,0.15171814,9.796616,0.41479492,0.0021209717,0.04258728,-0.019180298,13.269043,-33.139038,-21.812439,1,0.0,0.0,0.0,0.0
0.741058349,0.8282097,-0.036471248,0.5592301,0.56020534,0.026383124,-0.8279333,0.01544153,0.99898636,0.042282157,0.8320824,-0.07982273,0.5488781,0.55365396,0.06019415,-0.83056843,0.03325899,0.99498993,0.09428067,0.22026062,9.758759,0.3471527,0.15142822,9.796616,0.41464233,-0.008514404,0.05218506,-0.01171875,13.269043,-33.139038,-21.812439,1,0.0,0.0,0.0,0.0
0.745452881,0.82822317,-0.03645358,0.5592115,0.56018645,0.026414268,-0.8279453,0.0154104065,0.9989862,0.04229771,0.83201253,-0.0789708,0.54910725,0.5537795,0.059502512,-0.8305345,0.032914713,0.99509954,0.09323925,0.2106781,9.758759,0.3184204,0.15112305,9.796616,0.41479492,0.0010528564,0.047927856,-0.01171875,13.269043,-33.139038,-21.812439,1,0.0,0.0,0.0,0.0
0.749847412,0.8282425,-0.03642823,0.5591847,0.56015885,0.02643204,-0.8279635,0.015380851,0.99898666,0.04229773,0.83201253,-0.0789708,0.54910725,0.5537795,0.059502512,-0.8305345,0.032914713,0.99509954,0.09323925,0.2106781,9.758759,0.3184204,0.15083313,9.796616,0.41479492,0.0010528564,0.047927856,-0.01171875,13.269043,-33.139038,-21.812439,1,0.0,0.0,0.0,0.0
0.754241943,0.82832235,-0.036322813,0.5590731,0.560044,0.026505904,-0.8280387,0.015257956,0.9989885,0.042297807,0.8313689,-0.0772849,0.55032057,0.5547976,0.05836734,-0.82993543,0.032020733,0.9952991,0.09140228,0.009567261,9.854523,0.38545227,0.14962769,9.796616,0.41479492,-0.007446289,0.05644226,-0.0095825195,13.269043,-33.139038,-21.812439,1,0.0,0.0,0.0,0.0
0.758636474,0.7993346,-0.037618633,0.59970754,0.6006937,0.02475891,-0.79909587,0.015212786,0.9989854,0.042387925,0.8313147,-0.07647755,0.55051523,0.55489755,0.057718154,-0.82991403,0.031695068,0.9953993,0.09041915,0.14364624,9.878464,0.5243225,0.14918518,9.796616,0.41567993,-0.0032043457,0.045791626,-0.0138549805,14.164734,-32.958984,-20.947266,1,0.0,0.0,0.0,0.0
0.763031006,0.7993824,-0.037559837,0.59964734,0.6006314,0.024787083,-0.79914165,0.015152126,0.9989869,0.04237398,0.83070666,-0.07574226,0.5515338,0.5558257,0.057010204,-0.82934165,0.031373154,0.99549633,0.08945825,0.13885498,9.797058,0.41418457,0.14859009,9.796616,0.4155426,-0.008514404,0.04258728,-0.008529663,14.164734,-32.958984,-20.947266,1,0.0,0.0,0.0,0.0
0.767425537,0.7994094,-0.037526753,0.59961355,0.60059714,0.024849687,-0.79916555,0.015089883,0.9989866,0.042403534,0.8298236,-0.07484443,0.5529838,0.55717325,0.05637246,-0.82848066,0.0308341,0.9956006,0.08848051,0.15800476,9.725235,0.53868103,0.14797974,9.796616,0.41583252,0.003189087,0.03300476,-0.010650635,14.164734,-32.958984,-20.947266,1,0.0,0.0,0.0,0.0
0.771820068,0.811387,-0.0369928,0.5833374,0.5843151,0.025620438,-0.8111222,0.015060325,0.998987,0.042403553,0.82924384,-0.074135385,0.5539483,0.5580528,0.055697598,-0.82793415,0.030525632,0.9956916,0.08755835,0.16758728,9.777908,0.4860077,0.14768982,9.796616,0.41583252,0.004257202,0.022354126,-0.0138549805,13.806152,-32.958984,-21.29364,1,0.0,0.0,0.0,0.0
0.776214599,0.8113777,-0.037004553,0.58334965,0.5843278,0.025611687,-0.81111354,0.015074327,0.9989869,0.042403545,0.82890046,-0.07341596,0.5545575,0.5585791,0.05506847,-0.82762116,0.030221963,0.9957799,0.086654894,0.19152832,9.859314,0.4237671,0.14782715,9.796616,0.41583252,0.008514404,0.026611328,-0.008529663,13.806152,-32.958984,-21.29364,1,0.0,0.0,0.0,0.0
0.780609131,0.8114254,-0.036944248,0.5832872,0.58426315,0.025637463,-0.81115925,0.015013667,0.99898845,0.04238805,0.8284031,-0.07256495,0.55541205,0.5593375,0.0543613,-0.8271556,0.029829584,0.9958811,0.085621364,0.17237854,9.830582,0.51953125,0.14723206,9.796616,0.41567993,0.0095825195,0.018096924,-0.004257202,13.806152,-32.958984,-21.29364,1,0.0,0.0,0.0,0.0
0.785003662,0.8445882,-0.035253704,0.53425443,0.5352075,0.027722105,-0.8442656,0.014952831,0.9989939,0.042281814,0.8280761,-0.07187389,0.55598927,0.5598369,0.053762175,-0.8268568,0.029538216,0.99596375,0.08475684,0.10533142,9.854523,0.39024353,0.14663696,9.796768,0.41464233,0.013839722,0.014892578,-0.0138549805,12.371826,-31.524658,-21.638489,1,0.0,0.0,0.0,0.0
0.789398193,0.84461457,-0.035216507,0.53421533,0.53516555,0.02763806,-0.84429497,0.0149684455,0.9989975,0.042190168,0.8284184,-0.07113006,0.5555749,0.5593455,0.053259373,-0.8272219,0.02925077,0.99604416,0.08390732,0.22026062,9.835373,0.41418457,0.14678955,9.796768,0.41374207,0.023422241,0.007461548,-0.012786865,12.371826,-31.524658,-21.638489,1,0.0,0.0,0.0,0.0
0.793792724,0.84468544,-0.03511624,0.5341098,0.5350548,0.027577013,-0.8443669,0.014921843,0.9990026,0.04208302,0.8287538,-0.070401214,0.55516726,0.558863,0.05276354,-0.82757974,0.028970027,0.9961223,0.08307262,0.08618164,9.8736725,0.44291687,0.14633179,9.796768,0.4126892,0.020233154,-0.015975952,-0.0021362305,12.371826,-31.524658,-21.638489,1,0.0,0.0,0.0,0.0
0.798187256,0.7988138,-0.037133604,0.60043114,0.60139436,0.024610832,-0.7985732,0.0148767885,0.9990072,0.04199141,0.8291286,-0.06938891,0.55473506,0.5583253,0.051991943,-0.82799137,0.028611667,0.99623394,0.08184959,0.12449646,9.883255,0.46206665,0.14588928,9.796768,0.41178894,0.024490356,-0.004257202,-0.0053253174,14.523315,-31.88324,-21.29364,1,0.0,0.0,0.0,0.0
0.802581787,0.79881126,-0.037136864,0.6004343,0.60139847,0.024666613,-0.79856837,0.014845647,0.99900573,0.042038027,0.82854915,-0.06877446,0.55567646,0.5591987,0.051407628,-0.82743824,0.028340612,0.99630684,0.08105233,0.03829956,9.7827,0.5434723,0.1455841,9.796768,0.4122467,0.027694702,-0.010650635,-0.008529663,14.523315,-31.88324,-21.29364,1,0.0,0.0,0.0,0.0
0.806976318,0.79886717,-0.03706472,0.6003643,0.6013248,0.024626551,-0.7986249,0.014815905,0.9990093,0.041961282,0.8279802,-0.068170704,0.5565981,0.5600541,0.05083829,-0.82689464,0.028073493,0.9963775,0.080272384,0.16279602,9.849731,0.42855835,0.14529419,9.796921,0.41149902,0.01171875,-0.010650635,-0.0032043457,14.523315,-31.88324,-21.29364,1,0.0,0.0,0.0,0.0
0.811370849,0.8208105,-0.03603699,0.5700627,0.57101035,0.02601425,-0.82053053,0.014739699,0.99901175,0.041930266,0.82742274,-0.06757655,0.557499,0.56089056,0.050281037,-0.82636166,0.027811049,0.9964463,0.07950672,-0.0335083,9.859314,0.35673523,0.14454651,9.796921,0.41119385,0.020233154,-0.029830933,-0.008529663,12.910461,-34.573364,-20.774841,1,0.0,0.0,0.0,0.0
0.815765381,0.82081175,-0.036035478,0.57006097,0.5710078,0.025960479,-0.820534,0.014769283,0.9990132,0.041885205,0.82750547,-0.06684703,0.55746406,0.56078327,0.049754098,-0.8264663,0.027510697,0.99652195,0.078658484,0.0143585205,9.854523,0.37109375,0.14483643,9.796921,0.41075134,0.0053253174,-0.022369385,-0.004257202,12.910461,-34.573364,-20.774841,1,0.0,0.0,0.0,0.0
0.820159912,0.82079935,-0.03605025,0.57007784,0.5710259,0.026004683,-0.82052,0.0147552565,0.9990116,0.04193026,0.82737666,-0.066238806,0.55772775,0.5609856,0.049269408,-0.8263581,0.027258057,0.9965866,0.07792338,0.01914978,9.8688965,0.44770813,0.1446991,9.796921,0.41119385,0.007446289,-0.039413452,0.013839722,12.910461,-34.573364,-20.774841,1,0.0,0.0,0.0,0.0
0.824554443,0.8344554,-0.03543992,0.54993486,0.5508756,0.026761297,-0.83415824,0.01484553,0.9990134,0.04185409,0.82725,-0.0656427,0.557986,0.56118435,0.04879621,-0.82625127,0.02700976,0.9966494,0.077204324,0.04788208,9.859314,0.29927063,0.1455841,9.796921,0.41044617,-0.007446289,-0.045806885,0.0053253174,13.088989,-32.958984,-21.984863,1,0.0,0.0,0.0,0.0
0.828948974,0.83446443,-0.035427667,0.5499218,0.55086136,0.026715709,-0.83416903,0.014861114,0.9990151,0.04180904,0.8273989,-0.065035924,0.5578364,0.5609764,0.04836037,-0.8264181,0.02676969,0.9967104,0.07649694,0.12927246,9.806641,0.39982605,0.1457367,9.796921,0.41000366,0.006378174,-0.051132202,0.027679443,13.088989,-32.958984,-21.984863,1,0.0,0.0,0.0,0.0
0.833343506,0.83437675,-0.035546128,0.5500472,0.5509913,0.026688678,-0.83408415,0.014968424,0.9990116,0.041854016,0.8281074,-0.06440616,0.5568572,0.559935,0.04778723,-0.8271573,0.026663361,0.9967789,0.07563622,0.27293396,10.007751,0.51953125,0.14678955,9.796921,0.41044617,0.008514404,-0.061782837,0.003189087,13.088989,-32.958984,-21.984863,1,0.0,0.0,0.0,0.0
0.837738037,0.81731427,-0.036387295,0.5750422,0.5759963,0.025565492,-0.8170526,0.015029093,0.99901074,0.04185398,0.82823694,-0.06382743,0.5567313,0.5597544,0.047369085,-0.82730365,0.026432814,0.9968361,0.07496051,0.23461914,9.7827,0.3663025,0.14738464,9.796921,0.41044617,-0.0021362305,-0.055389404,0.010650635,13.6276245,-33.139038,-21.466064,1,0.0,0.0,0.0,0.0
0.842132568,0.81729156,-0.036416177,0.57507235,0.5760271,0.02552542,-0.817032,0.015074217,0.99901074,0.04183842,0.8280247,-0.063289955,0.5571083,0.5600789,0.046919208,-0.82710963,0.026208647,0.9968917,0.07429762,0.18673706,9.835373,0.29447937,0.14782715,9.796921,0.41029358,-0.004272461,-0.034088135,0.004257202,13.6276245,-33.139038,-21.466064,1,0.0,0.0,0.0,0.0
0.846527099,0.8172519,-0.03646693,0.5751255,0.5760809,0.025433298,-0.8169969,0.015166026,0.99901116,0.041793317,0.8278158,-0.06276381,0.557478,0.5603976,0.046477474,-0.8269186,0.025990395,0.9969456,0.073647484,0.22026062,9.854523,0.35673523,0.14872742,9.796921,0.40985107,-0.0053253174,-0.026626587,0.007461548,13.6276245,-33.139038,-21.466064,1,0.0,0.0,0.0,0.0
0.850921631,0.8263792,-0.03605876,0.5619584,0.56290936,0.025992863,-0.82610977,0.015181592,0.9990116,0.041777775,0.82790947,-0.0623642,0.55738354,0.5602573,0.045839217,-0.82704926,0.026028236,0.9970002,0.07289072,0.17237854,9.844955,0.4046173,0.14888,9.796921,0.4096985,0.006378174,-0.034088135,0.012786865,13.088989,-31.88324,-21.29364,1,0.0,0.0,0.0,0.0
0.855316162,0.8263457,-0.036103435,0.5620046,0.5629576,0.02599894,-0.82607675,0.015212684,0.99900985,0.04180882,0.8278817,-0.06184236,0.5574831,0.56030834,0.045437995,-0.82703686,0.025814993,0.9970511,0.072268076,0.22984314,9.806641,0.45729065,0.14918518,9.796921,0.41000366,-0.011703491,-0.015975952,-0.0010681152,13.088989,-31.88324,-21.29364,1,0.0,0.0,0.0,0.0
0.859710693,0.82631683,-0.036141995,0.5620447,0.56299883,0.025971744,-0.8260495,0.015257796,0.99900913,0.041808788,0.82785356,-0.061331615,0.5575812,0.5603594,0.045044683,-0.82702374,0.025606634,0.9971005,0.07165816,0.25378418,9.816223,0.44291687,0.14962769,9.796921,0.41000366,-0.0053253174,-0.0032043457,-0.014907837,13.088989,-31.88324,-21.29364,1,0.0,0.0,0.0,0.0
0.864105224,0.84025604,-0.035539832,0.5410237,0.5419728,0.026834395,-0.83996737,0.015334258,0.9990079,0.041809388,0.8277919,-0.06083132,0.5577276,0.56045675,0.04453333,-0.8269855,0.025469152,0.9971541,0.07095766,0.36390686,9.849731,0.4093933,0.15037537,9.796768,0.41000366,0.006378174,0.003189087,0.004257202,12.910461,-32.063293,-22.157288,1,0.0,0.0,0.0,0.0
0.868499756,0.84026325,-0.035529755,0.5410133,0.5419635,0.026931688,-0.83997035,0.01527354,0.9990056,0.041885536,0.8280475,-0.06032073,0.5574035,0.56008804,0.044186957,-0.8272538,0.02527059,0.99720055,0.070373826,0.27772522,9.8736725,0.53868103,0.14978027,9.796768,0.41075134,0.013839722,-0.0021362305,-0.0138549805,12.910461,-32.063293,-22.157288,1,0.0,0.0,0.0,0.0
0.872894287,0.8402945,-0.035485707,0.5409677,0.54191685,0.026979603,-0.839999,0.015212861,0.9990059,0.041901108,0.828298,-0.059819676,0.55708534,0.5597265,0.043850027,-0.8275164,0.025073556,0.9972456,0.06980355,0.25856018,9.816223,0.44291687,0.14918518,9.796768,0.41090393,-0.0053253174,0.010650635,-0.024505615,12.910461,-32.063293,-22.157288,1,0.0,0.0,0.0,0.0
0.877288818,0.84492475,-0.035220414,0.53372437,0.5346702,0.027320562,-0.84461915,0.015166185,0.9990061,0.041915122,0.82854384,-0.05932753,0.5567722,0.55937123,0.043521203,-0.8277739,0.02487839,0.9972894,0.06924534,0.21546936,9.892838,0.5626373,0.14872742,9.796768,0.41104126,0.0010528564,0.022354126,-0.024505615,12.193298,-32.780457,-21.466064,1,0.0,0.0,0.0,0.0
0.881683349,0.8450281,-0.035080787,0.5335698,0.53450924,0.027286544,-0.8447219,0.015074234,0.9990119,0.041808907,0.8286029,-0.05852784,0.556769,0.5593046,0.04318676,-0.82783645,0.024406428,0.99735117,0.06851956,0.14364624,9.758759,0.32800293,0.14782715,9.796921,0.41000366,0.01171875,0.031936646,-0.014907837,12.193298,-32.780457,-21.466064,1,0.0,0.0,0.0,0.0
0.886077881,0.8450601,-0.035037644,0.53352207,0.5344596,0.027278125,-0.84475374,0.015044698,0.99901366,0.04177786,0.8289405,-0.05805137,0.5563162,0.558812,0.042880688,-0.82818496,0.024222052,0.99739224,0.06798535,0.16279602,9.768341,0.5530548,0.14753723,9.796921,0.4096985,0.015975952,0.037261963,-0.017044067,12.193298,-32.780457,-21.466064,1,0.0,0.0,0.0,0.0
0.890472412,0.8232279,-0.035946436,0.5665718,0.56751484,0.025875807,-0.8229564,0.0149218505,0.99901867,0.041701827,0.8292717,-0.05758367,0.5558709,0.5583283,0.04258028,-0.8285267,0.024040468,0.99743223,0.067461215,0.15800476,9.897629,0.41418457,0.14633179,9.796921,0.4089508,0.022369385,0.030883789,-0.008529663,13.6276245,-31.704712,-21.812439,1,0.0,0.0,0.0,0.0
0.894866943,0.82330114,-0.035846114,0.56647176,0.5674106,0.025873674,-0.8230283,0.014845661,0.99902225,0.04164129,0.8291538,-0.05715537,0.55609107,0.5585112,0.042240947,-0.82842076,0.02385888,0.9974713,0.06694616,0.12927246,9.854523,0.4812317,0.1455841,9.796921,0.4083557,0.015975952,0.036209106,-0.02557373,13.6276245,-31.704712,-21.812439,1,0.0,0.0,0.0,0.0
0.899261474,0.8232952,-0.03585437,0.56648,0.5674185,0.025830077,-0.82302433,0.014876793,0.99902314,0.041610207,0.8288586,-0.056346025,0.55661345,0.558968,0.04177038,-0.82813644,0.023412244,0.99753714,0.06611736,0.19631958,9.739609,0.4668579,0.14588928,9.796921,0.40805054,0.020233154,0.02128601,-0.014907837,13.6276245,-31.704712,-21.812439,1,0.0,0.0,0.0,0.0
0.903656006,0.8545193,-0.034171354,0.5182944,0.51921046,0.027878296,-0.8541916,0.014739718,0.9990271,0.041564666,0.82874984,-0.055940807,0.55681616,0.5591363,0.041446365,-0.8280391,0.023243172,0.9975735,0.06562721,0.13406372,9.844955,0.25616455,0.14454651,9.797058,0.40760803,0.014907837,0.026611328,0.0021362305,11.654663,-31.524658,-21.29364,1,0.0,0.0,0.0,0.0
0.908050537,0.8546016,-0.034054402,0.5181663,0.51907706,0.0278448,-0.85427374,0.014663548,0.999032,0.041473072,0.82928544,-0.055492356,0.5560632,0.55834866,0.0411944,-0.828583,0.02307333,0.99760896,0.065146,0.19631958,9.816223,0.28489685,0.14379883,9.797058,0.40670776,-0.0021362305,0.02128601,-0.029830933,11.654663,-31.524658,-21.29364,1,0.0,0.0,0.0,0.0
0.912445068,0.85468185,-0.03394039,0.51804143,0.51894754,0.027845755,-0.8543525,0.014571802,0.9990359,0.041412547,0.8298113,-0.05505077,0.55532205,0.55757385,0.040946625,-0.8291169,0.022904959,0.9976436,0.064672835,0.04788208,9.864105,0.44291687,0.14289856,9.797058,0.40611267,0.010650635,0.026611328,-0.020248413,11.654663,-31.524658,-21.29364,1,0.0,0.0,0.0,0.0
0.916839599,0.81938255,-0.03558303,0.5721416,0.5730633,0.025580268,-0.81911165,0.014510942,0.99903923,0.04135136,0.8300954,-0.054300997,0.55497116,0.5571665,0.04057836,-0.8294087,0.0225179,0.99769974,0.06393861,0.23461914,9.888046,0.3040619,0.14230347,9.797211,0.40551758,0.017044067,0.026611328,-0.01171875,13.6276245,-31.34613,-21.466064,1,0.0,0.0,0.0,0.0
0.921234131,0.8194397,-0.03550537,0.5720645,0.5729839,0.0256363,-0.8191655,0.01441916,0.99904066,0.041351415,0.8298856,-0.053932402,0.5553207,0.55748534,0.04027187,-0.8292094,0.022357449,0.99773216,0.063487574,0.04309082,9.806641,0.46206665,0.1414032,9.797211,0.40551758,0.0053253174,0.025543213,-0.022369385,13.6276245,-31.34613,-21.466064,1,0.0,0.0,0.0,0.0
0.925628662,0.81943005,-0.035518534,0.5720776,0.57299733,0.025626808,-0.81915647,0.014434716,0.9990404,0.041351408,0.8296811,-0.053568576,0.55566144,0.5577962,0.03997346,-0.8290148,0.022197433,0.99776375,0.063045576,0.15322876,9.811432,0.39982605,0.14155579,9.797211,0.40551758,0.007446289,0.03514099,-0.008529663,13.6276245,-31.34613,-21.466064,1,0.0,0.0,0.0,0.0
0.930023193,0.81923234,-0.035527375,0.5723601,0.57328004,0.025614556,-0.81895906,0.014434716,0.9990404,0.041351408,0.8294803,-0.0532124,0.55599535,0.5581008,0.039681084,-0.82882375,0.022041205,0.9977945,0.06261256,0.13885498,9.749176,0.41897583,0.14155579,9.797211,0.40551758,0.0095825195,0.018096924,-0.0032043457,13.447571,-32.958984,-21.29364,1,0.0,0.0,0.0,0.0
0.934417724,0.8192568,-0.035496105,0.5723272,0.5732463,0.02565423,-0.81898135,0.014388037,0.9990404,0.04136541,0.8291317,-0.05275538,0.5565586,0.55862397,0.039172065,-0.8284955,0.021906044,0.99783885,0.061949223,0.0143585205,9.753967,0.4333496,0.14109802,9.797211,0.4056549,0.014907837,0.015960693,0.0021362305,13.447571,-32.958984,-21.29364,1,0.0,0.0,0.0,0.0
0.938812256,0.8192692,-0.035480265,0.5723105,0.57322943,0.025684645,-0.8189924,0.014358471,0.9990403,0.041380964,0.8289381,-0.052414045,0.55687916,0.5589171,0.03889768,-0.8283107,0.021753807,0.9978676,0.061538875,0.09576416,9.792282,0.44291687,0.1408081,9.797211,0.4058075,0.01171875,0.015960693,-0.008529663,13.447571,-32.958984,-21.29364,1,0.0,0.0,0.0,0.0
0.943206787,0.8125182,-0.035692085,0.5818422,0.5827605,0.025255416,-0.8122514,0.014296281,0.99904364,0.04132042,0.82874846,-0.052078635,0.55719274,0.55920404,0.038629632,-0.82812953,0.021603705,0.9978956,0.061136834,0.0622406,9.931137,0.5243225,0.14019775,9.797211,0.4052124,0.014907837,-0.0095825195,-0.01171875,13.088989,-32.24182,-20.256042,1,0.0,0.0,0.0,0.0
0.947601318,0.81254774,-0.035655554,0.5818031,0.5827193,0.025207952,-0.8122825,0.0142963175,0.9990462,0.041259844,0.82843184,-0.051756356,0.55769336,0.5596788,0.038354646,-0.8278216,0.021454895,0.99792296,0.06074114,0.20111084,9.835373,0.38067627,0.14019775,9.797211,0.4046173,0.02130127,-0.0095825195,-0.007461548,13.088989,-32.24182,-20.256042,1,0.0,0.0,0.0,0.0
0.951995849,0.812586,-0.035608254,0.58175254,0.58266705,0.025223892,-0.81231946,0.014251212,0.99904746,0.041244335,0.82832265,-0.05122507,0.5579046,0.5598491,0.03795425,-0.8277248,0.021225411,0.9979657,0.06011667,0.004776001,9.849731,0.35673523,0.13975525,9.797211,0.40446472,0.013839722,-0.02130127,-0.0063934326,13.088989,-32.24182,-20.256042,1,0.0,0.0,0.0,0.0
0.956390381,0.812602,-0.035588525,0.58173144,0.58264405,0.02514486,-0.8123384,0.01428237,0.99905014,0.041168205,0.8280153,-0.050917692,0.55838877,0.56030893,0.037692834,-0.8274257,0.02108335,0.9979913,0.059739884,0.20111084,9.777908,0.23222351,0.14006042,9.797211,0.40371704,0.018096924,-0.012786865,-0.0095825195,13.088989,-32.24182,-20.256042,1,0.0,0.0,0.0,0.0
0.960784912,0.812622,-0.035563778,0.58170503,0.5826158,0.025088662,-0.81236047,0.014296407,0.99905246,0.041107617,0.8277142,-0.05061624,0.5588624,0.5607588,0.037434995,-0.8271325,0.020945325,0.99801636,0.059368983,0.03829956,9.945511,0.3375702,0.14019775,9.797211,0.40312195,0.017044067,-0.015975952,-0.0032043457,13.088989,-32.24182,-20.256042,1,0.0,0.0,0.0,0.0
0.965179443,0.8126316,-0.035551913,0.58169234,0.5826016,0.02502022,-0.8123727,0.014327333,0.99905455,0.041044824,0.82757425,-0.050419476,0.55908734,0.56096125,0.036924552,-0.82701814,0.021053772,0.9980453,0.058841184,0.03829956,9.864105,0.35673523,0.14050293,9.797363,0.4025116,0.0095825195,-0.018112183,0.013839722,13.088989,-32.24182,-20.256042,1,0.0,0.0,0.0,0.0
0.969573974,0.80943394,-0.035799358,0.58611864,0.5870338,0.024822416,-0.80918163,0.014419303,0.9990506,0.041107543,0.8272822,-0.050126437,0.55954576,0.5613971,0.03668091,-0.82673323,0.020916542,0.99806905,0.0584863,0.08618164,9.792282,0.47164917,0.1414032,9.797211,0.40312195,0.008514404,-0.028762817,0.014892578,14.344788,-32.780457,-21.812439,1,0.0,0.0,0.0,0.0
0.973968506,0.8094728,-0.035748664,0.58606803,0.5869817,0.02486033,-0.80921835,0.014358633,0.9990515,0.041107576,0.8269341,-0.049846,0.56008506,0.56191456,0.03643673,-0.8263924,0.020784687,0.99809206,0.05813997,0.01914978,9.753967,0.42855835,0.1408081,9.797211,0.40312195,-0.008514404,-0.017044067,0.023422241,14.344788,-32.780457,-21.812439,1,0.0,0.0,0.0,0.0
0.978363037,0.80939585,-0.035849057,0.5861682,0.587086,0.024860065,-0.80914277,0.014434826,0.999048,0.041168116,0.8265934,-0.049569238,0.5606123,0.56242037,0.03619857,-0.82605875,0.020653738,0.9981145,0.057800252,0.05744934,9.859314,0.3663025,0.14155579,9.797211,0.40371704,0.003189087,-0.028762817,-0.0032043457,14.344788,-32.780457,-21.812439,1,0.0,0.0,0.0,0.0
0.982757568,0.82331234,-0.0352333,0.566494,0.5674046,0.025683448,-0.8230384,0.014448843,0.99904895,0.041137036,0.82647634,-0.049736068,0.56077015,0.56258345,0.035986472,-0.82595694,0.020899711,0.9981139,0.057722654,0.07182312,9.821014,0.3184204,0.14169312,9.797211,0.40341187,-0.015975952,-0.02557373,0.02128601,13.447571,-33.676147,-21.638489,1,0.0,0.0,0.0,0.0
0.987152099,0.823199,-0.03537861,0.5666497,0.56756634,0.025691133,-0.8229267,0.0145561285,0.99904364,0.04122862,0.82641435,-0.049445495,0.5608872,0.56267935,0.035781562,-0.82590055,0.02076764,0.9981357,0.057392355,0.1484375,9.859314,0.4237671,0.14274597,9.797211,0.40431213,0.0,-0.027694702,0.0095825195,13.447571,-33.676147,-21.638489,1,0.0,0.0,0.0,0.0
0.991546631,0.8230616,-0.035554674,0.5668382,0.5677625,0.025715329,-0.8227907,0.014677622,0.99903685,0.041351903,0.8263513,-0.049163714,0.56100494,0.5627766,0.03558012,-0.82584286,0.02064088,0.9981568,0.057069868,0.15800476,9.792282,0.41418457,0.14393616,9.797058,0.40551758,-0.020233154,-0.029830933,0.022354126,13.447571,-33.676147,-21.638489,1,0.0,0.0,0.0,0.0
0.995941162,0.82495743,-0.03550662,0.56407845,0.5650039,0.025862627,-0.8246829,0.014693152,0.9990348,0.041396942,0.82628655,-0.048891798,0.56112397,0.56287605,0.035382893,-0.82578367,0.020519856,0.9981772,0.05675643,0.21546936,9.945511,0.56741333,0.14408875,9.797058,0.40596008,-0.028747559,-0.028762817,0.024490356,12.730408,-31.524658,-20.602417,1,0.0,0.0,0.0,0.0
1.000335693,0.82480353,-0.0357076,0.5642908,0.5652245,0.025867002,-0.82453156,0.0148455305,0.9990275,0.041518006,0.82628655,-0.048891798,0.56112397,0.56287605,0.035382893,-0.82578367,0.020519856,0.9981772,0.05675643,0.21546936,9.945511,0.56741333,0.1455841,9.797058,0.40715027,-0.028747559,-0.028762817,0.024490356,12.730408,-31.524658,-20.602417,1,0.0,0.0,0.0,0.0
1.004730224,0.8247122,-0.035826784,0.5644167,0.5653558,0.02589425,-0.82444066,0.014921907,0.9990225,0.04161018,0.82634485,-0.048605766,0.56106305,0.56279093,0.034990508,-0.82585835,0.0205096,0.99820495,0.05626911,0.13406372,9.859314,0.4860077,0.14633179,9.796921,0.40805054,-0.013839722,-0.0138549805,0.027679443,12.730408,-31.524658,-20.602417,1,0.0,0.0,0.0,0.0
1.009124756,0.8409261,-0.035132833,0.54000837,0.54094297,0.02697194,-0.8406268,0.01496853,0.99901867,0.041686267,0.826313,-0.048350163,0.56113195,0.5628417,0.034809284,-0.8258314,0.02039648,0.9982237,0.055976853,0.296875,9.830582,0.58657837,0.14678955,9.796921,0.40879822,-0.013839722,-0.018112183,0.017028809,12.371826,-31.166077,-21.29364,1,0.0,0.0,0.0,0.0
1.013519287,0.8408952,-0.035175968,0.54005355,0.5409901,0.02698013,-0.8405961,0.014998067,0.99901694,0.041717313,0.8266116,-0.04808066,0.5607152,0.5624071,0.034660183,-0.8261337,0.020286564,0.9982419,0.05569141,0.20588684,9.835373,0.50038147,0.14707947,9.796921,0.4091034,-0.011703491,-0.0095825195,0.015960693,12.371826,-31.166077,-21.29364,1,0.0,0.0,0.0,0.0
1.017913818,0.84082973,-0.03526756,0.54014957,0.5410898,0.026972635,-0.8405322,0.015074265,0.9990139,0.04176231,0.8269645,-0.047967285,0.56020427,0.561886,0.034454875,-0.8264967,0.020343041,0.9982545,0.055445105,0.36390686,9.758759,0.52911377,0.14782715,9.796921,0.4095459,-0.0021362305,-0.007461548,0.0095825195,12.371826,-31.166077,-21.29364,1,0.0,0.0,0.0,0.0
1.022308349,0.8114139,-0.036661707,0.583321,0.58427584,0.025033094,-0.8111688,0.015136506,0.9990141,0.041732755,0.8272475,-0.04770865,0.5598083,0.5614731,0.034312513,-0.8267833,0.020236284,0.99827176,0.055172063,0.27772522,9.849731,0.33277893,0.1484375,9.796921,0.40925598,0.0095825195,-0.0021362305,-0.0010681152,13.088989,-32.600403,-20.256042,1,0.0,0.0,0.0,0.0
1.026702881,0.8113652,-0.036721114,0.5833851,0.58434206,0.025006019,-0.8111221,0.015197167,0.9990126,0.0417467,0.8269378,-0.047492284,0.5602843,0.56193304,0.03412174,-0.8264787,0.020133482,0.99828863,0.054904032,0.31602478,9.840164,0.44291687,0.1490326,9.796921,0.4093933,-0.006378174,0.010650635,-0.0010681152,13.088989,-32.600403,-20.256042,1,0.0,0.0,0.0,0.0
1.031097412,0.8113312,-0.03676235,0.5834296,0.5843887,0.025032664,-0.81108767,0.015212694,0.9990105,0.041793287,0.82663286,-0.047281288,0.5607519,0.56238496,0.033934064,-0.8261789,0.020034214,0.998305,0.054641295,0.19152832,9.758759,0.5434723,0.14918518,9.796921,0.40985107,0.003189087,0.012786865,-0.0053253174,13.088989,-32.600403,-20.256042,1,0.0,0.0,0.0,0.0
1.035491943,0.8567837,-0.034519043,0.51451933,0.515452,0.027923357,-0.8564634,0.015197187,0.9990139,0.041717187,0.82639706,-0.047037896,0.5611197,0.5627382,0.033881973,-0.82594055,0.019838663,0.9983183,0.054469984,0.20111084,9.797058,0.41897583,0.1490326,9.796921,0.4091034,-0.0053253174,-0.0063934326,-0.0063934326,12.193298,-32.780457,-22.503662,1,0.0,0.0,0.0,0.0
1.039886474,0.8567703,-0.034538385,0.51454026,0.5154732,0.027893137,-0.85645145,0.015228308,0.999014,0.04170163,0.8270312,-0.04677988,0.5602063,0.5618091,0.03377566,-0.8265771,0.019745836,0.99833405,0.054214887,0.2106781,9.749176,0.39982605,0.14933777,9.796921,0.4089508,0.02130127,0.01171875,-0.0063934326,12.193298,-32.780457,-22.503662,1,0.0,0.0,0.0,0.0
1.044281006,0.85672605,-0.03460255,0.51460975,0.51554555,0.027905606,-0.85640764,0.015273391,0.99901146,0.04174665,0.82765126,-0.046527687,0.5593107,0.5608984,0.033670094,-0.8271997,0.01965564,0.99834937,0.053964403,0.25378418,9.773117,0.51953125,0.14978027,9.796921,0.4093933,0.0095825195,0.0095825195,-0.019180298,12.193298,-32.780457,-22.503662,1,0.0,0.0,0.0,0.0
1.048675537,0.8473368,-0.035101026,0.5298944,0.5308365,0.027314775,-0.8470339,0.015257817,0.99901044,0.041777726,0.8282562,-0.046100933,0.5584499,0.5600072,0.033267014,-0.8278196,0.019585293,0.9983827,0.053370465,0.12449646,9.988602,0.4860077,0.14962769,9.796921,0.4096985,0.02130127,0.0,0.0010681152,11.834717,-33.139038,-21.11969,1,0.0,0.0,0.0,0.0
1.053070068,0.8473304,-0.035109594,0.5299043,0.53084695,0.02732752,-0.84702706,0.015257807,0.99900985,0.04179326,0.8286482,-0.045876477,0.5578866,0.55943,0.03315559,-0.82821417,0.01949849,0.99839675,0.053139,0.15322876,9.859314,0.4381256,0.14962769,9.796921,0.40985107,0.014907837,0.010650635,-0.01171875,11.834717,-33.139038,-21.11969,1,0.0,0.0,0.0,0.0
1.057464599,0.84732646,-0.03511472,0.52991015,0.5308526,0.027305847,-0.8470241,0.015273373,0.9990102,0.041777715,0.8290318,-0.045656472,0.55733454,0.55886436,0.03304609,-0.8286004,0.019413244,0.99841046,0.052912034,0.1771698,9.864105,0.39024353,0.14978027,9.796921,0.4096985,0.017044067,-0.007461548,-0.0010681152,11.834717,-33.139038,-21.11969,1,0.0,0.0,0.0,0.0
1.061859131,0.8189853,-0.03645589,0.5726553,0.5736109,0.025423132,-0.8187334,0.015288958,0.9990119,0.04173266,0.8294072,-0.04544136,0.5567932,0.55831,0.03293809,-0.82897836,0.019330198,0.9984238,0.052689455,0.19631958,9.8736725,0.29447937,0.14993286,9.796921,0.40925598,0.0021209717,-0.0063934326,-0.0138549805,12.55188,-33.49762,-20.083618,1,0.0,0.0,0.0,0.0
1.066253662,0.8190264,-0.036406994,0.5725995,0.57355314,0.025439717,-0.81877303,0.015242298,0.9990131,0.041717153,0.8292159,-0.045288283,0.55709064,0.55859256,0.032601,-0.8288013,0.019373275,0.9984419,0.052330963,0.028717041,9.777908,0.375885,0.1494751,9.796921,0.4091034,0.008514404,-0.0021362305,0.007461548,12.55188,-33.49762,-20.083618,1,0.0,0.0,0.0,0.0
1.070648193,0.81899834,-0.03644038,0.57263756,0.57359374,0.025508355,-0.81874263,0.01522825,0.9990102,0.041793276,0.8290152,-0.045112506,0.55740356,0.5588933,0.03245524,-0.82860416,0.019289743,0.9984546,0.052118964,0.12927246,9.768341,0.6009369,0.14933777,9.796921,0.40985107,0.007446289,-0.007461548,0.007461548,12.55188,-33.49762,-20.083618,1,0.0,0.0,0.0,0.0
1.075042724,0.84031576,-0.035455566,0.54093647,0.5418824,0.026852971,-0.8400252,0.015257817,0.99901044,0.041777726,0.8288177,-0.044940755,0.5577109,0.55918884,0.03231406,-0.82841027,0.019207481,0.9984669,0.051912833,0.22984314,9.8688965,0.375885,0.14962769,9.796921,0.4096985,0.015975952,-0.007461548,-0.0021362305,12.910461,-32.063293,-22.157288,1,0.0,0.0,0.0,0.0
1.079437256,0.8403447,-0.03541471,0.54089427,0.54183674,0.026736125,-0.8400584,0.015289005,0.999015,0.041656546,0.8290516,-0.044747926,0.5573787,0.5588448,0.03220911,-0.82864654,0.019127542,0.99847895,0.051710162,0.12449646,9.816223,0.44770813,0.14993286,9.796921,0.4085083,0.017044067,-0.0010681152,-0.007461548,12.910461,-32.063293,-22.157288,1,0.0,0.0,0.0,0.0
1.083831787,0.8403536,-0.035402115,0.5408812,0.54182243,0.0266891,-0.8400691,0.0153045915,0.9990167,0.041609943,0.82924503,-0.044395786,0.5571191,0.55855525,0.031581145,-0.828866,0.019203696,0.9985147,0.050986003,0.1771698,9.945511,0.29447937,0.15008545,9.796921,0.40805054,0.031951904,0.003189087,0.0095825195,12.910461,-32.063293,-22.157288,1,0.0,0.0,0.0,0.0
1.088226318,0.8173307,-0.036441382,0.57501525,0.57596594,0.025193531,-0.8170854,0.015289054,0.9990182,0.04158044,0.8294708,-0.044213086,0.5567974,0.5582226,0.031488046,-0.8290935,0.019124318,0.99852574,0.050799157,0.10055542,9.739609,0.32321167,0.14993286,9.796921,0.40776062,0.006378174,-0.004257202,-0.004257202,12.910461,-32.780457,-20.428467,1,0.0,0.0,0.0,0.0
1.092620849,0.8173164,-0.03645898,0.5750345,0.57598627,0.025216773,-0.81707036,0.015289035,0.99901694,0.04160995,0.8292321,-0.044059634,0.5571651,0.5585798,0.031360216,-0.8288577,0.019046353,0.9985366,0.05061572,0.17237854,9.787491,0.50038147,0.14993286,9.796921,0.40805054,0.01171875,0.0010681152,-0.0021362305,12.910461,-32.780457,-20.428467,1,0.0,0.0,0.0,0.0
1.097015381,0.81731325,-0.036462884,0.5750388,0.5759903,0.025194919,-0.81706816,0.015304601,0.9990173,0.041594405,0.82899773,-0.043909013,0.5575256,0.55893016,0.031235175,-0.8286263,0.018969752,0.99854714,0.05043596,0.16758728,9.797058,0.375885,0.15008545,9.796921,0.40789795,-0.008514404,0.0021362305,-0.0021362305,12.910461,-32.780457,-20.428467,1,0.0,0.0,0.0,0.0
1.101409912,0.8273662,-0.036044985,0.56050503,0.56145346,0.025831778,-0.827105,0.015334148,0.9990163,0.041609924,0.8288053,-0.043819197,0.5578185,0.55921656,0.031135734,-0.8284367,0.01893334,0.99855417,0.050309885,0.21546936,9.859314,0.4524994,0.15037537,9.796921,0.40805054,-0.0032043457,-0.004257202,0.0021362305,12.193298,-32.421875,-20.083618,1,0.0,0.0,0.0,0.0
1.105804443,0.82738656,-0.036019627,0.5604765,0.56142414,0.025849644,-0.8271243,0.0153045915,0.9990167,0.041609943,0.82877696,-0.04366347,0.55787295,0.55926114,0.031030394,-0.82841057,0.01886026,0.9985643,0.05013656,0.10055542,9.916779,0.3950348,0.15008545,9.796921,0.40805054,0.0,0.0010681152,0.0010681152,12.193298,-32.421875,-20.083618,1,0.0,0.0,0.0,0.0
1.110198974,0.82742965,-0.035966236,0.56041646,0.56136245,0.025887255,-0.82716495,0.015242366,0.9990176,0.041609976,0.82874954,-0.043509725,0.5579258,0.55930424,0.03092719,-0.82838535,0.018787742,0.9985742,0.049966067,0.0,9.859314,0.4333496,0.1494751,9.796921,0.40805054,0.006378174,0.0010681152,0.0053253174,12.193298,-32.421875,-20.083618,1,0.0,0.0,0.0,0.0
1.114593506,0.83183545,-0.035760753,0.5538691,0.554813,0.026170377,-0.83156335,0.015242366,0.9990176,0.041609976,0.8287235,-0.043358203,0.5579762,0.55934525,0.03082722,-0.8283614,0.018715404,0.99858385,0.049799446,0.1197052,9.935928,0.41418457,0.1494751,9.796921,0.40805054,-0.0053253174,0.0,0.0010681152,12.730408,-33.676147,-21.29364,1,0.0,0.0,0.0,0.0
1.118988037,0.8318624,-0.035726324,0.55383074,0.5547733,0.026175546,-0.8315896,0.01521282,0.9990187,0.041594468,0.8288584,-0.043497495,0.55776495,0.5591428,0.030919537,-0.82849467,0.018791607,0.998575,0.04994923,0.07661438,9.739609,0.34236145,0.14918518,9.796921,0.40789795,-0.019165039,-0.008529663,0.008514404,12.730408,-33.676147,-21.29364,1,0.0,0.0,0.0,0.0
1.123382568,0.8318792,-0.035704866,0.55380684,0.5547485,0.026173595,-0.8316062,0.015197272,0.99901956,0.0415805,0.82891893,-0.04334049,0.55768704,0.5590554,0.030826667,-0.828557,0.018718433,0.9985846,0.04978254,0.11491394,9.878464,0.37109375,0.1490326,9.796921,0.40776062,-0.014907837,-0.007461548,0.0063934326,12.730408,-33.676147,-21.29364,1,0.0,0.0,0.0,0.0
1.127777099,0.8052635,-0.03688001,0.59176886,0.5927222,0.024489988,-0.80503446,0.015197272,0.99901956,0.0415805,0.8289788,-0.043186855,0.5576103,0.5589692,0.030736022,-0.82861865,0.01864671,0.9985941,0.04961963,0.15322876,9.7827,0.41418457,0.1490326,9.796921,0.40776062,-0.0095825195,-0.004257202,0.003189087,13.986206,-33.49762,-21.11969,1,0.0,0.0,0.0,0.0
1.132171631,0.8052672,-0.03687563,0.59176433,0.59271777,0.024510685,-0.80503726,0.015181708,0.99901927,0.041594487,0.8285185,-0.04306429,0.55830336,0.5596536,0.03060684,-0.8281613,0.018576276,0.99860334,0.049459413,0.10055542,9.821014,0.4668579,0.14888,9.796921,0.40789795,-0.0032043457,-0.0063934326,0.0,13.986206,-33.49762,-21.11969,1,0.0,0.0,0.0,0.0
1.136566162,0.8052847,-0.03685412,0.5917418,0.59269434,0.024509698,-0.8050544,0.01516616,0.99902,0.041580513,0.8282031,-0.043056574,0.55877167,0.56012154,0.030616047,-0.8278446,0.01853677,0.9986034,0.049473215,0.12927246,9.811432,0.34236145,0.14872742,9.796921,0.40776062,-0.010650635,-0.014907837,0.0010681152,13.986206,-33.49762,-21.11969,1,0.0,0.0,0.0,0.0
1.140960693,0.7892908,-0.037451267,0.6128764,0.61383265,0.023495924,-0.7890865,0.015152189,0.9990222,0.041533925,0.82775784,-0.042936217,0.5594404,0.5607816,0.0304901,-0.8274021,0.018468127,0.99861246,0.049316257,0.11012268,9.753967,0.3184204,0.14859009,9.796921,0.40730286,-0.014907837,0.0053253174,-0.0010681152,14.164734,-32.958984,-20.256042,1,0.0,0.0,0.0,0.0
1.145355224,0.789297,-0.037443973,0.61286885,0.61382425,0.023464404,-0.78909385,0.015166208,0.9990232,0.041504405,0.827023,-0.042833123,0.5605339,0.5618668,0.030343253,-0.826671,0.01840048,0.99862134,0.04916108,0.16279602,9.811432,0.29447937,0.14872742,9.796921,0.40701294,0.004257202,0.007461548,0.012786865,14.164734,-32.958984,-20.256042,1,0.0,0.0,0.0,0.0
1.149749756,0.789297,-0.037443973,0.61286885,0.61382425,0.023464404,-0.78909385,0.015166208,0.9990232,0.041504405,0.8262359,-0.042989995,0.56168157,0.5630209,0.030298648,-0.8258871,0.018486694,0.998616,0.049238097,0.15322876,9.854523,0.4333496,0.14872742,9.796921,0.40701294,-0.013839722,0.0063934326,0.0095825195,14.164734,-32.958984,-20.256042,1,0.0,0.0,0.0,0.0
1.154144287,0.835951,-0.035505388,0.5476544,0.5485941,0.02645662,-0.8356701,0.015181708,0.99901927,0.041594487,0.8255289,-0.042885087,0.56272805,0.5640592,0.030155258,-0.8251836,0.018418858,0.9986248,0.049083762,0.25378418,9.835373,0.54826355,0.14888,9.796921,0.40789795,-0.0021362305,0.0,0.004257202,12.730408,-34.03473,-21.638489,1,0.0,0.0,0.0,0.0
1.158538818,0.83588284,-0.035593346,0.5477526,0.54869616,0.026470989,-0.8356026,0.015242337,0.9990157,0.04165658,0.82574046,-0.042735502,0.5624291,0.5637517,0.030085264,-0.82539624,0.018352894,0.9986333,0.04893483,0.20588684,9.715668,0.5817871,0.1494751,9.796921,0.4085083,-0.007446289,0.026611328,-0.0032043457,12.730408,-34.03473,-21.638489,1,0.0,0.0,0.0,0.0
1.162933349,0.83589655,-0.035575666,0.5477329,0.5486753,0.02644588,-0.8356171,0.015242356,0.99901694,0.04162551,0.8259462,-0.042590875,0.56213784,0.56345224,0.030016666,-0.8256031,0.018289657,0.9986416,0.048790075,0.15322876,9.792282,0.3471527,0.1494751,9.796921,0.40820313,0.003189087,0.023422241,0.007461548,12.730408,-34.03473,-21.638489,1,0.0,0.0,0.0,0.0
1.167327881,0.835906,-0.03556353,0.5477194,0.54866064,0.026400287,-0.8356284,0.0152579425,0.99901867,0.04158046,0.8259983,-0.04252059,0.5620666,0.56337655,0.029962027,-0.82565683,0.018266762,0.9986462,0.04870369,0.19152832,9.840164,0.29447937,0.14962769,9.796921,0.40776062,-0.0032043457,0.015960693,0.003189087,12.730408,-34.03473,-21.638489,1,0.0,0.0,0.0,0.0
1.171722412,0.835862,-0.03562032,0.54778284,0.5487272,0.026452605,-0.835583,0.01527345,0.9990153,0.04165656,0.8261993,-0.04237997,0.56178176,0.56308377,0.02989434,-0.82585895,0.018205784,0.99865425,0.048562158,0.1771698,9.883255,0.6105194,0.14978027,9.796921,0.4085083,-0.006378174,0.02128601,-0.0010681152,12.730408,-34.03473,-21.638489,1,0.0,0.0,0.0,0.0
1.176116943,0.8358493,-0.035636656,0.547801,0.5487473,0.0265325,-0.83556706,0.015242289,0.99901253,0.04173269,0.8263952,-0.04224263,0.5615039,0.56279814,0.029828388,-0.826056,0.018146025,0.998662,0.04842411,0.08618164,9.892838,0.49079895,0.1494751,9.796921,0.40925598,0.0021209717,0.018096924,-0.012786865,12.730408,-34.03473,-21.638489,1,0.0,0.0,0.0,0.0
1.180511474,0.83608836,-0.035634056,0.5474362,0.54838204,0.026505,-0.8358077,0.015273421,0.99901336,0.041701604,0.8265868,-0.042109106,0.56123185,0.56251866,0.029765878,-0.82624865,0.018087033,0.9986695,0.048291236,0.20588684,9.888046,0.3375702,0.14978027,9.796921,0.4089508,-0.008514404,0.022354126,0.0021362305,12.371826,-31.524658,-20.947266,1,0.0,0.0,0.0,0.0
1.184906006,0.83608836,-0.035634056,0.5474362,0.54838204,0.026505,-0.8358077,0.015273421,0.99901336,0.041701604,0.82670677,-0.042040892,0.5610601,0.5623414,0.0296406,-0.82637376,0.018111331,0.9986761,0.048145417,0.17237854,9.797058,0.3950348,0.14978027,9.796921,0.4089508,0.0010528564,0.007461548,0.0053253174,12.371826,-31.524658,-20.947266,1,0.0,0.0,0.0,0.0
1.189300537,0.83606195,-0.03566982,0.5474744,0.5484216,0.026499264,-0.83578205,0.0153045235,0.99901223,0.04171712,0.82689697,-0.041911036,0.5607896,0.56206363,0.029580968,-0.8265649,0.01805349,0.99868333,0.04801708,0.08618164,9.955078,0.59614563,0.15008545,9.796921,0.4091034,0.015975952,0.015960693,-0.0032043457,12.371826,-31.524658,-20.947266,1,0.0,0.0,0.0,0.0
1.193695068,0.8118733,-0.03676113,0.58267516,0.5836338,0.024993567,-0.8116322,0.015273391,0.99901146,0.04174665,0.8270826,-0.04178482,0.56052506,0.56179225,0.029522358,-0.8267515,0.017997637,0.99869037,0.047891814,0.06703186,9.883255,0.49079895,0.14978027,9.796921,0.4093933,0.010650635,0.024490356,0.012786865,13.806152,-32.600403,-21.29364,1,0.0,0.0,0.0,0.0
1.198089599,0.8119094,-0.036714863,0.58262765,0.58358467,0.025010748,-0.8116669,0.015228288,0.99901277,0.0417327,0.8267844,-0.04168593,0.5609724,0.56223285,0.029430004,-0.8264552,0.017942132,0.9986972,0.047769465,0.04309082,9.849731,0.34236145,0.14933777,9.796921,0.40925598,0.008514404,0.01171875,-0.008529663,13.806152,-32.600403,-21.29364,1,0.0,0.0,0.0,0.0
1.202484131,0.81189555,-0.03673266,0.58264595,0.5836041,0.025033865,-0.8116524,0.015228271,0.9990116,0.041762214,0.8263608,-0.041393835,0.56161773,0.56286174,0.029303243,-0.82603145,0.017735388,0.99871314,0.047514055,0.14364624,9.816223,0.49079895,0.14933777,9.796921,0.4095459,0.008514404,0.014892578,-0.008529663,13.806152,-32.600403,-21.29364,1,0.0,0.0,0.0,0.0
1.206878662,0.81277186,-0.036709458,0.5814244,0.58238345,0.025136007,-0.8125255,0.015212684,0.99900985,0.04180882,0.82607675,-0.041301433,0.5620422,0.56328005,0.029215755,-0.8257493,0.017684145,0.9987195,0.047398735,0.0909729,9.749176,0.53868103,0.14918518,9.796921,0.41000366,0.010650635,-0.015975952,-0.0010681152,13.6276245,-32.780457,-21.11969,1,0.0,0.0,0.0,0.0
1.211273193,0.81272286,-0.036771353,0.5814888,0.58245075,0.02516542,-0.81247604,0.015242437,0.9990067,0.041870024,0.8258152,-0.04121041,0.5624332,0.56366515,0.029132502,-0.8254895,0.017633677,0.9987257,0.04728693,0.07182312,9.849731,0.44291687,0.1494751,9.796768,0.41059875,0.017044067,-0.0138549805,-0.0010681152,13.6276245,-32.780457,-21.11969,1,0.0,0.0,0.0,0.0
1.215667724,0.81275415,-0.036731884,0.5814477,0.5824078,0.025138486,-0.81250805,0.0152282305,0.99900895,0.04182434,0.8255577,-0.041122407,0.56281745,0.5640437,0.029051553,-0.8252337,0.017584877,0.9987317,0.047178566,0.13406372,9.8736725,0.29927063,0.14933777,9.796921,0.41015625,-0.0095825195,-0.018112183,0.012786865,13.6276245,-32.780457,-21.11969,1,0.0,0.0,0.0,0.0
1.220062256,0.80365735,-0.037121218,0.5939334,0.59489673,0.024525337,-0.803428,0.015257807,0.99900985,0.04179326,0.82533514,-0.041316856,0.5631294,0.564363,0.028950015,-0.82501894,0.017784584,0.9987266,0.04721117,0.06703186,9.926346,0.27053833,0.14962769,9.796921,0.40985107,-0.008514404,-0.004257202,0.014892578,14.164734,-34.03473,-21.29364,1,0.0,0.0,0.0,0.0
1.224456787,0.8035864,-0.03720738,0.5940239,0.5949912,0.024554815,-0.80335695,0.015304663,0.9990058,0.041869987,0.824913,-0.041234843,0.56375366,0.56498146,0.02885895,-0.8245988,0.017732862,0.9987326,0.047103047,0.004776001,9.768341,0.46206665,0.15008545,9.796768,0.41059875,-0.008514404,-0.026626587,0.012786865,14.164734,-34.03473,-21.29364,1,0.0,0.0,0.0,0.0
1.228851318,0.80347574,-0.03734185,0.5941652,0.5951392,0.024621818,-0.8032454,0.015365246,0.99899924,0.042006638,0.8244976,-0.041156236,0.5643669,0.5655892,0.02877047,-0.82418513,0.017683258,0.9987384,0.046998702,0.16279602,9.768341,0.58657837,0.15068054,9.796768,0.41194153,-0.011703491,-0.024505615,0.020217896,14.164734,-34.03473,-21.29364,1,0.0,0.0,0.0,0.0
1.233245849,0.82476383,-0.036434144,0.56430244,0.5652673,0.025925074,-0.82450026,0.015410376,0.99899966,0.041977093,0.8243166,-0.041383103,0.56461453,0.56584716,0.028753748,-0.8240087,0.017865252,0.9987295,0.0471187,0.1197052,9.902405,0.35673523,0.15112305,9.796768,0.4116516,-0.013839722,-0.02557373,0.012786865,13.806152,-33.317566,-22.329712,1,0.0,0.0,0.0,0.0
1.237640381,0.82465905,-0.036574144,0.56444657,0.56541777,0.02595374,-0.8243963,0.015502088,0.9989939,0.042082652,0.82432574,-0.041283395,0.5646086,0.5658355,0.028698187,-0.8240187,0.017815046,0.99873525,0.047016263,0.15322876,9.768341,0.46206665,0.15202332,9.796768,0.4126892,0.0,-0.027694702,0.0095825195,13.806152,-33.317566,-22.329712,1,0.0,0.0,0.0,0.0
1.242034912,0.8245362,-0.036737997,0.5646152,0.5655938,0.025986917,-0.82427436,0.015609585,0.99898696,0.04220594,0.82433254,-0.04118869,0.5646056,0.565827,0.028644193,-0.8240263,0.017767893,0.99874073,0.046918012,0.1819458,9.835373,0.4955902,0.15307617,9.796616,0.41389465,-0.018096924,-0.02130127,0.02128601,13.806152,-33.317566,-22.329712,1,0.0,0.0,0.0,0.0
1.246429443,0.82193387,-0.03690665,0.568386,0.56936824,0.025838446,-0.8216765,0.015639111,0.99898463,0.042250965,0.82433665,-0.041098885,0.56460595,0.5658223,0.028591482,-0.82403135,0.01772385,0.9987459,0.046823677,0.25856018,9.787491,0.51953125,0.15336609,9.796616,0.41433716,-0.02130127,-0.015975952,0.019165039,12.910461,-32.421875,-20.774841,1,0.0,0.0,0.0,0.0
1.250823974,0.82188106,-0.036973827,0.56845796,0.56944317,0.025846854,-0.8216243,0.015685748,0.99898195,0.04229753,0.82433665,-0.041098885,0.56460595,0.5658223,0.028591482,-0.82403135,0.01772385,0.9987459,0.046823677,0.25856018,9.787491,0.51953125,0.15382385,9.796616,0.41479492,-0.02130127,-0.015975952,0.019165039,12.910461,-32.421875,-20.774841,1,0.0,0.0,0.0,0.0
1.255218506,0.8218371,-0.037029617,0.5685178,0.5695053,0.025842644,-0.82158136,0.015730841,0.99898,0.04232701,0.8243902,-0.040994905,0.5645355,0.5657429,0.02835871,-0.82409394,0.017774154,0.9987568,0.046571217,0.2681427,9.82579,0.51474,0.15426636,9.796616,0.41508484,-0.008514404,-0.010650635,0.0053253174,12.910461,-32.421875,-20.774841,1,0.0,0.0,0.0,0.0
1.259613037,0.81760466,-0.037280425,0.57457167,0.575564,0.025600316,-0.81735575,0.015762156,0.9989768,0.04238822,0.8243394,-0.040915407,0.5646154,0.5658182,0.028308716,-0.82404387,0.017732553,0.99876153,0.04648667,0.24420166,9.701294,0.57699585,0.15457153,9.796463,0.41567993,-0.015975952,0.0063934326,0.0053253174,12.910461,-31.704712,-20.428467,1,0.0,0.0,0.0,0.0
1.264007568,0.817585,-0.037305433,0.57459813,0.5755913,0.025582068,-0.8173373,0.015791714,0.99897647,0.042388204,0.8242059,-0.040842395,0.5648155,0.5660139,0.02825395,-0.8239114,0.017692246,0.99876606,0.046404433,0.22505188,9.821014,0.4046173,0.15486145,9.796463,0.41567993,0.0,0.01171875,0.0021362305,12.910461,-31.704712,-20.428467,1,0.0,0.0,0.0,0.0
1.268402099,0.81753635,-0.03736732,0.5746634,0.57565874,0.025555886,-0.8172906,0.015853927,0.99897474,0.04240369,0.8238753,-0.040830754,0.5652983,0.5664954,0.02822389,-0.82358146,0.017672535,0.9987674,0.046383403,0.27293396,9.854523,0.51953125,0.1554718,9.796463,0.41583252,-0.0032043457,0.02128601,0.0021362305,12.910461,-31.704712,-20.428467,1,0.0,0.0,0.0,0.0
1.272796631,0.83310354,-0.036562454,0.55190754,0.5528918,0.02656024,-0.8328297,0.015791496,0.99897826,0.0423425,0.82374966,-0.040761672,0.56548643,0.5666793,0.02817014,-0.8234567,0.017635642,0.9987717,0.04630394,0.15800476,9.696503,0.3375702,0.15486145,9.796616,0.41523743,0.007446289,0.023422241,0.004257202,11.834717,-33.49762,-20.083618,1,0.0,0.0,0.0,0.0
1.277191162,0.8331432,-0.036514446,0.5518508,0.5528333,0.026574789,-0.8328681,0.015746398,0.99897975,0.042326998,0.8239391,-0.040676445,0.56521654,0.566405,0.02813953,-0.8236465,0.017598083,0.998776,0.0462246,0.1771698,9.8736725,0.509964,0.15441895,9.796616,0.41508484,0.008514404,0.031936646,-0.01171875,11.834717,-33.49762,-20.083618,1,0.0,0.0,0.0,0.0
1.281585693,0.83315784,-0.0364967,0.5518298,0.5528129,0.026659742,-0.83287895,0.015685689,0.99897814,0.042387616,0.8241255,-0.040592786,0.5649508,0.56613505,0.028110404,-0.8238331,0.017560685,0.99878025,0.046147496,0.22026062,9.911987,0.47164917,0.15382385,9.796616,0.41567993,0.010650635,0.039398193,-0.012786865,11.834717,-33.49762,-20.083618,1,0.0,0.0,0.0,0.0
1.285980224,0.77719784,-0.038807366,0.62805855,0.629062,0.023110494,-0.7770115,0.01563903,0.9989794,0.042373665,0.8240526,-0.040339377,0.5650753,0.5662515,0.028328488,-0.8237455,0.017221654,0.99878436,0.0461864,0.2681427,9.888046,0.4333496,0.15336609,9.796616,0.4155426,-0.006378174,0.028747559,-0.017044067,14.164734,-32.958984,-19.56482,1,0.0,0.0,0.0,0.0
1.290374756,0.7771691,-0.038839635,0.62809205,0.629097,0.02312228,-0.7769828,0.01565481,0.9989779,0.042403825,0.8231643,-0.04031449,0.56637025,0.567543,0.02822067,-0.8228599,0.01718983,0.9987884,0.046110455,0.1819458,9.821014,0.5243225,0.15351868,9.796463,0.41583252,0.0053253174,0.034072876,-0.019180298,14.164734,-32.958984,-19.56482,1,0.0,0.0,0.0,0.0
1.294769287,0.77713096,-0.038882382,0.6281365,0.62914366,0.023146419,-0.77694416,0.015670335,0.99897563,0.04245041,0.82229125,-0.04029056,0.5676389,0.5688082,0.02811545,-0.82198954,0.017159,0.99879235,0.046036687,0.20588684,9.854523,0.5243225,0.15367126,9.796463,0.41629028,0.010650635,0.003189087,-0.020248413,14.164734,-32.958984,-19.56482,1,0.0,0.0,0.0,0.0
1.299163818,0.82016236,-0.037143096,0.5709239,0.5719162,0.02589387,-0.8199032,0.015670314,0.9989744,0.042479917,0.82143307,-0.04026784,0.56888145,0.5700476,0.028013095,-0.821134,0.01712916,0.99879616,0.045965467,0.15800476,9.797058,0.50038147,0.15367126,9.796463,0.4165802,0.014907837,0.015960693,-0.0063934326,13.088989,-32.958984,-20.947266,1,0.0,0.0,0.0,0.0
1.303558349,0.8201486,-0.037160326,0.57094246,0.571935,0.025862474,-0.8198911,0.015701437,0.9989746,0.042464368,0.821308,-0.039985098,0.5690821,0.57023627,0.028082162,-0.8210006,0.016846735,0.9988056,0.04586506,0.20588684,9.854523,0.38067627,0.15397644,9.796463,0.4164276,0.0021209717,0.01171875,-0.014907837,13.088989,-32.958984,-20.947266,1,0.0,0.0,0.0,0.0
1.307952881,0.8201656,-0.037139084,0.57091963,0.57191217,0.025915712,-0.81990546,0.01565475,0.998974,0.042495463,0.8212849,-0.039928734,0.5691194,0.57027024,0.028037494,-0.8209785,0.016823953,0.9988091,0.04579694,0.04788208,9.926346,0.4812317,0.15351868,9.796463,0.4167328,0.01171875,0.017028809,-0.004257202,13.088989,-32.958984,-20.947266,1,0.0,0.0,0.0,0.0
1.312347412,0.81497383,-0.037367642,0.5782917,0.5792867,0.025601346,-0.81472176,0.015639182,0.9989736,0.042511005,0.8212626,-0.03987289,0.5691554,0.57030296,0.027994778,-0.82095724,0.016800556,0.9988125,0.04573069,0.12927246,9.749176,0.45729065,0.15336609,9.796463,0.41688538,0.006378174,-0.0010681152,-0.0032043457,12.910461,-34.573364,-20.428467,1,0.0,0.0,0.0,0.0
1.316741943,0.8150706,-0.037255116,0.5781625,0.5791517,0.025533136,-0.81481993,0.01559391,0.9989796,0.042387675,0.82113785,-0.039823655,0.569339,0.5704833,0.02794658,-0.82083356,0.016777517,0.99881583,0.045666724,0.05265808,9.849731,0.49079895,0.15292358,9.796616,0.41567993,0.003189087,-0.0010681152,-0.018112183,12.910461,-34.573364,-20.428467,1,0.0,0.0,0.0,0.0
1.321136474,0.8151413,-0.03717298,0.57806814,0.57905215,0.025426134,-0.81489384,0.015593999,0.9989853,0.04225099,0.82109,-0.039415296,0.5694363,0.57055473,0.027506083,-0.8207989,0.016689068,0.99884427,0.04507355,0.10533142,9.844955,0.2896881,0.15292358,9.796616,0.41433716,0.031951904,-0.007461548,-0.004257202,12.910461,-34.573364,-20.428467,1,0.0,0.0,0.0,0.0
1.325531006,0.77532387,-0.038704604,0.6303768,0.6313732,0.022976197,-0.7751387,0.015517774,0.9989865,0.042251043,0.82097197,-0.03937065,0.5696096,0.57072526,0.027463945,-0.8206817,0.016667046,0.9988472,0.04501695,0.03829956,9.720444,0.42855835,0.1521759,9.796616,0.41433716,0.02130127,-0.028762817,0.0021362305,13.269043,-33.139038,-18.354797,1,0.0,0.0,0.0,0.0
1.329925537,0.7753271,-0.038701225,0.63037306,0.6313682,0.022900939,-0.7751451,0.015562928,0.99898845,0.04219044,0.8201046,-0.03936164,0.5708583,0.57197154,0.027371878,-0.8198167,0.016643865,0.99885005,0.044961542,0.2106781,9.8736725,0.41897583,0.15261841,9.796616,0.41374207,0.0010528564,-0.036224365,-0.0063934326,13.269043,-33.139038,-18.354797,1,0.0,0.0,0.0,0.0
1.334320068,0.77532905,-0.038699094,0.6303707,0.63136446,0.02282463,-0.7751502,0.015609635,0.9989902,0.042129833,0.81964207,-0.039232034,0.5715311,0.5726329,0.02704554,-0.8193656,0.016688015,0.99886405,0.044633217,0.10533142,9.854523,0.44770813,0.15307617,9.796616,0.41314697,0.015975952,-0.041549683,0.0021362305,13.269043,-33.139038,-18.354797,1,0.0,0.0,0.0,0.0
1.338714599,0.8236733,-0.036745317,0.5658728,0.56684756,0.025749464,-0.8234201,0.01568592,0.99899286,0.042038143,0.81879854,-0.039225277,0.5727393,0.57383895,0.026959168,-0.8185243,0.016666269,0.9988667,0.044583123,0.22026062,9.821014,0.47644043,0.15382385,9.796616,0.4122467,0.014907837,-0.042617798,0.010650635,13.269043,-33.139038,-21.466064,1,0.0,0.0,0.0,0.0
1.343109131,0.82367754,-0.036739767,0.5658669,0.5668409,0.02571492,-0.82342577,0.015701253,0.998994,0.042006414,0.81889665,-0.03917495,0.57260245,0.57369953,0.026935063,-0.8186228,0.016646424,0.9988693,0.04453168,0.09576416,9.792282,0.45729065,0.15397644,9.796768,0.41194153,0.024490356,-0.054336548,0.0095825195,13.269043,-33.139038,-21.466064,1,0.0,0.0,0.0,0.0
1.347503662,0.82370305,-0.03670707,0.56583214,0.5668037,0.02564589,-0.82345366,0.015715303,0.9989969,0.041930296,0.81899285,-0.03912552,0.5724682,0.57356274,0.026910696,-0.81871945,0.016627308,0.99887186,0.044480607,0.10533142,9.787491,0.4524994,0.15411377,9.796768,0.41119385,0.012771606,-0.06285095,0.007461548,13.269043,-33.139038,-21.466064,1,0.0,0.0,0.0,0.0
1.351898193,0.8451428,-0.035704654,0.5333469,0.53430736,0.026950333,-0.8448606,0.015791578,0.99899894,0.04185414,0.8195859,-0.03895414,0.5716306,0.5727124,0.026587801,-0.8193251,0.016717702,0.99888724,0.044100504,0.1771698,9.7444,0.4812317,0.15486145,9.796768,0.41044617,0.019165039,-0.053268433,0.004257202,11.654663,-31.88324,-20.602417,1,0.0,0.0,0.0,0.0
1.356292724,0.8450731,-0.03579733,0.5334509,0.5344151,0.026944466,-0.8447924,0.01586777,0.9989957,0.041900683,0.8201144,-0.038888186,0.57087666,0.5719559,0.026597159,-0.81985307,0.016698899,0.9988895,0.04405504,0.20588684,9.849731,0.54826355,0.15560913,9.796768,0.41090393,0.022369385,-0.059661865,0.01171875,11.654663,-31.88324,-20.602417,1,0.0,0.0,0.0,0.0
1.360687256,0.845127,-0.035725646,0.53337044,0.5343304,0.02686486,-0.84484863,0.01585384,0.9990005,0.041793518,0.8206301,-0.038826417,0.57013935,0.5712162,0.026606644,-0.82036823,0.016682466,0.9988917,0.044012494,0.0622406,9.806641,0.32800293,0.1554718,9.796768,0.40985107,0.003189087,-0.043670654,0.012786865,11.654663,-31.88324,-20.602417,1,0.0,0.0,0.0,0.0
1.365081787,0.8105101,-0.037365865,0.58453166,0.5855085,0.024571504,-0.8102939,0.01591451,0.99899954,0.04179348,0.82113594,-0.038763434,0.56941473,0.5704893,0.026613638,-0.82087374,0.016665688,0.9988939,0.043967538,0.22984314,9.854523,0.3663025,0.1560669,9.796768,0.40985107,0.015975952,-0.039413452,0.0010681152,13.088989,-32.958984,-20.256042,1,0.0,0.0,0.0,0.0
1.369476318,0.8105365,-0.037334,0.5844969,0.58547217,0.024557069,-0.8103204,0.015898973,0.9990011,0.041762423,0.8212306,-0.03886751,0.5692712,0.57034916,0.026545953,-0.8209733,0.016797343,0.9988917,0.0439684,0.14364624,9.777908,0.38067627,0.1559143,9.796768,0.4095459,-0.0032043457,-0.03302002,0.007461548,13.088989,-32.958984,-20.256042,1,0.0,0.0,0.0,0.0
1.373870849,0.8105512,-0.037316334,0.5844777,0.5854507,0.024457281,-0.810339,0.015944146,0.9990041,0.04167075,0.82101953,-0.038837206,0.5695776,0.57065344,0.026505442,-0.82076305,0.016779238,0.998894,0.043924075,0.12449646,9.773117,0.24659729,0.15635681,9.796768,0.40864563,0.003189087,-0.043670654,-0.004257202,13.088989,-32.958984,-20.256042,1,0.0,0.0,0.0,0.0
1.378265381,0.8105258,-0.037347,0.5845111,0.5854847,0.02441705,-0.8103157,0.015990824,0.999004,0.04165674,0.8208128,-0.03880698,0.5698775,0.57095134,0.02646354,-0.82055736,0.016762372,0.99889624,0.043878507,0.13885498,9.911987,0.3950348,0.15681458,9.796768,0.4085083,0.008514404,-0.02557373,0.01171875,13.088989,-32.958984,-20.256042,1,0.0,0.0,0.0,0.0
1.382659912,0.8105227,-0.037350632,0.58451504,0.5854884,0.02439516,-0.8103135,0.016006388,0.99900436,0.041641194,0.82060957,-0.038778406,0.570172,0.57124376,0.02642195,-0.82035506,0.016747005,0.99889845,0.043834027,0.19631958,9.854523,0.375885,0.15696716,9.796768,0.4083557,0.0021209717,-0.030899048,0.01171875,13.088989,-32.958984,-20.256042,1,0.0,0.0,0.0,0.0
1.387054443,0.8105532,-0.037313957,0.5844751,0.58544624,0.024347946,-0.81034553,0.01600643,0.999007,0.04158062,0.8204896,-0.038714603,0.5703491,0.5714159,0.02629874,-0.8202392,0.01675577,0.99890417,0.043699984,0.14364624,9.897629,0.2753296,0.15696716,9.796768,0.40776062,0.0053253174,-0.008529663,0.0010681152,13.088989,-32.958984,-20.256042,1,0.0,0.0,0.0,0.0
1.391448974,0.79886144,-0.037803754,0.60032606,0.60130095,0.02355614,-0.7986754,0.016051563,0.9990075,0.041549522,0.8202932,-0.03868741,0.5706332,0.5716981,0.026259294,-0.8200436,0.01674094,0.99890625,0.04365784,0.28729248,9.892838,0.32321167,0.15740967,9.796768,0.40745544,-0.0053253174,-0.020248413,0.0010681152,14.164734,-33.317566,-20.947266,1,0.0,0.0,0.0,0.0
1.395843506,0.79892987,-0.037720643,0.6002401,0.6012107,0.023505434,-0.7987446,0.01602026,0.99901175,0.04145725,0.81987524,-0.038671453,0.5712347,0.5722978,0.02620433,-0.81962705,0.016727345,0.99890834,0.043615866,0.28729248,9.758759,0.37109375,0.15710449,9.796921,0.40655518,0.007446289,-0.004257202,0.0010681152,14.164734,-33.317566,-20.947266,1,0.0,0.0,0.0,0.0
1.400238037,0.79892987,-0.037720643,0.6002401,0.6012107,0.023505434,-0.7987446,0.01602026,0.99901175,0.04145725,0.8194665,-0.03865383,0.57182217,0.5728834,0.026149226,-0.81921965,0.016713269,0.9989104,0.043572553,0.16758728,9.710876,0.39024353,0.15710449,9.796921,0.40655518,0.018096924,-0.0021362305,-0.02130127,14.164734,-33.317566,-20.947266,1,0.0,0.0,0.0,0.0
1.404632568,0.8477757,-0.035593826,0.52915925,0.5301116,0.026644457,-0.84750926,0.01606693,0.9990111,0.04145722,0.8190214,-0.038407106,0.572476,0.57352453,0.02604209,-0.81877434,0.01653828,0.99892277,0.04335645,0.296875,9.840164,0.4381256,0.15756226,9.796921,0.40655518,0.010650635,0.0053253174,-0.0095825195,12.193298,-33.8562,-21.812439,1,0.0,0.0,0.0,0.0
1.409027099,0.8477718,-0.035598967,0.5291651,0.5301173,0.02662279,-0.8475063,0.016082495,0.99901146,0.04144168,0.8196186,-0.038350735,0.5716247,0.5726712,0.026056234,-0.819371,0.016529093,0.99892455,0.043318532,0.19631958,9.849731,0.37109375,0.15771484,9.796921,0.4064026,0.008514404,-0.004257202,-0.018112183,12.193298,-33.8562,-21.812439,1,0.0,0.0,0.0,0.0
1.413421631,0.8477667,-0.03560576,0.5291727,0.53012633,0.026691634,-0.8474985,0.016051343,0.99900943,0.04150383,0.8202027,-0.038295787,0.5707898,0.57183444,0.026069693,-0.81995475,0.016520496,0.99892634,0.04328128,0.22984314,9.777908,0.44291687,0.15740967,9.796921,0.40701294,0.003189087,0.010650635,-0.007461548,12.193298,-33.8562,-21.812439,1,0.0,0.0,0.0,0.0
1.417816162,0.81684315,-0.03698593,0.575673,0.5766378,0.024662402,-0.8166276,0.016006252,0.9990114,0.041472796,0.8205428,-0.03813908,0.5703111,0.571353,0.026304288,-0.82028276,0.016283201,0.99892616,0.043374673,0.19152832,9.830582,0.45729065,0.15696716,9.796921,0.40670776,-0.007446289,0.025543213,-0.012786865,13.806152,-31.88324,-21.638489,1,0.0,0.0,0.0,0.0
1.422210693,0.81689256,-0.036919817,0.575607,0.57656896,0.02465558,-0.8166764,0.015959615,0.999014,0.04142778,0.8204692,-0.038116634,0.5704186,0.57145894,0.026271176,-0.82021,0.016278077,0.9989279,0.04333678,0.1819458,9.806641,0.50038147,0.1565094,9.796921,0.40626526,0.0095825195,0.018096924,-0.0138549805,13.806152,-31.88324,-21.638489,1,0.0,0.0,0.0,0.0
1.426605224,0.8169308,-0.036868688,0.5755561,0.5765165,0.024692927,-0.8167122,0.015898947,0.999015,0.04142782,0.820398,-0.03809315,0.57052267,0.57156134,0.026238512,-0.8201397,0.016272042,0.9989297,0.043298595,0.11012268,9.864105,0.44770813,0.1559143,9.796921,0.40626526,0.020233154,0.020217896,-0.010650635,13.806152,-31.88324,-21.638489,1,0.0,0.0,0.0,0.0
1.430999756,0.83601415,-0.03602614,0.5475239,0.5484775,0.025953874,-0.8357624,0.015898928,0.9990137,0.041457333,0.82032895,-0.0380686,0.5706235,0.57166064,0.026206976,-0.8200716,0.016264658,0.9989314,0.04326066,0.17237854,9.811432,0.50038147,0.1559143,9.796921,0.40655518,0.006378174,0.030883789,-0.010650635,12.193298,-32.780457,-20.774841,1,0.0,0.0,0.0,0.0
1.435394287,0.83602107,-0.036017314,0.5475141,0.54846704,0.025941323,-0.8357697,0.015898937,0.9990144,0.0414418,0.8206083,-0.037736945,0.5702437,0.5712668,0.026213618,-0.82034576,0.016009191,0.9989438,0.04306898,0.1819458,9.82579,0.5243225,0.1559143,9.796921,0.4064026,0.0095825195,0.0053253174,-0.014907837,12.193298,-32.780457,-20.774841,1,0.0,0.0,0.0,0.0
1.439788818,0.83603513,-0.03599918,0.5474937,0.5484464,0.025972273,-0.83578223,0.015867816,0.9990142,0.04145735,0.8209227,-0.037702773,0.5697934,0.57081497,0.02620896,-0.82066035,0.016007476,0.99894524,0.043036837,0.13406372,9.883255,0.44770813,0.15560913,9.796921,0.40655518,0.012771606,0.027679443,-0.0010681152,12.193298,-32.780457,-20.774841,1,0.0,0.0,0.0,0.0
1.444183349,0.8102244,-0.037034802,0.5849486,0.58590746,0.024311623,-0.81001323,0.01577763,0.9990182,0.041396834,0.82123077,-0.037668556,0.5693515,0.5703717,0.026204763,-0.8209686,0.016004981,0.99894667,0.043005235,0.12927246,9.835373,0.49079895,0.15472412,9.796921,0.40596008,0.0021209717,0.029815674,-0.004257202,14.164734,-31.88324,-21.638489,1,0.0,0.0,0.0,0.0
1.448577881,0.8102156,-0.037046496,0.58496004,0.58591926,0.02430288,-0.810005,0.015791632,0.999018,0.041396827,0.8210136,-0.037656058,0.5696655,0.5706844,0.026166003,-0.82075256,0.016000435,0.99894816,0.042972367,0.21546936,9.916779,0.4333496,0.15486145,9.796921,0.40596008,0.022369385,0.01171875,-0.019180298,14.164734,-31.88324,-21.638489,1,0.0,0.0,0.0,0.0
1.452972412,0.8101987,-0.037068866,0.584982,0.58594215,0.024305318,-0.8099884,0.01580718,0.9990171,0.04141235,0.8206858,-0.037418745,0.5701531,0.5711599,0.026049625,-0.82042533,0.015847012,0.9989601,0.042750645,0.16279602,9.7444,0.44291687,0.15501404,9.796921,0.40611267,0.01171875,0.012786865,-0.008529663,14.164734,-31.88324,-21.638489,1,0.0,0.0,0.0,0.0
1.457366943,0.8152048,-0.036791254,0.57800305,0.5789587,0.024632707,-0.8149847,0.01574653,0.9990193,0.04138132,0.8204787,-0.037412588,0.57045156,0.57145745,0.026014479,-0.8202193,0.015846526,0.9989612,0.04272403,0.028717041,9.883255,0.32800293,0.15441895,9.796921,0.4058075,0.0053253174,-0.0063934326,-0.0032043457,13.986206,-32.780457,-21.812439,1,0.0,0.0,0.0,0.0
1.461761474,0.8152337,-0.036753297,0.5779646,0.57891905,0.024660606,-0.81501186,0.015701417,0.99902,0.041381348,0.8203739,-0.037400916,0.570603,0.5716079,0.025986828,-0.8201153,0.015844902,0.9989624,0.042697575,0.028717041,9.816223,0.38067627,0.15397644,9.796921,0.4058075,0.012771606,0.012786865,-0.010650635,13.986206,-32.780457,-21.812439,1,0.0,0.0,0.0,0.0
1.466156006,0.81521827,-0.036773622,0.57798517,0.57893974,0.02460948,-0.81499887,0.01574655,0.9990206,0.04135181,0.8202718,-0.03738814,0.57075065,0.57175446,0.025959928,-0.820014,0.015842149,0.9989636,0.042671032,0.24899292,9.864105,0.3375702,0.15441895,9.796921,0.40551758,0.013839722,0.0063934326,-0.01171875,13.986206,-32.780457,-21.812439,1,0.0,0.0,0.0,0.0
1.470550537,0.8298799,-0.03613882,0.55677056,0.55772036,0.025595888,-0.82963425,0.015730964,0.99901897,0.041396867,0.82029134,-0.03723631,0.5707324,0.5717262,0.025731768,-0.8200408,0.015849343,0.99897516,0.042396523,0.1197052,9.840164,0.52911377,0.15426636,9.796921,0.40596008,0.014907837,-0.012786865,0.0,13.269043,-31.34613,-21.812439,1,0.0,0.0,0.0,0.0
