Time,Rot1,Rot2,Rot3,Rot4,Rot5,Rot6,Rot7,Rot8,Rot9,FRot1,FRot2,FRot3,FRot4,FRot5,FRot6,FRot7,FRot8,FRot9,AccX,AccY,AccZ,GravX,GravY,GravZ,GyroX,GyroY,GyroZ,MagX,MagY,MagZ,Imid
0.0,0.006414782,-0.83315015,0.55300957,-0.020007592,-0.5530172,-0.83292955,0.9997793,-0.005721329,-0.020216815,0.0,0.0,0.0,0.0,0.0,0.0,0.0,0.0,0.0,9.756363,-0.15083313,-0.17477417,9.804398,-0.056106567,-0.19825745,0.0,0.0,0.0,-28.866577,-12.519836,-18.527222,0,0.0,0.0,0.0,0.0
0.004394532,0.006406282,-0.83314425,0.55301875,-0.020050647,-0.5530259,-0.8329228,0.99977845,-0.005752444,-0.020247918,0.9985639,-0.043122355,-0.031790238,0.04310416,0.9990698,-0.0012576706,0.0318149,-1.14427094E-4,0.9994938,9.789886,-0.15560913,-0.2896881,9.804398,-0.056411743,-0.19856262,0.0,0.0,0.0,-28.866577,-12.519836,-18.527222,0,0.0,0.0,0.0,0.0
0.008789063,0.006518011,-0.8332234,0.55289817,-0.020139785,-0.55290717,-0.8329995,0.99977595,-0.00570575,-0.020384792,0.9943768,-0.085305154,-0.06275291,0.08515015,0.9963549,-0.005145164,0.062963076,-2.2718795E-4,0.9980159,9.832977,-0.002380371,-0.2753296,9.804398,-0.05595398,-0.1999054,0.0010528564,-0.015975952,-0.0021362305,-28.866577,-12.519836,-18.527222,0,0.0,0.0,0.0,0.0
0.013183594,0.0045910603,-0.8813069,0.47252193,-0.0206687,-0.4725096,-0.881083,0.9997758,-0.005721309,-0.02038479,0.987605,-0.12639019,-0.09306934,0.12583736,0.9919806,-0.01180863,0.093815476,-4.933781E-5,0.9955896,9.737213,-0.09336853,-0.21307373,9.804398,-0.056106567,-0.1999054,0.017044067,-0.0234375,-0.007461548,-28.686523,-10.546875,-19.392395,0,0.0,0.0,0.0,0.0
0.017578125,0.004610613,-0.88131887,0.4724995,-0.020640409,-0.47248772,-0.8810955,0.99977636,-0.005690193,-0.020369241,0.97877955,-0.16469948,-0.1219204,0.16345681,0.9863438,-0.020194476,0.12358145,-1.6277775E-4,0.9923344,9.761154,0.01675415,-0.16040039,9.804398,-0.05580139,-0.19975281,0.004257202,-0.013839722,-0.012786865,-28.686523,-10.546875,-19.392395,0,0.0,0.0,0.0,0.0
0.021972657,0.0047231736,-0.8813875,0.47237033,-0.020665618,-0.4723607,-0.8811629,0.99977523,-0.00559994,-0.02044546,0.96789926,-0.20200288,-0.14955224,0.19967653,0.97938484,-0.030570067,0.15264444,-2.7332656E-4,0.98828113,9.923965,0.01675415,-0.08378601,9.804398,-0.05491638,-0.20050049,0.004257202,-0.01171875,-0.0063934326,-28.686523,-10.546875,-19.392395,0,0.0,0.0,0.0,0.0
0.026367188,0.006657048,-0.83253366,0.5539346,-0.020111881,-0.55394626,-0.83230954,0.9997755,-0.0055999416,-0.020431463,0.9551266,-0.23804948,-0.17625435,0.2341281,0.97125304,-0.043030363,0.18143092,-1.6664986E-4,0.9834037,9.770737,-0.06463623,-0.13645935,9.804398,-0.05491638,-0.20036316,0.010650635,-0.026626587,-0.015975952,-27.432251,-13.2369995,-19.56482,0,0.0,0.0,0.0,0.0
0.030761719,0.0067152185,-0.83257073,0.55387807,-0.020145588,-0.55389076,-0.8323456,0.99977446,-0.0055688163,-0.020492123,0.9401507,-0.27511367,-0.20107004,0.2690896,0.96141165,-0.05725735,0.20906335,-2.7531618E-4,0.97790205,9.832977,0.06463623,-0.04069519,9.804398,-0.054611206,-0.20095825,-0.004272461,-0.020233154,-0.01171875,-27.432251,-13.2369995,-19.56482,0,0.0,0.0,0.0,0.0
0.03515625,0.0068428814,-0.83265203,0.5537541,-0.020261433,-0.5537688,-0.83242375,0.99977124,-0.0055236756,-0.020660102,0.9235258,-0.31104314,-0.2243929,0.3023439,0.9503957,-0.073049,0.23598346,-3.8118666E-4,0.971757,9.832977,-0.007171631,-0.3040619,9.804398,-0.0541687,-0.2026062,-0.018096924,-0.027694702,0.003189087,-27.432251,-13.2369995,-19.56482,0,0.0,0.0,0.0,0.0
0.039550782,0.0066366647,-0.84021294,0.542216,-0.020523138,-0.54222816,-0.8399806,0.9997673,-0.0055533033,-0.020842392,0.90542877,-0.34582543,-0.24617785,0.3338459,0.93829876,-0.09023508,0.26219395,-4.840369E-4,0.96501505,9.828186,-0.08378601,-0.2753296,9.804245,-0.05445862,-0.20439148,0.008514404,-0.031951904,-0.007461548,-28.327942,-11.62262,-17.663574,0,0.0,0.0,0.0,0.0
0.043945313,0.006685114,-0.84024787,0.5421613,-0.020600662,-0.5421741,-0.8400137,0.99976546,-0.005553293,-0.020934157,0.88595337,-0.37922487,-0.26697406,0.3633553,0.9253041,-0.10855929,0.2882006,-8.279736E-4,0.95756966,9.794678,-0.03590393,-0.13645935,9.804245,-0.05445862,-0.20529175,-0.013839722,-0.031951904,0.0053253174,-28.327942,-11.62262,-17.663574,0,0.0,0.0,0.0,0.0
0.048339844,0.006749521,-0.84029424,0.54208845,-0.020649238,-0.54210234,-0.8400587,0.999764,-0.005523721,-0.021010369,0.8655167,-0.4114604,-0.28562418,0.39105108,0.9114272,-0.12798269,0.31298548,-9.224805E-4,0.94975746,9.765945,-0.007171631,-0.10772705,9.804245,-0.0541687,-0.20603943,0.008514404,-0.028762817,0.0021209717,-28.327942,-11.62262,-17.663574,0,0.0,0.0,0.0,0.0
0.052734375,0.0068105212,-0.84043115,0.5418756,-0.02080811,-0.54188997,-0.84019184,0.99976027,-0.005553264,-0.021178335,0.84411037,-0.44255817,-0.3026879,0.41696614,0.8967392,-0.14831723,0.33707112,-0.0010145057,0.94147867,9.856918,-0.13645935,-0.31362915,9.804245,-0.05445862,-0.20768738,-0.007446289,-0.0234375,-0.0021362305,-30.12085,-13.415527,-20.428467,0,0.0,0.0,0.0,0.0
0.057128907,0.0068413573,-0.8404515,0.5418435,-0.020969324,-0.54185754,-0.8402086,0.9997567,-0.0056139273,-0.021330744,0.8218814,-0.47252196,-0.31817287,0.44110674,0.8813182,-0.16941974,0.36046612,-0.0011052813,0.9327717,9.890442,-0.14604187,-0.20828247,9.804245,-0.05505371,-0.20918274,-0.007446289,-0.029830933,-0.0032043457,-30.12085,-13.415527,-20.428467,0,0.0,0.0,0.0,0.0
0.061523438,0.006893643,-0.84048617,0.5417892,-0.021081772,-0.5418037,-0.84024054,0.99975395,-0.0056295586,-0.02145394,0.7987079,-0.5014915,-0.33252344,0.4634851,0.8651618,-0.19151142,0.38372794,-0.0011579599,0.92344546,9.909592,-0.15083313,-0.23222351,9.804092,-0.0552063,-0.21038818,0.0053253174,-0.036209106,0.007446289,-30.12085,-13.415527,-20.428467,0,0.0,0.0,0.0,0.0
0.065917969,0.006784139,-0.84392095,0.5364247,-0.02110941,-0.53643835,-0.8436755,0.99975413,-0.005599996,-0.021453945,0.7752326,-0.5292217,-0.34487495,0.4841302,0.84848267,-0.2137642,0.40574905,-0.0012473923,0.91398364,9.828186,0.01675415,-0.20350647,9.804092,-0.05491638,-0.21038818,-0.006378174,-0.024505615,-0.007461548,-29.045105,-12.339783,-19.04602,0,0.0,0.0,0.0,0.0
0.0703125,0.0068414137,-0.84395987,0.5363625,-0.021144394,-0.5363772,-0.84371334,0.999753,-0.00556887,-0.021514604,0.75138885,-0.55575395,-0.35574207,0.50298834,0.8313458,-0.23636186,0.4271037,-0.0013344449,0.9042016,9.832977,-0.06942749,-0.19392395,9.804092,-0.054611206,-0.21098328,0.0,-0.02130127,0.0053253174,-29.045105,-12.339783,-19.04602,0,0.0,0.0,0.0,0.0
0.074707032,0.006828626,-0.84395117,0.5363764,-0.02115263,-0.5363908,-0.84370446,0.9997529,-0.0055844295,-0.021514602,0.7272289,-0.5812166,-0.36513755,0.52020174,0.81374764,-0.25923896,0.44780383,-0.0014191337,0.8941307,9.828186,-0.10293579,-0.18913269,9.804092,-0.054763794,-0.21098328,0.015975952,-0.017044067,-0.007461548,-29.045105,-12.339783,-19.04602,0,0.0,0.0,0.0,0.0
0.079101563,0.0066770324,-0.84783137,0.5302238,-0.021235052,-0.5302362,-0.8475839,0.99975216,-0.0055999854,-0.02154415,0.7027093,-0.6056921,-0.37327832,0.53586155,0.79569745,-0.28234354,0.46802986,-0.0016200816,0.88371116,9.895233,-0.09336853,-0.29927063,9.804092,-0.05491638,-0.2112732,-0.004272461,-0.01171875,0.007446289,-27.610779,-11.264038,-17.663574,0,0.0,0.0,0.0,0.0
0.083496094,0.0066799456,-0.8478334,0.53022057,-0.021324923,-0.53023255,-0.84758395,0.99975026,-0.005645098,-0.021621907,0.67829806,-0.6289611,-0.37989426,0.549823,0.7774349,-0.30543345,0.48744884,-0.00169968,0.87314993,9.8138275,-0.16998291,-0.39024353,9.804092,-0.055358887,-0.21203613,0.0,-0.007461548,-0.007461548,-27.610779,-11.264038,-17.663574,0,0.0,0.0,0.0,0.0
0.087890625,0.0066615017,-0.8478207,0.53024125,-0.021353127,-0.5302527,-0.8475708,0.9997498,-0.0056762146,-0.021635901,0.65386045,-0.6512308,-0.38518173,0.56229687,0.75887764,-0.3285225,0.5062497,-0.0017785887,0.8623851,9.871292,-0.12689209,-0.2609558,9.804092,-0.055664063,-0.21217346,-0.010650635,-0.012786865,0.003189087,-27.610779,-11.264038,-17.663574,0,0.0,0.0,0.0,0.0
0.092285157,0.0066169924,-0.8493942,0.52771723,-0.021344539,-0.5277285,-0.8491447,0.99975026,-0.005645098,-0.021621907,0.6051942,-0.6930336,-0.39171976,0.58301824,0.72090346,-0.37468374,0.54206055,-0.0016233348,0.8403379,9.770737,-0.23701477,-0.21786499,9.804092,-0.055358887,-0.21203613,0.023422241,-0.0010681152,0.0021209717,-28.327942,-12.698364,-20.083618,0,0.0,0.0,0.0,0.0
0.096679688,0.0065610385,-0.8493594,0.52777416,-0.021396223,-0.52778393,-0.84910905,0.9997495,-0.005721336,-0.021635894,0.6051942,-0.6930336,-0.39171976,0.58301824,0.72090346,-0.37468374,0.54206055,-0.0016233348,0.8403379,9.770737,-0.23701477,-0.21786499,9.804092,-0.056106567,-0.21217346,0.023422241,-0.0010681152,0.0021209717,-28.327942,-12.698364,-20.083618,0,0.0,0.0,0.0,0.0
0.101074219,0.006548149,-0.84935135,0.5277872,-0.021404333,-0.5277966,-0.84910095,0.9997494,-0.005736896,-0.021635892,0.5811698,-0.7123988,-0.39335683,0.59132826,0.70177275,-0.3972982,0.5590819,-0.0017052953,0.82911074,9.765945,-0.11251831,-0.22265625,9.804092,-0.056259155,-0.21217346,0.004257202,-0.0053253174,-0.0032043457,-28.327942,-12.698364,-20.083618,0,0.0,0.0,0.0,0.0
0.10546875,0.0068882788,-0.8367676,0.54751486,-0.021113206,-0.5475275,-0.83652127,0.99975336,-0.005797602,-0.021438368,0.55739725,-0.7308648,-0.3938843,0.5983854,0.68251985,-0.41964453,0.57553726,-0.0017859278,0.8177736,9.742004,-0.16040039,-0.02154541,9.804092,-0.056854248,-0.2102356,0.017044067,0.011703491,0.0021209717,-28.686523,-12.698364,-19.04602,0,0.0,0.0,0.0,0.0
0.109863282,0.006822225,-0.8367227,0.54758435,-0.02106592,-0.5475958,-0.83647776,0.9997548,-0.0058287303,-0.021362156,0.53364784,-0.7487673,-0.39315078,0.6045013,0.66283035,-0.44185314,0.59143746,-0.0018661617,0.8063488,9.742004,-0.09336853,-0.3088379,9.804092,-0.057159424,-0.20948792,-0.0021362305,0.027679443,0.0021209717,-28.686523,-12.698364,-19.04602,0,0.0,0.0,0.0,0.0
0.114257813,0.006702661,-0.8366413,0.5477102,-0.021016564,-0.54771936,-0.8363982,0.9997567,-0.005904893,-0.021254502,0.51035494,-0.76585037,-0.3911663,0.6097179,0.6430158,-0.463438,0.60645026,-0.0019832214,0.795119,9.828186,-0.08378601,-0.35194397,9.804245,-0.057907104,-0.20843506,0.0010528564,0.026626587,0.0053253174,-28.686523,-12.698364,-19.04602,0,0.0,0.0,0.0,0.0
0.118652344,0.005841082,-0.8560562,0.5168495,-0.021123756,-0.5168486,-0.855816,0.9997598,-0.005918915,-0.021102082,0.48734707,-0.7820347,-0.3884772,0.61358136,0.6232315,-0.48487154,0.6212976,-0.0020616553,0.78357196,9.794678,-0.06942749,-0.20828247,9.804245,-0.058044434,-0.2069397,0.0,0.036209106,0.014892578,-29.225159,-11.802673,-19.218445,0,0.0,0.0,0.0,0.0
0.123046875,0.0057662716,-0.85600656,0.51693285,-0.020938858,-0.5169314,-0.8557707,0.99976414,-0.005889377,-0.020904565,0.46522248,-0.7969594,-0.38525817,0.61606777,0.6040292,-0.50557816,0.63563246,-0.0021388007,0.7719889,9.809036,0.03590393,-0.3088379,9.804245,-0.057754517,-0.20500183,-0.007446289,0.036209106,0.0,-29.225159,-11.802673,-19.218445,0,0.0,0.0,0.0,0.0
0.127441407,0.005558901,-0.8558686,0.51716346,-0.020762512,-0.5171587,-0.85563755,0.9997689,-0.0059812083,-0.020644816,0.4438554,-0.811166,-0.38079154,0.61811477,0.58481187,-0.5252897,0.6487885,-0.0022201915,0.7609655,9.8138275,-0.14125061,-0.17955017,9.804245,-0.058654785,-0.20245361,0.0021209717,0.05432129,0.003189087,-29.225159,-11.802673,-19.218445,0,0.0,0.0,0.0,0.0
0.131835938,0.00579801,-0.8474783,0.53079844,-0.020493569,-0.5307966,-0.8472514,0.99977314,-0.0059655807,-0.020445418,0.42266184,-0.8246066,-0.3760067,0.6187881,0.565702,-0.5450529,0.6621619,-0.0022954121,0.74935734,9.761154,-0.04069519,-0.12689209,9.804398,-0.058502197,-0.20050049,-0.0010681152,0.05644226,0.010650635,-28.327942,-12.339783,-19.392395,0,0.0,0.0,0.0,0.0
0.136230469,0.0057004695,-0.847415,0.5309006,-0.020304073,-0.53089786,-0.8471926,0.9997776,-0.0059500476,-0.02023234,0.40177765,-0.8375168,-0.37032476,0.6187602,0.5464065,-0.5644252,0.6750634,-0.002368816,0.73775595,9.718063,0.002380371,-0.08857727,9.804398,-0.05834961,-0.19841003,-0.0053253174,0.038330078,0.0,-28.327942,-12.339783,-19.392395,0,0.0,0.0,0.0,0.0
0.140625,0.005551414,-0.84731805,0.5310567,-0.020147286,-0.5310519,-0.84709966,0.99978155,-0.0059967507,-0.02001925,0.38142207,-0.8497321,-0.36396778,0.6179416,0.5272091,-0.5832656,0.6875066,-0.0024404412,0.726174,9.804245,-0.08378601,-0.3040619,9.804398,-0.058807373,-0.19631958,0.007446289,0.041534424,0.0010681152,-28.327942,-12.339783,-19.392395,0,0.0,0.0,0.0,0.0
0.145019532,0.0058983727,-0.83340716,0.5526279,-0.019854115,-0.5526262,-0.8331927,0.9997855,-0.0060574575,-0.01980616,0.36185446,-0.86128604,-0.35671785,0.6170085,0.50811344,-0.6009336,0.69882894,-0.0026474115,0.71528393,9.761154,-0.07899475,-0.23222351,9.804398,-0.059402466,-0.19422913,-0.0053253174,0.057510376,0.0063934326,-27.96936,-13.056946,-19.392395,0,0.0,0.0,0.0,0.0
0.149414063,0.005840445,-0.8333692,0.55268586,-0.019707898,-0.5526839,-0.83315796,0.9997887,-0.0060262633,-0.019651875,0.34226736,-0.87243617,-0.34886706,0.61494374,0.48872057,-0.61886704,0.7104205,-0.0027156128,0.7037722,9.909592,-0.06942749,-0.20828247,9.80455,-0.05909729,-0.1927185,0.010650635,0.05218506,0.012771606,-27.96936,-13.056946,-19.392395,0,0.0,0.0,0.0,0.0
0.153808594,0.0057294406,-0.8332963,0.5527969,-0.019564103,-0.5527936,-0.8330885,0.9997922,-0.0060418444,-0.019469894,0.32325405,-0.88294035,-0.3404749,0.6122162,0.46947694,-0.6362254,0.72159415,-0.0027818263,0.6923107,9.890442,-0.12210083,-0.11730957,9.80455,-0.059249878,-0.19093323,0.01171875,0.03514099,-0.007461548,-27.96936,-13.056946,-19.392395,0,0.0,0.0,0.0,0.0
0.158203125,0.005745805,-0.8299277,0.55784154,-0.019432766,-0.55783814,-0.82972246,0.9997947,-0.006072979,-0.019333016,0.30482012,-0.89282393,-0.33158723,0.6088759,0.45039684,-0.653003,0.7323625,-0.0028470268,0.680909,9.914383,-0.05984497,-0.14604187,9.80455,-0.059555054,-0.18959045,0.019165039,0.036209106,-0.0021362305,-27.790833,-12.878418,-18.873596,0,0.0,0.0,0.0,0.0
0.162597657,0.0056465543,-0.82986075,0.557942,-0.019389782,-0.55793685,-0.8296569,0.9997961,-0.0061336705,-0.01924124,0.28696018,-0.9020937,-0.3223055,0.6053046,0.43152875,-0.66887164,0.74246895,-0.003153483,0.669873,9.895233,-0.08857727,-0.18913269,9.80455,-0.060150146,-0.18869019,-0.017028809,0.024490356,0.004257202,-27.790833,-12.878418,-18.873596,0,0.0,0.0,0.0,0.0
0.166992188,0.0055309497,-0.8297828,0.558059,-0.019266114,-0.55805236,-0.829582,0.9997991,-0.0061632525,-0.019073252,0.26961464,-0.9108578,-0.31248355,0.6009055,0.41270775,-0.6845326,0.7524763,-0.0032130869,0.65861154,9.943115,-0.05505371,-0.12689209,9.80455,-0.060440063,-0.18704224,-0.0095825195,0.023422241,0.012771606,-27.790833,-12.878418,-18.873596,0,0.0,0.0,0.0,0.0
0.171386719,0.004832658,-0.8481997,0.52965456,-0.019432416,-0.5296404,-0.8479997,0.99979943,-0.0061943745,-0.01904214,0.25285628,-0.91906685,-0.30229083,0.5960231,0.394088,-0.6996078,0.76211554,-0.0032720906,0.64743274,9.823395,-0.15560913,-0.09815979,9.80455,-0.06074524,-0.18673706,-0.015975952,0.031951904,0.0053253174,-28.149414,-12.161255,-19.218445,0,0.0,0.0,0.0,0.0
0.17578125,0.0048302547,-0.8481982,0.52965707,-0.019399097,-0.52964306,-0.8479988,0.99980015,-0.006178819,-0.019012589,0.23708373,-0.9264879,-0.29225242,0.59053576,0.3763098,-0.71390367,0.7714006,-0.0033305367,0.63634115,9.847351,-0.03590393,-0.11251831,9.80455,-0.06059265,-0.18644714,-0.0095825195,0.0032043457,0.0053253174,-28.149414,-12.161255,-19.218445,0,0.0,0.0,0.0,0.0
0.180175782,0.0047650267,-0.8481557,0.52972573,-0.019350559,-0.52971077,-0.8479577,0.9998014,-0.0062099467,-0.01893637,0.22164917,-0.93344414,-0.28205267,0.5847107,0.35870433,-0.7276294,0.7803749,-0.0036407476,0.62530136,9.742004,-0.11730957,-0.002380371,9.80455,-0.060897827,-0.18569946,-0.007446289,-0.003189087,0.013824463,-28.149414,-12.161255,-19.218445,0,0.0,0.0,0.0,0.0
0.184570313,0.0047408007,-0.8481398,0.5297512,-0.019310541,-0.529736,-0.8479427,0.9998023,-0.0062098554,-0.018889412,0.20700479,-0.93992096,-0.27147317,0.5784921,0.34137228,-0.7408184,0.7889841,-0.003692132,0.61440253,9.852127,-0.06942749,-0.04069519,9.804703,-0.060897827,-0.1852417,-0.0021362305,-0.003189087,0.013824463,-28.149414,-12.161255,-19.218445,0,0.0,0.0,0.0,0.0
0.188964844,0.004766583,-0.84815663,0.52972406,-0.01929421,-0.5297095,-0.8479597,0.99980253,-0.0061787376,-0.018889416,0.19291367,-0.94595623,-0.26067454,0.57196176,0.32427284,-0.7534633,0.797273,-0.0037424865,0.6036074,9.876068,-0.007171631,-0.18434143,9.804703,-0.06059265,-0.1852417,0.008514404,-0.007461548,0.0053253174,-28.149414,-12.161255,-19.218445,0,0.0,0.0,0.0,0.0
0.193359375,0.00486443,-0.84822035,0.52962106,-0.019340781,-0.5296081,-0.84802186,0.9998011,-0.0061181416,-0.018981488,0.17936851,-0.9515688,-0.24968739,0.5651505,0.30741256,-0.76557326,0.8052527,-0.0037912116,0.59291965,9.74678,-0.03111267,-0.08857727,9.80455,-0.05999756,-0.18614197,0.004257202,-0.012786865,-0.0032043457,-28.149414,-12.161255,-19.218445,0,0.0,0.0,0.0,0.0
0.197753907,0.004904894,-0.849586,0.5274273,-0.019439938,-0.52741504,-0.8493854,0.999799,-0.006087009,-0.019102814,0.16645999,-0.9567797,-0.23846103,0.5576251,0.290792,-0.7774923,0.8132314,-0.0035504876,0.58192956,9.818619,0.002380371,-0.05505371,9.80455,-0.059692383,-0.18733215,0.010650635,-0.030883789,-0.0138549805,-27.252197,-11.981201,-19.04602,0,0.0,0.0,0.0,0.0
0.202148438,0.0049522035,-0.84961605,0.5273785,-0.019518178,-0.52736664,-0.84941363,0.9997972,-0.006086998,-0.019194584,0.16645999,-0.9567797,-0.23846103,0.5576251,0.290792,-0.7774923,0.8132314,-0.0035504876,0.58192956,9.818619,0.002380371,-0.05505371,9.80455,-0.059692383,-0.18823242,0.010650635,-0.030883789,-0.0138549805,-27.252197,-11.981201,-19.04602,0,0.0,0.0,0.0,0.0
0.206542969,0.0050258655,-0.8496628,0.5273025,-0.019669535,-0.5272912,-0.849457,0.99979395,-0.006102538,-0.019362565,0.14208066,-0.96602947,-0.21587083,0.54285085,0.25840625,-0.79908645,0.8277234,-0.0036509337,0.56112444,9.880859,-0.17955017,-0.07421875,9.80455,-0.05984497,-0.18988037,0.007446289,-0.031951904,0.0053253174,-27.252197,-11.981201,-19.04602,0,0.0,0.0,0.0,0.0
0.2109375,0.0044304747,-0.8689768,0.4948332,-0.01998833,-0.49481615,-0.8687679,0.99979043,-0.0060418337,-0.019561661,0.1306375,-0.9701987,-0.20407952,0.5345506,0.24228826,-0.80966175,0.83497876,-0.003318644,0.55027217,9.852127,-0.026321411,-0.17955017,9.80455,-0.059249878,-0.1918335,0.028762817,-0.045806885,-0.008529663,-27.790833,-11.08551,-19.218445,0,0.0,0.0,0.0,0.0
0.215332032,0.0044758744,-0.86900467,0.49478358,-0.02010169,-0.49476674,-0.86879325,0.9997879,-0.006057378,-0.019682977,0.120109625,-0.97377974,-0.19320118,0.52666306,0.22746791,-0.8190753,0.841546,-0.0033731079,0.54017496,9.84256,-0.05984497,-0.08378601,9.80455,-0.059402466,-0.19302368,-0.007446289,-0.04899597,-0.01171875,-27.790833,-11.08551,-19.218445,0,0.0,0.0,0.0,0.0
0.219726563,0.00445562,-0.8689922,0.4948057,-0.020219348,-0.49478772,-0.8687786,0.99978566,-0.006133702,-0.019775042,0.11003903,-0.9770693,-0.1822824,0.5186684,0.21289368,-0.8280455,0.8478646,-0.0034267933,0.5302016,9.84256,-0.13645935,-0.12689209,9.804398,-0.060150146,-0.19392395,-0.012771606,-0.03727722,0.003189087,-27.790833,-11.08551,-19.218445,0,0.0,0.0,0.0,0.0
0.224121094,0.005688208,-0.84037393,0.54197735,-0.020134887,-0.5419725,-0.8401551,0.99978113,-0.006133674,-0.020003682,0.100411706,-0.9800817,-0.17133994,0.5105863,0.19856426,-0.8365847,0.8539433,-0.0034809317,0.52035445,9.8138275,-0.13166809,-0.20350647,9.804398,-0.060150146,-0.19616699,0.0,-0.026626587,0.010650635,-28.327942,-12.698364,-19.392395,0,0.0,0.0,0.0,0.0
0.228515625,0.005831846,-0.84046835,0.54182935,-0.020277891,-0.54182655,-0.8402457,0.9997774,-0.006086972,-0.020202773,0.0906563,-0.9830549,-0.1593256,0.50182855,0.18328172,-0.84532595,0.86020327,-0.0033200048,0.5099406,9.866501,-0.02154541,-0.19871521,9.804398,-0.059692383,-0.19812012,0.012771606,-0.04899597,-0.007461548,-28.327942,-12.698364,-19.392395,0,0.0,0.0,0.0,0.0
0.232910157,0.0059412573,-0.84054023,0.5417166,-0.020369254,-0.54171544,-0.8403151,0.9997749,-0.0060418337,-0.020339647,0.08136957,-0.9857165,-0.14745115,0.49370643,0.16837889,-0.853172,0.86581343,-0.0033753444,0.50035554,9.799454,0.05027771,-0.11730957,9.804398,-0.059249878,-0.19946289,0.003189087,-0.046875,-0.0063934326,-28.327942,-12.698364,-19.392395,0,0.0,0.0,0.0,0.0
0.237304688,0.005457509,-0.8555133,0.51775205,-0.020684678,-0.51774555,-0.8552846,0.9997712,-0.0060418113,-0.02052162,0.07251989,-0.9881055,-0.13560382,0.4855258,0.1537393,-0.860598,0.87120926,-0.0034286745,0.49089983,9.770737,-0.03111267,-0.20350647,9.804398,-0.059249878,-0.20124817,-0.008514404,-0.038345337,-0.0010681152,-29.045105,-12.339783,-20.083618,0,0.0,0.0,0.0,0.0
0.241699219,0.005561333,-0.855579,0.51764226,-0.020801311,-0.51763725,-0.8553473,0.9997682,-0.0060107675,-0.02067592,0.06436164,-0.99015677,-0.12428657,0.477266,0.13991946,-0.8675481,0.87639874,-0.0034809376,0.4815736,9.938324,0.03111267,-0.29447937,9.804245,-0.058944702,-0.20275879,0.014907837,-0.039413452,0.0010681152,-29.045105,-12.339783,-20.083618,0,0.0,0.0,0.0,0.0
0.24609375,0.0055789826,-0.8555903,0.51762366,-0.020861376,-0.51761866,-0.8553571,0.99976677,-0.0060263188,-0.020736575,0.056531735,-0.9919782,-0.11306337,0.46860766,0.1263587,-0.8743227,0.88159573,-0.0035553812,0.4719919,9.919174,-0.10293579,-0.38067627,9.804245,-0.05909729,-0.20335388,-0.0010681152,-0.026626587,0.0010681152,-29.045105,-12.339783,-20.083618,0,0.0,0.0,0.0,0.0
0.250488282,0.0057089883,-0.8528072,0.52219456,-0.020891061,-0.5221908,-0.8525727,0.99976546,-0.006041871,-0.02079723,0.04915596,-0.9935839,-0.101856284,0.46033147,0.11303988,-0.8805208,0.88638514,-0.0036048,0.46293452,9.847351,-0.11251831,-0.33277893,9.804245,-0.059249878,-0.20394897,-0.010650635,-0.017044067,-0.0063934326,-27.07367,-12.161255,-19.56482,0,0.0,0.0,0.0,0.0
0.254882813,0.0057010567,-0.8528024,0.52220255,-0.020877745,-0.52219874,-0.85256815,0.99976575,-0.006041873,-0.020781677,0.042099588,-0.9949947,-0.09062689,0.45206875,0.099861205,-0.88637555,0.890989,-0.0036535417,0.4540101,9.8138275,-0.05027771,-0.16998291,9.804245,-0.059249878,-0.20379639,-0.015975952,-0.01171875,-0.007461548,-27.07367,-12.161255,-19.56482,0,0.0,0.0,0.0,0.0
0.259277344,0.005666402,-0.8527813,0.5222374,-0.020935725,-0.52223253,-0.8525461,0.99976474,-0.00610255,-0.020812776,0.035401314,-0.9962076,-0.07948001,0.44382575,0.08692885,-0.89188683,0.8954136,-0.0037013087,0.44522002,9.837769,-0.19392395,-0.29927063,9.804245,-0.05984497,-0.20410156,-0.0010681152,0.0,0.0010681152,-27.07367,-12.161255,-19.56482,0,0.0,0.0,0.0,0.0
0.263671875,0.0060118367,-0.8446496,0.53528583,-0.020884203,-0.5352848,-0.8444134,0.9997638,-0.006102544,-0.020857878,0.02903282,-0.9972315,-0.06845779,0.43566063,0.07426359,-0.8970422,0.89964265,-0.003780697,0.43661055,9.852127,-0.09815979,-0.2896881,9.804245,-0.05984497,-0.20454407,-0.0021362305,0.0032043457,0.0010681152,-28.149414,-12.161255,-18.873596,0,0.0,0.0,0.0,0.0
0.268066407,0.006007145,-0.84464645,0.53529084,-0.020905634,-0.5352896,-0.8444099,0.9997634,-0.0061181015,-0.020873431,0.022879567,-0.99809915,-0.057224024,0.4274914,0.061509483,-0.90192443,0.90372986,-0.0038271341,0.4280861,9.722839,-0.08857727,-0.24180603,9.804245,-0.05999756,-0.20469666,-0.0021362305,0.0032043457,-0.0053253174,-28.149414,-12.161255,-18.873596,0,0.0,0.0,0.0,0.0
0.272460938,0.0059694387,-0.84462136,0.5353309,-0.020786243,-0.5353295,-0.8443875,0.9997661,-0.006086998,-0.02075212,0.017054433,-0.9987912,-0.046099827,0.41936588,0.049000487,-0.9064939,0.9076571,-0.0038729536,0.41969463,9.785095,-0.10293579,-0.17955017,9.804245,-0.059692383,-0.20350647,-0.008514404,0.0021362305,0.0010681152,-28.149414,-12.161255,-18.873596,0,0.0,0.0,0.0,0.0
0.276855469,0.006495855,-0.83118457,0.55595857,-0.020657523,-0.5559632,-0.83095014,0.9997655,-0.006086995,-0.020781672,0.011545803,-0.9993174,-0.035090905,0.41129494,0.03673326,-0.9107619,0.91142917,-0.0039172345,0.41143832,9.84256,-0.05984497,-0.28489685,9.804245,-0.059692383,-0.20379639,0.0021209717,0.024490356,-0.01171875,-29.58374,-12.161255,-17.835999,0,0.0,0.0,0.0,0.0
0.28125,0.006528931,-0.83120966,0.55592084,-0.020599525,-0.5559265,-0.8309762,0.99976647,-0.0060263174,-0.020752128,0.0060630385,-0.9997028,-0.023611605,0.4035444,0.024050066,-0.9146439,0.91493994,-0.0039828103,0.4035703,9.727631,0.08378601,-0.11730957,9.804245,-0.05909729,-0.20350647,0.008514404,0.017028809,0.0053253174,-29.58374,-12.161255,-17.835999,0,0.0,0.0,0.0,0.0
0.285644532,0.006494772,-0.8311838,0.5559598,-0.020493597,-0.5559655,-0.8309528,0.9997689,-0.005996768,-0.020644816,9.6525997E-4,-0.9999225,-0.012412078,0.39559278,0.011781399,-0.91835046,0.9184255,-0.004023681,0.39557347,9.8138275,-0.07421875,-0.15083313,9.804245,-0.058807373,-0.20245361,0.0,0.018096924,-0.012786865,-29.58374,-12.161255,-17.835999,0,0.0,0.0,0.0,0.0
0.290039063,0.00524775,-0.86331755,0.5046338,-0.020827927,-0.5046256,-0.863087,0.99976933,-0.0059812106,-0.020629264,-0.003840137,-0.9999917,-0.0013499174,0.38771158,-2.4453996E-4,-0.92178065,0.9217728,-0.004063143,0.38770935,9.8138275,-0.01675415,-0.15560913,9.804245,-0.058654785,-0.20230103,0.018096924,0.020233154,-0.008529663,-29.045105,-10.905457,-18.354797,0,0.0,0.0,0.0,0.0
0.294433594,0.005296791,-0.863351,0.5045761,-0.020852853,-0.5045688,-0.86311966,0.99976856,-0.0059500863,-0.020675927,-0.007904468,-0.99993306,0.008448718,0.37991527,-0.010818461,-0.92495805,0.92498755,-0.004101504,0.37997535,9.770737,0.02154541,-0.32321167,9.804245,-0.05834961,-0.20275879,0.0010528564,0.007461548,0.0053253174,-29.045105,-10.905457,-18.354797,0,0.0,0.0,0.0,0.0
0.298828125,0.0052684518,-0.8633316,0.5046094,-0.020833647,-0.50460166,-0.8631008,0.99976903,-0.005965649,-0.020644818,-0.011745477,-0.9997641,0.018270671,0.37235352,-0.021330869,-0.92784584,0.9280166,-0.0040948424,0.3725162,9.794678,-0.10293579,-0.11251831,9.804245,-0.058502197,-0.20245361,0.0095825195,0.0095825195,0.0010681152,-29.045105,-10.905457,-18.354797,0,0.0,0.0,0.0,0.0
0.303222657,0.0052409014,-0.86334825,0.5045814,-0.020849522,-0.504573,-0.86311734,0.9997689,-0.005996768,-0.020644816,-0.015336379,-0.99949586,0.027799318,0.36473706,-0.031479057,-0.9305783,0.93098426,-0.004132259,0.365036,9.866501,-0.10293579,-0.17477417,9.804245,-0.058807373,-0.20245361,0.007446289,0.0095825195,0.0063934326,-27.432251,-11.802673,-19.909668,0,0.0,0.0,0.0,0.0
0.307617188,0.0052219094,-0.8633369,0.5046008,-0.020754486,-0.50459254,-0.8631079,0.9997709,-0.00596566,-0.020553052,-0.018706027,-0.9991331,0.037190497,0.35721728,-0.041420568,-0.9331024,0.93383396,-0.0041695493,0.35768244,9.852127,0.01675415,0.03590393,9.804245,-0.058502197,-0.20155334,0.024490356,-0.0053253174,0.0,-27.432251,-11.802673,-19.909668,0,0.0,0.0,0.0,0.0
0.312011719,0.005285688,-0.86337477,0.5045354,-0.020804973,-0.50452816,-0.8631445,0.9997696,-0.0059345327,-0.02062927,-0.021789378,-0.9986856,0.046392415,0.34972057,-0.051085595,-0.9354602,0.9366006,-0.0041587143,0.350374,9.804245,0.04069519,-0.09336853,9.804245,-0.05819702,-0.20230103,-0.0032043457,-0.0053253174,-0.004272461,-27.432251,-11.802673,-19.909668,0,0.0,0.0,0.0,0.0
0.31640625,0.0054957327,-0.8608593,0.5088134,-0.020928532,-0.5088086,-0.86062515,0.9997658,-0.005918951,-0.020812798,-0.024743456,-0.9981517,0.05550477,0.34240475,-0.060625292,-0.9375945,0.9392266,-0.004194231,0.343272,9.756363,-0.08857727,-0.2896881,9.804245,-0.058044434,-0.20410156,0.019165039,-0.024505615,0.0,-29.58374,-12.161255,-20.256042,0,0.0,0.0,0.0,0.0
0.320800782,0.0055398946,-0.86088717,0.50876564,-0.021097166,-0.5087608,-0.8606493,0.99976206,-0.0059656072,-0.020980764,-0.027536156,-0.99753326,0.06456897,0.33518684,-0.07006789,-0.93954265,0.9417492,-0.004228725,0.3362894,9.86171,-0.09336853,-0.21307373,9.804245,-0.058502197,-0.20574951,0.004257202,-0.03515625,-0.0063934326,-29.58374,-12.161255,-20.256042,0,0.0,0.0,0.0,0.0
0.325195313,0.005556868,-0.86089796,0.5087473,-0.021245966,-0.508742,-0.86065686,0.99975884,-0.006026271,-0.021117622,-0.030141462,-0.99684054,0.07348775,0.32807127,-0.07931445,-0.9413174,0.94417197,-0.0042634625,0.3294254,9.794678,-0.17955017,-0.13645935,9.804245,-0.05909729,-0.20709229,-0.012771606,-0.036209106,0.0095825195,-29.58374,-12.161255,-20.256042,0,0.0,0.0,0.0,0.0
0.329589844,0.00708382,-0.82348865,0.5672886,-0.02087549,-0.567301,-0.823246,0.999757,-0.0060107005,-0.021209385,-0.03253685,-0.9960794,0.08226301,0.32049716,-0.08835823,-0.9431195,0.9466905,-0.0043210816,0.32211548,9.698898,-0.04548645,-0.14125061,9.804245,-0.058944702,-0.20799255,-0.0010681152,-0.036209106,0.0010681152,-27.07367,-12.519836,-17.835999,0,0.0,0.0,0.0,0.0
0.333984375,0.00708382,-0.82348865,0.5672886,-0.02087549,-0.567301,-0.823246,0.999757,-0.0060107005,-0.021209385,-0.035223454,-0.99511683,0.09220555,0.31355423,-0.09860826,-0.94443643,0.9489168,-0.004354874,0.3154964,9.770737,-0.06942749,-0.21307373,9.804245,-0.058944702,-0.20799255,0.013839722,-0.028762817,-0.0032043457,-27.07367,-12.519836,-17.835999,0,0.0,0.0,0.0,0.0
0.338378907,0.007200582,-0.8235702,0.56716853,-0.020998381,-0.5671827,-0.82332414,0.99975353,-0.0059812097,-0.021377688,-0.03771938,-0.9940711,0.10197963,0.30671534,-0.10864318,-0.9455804,0.95105356,-0.004387991,0.30899483,9.765945,0.02154541,-0.25616455,9.804092,-0.058654785,-0.2096405,-0.0010681152,-0.020233154,-0.008529663,-27.07367,-12.519836,-17.835999,0,0.0,0.0,0.0,0.0
0.342773438,0.0071848077,-0.8249198,0.5652041,-0.021065516,-0.56521815,-0.8246725,0.99975234,-0.0059812022,-0.021438345,-0.040031515,-0.99294853,0.11158265,0.29997894,-0.118463814,-0.94656163,0.9531055,-0.0044198553,0.30260593,9.8138275,-0.011962891,-0.10772705,9.804092,-0.058654785,-0.2102356,0.004257202,-0.030883789,0.0,-27.96936,-13.056946,-18.701172,0,0.0,0.0,0.0,0.0
0.347167969,0.007306197,-0.82500315,0.56508076,-0.02122071,-0.56509644,-0.8247517,0.999748,-0.0059656166,-0.021635862,-0.04216005,-0.9917348,0.121179715,0.2929787,-0.12822735,-0.9474815,0.95518893,-0.0044427924,0.29596326,9.828186,-0.07421875,-0.28012085,9.804092,-0.058502197,-0.21217346,0.01171875,-0.0234375,0.003189087,-27.96936,-13.056946,-18.701172,0,0.0,0.0,0.0,0.0
0.3515625,0.0074857674,-0.8251266,0.5648983,-0.02135631,-0.5649172,-0.8248712,0.99974394,-0.0058893496,-0.021850498,-0.044113442,-0.9904801,0.13039596,0.28646153,-0.13758305,-0.9481617,0.95707566,-0.004473249,0.28980374,9.799454,-0.03111267,-0.31362915,9.804092,-0.057754517,-0.21427917,0.017044067,-0.039413452,-0.0063934326,-27.96936,-13.056946,-18.701172,0,0.0,0.0,0.0,0.0
0.355957032,0.005603163,-0.8736421,0.48653686,-0.02209903,-0.48653382,-0.87338215,0.99974006,-0.0058582895,-0.022032771,-0.045907088,-0.98916554,0.1394421,0.28004962,-0.14673546,-0.94870484,0.9588872,-0.004501571,0.28375164,9.847351,-0.04069519,-0.13166809,9.803955,-0.05744934,-0.21606445,-0.014907837,-0.039413452,-0.0138549805,-29.58374,-11.08551,-19.56482,0,0.0,0.0,0.0,0.0
0.360351563,0.0056980997,-0.8737024,0.4864275,-0.022150371,-0.4864263,-0.8734408,0.9997384,-0.005797596,-0.022124536,-0.047045648,-0.9880806,0.14657201,0.27383086,-0.15387052,-0.9493895,0.96062654,-0.004528706,0.27780592,9.847351,-0.01675415,-0.09815979,9.803955,-0.056854248,-0.21696472,0.0021209717,-0.04899597,-0.004272461,-29.58374,-11.08551,-19.56482,0,0.0,0.0,0.0,0.0
0.364746094,0.0057429927,-0.87373084,0.48637575,-0.02226561,-0.4863749,-0.87346643,0.9997356,-0.00581314,-0.022247398,-0.04780261,-0.98699075,0.15350622,0.2672553,-0.16071698,-0.9501288,0.96243936,-0.0043932814,0.2714612,9.761154,-0.07899475,-0.15083313,9.803955,-0.057006836,-0.21817017,-0.0053253174,-0.031951904,-0.01171875,-29.58374,-11.08551,-19.56482,0,0.0,0.0,0.0,0.0
0.369140625,0.007892004,-0.8258254,0.5638707,-0.021808717,-0.5638963,-0.8255576,0.999731,-0.0057819937,-0.022460463,-0.04872835,-0.9858531,0.16037227,0.26126787,-0.16755347,-0.95061296,0.96403563,-0.004421679,0.26573634,9.885651,-0.03111267,-0.12210083,9.803955,-0.05670166,-0.22026062,-0.0032043457,-0.031951904,0.0010681152,-30.12085,-13.056946,-18.701172,0,0.0,0.0,0.0,0.0
0.373535157,0.007939106,-0.82586014,0.5638191,-0.022015274,-0.56384456,-0.8255874,0.99972606,-0.0058582076,-0.022657959,-0.05001992,-0.9843729,0.16884318,0.25529683,-0.17604038,-0.9507015,0.965568,-0.004448885,0.26011282,9.8138275,-0.14125061,-0.35673523,9.803955,-0.05744934,-0.22219849,0.012771606,-0.057525635,-0.0053253174,-30.12085,-13.056946,-18.701172,0,0.0,0.0,0.0,0.0
0.377929688,0.00799112,-0.8258985,0.5637622,-0.022201907,-0.56378776,-0.82562125,0.9997216,-0.005918956,-0.022841817,-0.051188253,-0.9828516,0.17715088,0.2494305,-0.18434376,-0.9506849,0.9670389,-0.0044770716,0.2545894,9.890442,-0.17477417,-0.2753296,9.8038025,-0.058044434,-0.22399902,-0.019165039,-0.034088135,0.010650635,-30.12085,-13.056946,-18.701172,0,0.0,0.0,0.0,0.0
0.382324219,0.006773366,-0.856675,0.5158119,-0.022781003,-0.5158221,-0.8563928,0.9997176,-0.0059500514,-0.02300977,-0.052195076,-0.98131526,0.18519174,0.24307251,-0.1923514,-0.9507453,0.96860284,-0.0046092006,0.24857058,9.770737,-0.04548645,-0.27053833,9.8038025,-0.05834961,-0.22564697,-0.008514404,-0.03727722,0.004257202,-29.225159,-11.802673,-19.218445,0,0.0,0.0,0.0,0.0
0.38671875,0.006826515,-0.85671026,0.51575273,-0.022962729,-0.51576304,-0.8564235,0.99971306,-0.0059967036,-0.02319327,-0.052860305,-0.979951,0.1920985,0.23748708,-0.19918472,-0.95074993,0.9699514,-0.0046360176,0.24325468,9.837769,-0.13166809,-0.38067627,9.8038025,-0.058807373,-0.22744751,-0.020233154,-0.030883789,0.0053253174,-29.225159,-11.802673,-19.218445,0,0.0,0.0,0.0,0.0
0.391113282,0.00677602,-0.8566768,0.515809,-0.022993581,-0.51581794,-0.8563895,0.9997126,-0.006057384,-0.02319326,-0.053437542,-0.97856814,0.19886908,0.23200549,-0.20587069,-0.95067906,0.9712455,-0.004663232,0.23803441,9.74678,-0.22744751,-0.21786499,9.8038025,-0.059402466,-0.22744751,-0.019165039,-0.028762817,0.004257202,-29.225159,-11.802673,-19.218445,0,0.0,0.0,0.0,0.0
0.395507813,0.0067552766,-0.85666305,0.51583207,-0.022988107,-0.51584053,-0.85637605,0.9997129,-0.0060729454,-0.023177708,-0.053912226,-0.9771618,0.20554367,0.22628602,-0.21244359,-0.9506116,0.9725678,-0.0047379257,0.23257138,9.837769,-0.12210083,-0.18913269,9.8038025,-0.059555054,-0.22729492,0.0010528564,-0.02130127,0.003189087,-29.225159,-11.802673,-19.218445,0,0.0,0.0,0.0,0.0
0.399902344,0.006751421,-0.8566605,0.51583636,-0.023008615,-0.51584464,-0.8563731,0.99971247,-0.0060869465,-0.023193257,-0.05432743,-0.97574747,0.2120507,0.22102265,-0.2188476,-0.95039713,0.97375435,-0.004764626,0.22755171,9.84256,-0.08378601,-0.26574707,9.8038025,-0.059692383,-0.22744751,-0.019165039,-0.012786865,-0.0021362305,-29.225159,-11.802673,-19.218445,0,0.0,0.0,0.0,0.0
0.404296875,0.0067396844,-0.85665274,0.5158495,-0.022961333,-0.51585776,-0.8563665,0.9997137,-0.00607295,-0.023146607,-0.054668497,-0.97432053,0.21842815,0.21586286,-0.22511451,-0.9501193,0.9748921,-0.0047910726,0.22262627,9.900009,-0.02154541,-0.13166809,9.8038025,-0.059555054,-0.22698975,0.019165039,-0.01171875,-0.0053253174,-29.225159,-11.802673,-19.218445,0,0.0,0.0,0.0,0.0
0.408691407,0.0068913,-0.85407805,0.5200993,-0.022959296,-0.52010965,-0.8537909,0.9997126,-0.006057384,-0.02319326,-0.054939285,-0.97288305,0.22467804,0.21080662,-0.23124737,-0.9497817,0.9759827,-0.00481671,0.21779475,9.751572,-0.011962891,-0.3471527,9.8038025,-0.059402466,-0.22744751,-0.013839722,-0.0053253174,-0.0010681152,-29.045105,-11.62262,-18.701172,0,0.0,0.0,0.0,0.0
0.413085938,0.006901182,-0.8540848,0.5200881,-0.023005992,-0.52009845,-0.85379654,0.9997116,-0.006072937,-0.023238359,-0.05519528,-0.9715293,0.23040034,0.20589066,-0.23686735,-0.94947505,0.97701716,-0.004969268,0.21310277,9.8138275,-0.08857727,-0.36151123,9.8038025,-0.059555054,-0.22789001,-0.030883789,0.0032043457,0.0010681152,-29.045105,-11.62262,-18.701172,0,0.0,0.0,0.0,0.0
0.417480469,0.0069052824,-0.85408753,0.5200835,-0.023039868,-0.52009374,-0.8537984,0.9997107,-0.0060869358,-0.023269458,-0.055357654,-0.9700524,0.23650317,0.2010268,-0.2428442,-0.94900733,0.97802037,-0.0049913414,0.20844984,9.871292,-0.10772705,-0.3184204,9.8038025,-0.059692383,-0.22819519,-0.006378174,0.0063934326,-0.0032043457,-29.045105,-11.62262,-18.701172,0,0.0,0.0,0.0,0.0
0.421875,0.0065711923,-0.86287445,0.50537544,-0.023170922,-0.505382,-0.8625844,0.9997099,-0.0060418076,-0.023314564,-0.05545964,-0.9685695,0.24248154,0.19626102,-0.24869244,-0.9484902,0.97898203,-0.0050132535,0.20388484,9.852127,0.06942749,-0.3375702,9.8038025,-0.059249878,-0.2286377,0.008514404,0.012771606,-0.0032043457,-28.686523,-11.981201,-20.083618,0,0.0,0.0,0.0,0.0
0.426269532,0.006606528,-0.86289614,0.50533795,-0.023202613,-0.50534517,-0.86260515,0.99970895,-0.006026336,-0.023360027,-0.055437893,-0.96716917,0.24801293,0.19161086,-0.2540835,-0.94801205,0.979904,-0.0050338246,0.19940595,9.756363,-0.04548645,-0.36151123,9.80365,-0.05909729,-0.2290802,-0.0053253174,0.017028809,0.0,-28.686523,-11.981201,-20.083618,0,0.0,0.0,0.0,0.0
0.430664063,0.006454429,-0.8628027,0.5054994,-0.023115953,-0.5055036,-0.8625146,0.99971193,-0.0061180624,-0.02320725,-0.055380642,-0.9657433,0.25352067,0.18724687,-0.25945088,-0.9474301,0.9807505,-0.004998336,0.19520098,9.818619,-0.08857727,-0.18913269,9.8038025,-0.05999756,-0.22758484,0.006378174,0.011703491,-0.0021362305,-28.686523,-11.981201,-20.083618,0,0.0,0.0,0.0,0.0
0.435058594,0.00806356,-0.8236057,0.5671053,-0.022440057,-0.56712997,-0.8233225,0.9997157,-0.006086966,-0.02305485,-0.055266224,-0.96434134,0.2588272,0.1827837,-0.2646142,-0.94687355,0.9815986,-0.0050207307,0.19089009,9.828186,-0.08857727,-0.42855835,9.8038025,-0.059692383,-0.22608948,0.008514404,0.034072876,0.015960693,-30.479431,-12.698364,-18.008423,0,0.0,0.0,0.0,0.0
0.439453125,0.007989043,-0.8235478,0.5671906,-0.022382611,-0.5672139,-0.8232663,0.9997176,-0.006118097,-0.022964647,-0.055369154,-0.96254545,0.26540634,0.17833522,-0.27107355,-0.94589406,0.9824107,-0.0050420556,0.18666486,9.722839,-0.11251831,-0.38067627,9.8038025,-0.05999756,-0.22520447,0.023422241,0.050048828,-0.009597778,-30.479431,-12.698364,-18.008423,0,0.0,0.0,0.0,0.0
0.443847657,0.007851934,-0.823441,0.5673474,-0.022255618,-0.56736827,-0.8231633,0.99972147,-0.006163244,-0.02278113,-0.055415064,-0.96074295,0.27184945,0.17398074,-0.27739382,-0.94487214,0.9831886,-0.005063577,0.18252257,9.70369,-0.14604187,-0.31362915,9.8038025,-0.060440063,-0.22340393,-0.008514404,0.03727722,0.0010681152,-30.479431,-12.698364,-18.008423,0,0.0,0.0,0.0,0.0
0.448242188,0.0054013613,-0.8782796,0.47811684,-0.022842204,-0.47810742,-0.8780043,0.9997245,-0.006178823,-0.022644274,-0.0556942,-0.9588874,0.2782681,0.17044434,-0.28374058,-0.94363123,0.9837921,-0.005125565,0.17923963,9.847351,-0.04548645,-0.06942749,9.8038025,-0.06059265,-0.22206116,0.0095825195,0.047927856,0.004257202,-29.045105,-10.546875,-19.04602,0,0.0,0.0,0.0,0.0
0.452636719,0.0053016045,-0.87821645,0.47823396,-0.022652676,-0.47822344,-0.87794596,0.99972934,-0.0061787567,-0.022429306,-0.0556942,-0.9588874,0.2782681,0.17044434,-0.28374058,-0.94363123,0.9837921,-0.005125565,0.17923963,9.847351,-0.04548645,-0.06942749,9.803955,-0.06059265,-0.21995544,0.0095825195,0.047927856,0.004257202,-29.045105,-10.546875,-19.04602,0,0.0,0.0,0.0,0.0
0.45703125,0.00529392,-0.8782116,0.47824296,-0.022605581,-0.47823253,-0.87794226,0.9997304,-0.0061632036,-0.022384208,-0.054857273,-0.95648354,0.2865832,0.16240214,-0.29174054,-0.9426097,0.98519856,-0.0051672715,0.17133905,9.756363,-0.026321411,-0.11251831,9.803955,-0.060440063,-0.21951294,0.017044067,0.034072876,0.0,-29.045105,-10.546875,-19.04602,0,0.0,0.0,0.0,0.0
0.461425782,0.007611179,-0.8241409,0.56633383,-0.021930242,-0.5663516,-0.823872,0.9997305,-0.0061492003,-0.02238421,-0.05440312,-0.9552935,0.29061088,0.15850791,-0.2956137,-0.94206566,0.9858577,-0.00518719,0.16750388,9.708481,-0.05505371,-0.19871521,9.803955,-0.060302734,-0.21951294,0.010650635,0.013839722,-0.0010681152,-28.507996,-12.519836,-17.835999,0,0.0,0.0,0.0,0.0
0.465820313,0.0075874887,-0.82412344,0.56635946,-0.02194675,-0.56637657,-0.8238543,0.99973035,-0.0061787628,-0.022384206,-0.05434438,-0.95347077,0.29654709,0.15495132,-0.30144098,-0.94080997,0.98642623,-0.0051773796,0.16412316,9.751572,-0.12210083,-0.21786499,9.803955,-0.06059265,-0.21951294,0.004257202,0.023422241,-0.0010681152,-28.507996,-12.519836,-17.835999,0,0.0,0.0,0.0,0.0
0.470214844,0.0075703524,-0.82411087,0.566378,-0.021920951,-0.56639487,-0.8238424,0.999731,-0.006178767,-0.022353102,-0.054147452,-0.95167,0.30231145,0.15110306,-0.30707842,-0.93961203,0.9870339,-0.005197407,0.16042776,9.871292,-0.07421875,-0.14604187,9.803955,-0.06059265,-0.21920776,-0.0032043457,0.018096924,0.004257202,-28.507996,-12.519836,-17.835999,0,0.0,0.0,0.0,0.0
0.474609375,0.006199015,-0.85777235,0.5139924,-0.022363052,-0.51399267,-0.85750306,0.9997307,-0.006178765,-0.022368655,-0.053911664,-0.9498728,0.30795324,0.14733785,-0.3125931,-0.9383907,0.9876159,-0.005217034,0.15680464,9.885651,-0.05027771,-0.2753296,9.803955,-0.06059265,-0.21936035,-0.010650635,0.0032043457,-0.007461548,-29.045105,-11.62262,-19.04602,0,0.0,0.0,0.0,0.0
0.479003907,0.0061764712,-0.8577574,0.5140177,-0.02232419,-0.51401764,-0.85748905,0.99973166,-0.006178771,-0.022323553,-0.053460203,-0.94847596,0.31230646,0.14372015,-0.31680578,-0.93753856,0.98817337,-0.0052362685,0.15325162,9.775513,-0.05505371,-0.07899475,9.803955,-0.06059265,-0.21891785,0.0053253174,-0.014907837,-0.01171875,-29.045105,-11.62262,-19.04602,0,0.0,0.0,0.0,0.0
0.483398438,0.0061427527,-0.8577349,0.5140554,-0.022326577,-0.5140546,-0.8574668,0.9997319,-0.0062098918,-0.022307998,-0.052958846,-0.9470305,0.31674695,0.13993436,-0.32110026,-0.9366499,0.98874354,-0.0052801184,0.1495272,9.794678,-0.13166809,-0.17955017,9.803955,-0.060897827,-0.21876526,0.010650635,-0.014907837,0.003189087,-29.045105,-11.62262,-19.04602,0,0.0,0.0,0.0,0.0
0.487792969,0.006199765,-0.856419,0.51624405,-0.022310812,-0.51624393,-0.8561509,0.9997319,-0.0062098918,-0.022307998,-0.052465692,-0.9456538,0.32091472,0.13647567,-0.32513204,-0.93576896,0.9892531,-0.005298714,0.146117,9.727631,-0.09336853,-0.23701477,9.803955,-0.060897827,-0.21876526,-0.007446289,-0.008514404,-0.0010681152,-27.610779,-11.264038,-18.354797,0,0.0,0.0,0.0,0.0
0.4921875,0.0062016486,-0.85642034,0.5162421,-0.022344163,-0.5162417,-0.85615134,0.999731,-0.0062254462,-0.022337541,-0.051960982,-0.94427115,0.32504162,0.13308854,-0.32912573,-0.9348602,0.9897411,-0.0053169373,0.14277337,9.722839,-0.09815979,-0.2753296,9.803955,-0.061050415,-0.21905518,-0.0032043457,-0.017044067,0.0063934326,-27.610779,-11.264038,-18.354797,0,0.0,0.0,0.0,0.0
0.496582032,0.0062179626,-0.856431,0.5162241,-0.022459472,-0.51622343,-0.8561594,0.9997284,-0.0062705525,-0.022444844,-0.051418554,-0.9428904,0.3291106,0.12950501,-0.33305925,-0.93397003,0.9902447,-0.005401917,0.13923447,9.900009,-0.10772705,-0.20828247,9.803955,-0.06149292,-0.22010803,0.0010528564,-0.015975952,0.004257202,-27.610779,-11.264038,-18.354797,0,0.0,0.0,0.0,0.0
0.500976563,0.006865582,-0.840965,0.541046,-0.022200152,-0.5410536,-0.840695,0.99972993,-0.006239443,-0.022384197,-0.050880082,-0.94153106,0.3330623,0.12626457,-0.33688262,-0.93304193,0.9906909,-0.0054192897,0.13602263,9.751572,0.02154541,-0.06942749,9.803955,-0.061187744,-0.21951294,-0.008514404,-0.0234375,0.0063934326,-29.58374,-12.161255,-18.527222,0,0.0,0.0,0.0,0.0
0.505371094,0.0069089145,-0.840996,0.54099727,-0.022243973,-0.54100555,-0.8407248,0.9997287,-0.0062254313,-0.022444852,-0.050399065,-0.9399844,0.33747485,0.123065956,-0.34117413,-0.9319093,0.9911179,-0.005435693,0.13287494,9.828186,-0.011962891,-0.38545227,9.803955,-0.061050415,-0.22010803,0.0010528564,-0.02130127,0.0021209717,-29.58374,-12.161255,-18.527222,0,0.0,0.0,0.0,0.0
0.509765625,0.006863876,-0.84096384,0.541048,-0.022254895,-0.5410552,-0.8406927,0.99972874,-0.006270555,-0.022429293,-0.049899038,-0.93845004,0.34179175,0.119935796,-0.34537196,-0.93077046,0.99152684,-0.005451488,0.12978749,9.876068,-0.18434143,-0.17477417,9.803955,-0.06149292,-0.21995544,-0.0010681152,-0.0095825195,0.004257202,-29.58374,-12.161255,-18.527222,0,0.0,0.0,0.0,0.0
0.514160157,0.0064458684,-0.85219395,0.5231863,-0.022451572,-0.52318865,-0.85192114,0.99972713,-0.0062549855,-0.0225055,-0.049340554,-0.9369787,0.34588492,0.11655635,-0.3493422,-0.9297175,0.9919577,-0.005557697,0.12644756,9.770737,-0.02154541,-0.41418457,9.803955,-0.061340332,-0.22070313,-0.0095825195,-0.019165039,0.004257202,-28.507996,-11.802673,-18.873596,0,0.0,0.0,0.0,0.0
0.518554688,0.006400069,-0.8521635,0.5232365,-0.022463692,-0.5232377,-0.8518906,0.99972713,-0.0063016643,-0.022491496,-0.04876097,-0.9356181,0.34963006,0.11358683,-0.3529699,-0.9287142,0.9923308,-0.0055716424,0.12348504,9.866501,-0.18913269,-0.19392395,9.803955,-0.061798096,-0.2205658,0.003189087,-0.007461548,-0.0021362305,-28.507996,-11.802673,-18.873596,0,0.0,0.0,0.0,0.0
0.522949219,0.0064230226,-0.8521787,0.52321136,-0.022502307,-0.52321285,-0.8519048,0.9997261,-0.0063016578,-0.022536596,-0.048172094,-0.93427056,0.3532958,0.11068176,-0.35652104,-0.9277081,0.99268776,-0.0055862432,0.12058107,9.856918,-0.05984497,-0.33277893,9.803955,-0.061798096,-0.2210083,-0.008514404,-0.018112183,0.01171875,-28.507996,-11.802673,-18.873596,0,0.0,0.0,0.0,0.0
0.52734375,0.005934489,-0.86303365,0.50511146,-0.022639953,-0.50510687,-0.8627597,0.99972606,-0.006315661,-0.022536594,-0.047573473,-0.93293726,0.35688218,0.107838996,-0.3599955,-0.92670065,0.9930295,-0.0056005516,0.11773325,9.799454,-0.09336853,-0.22265625,9.803955,-0.061935425,-0.2210083,0.004257202,-0.019165039,-0.0138549805,-28.507996,-11.444092,-19.218445,0,0.0,0.0,0.0,0.0
0.531738282,0.0059421305,-0.8630386,0.50510305,-0.02265343,-0.5050985,-0.8627643,0.9997257,-0.006315659,-0.022552146,-0.04685081,-0.9317874,0.35996857,0.105087005,-0.36296225,-0.92585915,0.99335885,-0.005549232,0.11492382,9.732422,-0.06463623,-0.2609558,9.803955,-0.061935425,-0.22116089,-0.0021362305,-0.0010681152,-0.004272461,-28.507996,-11.444092,-19.218445,0,0.0,0.0,0.0,0.0
0.536132813,0.005916021,-0.86302185,0.5051318,-0.022668948,-0.5051265,-0.8627474,0.99972546,-0.0063467766,-0.02255214,-0.046197105,-0.9306352,0.36302045,0.10238511,-0.36590582,-0.92500275,0.99367154,-0.00556456,0.11218698,9.856918,-0.12689209,-0.20350647,9.803955,-0.0622406,-0.22116089,-0.012771606,-0.017044067,-0.010650635,-28.507996,-11.444092,-19.218445,0,0.0,0.0,0.0,0.0
0.540527344,0.0064732195,-0.85074145,0.5255445,-0.022581676,-0.52554584,-0.8504654,0.999724,-0.006362426,-0.022613142,-0.045540668,-0.9294969,0.36600757,0.099741265,-0.36878768,-0.92414683,0.99397075,-0.005580205,0.10950404,9.794678,-0.12689209,-0.15560913,9.8038025,-0.06239319,-0.22175598,0.0095825195,-0.012786865,0.007446289,-28.327942,-11.981201,-19.04602,0,0.0,0.0,0.0,0.0
0.544921875,0.006458949,-0.8507321,0.52555984,-0.022643637,-0.5255605,-0.85045487,0.9997228,-0.0064075417,-0.022658238,-0.04492774,-0.9281955,0.36937064,0.09713191,-0.37205088,-0.9231162,0.994257,-0.0055958494,0.1068728,9.794678,-0.16998291,-0.32321167,9.8038025,-0.06283569,-0.22219849,0.01171875,-0.02130127,-0.0010681152,-28.327942,-11.981201,-19.04602,0,0.0,0.0,0.0,0.0
0.549316407,0.0064332034,-0.8507152,0.5255875,-0.022659782,-0.52558744,-0.85043776,0.99972254,-0.00643866,-0.022658233,-0.044124596,-0.92693245,0.3726248,0.094352715,-0.37518746,-0.92213446,0.9945605,-0.0055306503,0.104013585,9.756363,-0.14604187,-0.22744751,9.8038025,-0.06314087,-0.22219849,-0.0032043457,-0.017044067,-0.0053253174,-28.327942,-11.981201,-19.04602,0,0.0,0.0,0.0,0.0
0.553710938,0.006485866,-0.85073024,0.5255627,-0.022716608,-0.5255635,-0.8504511,0.9997209,-0.006423089,-0.022734437,-0.043506153,-0.9256604,0.37584588,0.09185959,-0.37831485,-0.9211079,0.99482113,-0.0055488106,0.101489805,9.823395,-0.03590393,-0.3950348,9.8038025,-0.06298828,-0.22294617,-0.013839722,-0.0053253174,0.0063934326,-28.866577,-12.519836,-19.909668,0,0.0,0.0,0.0,0.0
0.558105469,0.0065248553,-0.85075516,0.5255218,-0.022781737,-0.52552307,-0.85047436,0.9997192,-0.0064230785,-0.022810642,-0.042883057,-0.92440367,0.3789972,0.08941961,-0.38137498,-0.92008543,0.9950704,-0.0055662957,0.09901434,9.818619,-0.05505371,-0.4333496,9.8038025,-0.06298828,-0.22369385,-0.0032043457,0.0010681152,0.007446289,-28.866577,-12.519836,-19.909668,0,0.0,0.0,0.0,0.0
0.5625,0.0065437993,-0.85076725,0.52550197,-0.022842979,-0.5255032,-0.85048485,0.9997176,-0.006438628,-0.022872845,-0.042256296,-0.92316264,0.38208,0.08703147,-0.384369,-0.91906804,0.99530894,-0.0055834316,0.09658621,9.938324,-0.11251831,-0.4046173,9.8038025,-0.06314087,-0.2243042,-0.007446289,-0.01171875,-0.0010681152,-28.866577,-12.519836,-19.909668,0,0.0,0.0,0.0,0.0
0.566894532,0.007607778,-0.8255054,0.56434304,-0.02256126,-0.5643574,-0.82522225,0.9997165,-0.006454181,-0.022917945,-0.041573446,-0.92198443,0.3849889,0.08456571,-0.3871864,-0.91811514,0.9955503,-0.0056123524,0.09406493,9.765945,-0.09815979,-0.31362915,9.8038025,-0.06329346,-0.2247467,-0.007446289,-0.008514404,0.0,-28.686523,-12.339783,-17.663574,0,0.0,0.0,0.0,0.0
0.571289063,0.0076034153,-0.8255021,0.56434786,-0.02247198,-0.56436276,-0.8252211,0.9997186,-0.006407515,-0.022841748,-0.041019704,-0.9204119,0.38879216,0.08224322,-0.39090952,-0.91674745,0.9957678,-0.005629189,0.09173263,9.742004,-0.02154541,-0.39024353,9.8038025,-0.06283569,-0.22399902,-0.008514404,0.0063934326,0.004257202,-28.686523,-12.339783,-17.663574,0,0.0,0.0,0.0,0.0
0.575683594,0.0075350013,-0.82545114,0.5644234,-0.022315986,-0.5644376,-0.8251741,0.99972254,-0.0063779764,-0.022673793,-0.040459044,-0.91885626,0.39251283,0.079974234,-0.39455214,-0.9153866,0.9959755,-0.0056447554,0.08944803,9.823395,-0.01675415,-0.34236145,9.8038025,-0.06254578,-0.22235107,0.0095825195,0.031951904,-0.0063934326,-28.686523,-12.339783,-17.663574,0,0.0,0.0,0.0,0.0
0.580078125,0.0067410045,-0.8421583,0.53918827,-0.022354089,-0.5391926,-0.8418857,0.9997273,-0.0063779075,-0.022460379,-0.040163487,-0.9171317,0.3965556,0.07851661,-0.39854544,-0.9137815,0.9961034,-0.0055644545,0.08801705,9.751572,-0.03111267,-0.4046173,9.803955,-0.06254578,-0.22026062,0.028762817,0.04899597,-0.0032043457,-28.686523,-11.981201,-18.354797,0,0.0,0.0,0.0,0.0
0.584472657,0.006556956,-0.84202933,0.53939176,-0.02211179,-0.53939354,-0.8417633,0.999734,-0.006407514,-0.022155559,-0.039544977,-0.9158552,0.39955655,0.07636294,-0.40146992,-0.91268325,0.99629563,-0.0055807238,0.085813515,9.823395,-0.01675415,-0.13166809,9.803955,-0.06283569,-0.2172699,-0.004272461,0.06283569,0.0021209717,-28.686523,-11.981201,-18.354797,0,0.0,0.0,0.0,0.0
0.588867188,0.006465775,-0.8419655,0.53949255,-0.02188112,-0.53949374,-0.84170514,0.99973965,-0.0063624266,-0.021911394,-0.038929116,-0.9145932,0.4024969,0.07426182,-0.40433636,-0.9115906,0.9964786,-0.0055972594,0.08365981,9.8138275,0.08378601,-0.08378601,9.803955,-0.06239319,-0.21487427,0.0053253174,0.06283569,0.008514404,-28.686523,-11.981201,-18.354797,0,0.0,0.0,0.0,0.0
0.593261719,0.0057805893,-0.8543735,0.51962715,-0.02186251,-0.5196196,-0.8541179,0.99974424,-0.0064230496,-0.02168246,-0.038314316,-0.9133468,0.40537593,0.07221153,-0.40714386,-0.91050506,0.9966532,-0.0056125633,0.08155361,9.761154,-0.12210083,0.07421875,9.804092,-0.06298828,-0.21263123,-0.008514404,0.04472351,0.004257202,-27.610779,-11.981201,-19.392395,0,0.0,0.0,0.0,0.0
0.59765625,0.005721148,-0.85433644,0.5196889,-0.0217918,-0.51968044,-0.8540827,0.9997461,-0.0064386213,-0.021590699,-0.03793688,-0.9122549,0.40786234,0.07056686,-0.40958288,-0.9095395,0.9967854,-0.0057235276,0.079913266,9.876068,-0.09815979,0.03111267,9.804092,-0.06314087,-0.21173096,0.007446289,0.025558472,0.0063934326,-27.610779,-11.981201,-19.392395,0,0.0,0.0,0.0,0.0
0.602050782,0.0056588887,-0.8542976,0.5197535,-0.021686424,-0.51974446,-0.8540466,0.9997488,-0.0064386385,-0.021467835,-0.037292074,-0.9112323,0.41020113,0.06862024,-0.41185284,-0.90866303,0.9969456,-0.005737829,0.077887826,9.847351,-0.08857727,0.09336853,9.804092,-0.06314087,-0.21052551,-0.0032043457,-0.012786865,0.0021209717,-27.610779,-11.981201,-19.392395,0,0.0,0.0,0.0,0.0
0.606445313,0.0057419823,-0.85434943,0.51966727,-0.021797145,-0.5196593,-0.85409546,0.9997459,-0.0064230603,-0.021606253,-0.036651935,-0.910224,0.41249102,0.06671794,-0.41407624,-0.9077938,0.99709845,-0.0057518454,0.075904965,9.770737,-0.12210083,-0.17477417,9.804092,-0.06298828,-0.21188354,-0.0032043457,0.004257202,-0.009597778,-27.610779,-11.981201,-19.392395,0,0.0,0.0,0.0,0.0
0.610839844,0.0057882094,-0.8543783,0.5196192,-0.021965204,-0.5196112,-0.85412043,0.99974203,-0.0064697145,-0.021774214,-0.0360141,-0.90923136,0.4147303,0.06485452,-0.41625112,-0.9069338,0.99724466,-0.0057652695,0.07395867,9.770737,-0.09815979,-0.32321167,9.804092,-0.063446045,-0.2135315,0.003189087,-0.03302002,-0.01171875,-27.610779,-11.981201,-19.392395,0,0.0,0.0,0.0,0.0
0.615234375,0.005896455,-0.8544459,0.5195069,-0.022058943,-0.5195007,-0.8541853,0.9997393,-0.0064231073,-0.021911386,-0.03531729,-0.9082856,0.41685718,0.06255686,-0.41830862,-0.9061482,0.9974163,-0.0059254216,0.071593024,9.775513,-0.03111267,-0.2609558,9.803955,-0.06298828,-0.21487427,-0.0053253174,-0.027694702,0.008514404,-27.610779,-11.981201,-19.392395,0,0.0,0.0,0.0,0.0
0.619628907,0.006651079,-0.8386639,0.54460853,-0.022061512,-0.5446111,-0.8383984,0.99973446,-0.006438636,-0.022124449,-0.034685668,-0.9073236,0.4189996,0.060777478,-0.42039093,-0.9053052,0.99754846,-0.005935375,0.069726385,9.775513,-0.14604187,-0.4812317,9.803955,-0.06314087,-0.21696472,-0.03514099,-0.026626587,-0.0053253174,-27.790833,-11.802673,-17.835999,0,0.0,0.0,0.0,0.0
0.624023438,0.006704138,-0.83870125,0.5445506,-0.022117402,-0.54455394,-0.83843416,0.99973285,-0.0064230664,-0.022200657,-0.03409232,-0.9061255,0.4216329,0.05901239,-0.42296714,-0.90422136,0.99767494,-0.0059454404,0.06789257,9.832977,0.02154541,-0.36151123,9.803955,-0.06298828,-0.2177124,0.022369385,-0.024505615,-0.0063934326,-27.790833,-11.802673,-17.835999,0,0.0,0.0,0.0,0.0
0.628417969,0.006744501,-0.83872956,0.54450643,-0.02218166,-0.54451036,-0.8384608,0.99973124,-0.006423056,-0.022276863,-0.03350022,-0.90494496,0.42420802,0.057284914,-0.42548707,-0.90314966,0.9977957,-0.0059549925,0.0660936,9.809036,-0.15083313,-0.19392395,9.803955,-0.06298828,-0.21846008,-0.03302002,-0.004257202,0.004257202,-27.790833,-11.802673,-17.835999,0,0.0,0.0,0.0,0.0
0.6328125,0.006404491,-0.8462679,0.5327192,-0.022257159,-0.5327187,-0.84599954,0.99973166,-0.0064386185,-0.022247309,-0.03264855,-0.90369666,0.42692664,0.05537014,-0.4281338,-0.90201753,0.997932,-0.0058105746,0.06401576,9.804245,-0.11251831,-0.15560913,9.803955,-0.06314087,-0.21817017,0.012771606,-0.019165039,-0.008529663,-27.610779,-11.981201,-18.701172,0,0.0,0.0,0.0,0.0
0.637207032,0.0064117517,-0.84627265,0.5327115,-0.02226906,-0.53271115,-0.846004,0.99973136,-0.0064386167,-0.022261307,-0.032051228,-0.9026718,0.4291345,0.05373119,-0.43029037,-0.90109,0.998041,-0.0058231354,0.06229296,9.742004,-0.05027771,-0.23222351,9.803955,-0.06314087,-0.2183075,0.003189087,-0.018112183,-0.0063934326,-27.610779,-11.981201,-18.701172,0,0.0,0.0,0.0,0.0
0.641601563,0.006404491,-0.8462679,0.5327192,-0.022257159,-0.5327187,-0.84599954,0.99973166,-0.0064386185,-0.022247309,-0.031458262,-0.9016624,0.43129486,0.052127775,-0.43240124,-0.90017325,0.9981448,-0.005835445,0.060604244,9.799454,-0.08857727,-0.20828247,9.803955,-0.06314087,-0.21817017,-0.008514404,-0.0063934326,-0.0063934326,-27.610779,-11.981201,-18.701172,0,0.0,0.0,0.0,0.0
0.645996094,0.006145586,-0.85189563,0.5236755,-0.022319032,-0.52367175,-0.85162765,0.99973196,-0.00645418,-0.022231756,-0.030870076,-0.90066844,0.43340904,0.05055949,-0.43446767,-0.89926726,0.9982438,-0.005847508,0.05894939,9.84256,-0.09336853,-0.16040039,9.803955,-0.06329346,-0.21801758,-0.013839722,-0.0053253174,-0.004272461,-28.686523,-12.339783,-19.737244,0,0.0,0.0,0.0,0.0
0.650390625,0.006241182,-0.8519568,0.5235748,-0.022420041,-0.5235726,-0.851686,0.9997292,-0.0064230426,-0.02236862,-0.030255277,-0.8997659,0.4353228,0.04886752,-0.43633285,-0.89845735,0.9983469,-0.0059099304,0.0571707,9.928741,0.02154541,-0.17477417,9.803955,-0.06298828,-0.21936035,0.0021209717,-0.0095825195,0.003189087,-28.686523,-12.339783,-19.737244,0,0.0,0.0,0.0,0.0
0.654785157,0.0063771205,-0.85204375,0.5234316,-0.022532407,-0.5234318,-0.8517695,0.99972576,-0.006362338,-0.022536587,-0.029666025,-0.89889556,0.43715757,0.04737419,-0.438123,-0.89766586,0.99843657,-0.0059201927,0.055581816,9.856918,-0.07421875,-0.2896881,9.803955,-0.06239319,-0.2210083,-0.015975952,-0.03515625,0.0,-28.686523,-12.339783,-19.737244,0,0.0,0.0,0.0,0.0
0.659179688,0.0071404357,-0.837564,0.54629266,-0.022450905,-0.54630315,-0.83728665,0.9997225,-0.006286173,-0.02270491,-0.029080132,-0.8980406,0.43895042,0.04591071,-0.43987265,-0.89688593,0.99852216,-0.005929035,0.05402123,9.852127,-0.03590393,-0.35673523,9.8038025,-0.061645508,-0.22265625,0.017044067,-0.030883789,-0.017044067,-27.610779,-11.981201,-18.008423,0,0.0,0.0,0.0,0.0
0.663574219,0.007181483,-0.83759236,0.5462486,-0.022459023,-0.54626,-0.83731455,0.99972194,-0.00625505,-0.022734461,-0.02852169,-0.8969602,0.44119015,0.04446101,-0.44207126,-0.8958773,0.9986038,-0.0059361784,0.052488375,9.708481,0.011962891,-0.32321167,9.8038025,-0.061340332,-0.22294617,-0.011703491,-0.026626587,-0.0138549805,-27.610779,-11.981201,-18.008423,0,0.0,0.0,0.0,0.0
0.66796875,0.007230352,-0.8376261,0.5461961,-0.022482395,-0.54620844,-0.83734745,0.99972105,-0.006225481,-0.022781122,-0.027731903,-0.8959493,0.44328982,0.043042023,-0.44411936,-0.89493316,0.9986883,-0.00573811,0.050879743,9.794678,-0.002380371,-0.33277893,9.8038025,-0.061050415,-0.22340393,-0.006378174,-0.0063934326,-0.012786865,-27.610779,-11.981201,-18.008423,0,0.0,0.0,0.0,0.0
0.672363282,0.0062611783,-0.860151,0.51000094,-0.02279072,-0.51000124,-0.8598716,0.99972063,-0.006239482,-0.022796672,-0.027185423,-0.89490175,0.44543442,0.04165497,-0.44622624,-0.8939502,0.99876213,-0.0057478575,0.049407955,9.832977,-0.09336853,-0.24659729,9.8038025,-0.061187744,-0.22355652,-0.011703491,-0.0053253174,-0.009597778,-27.790833,-11.802673,-19.56482,0,0.0,0.0,0.0,0.0
0.676757813,0.006268129,-0.86015534,0.5099937,-0.022802815,-0.50999403,-0.8598757,0.99972034,-0.0062394803,-0.02281067,-0.026609331,-0.8942524,0.44677126,0.04032055,-0.44752595,-0.89336157,0.9988324,-0.00575769,0.047965113,9.794678,-0.05505371,-0.2609558,9.8038025,-0.061187744,-0.22369385,-0.0053253174,-0.008514404,-0.010650635,-27.790833,-11.802673,-19.56482,0,0.0,0.0,0.0,0.0
0.681152344,0.006242078,-0.86013925,0.51002103,-0.022818485,-0.5100207,-0.8598594,0.99972016,-0.0062705986,-0.022810664,-0.026048377,-0.8935665,0.44817454,0.03895177,-0.44889346,-0.8927359,0.9989015,-0.00579713,0.04649894,9.799454,-0.15560913,-0.21307373,9.8038025,-0.06149292,-0.22369385,0.006378174,-0.003189087,0.0021209717,-27.790833,-11.802673,-19.56482,1,0.0,0.0,0.0,0.0
0.685546875,0.007514263,-0.82907146,0.55909216,-0.022410413,-0.5591072,-0.8287925,0.99972063,-0.0063017216,-0.022781111,-0.025487881,-0.89293987,0.4494538,0.037674088,-0.45013845,-0.8921637,0.99896497,-0.0058065997,0.045113772,9.856918,-0.12689209,-0.17955017,9.8038025,-0.061798096,-0.22340393,0.0021209717,0.011703491,0.007446289,-28.507996,-12.519836,-18.182373,1,0.0,0.0,0.0,0.0
0.689941407,0.0074819815,-0.82904834,0.5591269,-0.022413738,-0.55914116,-0.8287695,0.9997208,-0.006331286,-0.022765554,-0.024978295,-0.8917991,0.45174164,0.036394775,-0.45239428,-0.89107513,0.9990252,-0.005816502,0.043756865,9.636658,-0.13166809,-0.16519165,9.8038025,-0.062088013,-0.22325134,-0.0053253174,0.0010681152,0.0053253174,-28.507996,-12.519836,-18.182373,1,0.0,0.0,0.0,0.0
0.694335938,0.0074612764,-0.8290335,0.5591491,-0.022465417,-0.5591625,-0.8287536,0.99971974,-0.0063779587,-0.022796651,-0.024473464,-0.8906752,0.45398098,0.035143763,-0.45460287,-0.89000064,0.9990825,-0.0058267973,0.042427387,9.818619,-0.18434143,-0.2753296,9.8038025,-0.06254578,-0.22355652,-0.006378174,-0.018112183,-0.007461548,-28.507996,-12.519836,-18.182373,1,0.0,0.0,0.0,0.0
0.698730469,0.006825032,-0.8450157,0.5346979,-0.022765825,-0.5347031,-0.84473324,0.9997175,-0.006407508,-0.022886846,-0.02393259,-0.88960725,0.45609885,0.03376321,-0.4566885,-0.8889858,0.99914324,-0.005876369,0.040965736,9.8138275,-0.026321411,-0.14604187,9.8038025,-0.06283569,-0.22444153,-0.0053253174,-0.0095825195,0.0021209717,-27.07367,-12.161255,-18.873596,1,0.0,0.0,0.0,0.0
0.703125,0.0068924055,-0.8450588,0.53462905,-0.022904782,-0.5346349,-0.84477276,0.9997139,-0.0064230445,-0.023040805,-0.02393259,-0.88960725,0.45609885,0.03376321,-0.4566885,-0.8889858,0.99914324,-0.005876369,0.040965736,9.8138275,-0.026321411,-0.14604187,9.8038025,-0.06298828,-0.22595215,-0.0053253174,-0.0095825195,0.0021209717,-27.07367,-12.161255,-18.873596,1,0.0,0.0,0.0,0.0
0.707519532,0.006991824,-0.8451222,0.5345273,-0.023037888,-0.53453463,-0.8448324,0.99971014,-0.0064074607,-0.023207206,-0.022907328,-0.8879773,0.45931637,0.03141818,-0.4598494,-0.8874409,0.9992438,-0.0058980174,0.03843255,9.852127,-0.05027771,-0.12210083,9.8038025,-0.06283569,-0.22758484,-0.014907837,-0.040481567,0.0063934326,-27.07367,-12.161255,-18.873596,1,0.0,0.0,0.0,0.0
0.711914063,0.0069857338,-0.8482772,0.5295065,-0.02323249,-0.5295142,-0.847983,0.99970573,-0.0063779685,-0.023406632,-0.022402171,-0.8871837,0.46087223,0.03028062,-0.46137854,-0.8866865,0.99929035,-0.005908206,0.037200354,9.866501,-0.04069519,-0.23701477,9.80365,-0.06254578,-0.22953796,0.022369385,-0.046875,-0.0010681152,-28.866577,-11.802673,-18.527222,1,0.0,0.0,0.0,0.0
0.716308594,0.007136869,-0.8483814,0.5293374,-0.023424495,-0.5293475,-0.8480817,0.9997001,-0.0063468134,-0.023650788,-0.021471404,-0.8863388,0.46253926,0.028540378,-0.46300077,-0.88589823,0.999362,-0.0058204336,0.035237722,9.780304,-0.01675415,-0.19392395,9.80365,-0.0622406,-0.2319336,0.015975952,-0.045806885,-0.0053253174,-28.866577,-11.802673,-18.527222,1,0.0,0.0,0.0,0.0
0.720703125,0.007337882,-0.84852,0.52911246,-0.02358493,-0.5291264,-0.8482152,0.99969494,-0.0062549785,-0.02389495,-0.020977847,-0.88562965,0.46391818,0.027459826,-0.46435562,-0.885223,0.99940276,-0.0058309613,0.03406042,9.828186,0.026321411,-0.21786499,9.80365,-0.061340332,-0.23432922,-0.008514404,-0.057525635,-0.004272461,-28.866577,-11.802673,-18.527222,1,0.0,0.0,0.0,0.0
0.725097657,0.00786054,-0.8406098,0.5415843,-0.023633577,-0.5416059,-0.8403003,0.99968976,-0.00619436,-0.024123928,-0.020486958,-0.88493526,0.46526328,0.026399063,-0.46567753,-0.88456064,0.9994415,-0.005839442,0.032901775,9.799454,-0.01675415,-0.13166809,9.803497,-0.06074524,-0.23657227,-0.0032043457,-0.05645752,-0.014923096,-29.225159,-12.878418,-19.56482,1,0.0,0.0,0.0,0.0
0.729492188,0.007991892,-0.8406976,0.54144585,-0.023873333,-0.5414692,-0.8403815,0.9996831,-0.0062098787,-0.024397619,-0.020007173,-0.8841146,0.4668415,0.025351662,-0.46723342,-0.88377047,0.99947834,-0.00584654,0.031761795,9.789886,-0.011962891,-0.21786499,9.803497,-0.060897827,-0.23925781,-0.0053253174,-0.06071472,-0.010650635,-29.225159,-12.878418,-19.56482,1,0.0,0.0,0.0,0.0
0.733886719,0.0081704,-0.84081703,0.5412578,-0.024103092,-0.5412842,-0.8404942,0.9996761,-0.006178812,-0.024688797,-0.019162662,-0.88338035,0.46826485,0.023328166,-0.46861836,-0.88309264,0.9995442,-0.0059986473,0.029587619,9.871292,-0.06463623,-0.13166809,9.803345,-0.06059265,-0.2421112,-0.0095825195,-0.06391907,0.008514404,-29.225159,-12.878418,-19.56482,1,0.0,0.0,0.0,0.0
0.73828125,0.008633077,-0.8325822,0.5538343,-0.024238927,-0.55386645,-0.83225256,0.99966884,-0.00623945,-0.024962468,-0.018695127,-0.88258946,0.46977255,0.022336278,-0.4701061,-0.8823272,0.99957573,-0.0060022506,0.028502459,9.9048,-0.11730957,-0.37109375,9.803345,-0.061187744,-0.24479675,0.003189087,-0.07563782,-0.0053253174,-27.610779,-13.415527,-19.737244,1,0.0,0.0,0.0,0.0
0.742675782,0.008731214,-0.83264434,0.55373925,-0.024447767,-0.55377257,-0.8323089,0.99966294,-0.0062706205,-0.025191402,-0.018238632,-0.8816702,0.47151357,0.021354891,-0.47182792,-0.881432,0.99960554,-0.0060069943,0.027433466,9.914383,-0.14604187,-0.41418457,9.803207,-0.06149292,-0.2470398,-0.012771606,-0.051132202,0.007446289,-27.610779,-13.415527,-19.737244,1,0.0,0.0,0.0,0.0
0.747070313,0.008747976,-0.8326549,0.553723,-0.024473824,-0.55375654,-0.8323188,0.99966216,-0.0062706154,-0.0252225,-0.017785883,-0.88076705,0.4732157,0.02039053,-0.47351167,-0.8805515,0.9996339,-0.006012267,0.02638113,9.847351,-0.08378601,-0.3375702,9.803207,-0.06149292,-0.24734497,-0.011703491,-0.03727722,-0.0010681152,-27.610779,-13.415527,-19.737244,1,0.0,0.0,0.0,0.0
0.751464844,0.008493254,-0.8401082,0.54235244,-0.024683964,-0.54238284,-0.8397688,0.99965924,-0.0062550376,-0.025343793,-0.017166207,-0.8799378,0.4747786,0.0192014,-0.47505108,-0.8797487,0.99966824,-0.0059855347,0.025050864,9.789886,0.03111267,-0.27053833,9.803207,-0.061340332,-0.24853516,-0.007446289,-0.018112183,-0.0021362305,-28.507996,-11.802673,-17.835999,1,0.0,0.0,0.0,0.0
0.755859375,0.0085418215,-0.84014297,0.54229784,-0.024707662,-0.5423294,-0.8398027,0.9996582,-0.006225467,-0.025390446,-0.016720984,-0.8791933,0.4761718,0.01828587,-0.47642758,-0.87902355,0.999693,-0.005990925,0.024043152,9.938324,0.026321411,-0.36151123,9.803207,-0.061050415,-0.24899292,-0.0032043457,-0.0234375,0.004257202,-28.507996,-11.802673,-17.835999,1,0.0,0.0,0.0,0.0
0.760253907,0.008562293,-0.84015757,0.5422748,-0.024766427,-0.5423065,-0.8398157,0.9996566,-0.0062394612,-0.025451088,-0.01628091,-0.8784621,0.47753456,0.017389482,-0.47777438,-0.87831044,0.9997162,-0.0059956154,0.023054602,9.761154,-0.08378601,-0.4333496,9.803207,-0.061187744,-0.24958801,0.0053253174,0.0053253174,0.0,-28.507996,-11.802673,-17.835999,1,0.0,0.0,0.0,0.0
0.764648438,0.0076389727,-0.8595079,0.51106524,-0.025050823,-0.51108426,-0.85916543,0.99965703,-0.006239464,-0.02543554,-0.015841112,-0.8777862,0.47879055,0.016574161,-0.47901538,-0.87765,0.99973714,-0.0059673996,0.022136707,9.837769,-0.09336853,-0.20828247,9.803207,-0.061187744,-0.24943542,-0.0053253174,0.0032043457,-0.0021362305,-27.610779,-11.981201,-19.737244,1,0.0,0.0,0.0,0.0
0.769042969,0.0074996296,-0.8594237,0.511209,-0.024957584,-0.511225,-0.85908437,0.9996603,-0.0063157277,-0.025283137,-0.015401855,-0.8774323,0.4794532,0.015724968,-0.47966337,-0.87731165,0.9997577,-0.005972841,0.0211853,9.770737,-0.14604187,-0.10772705,9.803207,-0.061935425,-0.24794006,-0.007446289,0.019165039,0.010650635,-27.610779,-11.981201,-19.737244,1,0.0,0.0,0.0,0.0
0.7734375,0.007397925,-0.8593621,0.5113139,-0.024841653,-0.511328,-0.8590264,0.99966395,-0.00634687,-0.025130743,-0.014973056,-0.8770833,0.4801049,0.014895352,-0.48030108,-0.8769772,0.99977696,-0.005979698,0.02025604,9.880859,-0.09336853,-0.10293579,9.803207,-0.0622406,-0.2464447,0.012771606,0.022354126,0.0063934326,-27.610779,-11.981201,-19.737244,1,0.0,0.0,0.0,0.0
0.777832032,0.006998849,-0.8680464,0.49643376,-0.025018092,-0.49644253,-0.86770904,0.9996625,-0.006346861,-0.02519139,-0.014553733,-0.87673974,0.48074487,0.01408532,-0.48092782,-0.87664706,0.99979484,-0.005987042,0.019348454,9.852127,-0.06942749,-0.41897583,9.803207,-0.0622406,-0.2470398,0.015975952,0.023422241,0.004257202,-27.07367,-11.802673,-20.256042,1,0.0,0.0,0.0,0.0
0.782226563,0.006931479,-0.86800814,0.49650148,-0.024987318,-0.4965087,-0.86767197,0.9996637,-0.006391992,-0.025130736,-0.014373152,-0.8765168,0.48115662,0.013545233,-0.48133284,-0.8764333,0.999805,-0.00607973,0.018790895,9.727631,-0.13166809,-0.3375702,9.803207,-0.062683105,-0.2464447,0.006378174,0.020233154,0.0053253174,-27.07367,-11.802673,-20.256042,1,0.0,0.0,0.0,0.0
0.786621094,0.006904505,-0.8679929,0.49652866,-0.024878962,-0.4965359,-0.86765957,0.99966663,-0.006362358,-0.025023097,-0.01396039,-0.87634915,0.48147398,0.0127674565,-0.48163787,-0.8762773,0.999821,-0.006085975,0.017912604,9.832977,-0.09815979,-0.28489685,9.803345,-0.06239319,-0.24539185,0.006378174,0.024490356,0.0021209717,-27.07367,-11.802673,-20.256042,1,0.0,0.0,0.0,0.0
0.791015625,0.007608109,-0.8500629,0.52662635,-0.024472667,-0.5266422,-0.8497349,0.99967164,-0.006423073,-0.024810053,-0.013555851,-0.8761846,0.4817851,0.012007628,-0.48193726,-0.8761234,0.999836,-0.006091503,0.017053967,9.828186,-0.15560913,-0.12689209,9.803345,-0.06298828,-0.24330139,0.0095825195,0.027679443,-0.009597778,-28.507996,-12.161255,-19.218445,1,0.0,0.0,0.0,0.0
0.795410157,0.0075252815,-0.8500087,0.5267149,-0.024363775,-0.5267293,-0.8496838,0.99967474,-0.006438653,-0.024673205,-0.013169854,-0.8756849,0.48270333,0.011257088,-0.48284444,-0.8756338,0.9998499,-0.006098135,0.016216652,9.727631,-0.02154541,-0.24659729,9.803345,-0.06314087,-0.24195862,-0.008514404,0.036209106,0.007446289,-28.507996,-12.161255,-19.218445,1,0.0,0.0,0.0,0.0
0.799804688,0.0074057193,-0.8499305,0.5268428,-0.024223115,-0.52685505,-0.84960985,0.9996791,-0.0064698006,-0.024489705,-0.013139148,-0.875082,0.4837963,0.010972557,-0.4839351,-0.8750351,0.9998535,-0.006188734,0.015960382,9.832977,-0.07421875,-0.19392395,9.803345,-0.063446045,-0.24015808,0.013839722,0.034072876,0.0053253174,-28.507996,-12.161255,-19.218445,1,0.0,0.0,0.0,0.0
0.804199219,0.006451534,-0.8678827,0.4967273,-0.02426144,-0.4967273,-0.8675676,0.9996849,-0.006454177,-0.024260735,-0.012762843,-0.87459993,0.48467723,0.01024917,-0.48480567,-0.8745618,0.999866,-0.0061943554,0.015151422,9.794678,-0.05505371,-0.07421875,9.803497,-0.06329346,-0.23791504,-0.007446289,0.03514099,0.0053253174,-28.149414,-11.802673,-20.256042,1,0.0,0.0,0.0,0.0
0.80859375,0.006345448,-0.86782,0.49683815,-0.024129583,-0.4968364,-0.86750877,0.99968874,-0.006483766,-0.024092784,-0.012387969,-0.8744672,0.48492643,0.009553917,-0.48504505,-0.874437,0.99987763,-0.0061995517,0.01436331,9.761154,-0.15083313,-0.04548645,9.803497,-0.063583374,-0.23626709,-0.0053253174,0.039398193,-0.0032043457,-28.149414,-11.802673,-20.256042,1,0.0,0.0,0.0,0.0
0.812988282,0.0063116807,-0.8678,0.49687344,-0.024131294,-0.49687085,-0.8674889,0.9996889,-0.006514887,-0.02407723,-0.012022363,-0.8743359,0.4851724,0.00887534,-0.48528165,-0.8743129,0.99988836,-0.0062052356,0.01359426,9.832977,-0.14604187,-0.20350647,9.803497,-0.06388855,-0.2361145,0.01171875,0.022354126,-0.0021362305,-28.149414,-11.802673,-20.256042,1,0.0,0.0,0.0,0.0
0.817382813,0.006332322,-0.8678123,0.4968519,-0.024137216,-0.49684975,-0.86750096,0.9996886,-0.0064993254,-0.024092782,-0.011681197,-0.8741483,0.48551866,0.008421242,-0.4856206,-0.8741291,0.99989635,-0.006122205,0.013034045,9.804245,-0.03590393,-0.2896881,9.803497,-0.06373596,-0.23626709,0.007446289,0.011703491,-0.0053253174,-28.149414,-11.802673,-20.256042,1,0.0,0.0,0.0,0.0
0.821777344,0.006372291,-0.8678359,0.4968101,-0.024149816,-0.49680886,-0.86752397,0.9996881,-0.0064697578,-0.024123888,-0.011329267,-0.87402296,0.4857526,0.007765567,-0.48584604,-0.87400997,0.9999057,-0.0061297477,0.012291563,9.804245,-0.007171631,-0.3088379,9.803497,-0.063446045,-0.23657227,-0.0032043457,0.008529663,0.0010681152,-28.149414,-11.802673,-20.256042,1,0.0,0.0,0.0,0.0
0.826171875,0.0063604773,-0.8678289,0.49682245,-0.024156682,-0.49682084,-0.8675168,0.9996879,-0.0064837607,-0.024123885,-0.010983194,-0.87390053,0.4859807,0.0071228943,-0.48606607,-0.873893,0.9999143,-0.006136548,0.011563258,9.856918,-0.07421875,-0.21786499,9.803497,-0.063583374,-0.23657227,-0.004272461,0.0010681152,0.003189087,-28.149414,-11.802673,-20.256042,1,0.0,0.0,0.0,0.0
0.830566407,0.0065520797,-0.8642269,0.5030597,-0.024081923,-0.50306094,-0.86391544,0.9996885,-0.006454201,-0.02410834,-0.010644016,-0.87378037,0.48620418,0.0064931847,-0.48628187,-0.87377787,0.9999222,-0.006143492,0.01084961,9.8138275,-0.01675415,-0.20350647,9.803497,-0.06329346,-0.23641968,0.013839722,-0.004257202,0.008514404,-28.149414,-11.802673,-19.909668,1,0.0,0.0,0.0,0.0
0.834960938,0.0065596853,-0.86423147,0.50305164,-0.02409542,-0.503053,-0.8639196,0.99968815,-0.0064541986,-0.02412389,-0.010085523,-0.8736628,0.48642734,0.0059008845,-0.48649558,-0.8736631,0.99993175,-0.005940998,0.010061946,9.756363,-0.026321411,-0.2896881,9.803497,-0.06329346,-0.23657227,-0.008514404,-0.0053253174,-0.012786865,-28.149414,-11.802673,-19.909668,1,0.0,0.0,0.0,0.0
0.839355469,0.0066617313,-0.8642933,0.502944,-0.02424563,-0.5029469,-0.8639771,0.9996838,-0.006438611,-0.024305834,-0.009763895,-0.8734774,0.48676682,0.0052947723,-0.4868284,-0.8734816,0.9999383,-0.005951262,0.009378205,9.856918,-0.14125061,-0.4524994,9.803497,-0.06314087,-0.23835754,0.01171875,-0.01171875,0.0053253174,-28.149414,-11.802673,-19.909668,1,0.0,0.0,0.0,0.0
0.84375,0.0076280003,-0.8427784,0.53820676,-0.023987118,-0.5382218,-0.8424619,0.99968314,-0.00648373,-0.024321377,-0.0094461795,-0.8732967,0.4870972,0.0046979967,-0.48715237,-0.87330437,0.9999443,-0.005961009,0.008704473,9.823395,-0.18913269,-0.27053833,9.803497,-0.063583374,-0.23851013,0.019165039,-0.022369385,-0.008529663,-28.686523,-11.981201,-18.354797,1,0.0,0.0,0.0,0.0
0.848144532,0.007570889,-0.84273845,0.53827,-0.023952197,-0.5382838,-0.84242314,0.9996844,-0.0065148575,-0.024260726,-0.009138395,-0.8727162,0.48814234,0.0041050734,-0.48819137,-0.8727269,0.9999498,-0.0059714634,0.00804385,9.799454,-0.12689209,-0.09336853,9.803497,-0.06388855,-0.23791504,0.0021209717,-0.022369385,-0.008529663,-28.686523,-11.981201,-18.354797,1,0.0,0.0,0.0,0.0
0.852539063,0.007609009,-0.8427651,0.5382278,-0.024126746,-0.53824145,-0.8424453,0.9996799,-0.006575511,-0.024428662,-0.00885781,-0.8722041,0.4890618,0.0033129223,-0.4891039,-0.8722192,0.99995524,-0.0061057284,0.0072219344,9.794678,-0.21307373,-0.3375702,9.803497,-0.06448364,-0.23956299,-0.007446289,-0.010650635,0.007446289,-28.686523,-11.981201,-18.354797,1,0.0,0.0,0.0,0.0
0.856933594,0.0072504343,-0.8514451,0.5243936,-0.02442299,-0.5244017,-0.85112053,0.99967533,-0.0066362666,-0.024596976,-0.00855952,-0.87164307,0.49006638,0.0027463008,-0.49010295,-0.87166023,0.9999596,-0.006115124,0.0065888404,9.914383,-0.2609558,-0.14604187,9.803345,-0.065078735,-0.24121094,-0.011703491,-0.027694702,0.0,-28.866577,-11.444092,-18.182373,1,0.0,0.0,0.0,0.0
0.861328125,0.0072540804,-0.8514477,0.52438945,-0.024402447,-0.5243978,-0.8511237,0.99967587,-0.006622266,-0.024581429,-0.008264637,-0.8712526,0.49076533,0.002190852,-0.4907967,-0.8712714,0.99996346,-0.006125547,0.0059650415,9.900009,-0.026321411,-0.21786499,9.803345,-0.064941406,-0.24105835,0.014907837,-0.045806885,-0.0021362305,-28.866577,-11.444092,-18.182373,1,0.0,0.0,0.0,0.0
0.865722657,0.00736014,-0.85152173,0.52426773,-0.024551539,-0.52427775,-0.8511933,0.99967146,-0.006606677,-0.024764925,-0.0077547524,-0.8708697,0.49145275,0.0013290734,-0.49147606,-0.8708901,0.99996907,-0.00610036,0.004968725,9.598343,0.04548645,-0.27053833,9.803345,-0.06478882,-0.24285889,0.0,-0.0234375,-0.0021362305,-28.866577,-11.444092,-18.182373,1,0.0,0.0,0.0,0.0
0.870117188,0.008200202,-0.8333844,0.5526329,-0.024369596,-0.55265397,-0.8330544,0.9996694,-0.0066362265,-0.024841115,-0.007471897,-0.8704951,0.4921205,8.004564E-4,-0.49213928,-0.8705162,0.9999718,-0.0061104856,0.004374007,9.847351,-0.16519165,-0.28489685,9.803345,-0.065078735,-0.24360657,0.019165039,-0.03727722,0.004257202,-27.252197,-11.981201,-17.663574,1,0.0,0.0,0.0,0.0
0.874511719,0.008232731,-0.83340716,0.5525982,-0.024420468,-0.55261964,-0.8330757,0.9996679,-0.006636217,-0.024901763,-0.007193872,-0.86979526,0.49336043,2.7636765E-4,-0.49337488,-0.8698168,0.99997413,-0.0061210007,0.0037896587,9.914383,-0.06942749,-0.375885,9.803345,-0.065078735,-0.24420166,-0.018096924,-0.015975952,-0.0032043457,-27.252197,-11.981201,-17.663574,1,0.0,0.0,0.0,0.0
0.87890625,0.008249412,-0.83341885,0.55258036,-0.024446556,-0.5526021,-0.83308667,0.9996671,-0.0066362116,-0.024932861,-0.006919383,-0.8691081,0.4945738,-2.3750588E-4,-0.4945842,-0.86912966,0.99997604,-0.0061313054,0.0032157993,9.837769,-0.08857727,-0.3375702,9.803345,-0.065078735,-0.24450684,0.010650635,-0.012786865,0.0010681152,-27.252197,-11.981201,-17.663574,1,0.0,0.0,0.0,0.0
0.883300782,0.0075932057,-0.84830225,0.52945775,-0.024668653,-0.52947074,-0.8479693,0.9996668,-0.006622206,-0.024946857,-0.0065967664,-0.86851084,0.49562627,-9.732719E-4,-0.49563125,-0.8685325,0.99997777,-0.0062118853,0.0024242664,9.74678,-0.02154541,-0.2896881,9.803345,-0.064941406,-0.24464417,-0.0095825195,-0.013839722,0.004257202,-26.715088,-11.802673,-18.527222,1,0.0,0.0,0.0,0.0
0.887695313,0.00760567,-0.84831023,0.5294449,-0.024715748,-0.52945787,-0.847976,0.99966556,-0.0066362014,-0.024993505,-0.006331376,-0.86811984,0.49631423,-0.0014578761,-0.49631563,-0.8681409,0.99997884,-0.0062200916,0.0018767499,9.895233,-0.08857727,-0.36151123,9.803345,-0.065078735,-0.24510193,0.004257202,0.0032043457,-0.0053253174,-26.715088,-11.802673,-18.527222,1,0.0,0.0,0.0,0.0
0.892089844,0.007640404,-0.8483324,0.52940893,-0.024746904,-0.52942264,-0.8479972,0.9996645,-0.0066221906,-0.025038602,-0.0060703927,-0.8677363,0.49698782,-0.00193323,-0.49698588,-0.8677565,0.99997973,-0.0062284144,0.0013393655,9.751572,-0.02154541,-0.33277893,9.803345,-0.064941406,-0.24554443,-0.012771606,0.013839722,-0.010650635,-26.715088,-11.802673,-18.527222,1,0.0,0.0,0.0,0.0
0.896484375,0.007643695,-0.8485986,0.528982,-0.024687793,-0.5289963,-0.8482649,0.9996659,-0.006575521,-0.024993515,-0.005813192,-0.86736023,0.49764684,-0.0023993852,-0.49764174,-0.8673793,0.9999802,-0.0062362896,8.117557E-4,9.804245,-0.01675415,-0.41897583,9.803345,-0.06448364,-0.24510193,0.010650635,0.018096924,-0.0032043457,-28.149414,-11.802673,-18.527222,1,0.0,0.0,0.0,0.0
0.900878907,0.007505106,-0.84850556,0.52913326,-0.024630804,-0.5291445,-0.8481742,0.9996685,-0.00666734,-0.024870658,-0.005723989,-0.86719733,0.49793175,-0.0024639303,-0.49792615,-0.867216,0.99998057,-0.0061908034,7.1341015E-4,9.967056,-0.17477417,-0.29927063,9.803345,-0.06538391,-0.24389648,-0.024490356,0.025558472,-0.0032043457,-28.149414,-11.802673,-18.527222,1,0.0,0.0,0.0,0.0
0.905273438,0.0074942973,-0.8484982,0.529145,-0.024727443,-0.5291553,-0.84816456,0.99966615,-0.0067280075,-0.024946842,-0.0054753087,-0.86683476,0.49856555,-0.002916472,-0.49855706,-0.866852,0.9999808,-0.0062003345,2.0165453E-4,9.8138275,-0.23222351,-0.4381256,9.803345,-0.065979004,-0.24464417,0.010650635,0.031951904,0.010650635,-28.149414,-11.802673,-18.527222,1,0.0,0.0,0.0,0.0
0.909667969,0.009039202,-0.81238973,0.5830447,-0.02405183,-0.58307654,-0.81206113,0.99966985,-0.006682909,-0.024810009,-0.005231249,-0.86647874,0.49918646,-0.003361547,-0.49917525,-0.8664945,0.9999806,-0.006210888,-3.0139898E-4,9.713272,-0.04548645,-0.3088379,9.803345,-0.0655365,-0.24330139,0.0095825195,0.019165039,-0.0021362305,-29.225159,-12.878418,-17.49115,1,0.0,0.0,0.0,0.0
0.9140625,0.009003043,-0.81236166,0.58308446,-0.023946105,-0.583116,-0.81203586,0.99967265,-0.006651808,-0.024702715,-0.0049870918,-0.86547995,0.5009188,-0.0038010776,-0.500905,-0.865494,0.99998033,-0.0062203286,-7.9169724E-4,9.923965,-0.03111267,-0.32800293,9.803345,-0.06523132,-0.24224854,0.008514404,0.03727722,-0.010650635,-29.225159,-12.878418,-17.49115,1,0.0,0.0,0.0,0.0
0.918457032,0.008848936,-0.81224185,0.58325374,-0.023853596,-0.58328205,-0.81191933,0.9996762,-0.0067280754,-0.024536313,-0.004941124,-0.8644449,0.50270325,-0.0037544442,-0.50268984,-0.8644587,0.99998075,-0.006158769,-7.616574E-4,9.751572,-0.19392395,-0.17477417,9.803345,-0.065979004,-0.24061584,0.006378174,0.030883789,-0.004272461,-29.225159,-12.878418,-17.49115,1,0.0,0.0,0.0,0.0
0.922851563,0.0064490912,-0.86554813,0.50078434,-0.02445614,-0.50078154,-0.8652283,0.99968016,-0.0066673146,-0.024397548,-0.0047038356,-0.8634775,0.5043654,-0.0041803876,-0.5043496,-0.8634894,0.9999802,-0.0061701555,-0.0012372931,9.770737,0.08378601,-0.17955017,9.803497,-0.06538391,-0.23925781,-0.0010681152,0.030883789,0.004257202,-27.790833,-10.726929,-18.182373,1,0.0,0.0,0.0,0.0
0.927246094,0.006427191,-0.86553377,0.5008093,-0.024416924,-0.50080615,-0.86521494,0.9996812,-0.006667321,-0.02435245,-0.0044791535,-0.8635191,0.5042963,-0.0045850417,-0.50427836,-0.86352897,0.9999795,-0.0061800987,-0.0017005309,9.737213,-0.07899475,-0.12210083,9.803497,-0.06538391,-0.23881531,0.0053253174,0.027679443,-0.0010681152,-27.790833,-10.726929,-18.182373,1,0.0,0.0,0.0,0.0
0.931640625,0.006378432,-0.8655019,0.50086504,-0.024391726,-0.5008608,-0.86518395,0.99968207,-0.0066984463,-0.024305793,-0.0042594625,-0.8635594,0.5042291,-0.004980892,-0.50420916,-0.8635672,0.99997854,-0.0061898427,-0.002153636,9.84256,-0.15083313,-0.12689209,9.803497,-0.06568909,-0.23835754,0.0,0.020233154,0.003189087,-27.790833,-10.726929,-18.182373,1,0.0,0.0,0.0,0.0
0.936035157,0.0075899162,-0.83922356,0.5437336,-0.023972359,-0.54374564,-0.8389076,0.9996838,-0.006667339,-0.024245152,-0.0041398597,-0.86363375,0.50410277,-0.0052411547,-0.5040814,-0.86364025,0.9999777,-0.0062174303,-0.0024396123,9.866501,0.01675415,-0.06463623,9.803497,-0.06538391,-0.23776245,-0.004272461,0.0095825195,0.0010681152,-29.762268,-13.056946,-19.737244,1,0.0,0.0,0.0,0.0
0.940429688,0.007570556,-0.8392104,0.54375416,-0.023912828,-0.5437662,-0.83889604,0.9996854,-0.00665179,-0.024184508,-0.003922508,-0.86316365,0.504909,-0.0056260563,-0.50488585,-0.86316776,0.9999765,-0.006226429,-0.002875789,9.780304,-0.03111267,-0.09336853,9.803497,-0.06523132,-0.23716736,0.013839722,-0.003189087,0.0063934326,-29.762268,-13.056946,-19.737244,1,0.0,0.0,0.0,0.0
0.944824219,0.00759438,-0.8392265,0.5437289,-0.023950893,-0.5437412,-0.838911,0.99968433,-0.0066517824,-0.024229605,-0.0037091298,-0.862702,0.50569904,-0.006001704,-0.5056742,-0.8627036,0.99997514,-0.0062349355,-0.0033020708,9.756363,-0.05984497,0.02154541,9.803497,-0.06523132,-0.23760986,0.006378174,-0.0095825195,0.007446289,-29.762268,-13.056946,-19.737244,1,0.0,0.0,0.0,0.0
0.94921875,0.0069928695,-0.855072,0.51846194,-0.024418589,-0.518466,-0.8547494,0.9996773,-0.006682959,-0.02450522,-0.0032113586,-0.8621343,0.5066698,-0.006790127,-0.5066419,-0.86212987,0.9999718,-0.0062089604,-0.004226992,9.86171,-0.10293579,-0.22265625,9.803345,-0.0655365,-0.24031067,0.013839722,-0.030883789,-0.0021362305,-27.252197,-11.981201,-19.392395,1,0.0,0.0,0.0,0.0
0.953613282,0.0071178954,-0.85514885,0.51833373,-0.024661697,-0.51833934,-0.8548194,0.9996705,-0.0066984734,-0.024778906,-0.0032113586,-0.8621343,0.5066698,-0.006790127,-0.5066419,-0.86212987,0.9999718,-0.0062089604,-0.004226992,9.86171,-0.10293579,-0.22265625,9.803345,-0.06568909,-0.24299622,0.013839722,-0.030883789,-0.0021362305,-27.252197,-11.981201,-19.392395,1,0.0,0.0,0.0,0.0
0.958007813,0.007269583,-0.85524184,0.518178,-0.024890618,-0.5181859,-0.8549057,0.99966383,-0.0066829626,-0.025054496,-0.0028116736,-0.8618607,0.5071374,-0.0075031016,-0.50710696,-0.8618505,0.99996793,-0.0062283454,-0.0050408086,9.856918,-0.03111267,-0.3375702,9.803207,-0.0655365,-0.24569702,-0.0010681152,-0.064971924,0.0010681152,-27.252197,-11.981201,-19.392395,1,0.0,0.0,0.0,0.0
0.962402344,0.006738751,-0.87091094,0.49139455,-0.0253516,-0.49139652,-0.8705668,0.99965584,-0.0065911068,-0.025390387,-0.0026144115,-0.8617296,0.50736105,-0.007853492,-0.50732946,-0.8617164,0.9999658,-0.0062374375,-0.005441219,9.785095,0.13645935,-0.35194397,9.803207,-0.06463623,-0.24899292,0.012771606,-0.052200317,-0.0021362305,-28.686523,-10.188293,-17.663574,1,0.0,0.0,0.0,0.0
0.966796875,0.0068341917,-0.8709764,0.49127734,-0.025559202,-0.49128047,-0.8706264,0.99965,-0.0066066277,-0.025618967,-0.001822388,-0.8619076,0.5070622,-0.009148407,-0.50702745,-0.8618813,0.9999565,-0.006209493,-0.00696108,9.8138275,-0.04069519,-0.25138855,9.803207,-0.06478882,-0.25123596,0.0010528564,-0.06817627,-0.0021362305,-28.686523,-10.188293,-17.663574,1,0.0,0.0,0.0,0.0
0.971191407,0.0069510764,-0.87105644,0.49113372,-0.025806699,-0.49113825,-0.8706993,0.9996428,-0.0066222427,-0.02589303,-0.0016434807,-0.86209184,0.5067495,-0.009473426,-0.50671405,-0.86206216,0.9999538,-0.006217436,-0.007334188,9.876068,-0.07421875,-0.3040619,9.803055,-0.064941406,-0.2539215,-0.0010681152,-0.052200317,0.004257202,-28.686523,-10.188293,-17.663574,1,0.0,0.0,0.0,0.0
0.975585938,0.009496041,-0.8216856,0.56986195,-0.025279725,-0.56990284,-0.8213232,0.99963534,-0.006606634,-0.026183804,-0.0014658656,-0.86227375,0.5064404,-0.009797014,-0.5064042,-0.86224055,0.99995095,-0.0062255324,-0.007705387,9.809036,-0.03111267,-0.4237671,9.803055,-0.06478882,-0.2567749,-0.019165039,-0.05859375,0.003189087,-28.327942,-13.056946,-18.354797,1,0.0,0.0,0.0,0.0
0.979980469,0.00963392,-0.8217833,0.56971866,-0.025404625,-0.56976235,-0.82141674,0.9996308,-0.006560027,-0.026366143,-0.0012699636,-0.86150914,0.50774044,-0.010121543,-0.5077037,-0.86147225,0.99994797,-0.0062331543,-0.008075037,9.74678,-0.026321411,-0.29927063,9.802902,-0.064331055,-0.25856018,-0.0021362305,-0.050064087,0.0,-28.327942,-13.056946,-18.354797,1,0.0,0.0,0.0,0.0
0.984375,0.009735293,-0.8218551,0.56961334,-0.025556602,-0.56965876,-0.8214839,0.999626,-0.0065599955,-0.02654962,-6.326996E-4,-0.8606708,0.5091614,-0.01091287,-0.50912523,-0.86062324,0.9999403,-0.006100928,-0.009070266,9.785095,-0.08378601,-0.3663025,9.802902,-0.064331055,-0.26036072,0.010650635,-0.038345337,-0.008529663,-28.327942,-13.056946,-18.354797,1,0.0,0.0,0.0,0.0
0.988769532,0.007190965,-0.87312275,0.4874474,-0.026428625,-0.4874557,-0.8727477,0.99962485,-0.006606667,-0.02658071,-4.4637686E-4,-0.8599375,0.5103992,-0.011219209,-0.51036286,-0.859886,0.999937,-0.006110109,-0.009420004,9.823395,-0.16998291,-0.31362915,9.802902,-0.06478882,-0.2606659,-0.0010681152,-0.031951904,-0.0010681152,-29.762268,-11.264038,-19.737244,1,0.0,0.0,0.0,0.0
0.993164063,0.0072180317,-0.87313974,0.48741633,-0.026447084,-0.48742524,-0.87276405,0.9996242,-0.006591103,-0.026610255,-2.8577633E-4,-0.8602072,0.5099446,-0.011519345,-0.509908,-0.8601518,0.9999336,-0.00612004,-0.009763304,9.809036,-0.026321411,-0.34236145,9.802902,-0.06463623,-0.2609558,0.007446289,0.0021362305,-0.0010681152,-29.762268,-11.264038,-19.737244,1,0.0,0.0,0.0,0.0
0.997558594,0.0072180317,-0.87313974,0.48741633,-0.026447084,-0.48742524,-0.87276405,0.9996242,-0.006591103,-0.026610255,-1.2815557E-4,-0.86047155,0.5094985,-0.011813959,-0.50946164,-0.86041224,0.9999302,-0.0061294613,-0.0101002855,9.756363,-0.05505371,-0.2753296,9.802902,-0.06463623,-0.2609558,0.007446289,0.0,0.0021209717,-29.762268,-11.264038,-19.737244,1,0.0,0.0,0.0,0.0
1.001953125,0.0075638914,-0.8661439,0.4997375,-0.026324317,-0.49975106,-0.86576897,0.99962485,-0.006606667,-0.02658071,-1.1506025E-5,-0.8607483,0.50903076,-0.012348908,-0.50899184,-0.8606828,0.9999237,-0.006295877,-0.010623446,9.713272,-0.10772705,-0.18434143,9.802902,-0.06478882,-0.2606659,-0.0021362305,-0.01171875,0.0095825195,-26.893616,-11.62262,-19.737244,1,0.0,0.0,0.0,0.0
1.006347657,0.007606392,-0.86616856,0.4996941,-0.026369434,-0.49970853,-0.86579216,0.9996233,-0.006591097,-0.026641352,1.4294544E-4,-0.86085725,0.5088465,-0.012626869,-0.50880754,-0.8607877,0.99992025,-0.0063020927,-0.010942663,9.832977,-0.02154541,-0.39024353,9.802902,-0.06463623,-0.261261,-0.0010681152,-0.0021209717,-0.008529663,-26.893616,-11.62262,-19.737244,1,0.0,0.0,0.0,0.0
1.010742188,0.007613935,-0.8661729,0.49968642,-0.026382964,-0.4997009,-0.865796,0.9996228,-0.006591094,-0.0266569,2.9502716E-4,-0.8609644,0.5086651,-0.012900157,-0.50862604,-0.8608909,0.99991673,-0.006307873,-0.011256634,9.708481,-0.09336853,-0.2896881,9.802902,-0.06463623,-0.26141357,-0.012771606,0.004257202,0.0021209717,-26.893616,-11.62262,-19.737244,1,0.0,0.0,0.0,0.0
1.015136719,0.008489162,-0.849148,0.52808666,-0.026184237,-0.5281133,-0.84876996,0.99962103,-0.0066222018,-0.026717534,4.4417987E-4,-0.8610694,0.5084873,-0.013168417,-0.50844824,-0.86099184,0.9999132,-0.0063135372,-0.011564764,9.732422,-0.11730957,-0.4237671,9.802902,-0.064941406,-0.26200867,0.019165039,0.0010681152,0.0010681152,-27.96936,-12.339783,-19.392395,1,0.0,0.0,0.0,0.0
1.01953125,0.008509936,-0.8491612,0.52806515,-0.026189437,-0.5280924,-0.848783,0.9996208,-0.0066066403,-0.026733087,4.0480122E-4,-0.86087996,0.50880784,-0.013344089,-0.50876725,-0.8608007,0.9999109,-0.0064411242,-0.011693609,9.722839,-0.02154541,-0.3184204,9.802902,-0.06478882,-0.26216125,-0.0053253174,0.010635376,0.007446289,-27.96936,-12.339783,-19.392395,1,0.0,0.0,0.0,0.0
1.023925782,0.008520225,-0.84916776,0.5280544,-0.02623604,-0.52808166,-0.8487882,0.9996195,-0.0066221915,-0.026778175,5.6113256E-4,-0.8606499,0.50919676,-0.013604417,-0.50915635,-0.8605665,0.9999073,-0.0064444346,-0.011994346,9.785095,-0.10772705,-0.3471527,9.802902,-0.064941406,-0.26260376,-0.006378174,0.0095825195,0.0021209717,-27.96936,-12.339783,-19.392395,1,0.0,0.0,0.0,0.0
1.028320313,0.008493566,-0.84915084,0.5280822,-0.026218079,-0.52810884,-0.84877187,0.99962014,-0.0066361995,-0.02674863,7.1480917E-4,-0.8604244,0.50957763,-0.013860433,-0.50953734,-0.86033696,0.9999037,-0.00644799,-0.012290075,9.765945,-0.11251831,-0.19871521,9.802902,-0.065078735,-0.26231384,-0.006378174,0.0063934326,-0.009597778,-27.96936,-12.339783,-19.392395,1,0.0,0.0,0.0,0.0
1.032714844,0.0084807575,-0.8491427,0.5280954,-0.026226163,-0.52812165,-0.8487637,0.9996201,-0.0066517587,-0.026748627,8.6507434E-4,-0.86020285,0.5099513,-0.014110786,-0.50991124,-0.8601113,0.99990004,-0.006451754,-0.012579249,9.837769,-0.09336853,-0.2609558,9.802902,-0.06523132,-0.26231384,0.003189087,0.0053253174,-0.0032043457,-27.96936,-12.339783,-19.392395,1,0.0,0.0,0.0,0.0
1.037109375,0.00845202,-0.8491245,0.5281253,-0.02620769,-0.52815086,-0.8487462,0.9996208,-0.0066673234,-0.026717529,0.0011143861,-0.8598783,0.5104979,-0.014356536,-0.51045936,-0.859782,0.99989635,-0.0063708527,-0.012913723,9.785095,-0.10293579,-0.18913269,9.802902,-0.06538391,-0.26200867,0.012771606,-0.003189087,-0.0053253174,-27.96936,-12.339783,-19.392395,1,0.0,0.0,0.0,0.0
1.041503907,0.009486112,-0.82785946,0.56085527,-0.025883501,-0.5608958,-0.82748157,0.9996199,-0.0066673174,-0.026748624,0.0012563369,-0.85966676,0.51085365,-0.014596522,-0.51081544,-0.85956645,0.99989265,-0.006376782,-0.013189901,9.847351,-0.07899475,-0.32800293,9.802902,-0.06538391,-0.26231384,-0.0010681152,-0.0053253174,0.0,-28.507996,-12.878418,-18.527222,1,0.0,0.0,0.0,0.0
1.045898438,0.009473635,-0.82785076,0.5608684,-0.02589208,-0.56090856,-0.82747275,0.99961984,-0.0066828765,-0.026748622,0.0014074859,-0.85905993,0.511873,-0.014830945,-0.51183516,-0.8589556,0.999889,-0.006382593,-0.013461071,9.809036,-0.10772705,-0.2609558,9.802902,-0.0655365,-0.26231384,0.0010528564,-0.007461548,0.0021209717,-28.507996,-12.878418,-18.527222,1,0.0,0.0,0.0,0.0
1.050292969,0.009477657,-0.82785356,0.56086415,-0.025870536,-0.5609046,-0.82747614,0.99962044,-0.0066673206,-0.026733078,0.0016396455,-0.85847294,0.5128563,-0.01523493,-0.51281893,-0.85836166,0.99988264,-0.0064059203,-0.013919616,9.742004,-0.03111267,-0.22744751,9.802902,-0.06538391,-0.26216125,-0.0010681152,-0.01171875,0.0010681152,-28.507996,-12.878418,-18.527222,1,0.0,0.0,0.0,0.0
1.0546875,0.008197991,-0.8545154,0.5193613,-0.026319858,-0.5193832,-0.85413593,0.9996199,-0.0066673174,-0.026748624,0.001784225,-0.8578876,0.5138342,-0.015455583,-0.5137973,-0.8577724,0.99987894,-0.0064111482,-0.014175884,9.890442,-0.06463623,-0.29447937,9.802902,-0.06538391,-0.26231384,0.019165039,0.0,0.0021209717,-28.149414,-12.161255,-19.56482,1,0.0,0.0,0.0,0.0
1.059082032,0.008133843,-0.85447514,0.5194286,-0.026270293,-0.51944906,-0.8540974,0.9996217,-0.0066984487,-0.026672428,0.0019111237,-0.8578205,0.5139459,-0.015673723,-0.5139094,-0.8577013,0.99987537,-0.0064162714,-0.014427384,9.780304,-0.13645935,-0.05984497,9.802902,-0.06568909,-0.26156616,-0.004272461,-0.017044067,0.003189087,-28.149414,-12.161255,-19.56482,1,0.0,0.0,0.0,0.0
1.063476563,0.00817955,-0.8545038,0.5193806,-0.02625846,-0.5194024,-0.8541261,0.9996217,-0.0066517694,-0.026686432,0.0020342437,-0.85775393,0.5140565,-0.015886474,-0.5140204,-0.85763085,0.99987173,-0.0064219153,-0.014672329,9.914383,0.026321411,-0.3040619,9.802902,-0.06523132,-0.2617035,-0.012771606,-0.013839722,-0.010650635,-28.149414,-12.161255,-19.56482,1,0.0,0.0,0.0,0.0
1.067871094,0.009937929,-0.8170091,0.576539,-0.02561393,-0.57658625,-0.81663454,0.99962246,-0.0066517745,-0.02665689,0.0020957664,-0.85775244,0.5140586,-0.016232591,-0.51402116,-0.8576239,0.999866,-0.006547124,-0.015000814,9.86171,-0.05027771,-0.18434143,9.802902,-0.06523132,-0.26141357,-0.007446289,-0.0053253174,0.007446289,-28.686523,-13.056946,-18.008423,1,0.0,0.0,0.0,0.0
1.072265625,0.009952633,-0.81702,0.5765235,-0.025584375,-0.57657135,-0.8166461,0.99962306,-0.0066222153,-0.026641347,0.0022383812,-0.8569837,0.51533866,-0.016430316,-0.5153018,-0.8568512,0.9998625,-0.0065492163,-0.015233955,9.876068,-0.007171631,-0.24180603,9.802902,-0.064941406,-0.261261,0.003189087,-0.012786865,-0.0053253174,-28.686523,-13.056946,-18.008423,1,0.0,0.0,0.0,0.0
1.076660157,0.010050053,-0.8170916,0.57642025,-0.025701124,-0.57647,-0.81671405,0.9996192,-0.00660663,-0.026793728,0.0023790416,-0.8562287,0.5165914,-0.01662311,-0.51655537,-0.85609233,0.999859,-0.0065506767,-0.01546209,9.876068,-0.02154541,-0.38067627,9.802902,-0.06478882,-0.26275635,0.0095825195,-0.0010681152,0.015960693,-28.686523,-13.056946,-18.008423,1,0.0,0.0,0.0,0.0
1.081054688,0.008445073,-0.8531586,0.5215833,-0.026474066,-0.5216098,-0.8527733,0.99961376,-0.006606697,-0.02699161,0.0025192895,-0.8554883,0.51781607,-0.016814204,-0.5177808,-0.8553481,0.99985546,-0.0065517956,-0.015688794,9.832977,-0.05505371,-0.4237671,9.80275,-0.06478882,-0.2646942,-0.010650635,-0.0234375,0.0,-27.610779,-12.339783,-19.737244,1,0.0,0.0,0.0,0.0
1.085449219,0.008425116,-0.85314643,0.5216036,-0.026470048,-0.5216296,-0.8527614,0.99961406,-0.0066222586,-0.026977614,0.0029210285,-0.85539645,0.51796556,-0.017409194,-0.5179328,-0.8552441,0.99984413,-0.006519171,-0.01640466,9.775513,-0.13645935,-0.21786499,9.80275,-0.064941406,-0.26455688,0.0053253174,-0.029830933,-0.0021362305,-27.610779,-12.339783,-19.737244,1,0.0,0.0,0.0,0.0
1.08984375,0.008444169,-0.85315806,0.5215842,-0.026618598,-0.5216098,-0.85276896,0.99961007,-0.006682915,-0.02711443,0.0030303258,-0.8553516,0.518039,-0.017590865,-0.5180068,-0.8551956,0.9998407,-0.006521233,-0.016616104,9.818619,-0.05027771,-0.3040619,9.80275,-0.0655365,-0.26589966,0.007446289,-0.022369385,-0.0010681152,-27.610779,-12.339783,-19.737244,1,0.0,0.0,0.0,0.0
1.094238282,0.008719691,-0.8478691,0.5301339,-0.026545508,-0.53016347,-0.84747976,0.99960953,-0.006682912,-0.027129976,0.0031378102,-0.85530794,0.5181106,-0.017771805,-0.518079,-0.8551482,0.99983716,-0.0065244664,-0.016825998,9.74678,-0.03590393,-0.29927063,9.80275,-0.0655365,-0.26605225,0.0,-0.029830933,0.014892578,-27.610779,-13.056946,-20.428467,1,0.0,0.0,0.0,0.0
1.098632813,0.008784552,-0.84790784,0.530071,-0.02659424,-0.53010213,-0.84751683,0.99960774,-0.00665178,-0.02720617,0.0032469826,-0.8551609,0.5183525,-0.01794878,-0.51832163,-0.85499734,0.99983364,-0.0065276353,-0.017032076,9.914383,-0.007171631,-0.4381256,9.80275,-0.06523132,-0.26679993,0.006378174,-0.02130127,0.0053253174,-27.610779,-13.056946,-20.428467,1,0.0,0.0,0.0,0.0
1.103027344,0.008777355,-0.8479035,0.530078,-0.02667031,-0.5301083,-0.84751034,0.99960566,-0.0066984454,-0.027266797,0.0035997313,-0.85501695,0.51858765,-0.018323286,-0.51856035,-0.85484475,0.99982566,-0.006425018,-0.017533397,9.823395,-0.18913269,-0.44291687,9.80275,-0.06568909,-0.26739502,0.0,-0.018112183,-0.0063934326,-27.610779,-13.056946,-20.428467,1,0.0,0.0,0.0,0.0
1.107421875,0.008531705,-0.85371846,0.520665,-0.026788106,-0.5206921,-0.85332406,0.99960464,-0.006667319,-0.027311891,0.0037010838,-0.8548763,0.5188187,-0.018491633,-0.51879203,-0.8547005,0.99982214,-0.0064304867,-0.01772815,9.765945,0.01675415,-0.39024353,9.80275,-0.06538391,-0.26783752,0.008514404,-0.018112183,-0.0053253174,-29.225159,-11.802673,-18.873596,1,0.0,0.0,0.0,0.0
1.111816407,0.008534524,-0.85372037,0.5206618,-0.026822781,-0.52068883,-0.85332507,0.9996038,-0.0066828732,-0.027342986,0.003797317,-0.85485315,0.5188561,-0.018657755,-0.5188301,-0.85467374,0.99981874,-0.0064352234,-0.017919803,9.818619,-0.09815979,-0.3375702,9.80275,-0.0655365,-0.2681427,-0.0010681152,-0.0010681152,0.0053253174,-29.225159,-11.802673,-18.873596,1,0.0,0.0,0.0,0.0
1.116210938,0.008521689,-0.8537117,0.52067626,-0.026830738,-0.5207029,-0.85331625,0.9996036,-0.006698432,-0.027342983,0.0038917558,-0.8548305,0.5188928,-0.018821336,-0.5188674,-0.8546475,0.9998153,-0.006440176,-0.018108357,9.856918,-0.10293579,-0.26574707,9.80275,-0.06568909,-0.2681427,0.0053253174,0.0021362305,-0.009597778,-29.225159,-11.802673,-18.873596,1,0.0,0.0,0.0,0.0
1.120605469,0.008410912,-0.85510904,0.51837987,-0.026876949,-0.5184042,-0.8547131,0.99960333,-0.006743553,-0.027342975,0.0040247566,-0.8548711,0.51882476,-0.018711463,-0.5188025,-0.85468924,0.9998168,-0.006268055,-0.018083943,9.727631,-0.18434143,-0.2753296,9.80275,-0.06613159,-0.2681427,-0.007446289,0.012771606,-0.010650635,-29.045105,-11.62262,-18.701172,1,0.0,0.0,0.0,0.0
1.125,0.008428574,-0.8551211,0.51835996,-0.02693747,-0.5183844,-0.8547234,0.9996016,-0.006759206,-0.027404036,0.004112566,-0.85487586,0.51881623,-0.018874766,-0.51879454,-0.85469055,0.9998134,-0.006277565,-0.018269159,9.751572,-0.10772705,-0.41897583,9.802597,-0.06628418,-0.2687378,-0.004272461,0.007461548,0.0010681152,-29.045105,-11.62262,-18.701172,1,0.0,0.0,0.0,0.0
1.129394532,0.008449216,-0.85513496,0.5183365,-0.026942926,-0.5183615,-0.85473704,0.9996013,-0.006743644,-0.027419588,0.0041989614,-0.85488075,0.5188075,-0.019035995,-0.5187864,-0.8546919,0.99981,-0.006287198,-0.018451871,9.751572,-0.04069519,-0.29927063,9.802597,-0.06613159,-0.26889038,0.019165039,0.011703491,0.0021209717,-29.045105,-11.62262,-18.701172,1,0.0,0.0,0.0,0.0
1.133789063,0.009796435,-0.82663715,0.56265014,-0.026371278,-0.562695,-0.82624394,0.9996042,-0.0067435587,-0.02731188,0.0042917896,-0.8548581,0.5188442,-0.01890275,-0.5188256,-0.8546711,0.9998121,-0.0061395136,-0.01838586,9.84256,-0.03590393,-0.3184204,9.80275,-0.06613159,-0.26783752,0.003189087,0.014907837,-0.009597778,-28.686523,-13.774109,-19.737244,1,0.0,0.0,0.0,0.0
1.138183594,0.00973326,-0.8265952,0.5627127,-0.026194822,-0.562757,-0.82620716,0.9996095,-0.006698471,-0.027129974,0.004393939,-0.85431623,0.519735,-0.019056965,-0.51971716,-0.8541258,0.9998088,-0.0061515947,-0.018564282,9.770737,-0.011962891,-0.3471527,9.80275,-0.06568909,-0.26605225,0.0,0.027679443,0.003189087,-28.686523,-13.774109,-19.737244,1,0.0,0.0,0.0,0.0
1.142578125,0.0096498,-0.8265399,0.56279546,-0.025957113,-0.56283903,-0.8261588,0.99961644,-0.0066362782,-0.026885873,0.004493359,-0.85378355,0.5206088,-0.019204475,-0.5205917,-0.85358983,0.99980545,-0.006162532,-0.01873567,9.761154,0.05505371,-0.25138855,9.80275,-0.065078735,-0.26365662,0.029815674,0.050048828,-0.008529663,-28.686523,-13.774109,-19.737244,1,0.0,0.0,0.0,0.0
1.146972657,0.008899606,-0.83950657,0.5432766,-0.026047138,-0.5433084,-0.839129,0.9996211,-0.006682885,-0.026701976,0.004589621,-0.8532596,0.52146614,-0.019344002,-0.52144974,-0.85306275,0.99980235,-0.0061720074,-0.018898712,9.832977,-0.05027771,-0.28489685,9.802902,-0.0655365,-0.26185608,0.004257202,0.05432129,-0.0032043457,-28.866577,-12.519836,-18.873596,1,0.0,0.0,0.0,0.0
1.151367188,0.008812227,-0.8394468,0.5433706,-0.025795259,-0.5434017,-0.8390765,0.9996284,-0.0066222507,-0.026442323,0.0041242666,-0.8528814,0.52208847,-0.018953672,-0.5220658,-0.85269463,0.9998119,-0.006378754,-0.018318372,9.818619,-0.06942749,-0.11251831,9.802902,-0.064941406,-0.25930786,0.012771606,0.04472351,0.01171875,-28.866577,-12.519836,-18.873596,1,0.0,0.0,0.0,0.0
1.155761719,0.008754365,-0.8394071,0.5434328,-0.025616573,-0.5434636,-0.83904195,0.9996336,-0.0065756054,-0.02626041,0.004214634,-0.8526179,0.5225178,-0.01909274,-0.52249575,-0.8524281,0.99980885,-0.006383624,-0.018480944,9.679749,-0.03590393,-0.21307373,9.802902,-0.06448364,-0.25752258,-0.010650635,0.043670654,-0.014923096,-28.866577,-12.519836,-18.873596,1,0.0,0.0,0.0,0.0
1.16015625,0.008720239,-0.84058493,0.5416097,-0.025640156,-0.5416401,-0.8402193,0.99963313,-0.0065600425,-0.026275957,0.0043022386,-0.8523589,0.52293956,-0.019225327,-0.5229183,-0.852166,0.9998059,-0.006387464,-0.0186366,9.823395,-0.026321411,-0.3040619,9.802902,-0.064331055,-0.25767517,0.004257202,0.039398193,-0.008529663,-27.96936,-12.339783,-18.701172,1,0.0,0.0,0.0,0.0
1.164550782,0.008639229,-0.8405307,0.54169506,-0.025509521,-0.5417242,-0.84016913,0.99963725,-0.006559967,-0.026121615,0.0043877778,-0.8521275,0.52331585,-0.019355427,-0.5232952,-0.85193163,0.999803,-0.0063909153,-0.018789396,9.8138275,0.011962891,-0.17477417,9.803055,-0.064331055,-0.25616455,-0.0053253174,0.022354126,-0.0010681152,-27.96936,-12.339783,-18.701172,1,0.0,0.0,0.0,0.0
1.168945313,0.008562811,-0.84047955,0.54177564,-0.025415216,-0.54180336,-0.8401209,0.9996403,-0.006575547,-0.026000328,0.0041092057,-0.8519825,0.52355427,-0.019126905,-0.5235299,-0.8517927,0.9998086,-0.006513781,-0.018447079,9.809036,-0.07421875,-0.34236145,9.803055,-0.06448364,-0.25497437,-0.0095825195,0.029815674,0.007446289,-27.96936,-12.339783,-18.701172,1,0.0,0.0,0.0,0.0
1.173339844,0.007594322,-0.86084765,0.508806,-0.025678279,-0.5088208,-0.8604893,0.99964136,-0.0065304306,-0.025969237,0.0041955477,-0.8517562,0.5239216,-0.019254394,-0.5238978,-0.85156345,0.9998058,-0.0065150163,-0.018598087,9.9048,0.07899475,-0.17477417,9.803055,-0.06404114,-0.2546692,0.003189087,0.034072876,0.0021209717,-27.07367,-11.802673,-19.56482,1,0.0,0.0,0.0,0.0
1.177734375,0.007562699,-0.86082876,0.50883836,-0.025680993,-0.50885224,-0.8604706,0.99964154,-0.0065599955,-0.025955237,0.004265719,-0.85194063,0.523621,-0.019381631,-0.5235979,-0.851745,0.99980307,-0.0065153246,-0.01874552,9.914383,-0.16040039,-0.23222351,9.803055,-0.064331055,-0.25453186,-0.014907837,0.008529663,-0.0063934326,-27.07367,-11.802673,-19.56482,1,0.0,0.0,0.0,0.0
1.182128907,0.0075966897,-0.86084914,0.5088036,-0.025712986,-0.5088182,-0.8604899,0.99964046,-0.0065459847,-0.026000334,0.0043337718,-0.8521209,0.5233272,-0.01950645,-0.5233046,-0.85192245,0.9998003,-0.0065162177,-0.018889735,9.809036,-0.026321411,-0.34236145,9.803055,-0.064193726,-0.25497437,0.004257202,0.011703491,-0.0010681152,-27.07367,-11.802673,-19.56482,1,0.0,0.0,0.0,0.0
1.186523438,0.007797013,-0.8558189,0.5172167,-0.025579313,-0.51723385,-0.8554618,0.99964243,-0.006560001,-0.02592414,0.0043702507,-0.8522978,0.5230386,-0.019545667,-0.5230165,-0.85209846,0.99979943,-0.006499255,-0.018944442,9.809036,-0.12210083,-0.07899475,9.803055,-0.064331055,-0.25422668,0.0,0.0053253174,-0.0010681152,-28.686523,-11.981201,-19.392395,1,0.0,0.0,0.0,0.0
1.190917969,0.007834722,-0.85584325,0.5171759,-0.02573421,-0.5171931,-0.8554818,0.99963814,-0.006606652,-0.026076514,0.0044396273,-0.8523686,0.5229226,-0.019665953,-0.52290106,-0.8521665,0.99979675,-0.00650047,-0.019084128,9.761154,-0.16040039,-0.3471527,9.803055,-0.06478882,-0.25572205,-0.0032043457,0.0010681152,-0.007461548,-28.686523,-11.981201,-19.392395,1,0.0,0.0,0.0,0.0
1.1953125,0.007868324,-0.85586494,0.5171396,-0.025731755,-0.5171577,-0.8555033,0.99963796,-0.006575532,-0.026092071,0.004508299,-0.85243833,0.52280825,-0.019786825,-0.5227872,-0.8522335,0.999794,-0.0065025934,-0.019223932,9.847351,0.002380371,-0.29447937,9.803055,-0.06448364,-0.25587463,0.007446289,-0.026626587,-0.0010681152,-28.686523,-11.981201,-19.392395,1,0.0,0.0,0.0,0.0
1.199707032,0.0075649717,-0.8614256,0.50782746,-0.025775433,-0.5078413,-0.861065,0.99963915,-0.0065755392,-0.026045421,0.0045762886,-0.8525073,0.52269524,-0.019905332,-0.5226748,-0.85229975,0.9997914,-0.0065040523,-0.01936135,9.742004,-0.24659729,-0.22265625,9.803055,-0.06448364,-0.25541687,-0.007446289,-0.02130127,-0.0010681152,-27.252197,-11.264038,-18.701172,1,0.0,0.0,0.0,0.0
1.204101563,0.0075541637,-0.86141884,0.50783914,-0.02590645,-0.5078518,-0.86105484,0.99963576,-0.0066517596,-0.026152696,0.0045762886,-0.8525073,0.52269524,-0.019905332,-0.5226748,-0.85229975,0.9997914,-0.0065040523,-0.01936135,9.742004,-0.24659729,-0.22265625,9.803055,-0.06523132,-0.25646973,-0.007446289,-0.02130127,-0.0010681152,-27.252197,-11.264038,-18.701172,1,0.0,0.0,0.0,0.0
1.208496094,0.007590342,-0.8614415,0.50780004,-0.026062135,-0.5078126,-0.86107326,0.9996315,-0.0066985143,-0.026305478,0.004940784,-0.8528643,0.52210915,-0.020273997,-0.52209365,-0.8526471,0.9997822,-0.0063724937,-0.01987052,9.8138275,-0.09336853,-0.25616455,9.802902,-0.06568909,-0.2579651,0.0021209717,-0.026626587,0.0021209717,-27.252197,-11.264038,-18.701172,1,0.0,0.0,0.0,0.0
1.212890625,0.010355064,-0.80414003,0.59434956,-0.02524782,-0.5944022,-0.8037713,0.99962753,-0.0066829277,-0.02645786,0.0049956487,-0.8530383,0.5218244,-0.020388842,-0.52180934,-0.8528184,0.99977964,-0.0063790143,-0.01999924,9.698898,-0.09336853,-0.29447937,9.802902,-0.0655365,-0.25946045,0.02130127,-0.034088135,0.008514404,-27.96936,-13.415527,-17.663574,1,0.0,0.0,0.0,0.0
1.217285157,0.010423248,-0.8041907,0.59428006,-0.02529147,-0.59433424,-0.8038204,0.99962574,-0.0066517964,-0.026534056,0.005093792,-0.8521232,0.5233165,-0.020493329,-0.5233024,-0.8519007,0.999777,-0.0063850926,-0.020128433,9.86171,-0.06463623,-0.16040039,9.802902,-0.06523132,-0.26020813,-0.017028809,-0.029830933,-0.007461548,-27.96936,-13.415527,-17.663574,1,0.0,0.0,0.0,0.0
1.221679688,0.010420081,-0.80418825,0.5942833,-0.025313176,-0.5943372,-0.80381745,0.9996253,-0.006667353,-0.026549604,0.0055292845,-0.8511599,0.5248773,-0.020943625,-0.5248688,-0.85092545,0.99976534,-0.0062878253,-0.020728525,9.86171,-0.10293579,-0.26574707,9.802902,-0.06538391,-0.26036072,0.007446289,-0.028762817,-0.0063934326,-27.96936,-13.415527,-17.663574,1,0.0,0.0,0.0,0.0
1.226074219,0.009540402,-0.8230852,0.5678377,-0.025619112,-0.5678783,-0.8227136,0.9996262,-0.006698479,-0.026504504,0.0056192596,-0.85027814,0.5263037,-0.021037318,-0.526296,-0.85004115,0.99976295,-0.006295416,-0.020844966,9.727631,-0.13645935,-0.17477417,9.802902,-0.06568909,-0.2599182,-0.006378174,-0.02130127,0.0053253174,-28.866577,-12.878418,-18.182373,1,0.0,0.0,0.0,0.0
1.23046875,0.009556655,-0.82309705,0.56782025,-0.025643623,-0.5678611,-0.8227247,0.9996254,-0.0066984734,-0.026534045,0.005693013,-0.84975463,0.5271476,-0.021132179,-0.5271407,-0.84951526,0.9997605,-0.0063034766,-0.020958187,9.722839,-0.05505371,-0.29927063,9.802902,-0.06568909,-0.26020813,0.004257202,-0.012786865,-0.0032043457,-28.866577,-12.878418,-18.182373,1,0.0,0.0,0.0,0.0
1.234863282,0.0095690545,-0.82310605,0.56780696,-0.025634944,-0.5678483,-0.82273394,0.9996256,-0.006682915,-0.026534053,0.005993766,-0.84917593,0.5280762,-0.021393027,-0.52807367,-0.8489291,0.9997532,-0.006208865,-0.021331592,9.856918,-0.03590393,-0.2609558,9.802902,-0.0655365,-0.26020813,0.007446289,-0.015975952,-0.0063934326,-28.866577,-12.878418,-18.182373,1,0.0,0.0,0.0,0.0
1.239257813,0.009560501,-0.82309985,0.56781614,-0.025622042,-0.5678573,-0.8227281,0.999626,-0.0066829175,-0.026518501,0.0060611092,-0.8486731,0.52888304,-0.021480624,-0.52888125,-0.84842396,0.9997509,-0.0062183463,-0.021435633,9.971848,-0.06942749,-0.23701477,9.802902,-0.0655365,-0.26005554,-0.004272461,0.0032043457,-0.004272461,-28.866577,-12.878418,-18.182373,1,0.0,0.0,0.0,0.0
1.243652344,0.009597701,-0.823127,0.5677763,-0.025596,-0.56781864,-0.82275563,0.9996263,-0.00663624,-0.026518509,0.006127116,-0.8481795,0.52967346,-0.021566104,-0.5296723,-0.84792817,0.99974865,-0.006227638,-0.02153729,9.722839,0.03111267,-0.2609558,9.802902,-0.065078735,-0.26005554,0.019165039,0.007461548,-0.0010681152,-28.866577,-12.878418,-18.182373,1,0.0,0.0,0.0,0.0
1.248046875,0.009569046,-0.82310605,0.56780696,-0.025580168,-0.5678486,-0.8227353,0.99962693,-0.0066518043,-0.026488964,0.0061927396,-0.8476956,0.5304468,-0.02164929,-0.53044635,-0.847442,0.99974644,-0.00623581,-0.021636924,9.804245,-0.08378601,-0.17955017,9.802902,-0.06523132,-0.25976563,0.0,0.0021362305,-0.012786865,-28.866577,-12.878418,-18.182373,1,0.0,0.0,0.0,0.0
1.252441407,0.007653359,-0.86324173,0.5047326,-0.026262684,-0.5047468,-0.8628678,0.99962574,-0.0066517964,-0.026534056,0.0060615907,-0.8471836,0.5312657,-0.02158417,-0.53126246,-0.8469323,0.9997487,-0.0063331714,-0.021506052,9.856918,-0.08378601,-0.35673523,9.802902,-0.06523132,-0.26020813,0.004257202,0.013839722,0.0053253174,-28.507996,-11.08551,-18.527222,1,0.0,0.0,0.0,0.0
1.256835938,0.0076631503,-0.8632482,0.50472146,-0.026310897,-0.5047356,-0.86287296,0.99962443,-0.0066673476,-0.0265807,0.0060962043,-0.84751284,0.53073984,-0.021676553,-0.530737,-0.8472593,0.99974644,-0.006339544,-0.021606639,9.837769,-0.09336853,-0.38545227,9.802902,-0.06538391,-0.2606659,-0.0053253174,0.015960693,0.0021209717,-28.507996,-11.08551,-18.527222,1,0.0,0.0,0.0,0.0
1.261230469,0.0076291393,-0.8632258,0.5047604,-0.026188832,-0.5047744,-0.86285406,0.99962795,-0.006636251,-0.02645787,0.0061302464,-0.8478353,0.53022414,-0.021768097,-0.53022164,-0.8475796,0.99974424,-0.0063461,-0.02170615,9.9479065,-0.11730957,-0.31362915,9.802902,-0.065078735,-0.25946045,-0.0010681152,0.022354126,0.0010681152,-28.507996,-11.08551,-18.527222,1,0.0,0.0,0.0,0.0
1.265625,0.009604255,-0.82150084,0.5701265,-0.025448097,-0.57016885,-0.8211332,0.9996299,-0.0066222604,-0.026381679,0.0061627044,-0.84815055,0.5297194,-0.021855371,-0.5297172,-0.8478927,0.99974215,-0.006351903,-0.021801136,9.909592,-0.05027771,-0.4093933,9.802902,-0.064941406,-0.25871277,-0.004272461,0.03300476,-0.012786865,-27.252197,-13.056946,-18.354797,1,0.0,0.0,0.0,0.0
1.270019532,0.009523529,-0.82144576,0.5702071,-0.025299989,-0.57024837,-0.82108265,0.99963456,-0.006606628,-0.026213346,0.006001382,-0.84777594,0.5303206,-0.02153493,-0.53031665,-0.84752613,0.9997501,-0.0063340873,-0.02143943,9.967056,0.011962891,-0.3471527,9.803055,-0.06478882,-0.25706482,-0.015975952,0.027679443,-0.0010681152,-27.252197,-13.056946,-18.354797,1,0.0,0.0,0.0,0.0
1.274414063,0.009410357,-0.8213685,0.5703201,-0.025158174,-0.57035935,-0.8210098,0.9996392,-0.006622219,-0.02603142,0.0060680825,-0.84726816,0.5311307,-0.021612953,-0.5311275,-0.84701616,0.999748,-0.006339538,-0.021534894,9.809036,-0.12689209,-0.3184204,9.803055,-0.064941406,-0.25527954,0.0021209717,0.04685974,0.004257202,-27.252197,-13.056946,-18.354797,1,0.0,0.0,0.0,0.0
1.278808594,0.0080628265,-0.84887993,0.5285244,-0.02550069,-0.5285443,-0.84852284,0.9996424,-0.006636244,-0.02590858,0.006131491,-0.8467683,0.53192645,-0.021686431,-0.53192395,-0.84651434,0.999746,-0.0063451915,-0.02162487,9.818619,-0.11730957,-0.2609558,9.803055,-0.065078735,-0.2540741,0.004257202,0.047927856,-0.0032043457,-28.149414,-11.802673,-18.527222,1,0.0,0.0,0.0,0.0
1.283203125,0.008019513,-0.8488508,0.52857167,-0.025313769,-0.5285916,-0.8484987,0.9996474,-0.0065755937,-0.02572666,0.006170424,-0.8468107,0.5318586,-0.021762576,-0.53185654,-0.8465548,0.9997441,-0.0063510123,-0.021710562,9.679749,0.03111267,-0.21786499,9.803055,-0.06448364,-0.25228882,0.003189087,0.028747559,-0.0032043457,-28.149414,-11.802673,-18.527222,1,0.0,0.0,0.0,0.0
1.287597657,0.00796481,-0.84881413,0.5286314,-0.025166549,-0.5286509,-0.8484662,0.99965155,-0.0065459553,-0.025572326,0.0059558223,-0.8466836,0.53206336,-0.02126806,-0.53205967,-0.8464397,0.9997561,-0.0062747104,-0.02117617,9.799454,-0.07899475,-0.28012085,9.803207,-0.064193726,-0.2507782,0.019165039,0.03727722,-0.0053253174,-28.149414,-11.802673,-18.527222,1,0.0,0.0,0.0,0.0
1.291992188,0.0075448463,-0.8541661,0.5199457,-0.025096152,-0.5199585,-0.85382295,0.9996566,-0.0066066715,-0.025359286,0.0059963195,-0.8467265,0.5319947,-0.021345897,-0.5319914,-0.8464806,0.99975413,-0.006280135,-0.021264125,9.737213,-0.19392395,-0.12689209,9.803207,-0.06478882,-0.24868774,0.0053253174,0.038330078,-0.008529663,-28.507996,-12.161255,-19.56482,1,0.0,0.0,0.0,0.0
1.296386719,0.00751821,-0.85414904,0.5199739,-0.024934212,-0.519987,-0.8538101,0.9996608,-0.0065460154,-0.025206907,0.006028298,-0.8468769,0.5317548,-0.0214204,-0.53175175,-0.8466293,0.99975234,-0.006286666,-0.021346,9.765945,-0.06942749,-0.29447937,9.803207,-0.064193726,-0.24719238,-0.008514404,0.039398193,0.0010681152,-28.507996,-12.161255,-19.56482,1,0.0,0.0,0.0,0.0
1.30078125,0.0074155754,-0.8540836,0.5200827,-0.024729628,-0.5200946,-0.85375047,0.99966663,-0.0065304027,-0.024977975,0.0060590394,-0.84702396,0.53152025,-0.021490233,-0.53151757,-0.84677464,0.9997507,-0.006291853,-0.021423226,9.828186,-0.07899475,-0.2896881,9.803345,-0.06404114,-0.24494934,0.008514404,0.038330078,-0.012786865,-28.507996,-12.161255,-19.56482,1,0.0,0.0,0.0,0.0
1.305175782,0.009054283,-0.8152035,0.5791039,-0.023963658,-0.5791383,-0.8148772,0.99967194,-0.0064993175,-0.02477894,0.0056628785,-0.8472312,0.5311942,-0.02074625,-0.5311879,-0.847,0.99976873,-0.006223828,-0.02058492,9.856918,-0.04069519,-0.16998291,9.803345,-0.06373596,-0.24299622,-0.007446289,0.055374146,-0.004272461,-28.866577,-13.2369995,-18.182373,1,0.0,0.0,0.0,0.0
1.309875489,0.008930904,-0.81511265,0.5792336,-0.023810303,-0.57926583,-0.8147909,0.99967664,-0.0065149083,-0.024581447,0.0057267398,-0.8466178,0.5321705,-0.020813564,-0.5321648,-0.8463849,0.99976695,-0.0062293373,-0.020668702,9.847351,-0.03590393,0.011962891,9.803345,-0.06388855,-0.24105835,-0.006378174,0.038330078,-0.0053253174,-28.866577,-13.2369995,-18.182373,1,0.0,0.0,0.0,0.0
1.314575196,0.008891599,-0.8150837,0.57927495,-0.023726076,-0.5793068,-0.81476426,0.999679,-0.0064993636,-0.024489703,0.005787187,-0.84601414,0.5331291,-0.020876246,-0.533124,-0.84577954,0.99976534,-0.006235049,-0.020746887,9.866501,0.002380371,-0.01675415,9.803345,-0.06373596,-0.24015808,0.022369385,0.024490356,0.0053253174,-28.866577,-13.2369995,-18.182373,1,0.0,0.0,0.0,0.0
1.31930542,0.007683671,-0.8428255,0.53813213,-0.024078203,-0.5381479,-0.84250635,0.9996805,-0.0064837127,-0.024428675,0.005760979,-0.8453644,0.534159,-0.020637605,-0.5341546,-0.84513485,0.9997704,-0.006154958,-0.02052355,9.727631,-0.05505371,-0.07421875,9.803497,-0.063583374,-0.23956299,0.006378174,0.018096924,-0.0053253174,-30.300903,-11.444092,-17.49115,1,0.0,0.0,0.0,0.0
1.324005127,0.0077396207,-0.8428687,0.5380635,-0.02416962,-0.5380801,-0.842547,0.9996779,-0.0064837965,-0.024536354,0.0057991548,-0.8453138,0.5342387,-0.020706657,-0.53423464,-0.8450826,0.9997688,-0.006161533,-0.020601733,9.84256,-0.09336853,-0.22744751,9.803345,-0.063583374,-0.24061584,-0.0032043457,-0.01171875,-0.01171875,-30.300903,-11.444092,-17.49115,1,0.0,0.0,0.0,0.0
1.328735352,0.0077142734,-0.84284914,0.5380946,-0.02418608,-0.53811044,-0.8425272,0.99967766,-0.006514915,-0.024536349,0.0058376957,-0.8452651,0.5343153,-0.02077616,-0.5343116,-0.8450323,0.9997671,-0.0061679785,-0.020680511,9.909592,-0.14604187,-0.21307373,9.803345,-0.06388855,-0.24061584,0.015975952,-0.027694702,-0.0053253174,-30.300903,-11.444092,-17.49115,1,0.0,0.0,0.0,0.0
1.333435059,0.007144713,-0.8566281,0.5158849,-0.02451803,-0.515893,-0.8563021,0.99967384,-0.0065304497,-0.024688741,0.005874916,-0.84521705,0.5343909,-0.020844514,-0.5343875,-0.8449825,0.99976546,-0.0061749173,-0.02075762,9.780304,-0.04069519,-0.27053833,9.803345,-0.06404114,-0.2421112,-0.0032043457,-0.0234375,0.0021209717,-27.432251,-11.802673,-19.218445,1,0.0,0.0,0.0,0.0
1.338165284,0.0072644483,-0.85670245,0.51575965,-0.024693519,-0.51576966,-0.8563713,0.9996687,-0.0065148566,-0.024901783,0.0060935286,-0.84540313,0.5340939,-0.021417465,-0.5340917,-0.84515524,0.99975204,-0.006288962,-0.021360897,9.713272,-0.14604187,-0.13166809,9.803345,-0.06388855,-0.24420166,0.0053253174,-0.031951904,0.0063934326,-27.432251,-11.802673,-19.218445,1,0.0,0.0,0.0,0.0
1.342864991,0.007404969,-0.85678977,0.5156127,-0.02487487,-0.5156251,-0.85645306,0.9996631,-0.0064837914,-0.02513072,0.00611828,-0.84563303,0.5337297,-0.02148236,-0.53372765,-0.8453835,0.9997505,-0.0062934803,-0.021431688,9.689331,0.03590393,-0.32321167,9.803207,-0.063583374,-0.2464447,-0.006378174,-0.057525635,-0.010650635,-27.432251,-11.802673,-19.218445,1,0.0,0.0,0.0,0.0
1.347595215,0.008202597,-0.84367955,0.5367844,-0.0249108,-0.53680825,-0.8433364,0.999656,-0.006454182,-0.025419954,0.0061453427,-0.84585994,0.5333696,-0.021549491,-0.5333678,-0.8456089,0.9997489,-0.0062972866,-0.02150558,9.74678,-0.04069519,-0.3663025,9.803207,-0.06329346,-0.24928284,0.02130127,-0.04473877,0.0,-28.686523,-13.056946,-20.083618,1,0.0,0.0,0.0,0.0
1.352294922,0.008349304,-0.8437728,0.5366355,-0.025033627,-0.5366624,-0.8434257,0.9996518,-0.006391916,-0.02560345,0.006755392,-0.8458534,0.5333726,-0.02235506,-0.5333792,-0.84558076,0.99972725,-0.006211347,-0.022512289,9.770737,0.03111267,-0.23222351,9.803207,-0.062683105,-0.25108337,-0.004272461,-0.05645752,-0.0053253174,-28.686523,-13.056946,-20.083618,1,0.0,0.0,0.0,0.0
1.357025147,0.008432353,-0.8438256,0.5365512,-0.025197985,-0.53657913,-0.8434736,0.9996469,-0.006407544,-0.025787331,0.0067870794,-0.84581196,0.53343797,-0.022408772,-0.53344494,-0.8455379,0.9997259,-0.006214958,-0.022574142,9.847351,-0.04548645,-0.19871521,9.803055,-0.06283569,-0.2528839,0.008514404,-0.043670654,-0.0053253174,-28.686523,-13.056946,-20.083618,1,0.0,0.0,0.0,0.0
1.361724854,0.0081350375,-0.852062,0.52337754,-0.025480969,-0.5234015,-0.85170496,0.9996422,-0.006407514,-0.02596926,0.0068198275,-0.8457724,0.5335004,-0.022464752,-0.5335077,-0.84549683,0.9997244,-0.00621881,-0.022638496,9.780304,-0.05505371,-0.25138855,9.803055,-0.06283569,-0.2546692,0.003189087,-0.04473877,0.003189087,-28.866577,-11.444092,-18.182373,1,0.0,0.0,0.0,0.0
1.366455078,0.008202318,-0.85210896,0.5233003,-0.025654301,-0.52332497,-0.85174704,0.99963725,-0.0064386018,-0.026152734,0.006846823,-0.8458994,0.53329855,-0.022524739,-0.53330624,-0.84562236,0.99972284,-0.0062225843,-0.022705115,9.852127,-0.12689209,-0.27053833,9.803055,-0.06314087,-0.25646973,-0.015975952,-0.043670654,0.0021209717,-28.866577,-11.444092,-18.182373,1,0.0,0.0,0.0,0.0
1.371154786,0.008292407,-0.85217166,0.5231967,-0.025777375,-0.523223,-0.85180587,0.9996333,-0.0064231167,-0.026305525,0.0072256452,-0.8459499,0.53321344,-0.0231108,-0.53322613,-0.845657,0.9997068,-0.0062125716,-0.023403483,9.852127,-0.02154541,-0.26574707,9.802902,-0.06298828,-0.2579651,0.008514404,-0.038345337,-0.0010681152,-28.866577,-11.444092,-18.182373,1,0.0,0.0,0.0,0.0
1.375854493,0.009896287,-0.8198395,0.5725079,-0.025305714,-0.57255787,-0.8194736,0.99963075,-0.0063779764,-0.02641282,0.007247584,-0.8460755,0.5330138,-0.023163848,-0.5330269,-0.8457812,0.99970543,-0.0062167826,-0.023461523,9.789886,0.002380371,-0.32800293,9.802902,-0.06254578,-0.25901794,0.0021209717,-0.036209106,0.0010681152,-30.12085,-12.698364,-17.663574,1,0.0,0.0,0.0,0.0
1.380584717,0.009971727,-0.81989866,0.5724218,-0.025364129,-0.57247347,-0.8195308,0.99962854,-0.0063468427,-0.026504565,0.0072984044,-0.84556913,0.53381604,-0.02320866,-0.5338297,-0.8452735,0.99970394,-0.006220007,-0.02352063,9.756363,0.007171631,-0.4812317,9.802902,-0.0622406,-0.2599182,-0.023422241,-0.015975952,-0.0063934326,-30.12085,-12.698364,-17.663574,1,0.0,0.0,0.0,0.0
1.385284424,0.009959401,-0.81988907,0.57243586,-0.025372867,-0.5724871,-0.81952107,0.9996284,-0.006362402,-0.026504561,0.007349722,-0.8450734,0.5345997,-0.023253685,-0.534614,-0.8447764,0.9997026,-0.0062225433,-0.023580337,9.74678,-0.09815979,-0.2609558,9.802902,-0.06239319,-0.2599182,0.0021209717,-0.013839722,0.0063934326,-30.12085,-12.698364,-17.663574,1,0.0,0.0,0.0,0.0
1.389953614,0.0075466074,-0.87018293,0.49267083,-0.026237622,-0.49268755,-0.8698105,0.99962723,-0.0063623944,-0.026549654,0.007513848,-0.8446425,0.5352781,-0.023412121,-0.535295,-0.8443407,0.9996977,-0.0061877468,-0.023797,9.866501,-0.08857727,-0.39024353,9.802902,-0.06239319,-0.26036072,-0.006378174,-0.0095825195,-0.0021362305,-29.045105,-11.62262,-20.083618,1,0.0,0.0,0.0,0.0
1.39440918,0.0075409184,-0.87017953,0.4926771,-0.026258767,-0.49269357,-0.8698067,0.9996268,-0.0063779512,-0.026565202,0.0075170686,-0.8451739,0.5344386,-0.023467975,-0.5344556,-0.84487075,0.9996963,-0.0061912397,-0.023852056,9.785095,-0.08378601,-0.29927063,9.802902,-0.06254578,-0.2605133,-0.004272461,-0.0063934326,-0.0010681152,-29.045105,-11.62262,-20.083618,1,0.0,0.0,0.0,0.0
1.398773194,0.007548343,-0.87018406,0.49266896,-0.026272362,-0.49268547,-0.8698107,0.9996263,-0.006377948,-0.02658075,0.007519999,-0.8456939,0.5336153,-0.02352313,-0.53363234,-0.84538937,0.999695,-0.0061949743,-0.023906281,9.809036,-0.05984497,-0.3088379,9.802902,-0.06254578,-0.2606659,-0.004272461,0.019165039,-0.009597778,-29.045105,-11.62262,-20.083618,1,0.0,0.0,0.0,0.0
