Time,Rot1,Rot2,Rot3,Rot4,Rot5,Rot6,Rot7,Rot8,Rot9,FRot1,FRot2,FRot3,FRot4,FRot5,FRot6,FRot7,FRot8,FRot9,AccX,AccY,AccZ,GravX,GravY,GravZ,GyroX,GyroY,GyroZ,MagX,MagY,MagZ,Imid
0.0,0.0,0.0,0.0,0.0,0.0,0.0,0.0,0.0,0.0,0.0,0.0,0.0,0.0,0.0,0.0,0.0,0.0,0.0,-0.03590393,9.818619,-0.21307373,-0.017196655,9.803955,-0.2280426,0.0,0.0,0.0,0.0,0.0,0.0,0,0.0,0.0,0.0,0.0
0.004425049,0.9962191,0.0037817957,0.086794786,0.08685912,-0.023012469,-0.9959548,-0.0017691355,0.999728,-0.02325394,1.0,0.0,0.0,0.0,1.0,0.0,0.0,0.0,1.0,-0.05027771,9.885651,-0.2609558,-0.017349243,9.803955,-0.2280426,0.0,0.0,0.0,1.7578125,-33.076477,-18.734741,0,0.0,0.0,0.0,0.0
0.008850098,0.9962192,0.0037830938,0.08679251,0.0868569,-0.02302797,-0.99595463,-0.0017691349,0.9997277,-0.023269493,0.9964632,0.05951043,0.05932709,-0.057534315,0.9977479,-0.034479786,-0.06124539,0.03094449,0.99764293,-0.026321411,9.928741,-0.24659729,-0.017349243,9.803955,-0.22819519,-0.009567261,0.009597778,-0.0032043457,1.7578125,-33.076477,-18.734741,0,0.0,0.0,0.0,0.0
0.013244629,0.99622387,0.003814065,0.086738266,0.08680341,-0.02303941,-0.9959589,-0.0018002534,0.9997272,-0.023283483,0.98661494,0.11746368,0.1131074,-0.10945345,0.9911871,-0.07462007,-0.12087573,0.061241273,0.9907768,-0.09336853,9.856918,-0.2753296,-0.017654419,9.803955,-0.22833252,-0.011703491,0.007461548,-0.0010681152,1.7578125,-33.076477,-18.734741,0,0.0,0.0,0.0,0.0
0.017669678,0.99833035,0.0031419296,0.05767726,0.057734717,-0.023156302,-0.99806345,-0.0018002528,0.99972695,-0.023299037,0.97154415,0.17361799,0.16111758,-0.15545599,0.9806137,-0.11929074,-0.17870511,0.09084951,0.9796994,0.002380371,9.756363,-0.24180603,-0.017654419,9.803955,-0.2284851,-0.0010528564,0.009597778,-0.0053253174,1.2191772,-33.972168,-19.252014,0,0.0,0.0,0.0,0.0
0.022094727,0.99833137,0.0031528652,0.05765803,0.05771567,-0.023110531,-0.9980656,-0.0018142585,0.999728,-0.02325394,0.95227516,0.22813696,0.2027944,-0.19580545,0.9662286,-0.16751847,-0.23416293,0.119815424,0.964786,-0.06942749,9.923965,-0.13166809,-0.017791748,9.803955,-0.2280426,-0.018081665,0.009597778,0.004257202,1.2191772,-33.972168,-19.252014,0,0.0,0.0,0.0,0.0
0.026489258,0.9983315,0.0031537272,0.057656515,0.057714194,-0.02312606,-0.9980653,-0.0018142577,0.9997276,-0.02326949,0.929867,0.28028354,0.2383031,-0.2299554,0.94842297,-0.21820703,-0.287172,0.14810446,0.94636,-0.02154541,9.818619,-0.28012085,-0.017791748,9.803955,-0.22819519,0.0032043457,0.012771606,0.0,1.2191772,-33.972168,-19.252014,0,0.0,0.0,0.0,0.0
0.030914307,0.99998975,0.0019106803,0.0041141845,0.004157606,-0.023306886,-0.99971974,-0.0018142558,0.99972653,-0.023314588,0.905258,0.32977965,0.26786816,-0.25799233,0.9276153,-0.27012932,-0.33756176,0.1754288,0.9248118,-0.02154541,9.943115,-0.33277893,-0.017791748,9.803955,-0.2286377,-0.01914978,0.0,0.003189087,0.14343262,-33.613586,-19.252014,0,0.0,0.0,0.0,0.0
0.035308838,0.99998975,0.0019106803,0.0041141845,0.004157606,-0.023306886,-0.99971974,-0.0018142558,0.99972653,-0.023314588,0.87896144,0.377699,0.29115328,-0.2811538,0.9035462,-0.32335252,-0.38520035,0.20235553,0.90037376,-0.026321411,9.914383,-0.23222351,-0.017791748,9.803955,-0.2286377,-0.0084991455,0.0021362305,0.0021362305,0.14343262,-33.613586,-19.252014,0,0.0,0.0,0.0,0.0
0.039733887,0.99998957,0.0018972205,0.0041376837,0.004180785,-0.023306895,-0.9997195,-0.0018002521,0.99972653,-0.023314588,0.85201234,0.42276382,0.3087811,-0.29866603,0.8769347,-0.37654233,-0.4299693,0.22859627,0.87342435,0.011962891,9.847351,-0.24180603,-0.017654419,9.803955,-0.2286377,-0.009567261,-0.0063934326,0.0010681152,0.14343262,-33.613586,-19.252014,0,0.0,0.0,0.0,0.0
0.044158936,0.99588037,0.0038204535,0.09059682,0.090660945,-0.022955492,-0.99561733,-0.0017240144,0.9997292,-0.023207288,0.82507145,0.464907,0.3211209,-0.3108976,0.8480967,-0.42903906,-0.47180486,0.25415215,0.8442789,0.10772705,9.923965,-0.20828247,-0.016906738,9.803955,-0.22758484,-0.0084991455,0.0021362305,0.0010681152,1.9363403,-31.820679,-19.943237,0,0.0,0.0,0.0,0.0
0.048553467,0.99588174,0.0038299675,0.09058177,0.09064604,-0.022909367,-0.9956198,-0.0017380199,0.9997302,-0.023162188,0.7993442,0.5025128,0.32943845,-0.3169254,0.8183939,-0.47936386,-0.51049685,0.2787693,0.8134375,-0.06942749,9.895233,-0.10772705,-0.017044067,9.803955,-0.22714233,-0.022354126,-0.013839722,0.0063934326,1.9363403,-31.820679,-19.943237,0,0.0,0.0,0.0,0.0
0.052978516,0.99588466,0.0038515858,0.09054757,0.09061248,-0.022983974,-0.9956209,-0.0017535764,0.9997284,-0.023238389,0.77455866,0.5374523,0.3334726,-0.318613,0.7869885,-0.52833223,-0.54639244,0.3029756,0.78080803,-0.02154541,9.8138275,-0.42855835,-0.017196655,9.803955,-0.22789001,-0.006378174,-0.004257202,0.003189087,1.9363403,-31.820679,-19.943237,0,0.0,0.0,0.0,0.0
0.057373047,0.99501085,0.00403751,0.09968436,0.09975119,-0.022995468,-0.9947466,-0.0017240114,0.9997274,-0.023283489,0.7512017,0.5695327,0.33365935,-0.31642735,0.75433743,-0.5751946,-0.57928383,0.3265082,0.7468752,0.03111267,9.789886,-0.32321167,-0.016906738,9.803955,-0.22833252,0.010665894,-0.013839722,-0.0010681152,2.116394,-33.43506,-19.770813,0,0.0,0.0,0.0,0.0
0.061798096,0.99500775,0.0040182676,0.09971655,0.099782854,-0.022952018,-0.9947444,-0.0017084534,0.99972844,-0.02323839,0.72959477,0.59867764,0.33057,-0.3106957,0.72077906,-0.61963356,-0.60922873,0.34937474,0.7118832,0.01675415,9.990997,-0.10772705,-0.01675415,9.803955,-0.22789001,-0.006378174,-0.010650635,-0.004257202,2.116394,-33.43506,-19.770813,0,0.0,0.0,0.0,0.0
0.066223145,0.9950053,0.0040033576,0.09974151,0.099807456,-0.02295347,-0.9947419,-0.0016928938,0.99972844,-0.02323839,0.70998263,0.62513506,0.3242386,-0.30213743,0.686296,-0.6615971,-0.63611126,0.37175786,0.676135,0.02154541,9.809036,-0.25138855,-0.016601563,9.803955,-0.22789001,0.014923096,-0.012771606,0.0,2.116394,-33.43506,-19.770813,0,0.0,0.0,0.0,0.0
0.070617676,0.9997398,0.0022347225,0.022698825,0.02274449,-0.02313293,-0.9994736,-0.0017084558,0.9997299,-0.02317774,0.6923646,0.648815,0.31570625,-0.2909218,0.6514162,-0.70072925,-0.6602998,0.39331427,0.6397719,0.05984497,9.9479065,-0.3375702,-0.01675415,9.803955,-0.22729492,-0.009567261,-0.017044067,0.007461548,0.50201416,-32.53784,-18.907166,0,0.0,0.0,0.0,0.0
0.075042725,0.99973875,0.0022057816,0.022748606,0.022793664,-0.023178618,-0.9994714,-0.0016773348,0.9997289,-0.023222841,0.6923646,0.648815,0.31570625,-0.2909218,0.6514162,-0.70072925,-0.6602998,0.39331427,0.6397719,0.05984497,9.9479065,-0.3375702,-0.016448975,9.803955,-0.22773743,-0.009567261,-0.017044067,0.007461548,0.50201416,-32.53784,-18.907166,0,0.0,0.0,0.0,0.0
0.079467774,0.99973494,0.0021026956,0.022925906,0.02296843,-0.023120027,-0.9994688,-0.0015715314,0.9997305,-0.023162195,0.66284776,0.6901552,0.2903767,-0.26457626,0.5786852,-0.77144206,-0.70045143,0.4345219,0.56617886,0.13166809,9.8138275,-0.2753296,-0.015411377,9.803955,-0.22714233,0.0032043457,-0.0010528564,0.007461548,0.50201416,-32.53784,-18.907166,0,0.0,0.0,0.0,0.0
0.083862305,0.9943699,0.004016376,0.10588851,0.105953,-0.022865383,-0.99410826,-0.0015715314,0.9997305,-0.023162195,0.6516654,0.70677996,0.27530766,-0.24932043,0.5423865,-0.80228186,-0.71636,0.45417953,0.52966917,-0.02154541,9.823395,-0.21307373,-0.015411377,9.803955,-0.22714233,-0.014892578,-0.024490356,0.010650635,2.2949219,-33.255005,-20.289612,0,0.0,0.0,0.0,0.0
0.088287354,0.9943674,0.0040014563,0.10591268,0.10597682,-0.022866935,-0.99410564,-0.0015559717,0.9997305,-0.023162195,0.64286435,0.72027206,0.2606406,-0.23171224,0.50719315,-0.8300991,-0.7300923,0.47324753,0.49295226,-0.011962891,9.909592,-0.16519165,-0.015258789,9.803955,-0.22714233,0.008529663,-0.019165039,0.004257202,2.2949219,-33.255005,-20.289612,0,0.0,0.0,0.0,0.0
0.092681885,0.9943669,0.0039982777,0.10591783,0.10598184,-0.022835989,-0.9941058,-0.0015559728,0.99973124,-0.023131093,0.64286435,0.72027206,0.2606406,-0.23171224,0.50719315,-0.8300991,-0.7300923,0.47324753,0.49295226,-0.011962891,9.909592,-0.16519165,-0.015258789,9.803955,-0.22683716,0.008529663,-0.019165039,0.004257202,2.2949219,-33.255005,-20.289612,0,0.0,0.0,0.0,0.0
0.097106934,0.9943649,0.003986536,0.10593685,0.10600063,-0.022868488,-0.9941031,-0.001540412,0.9997305,-0.023162195,0.6285908,0.74792594,0.21326141,-0.1760001,0.4038909,-0.8977171,-0.75756025,0.5267627,0.38551715,0.011962891,9.809036,-0.2896881,-0.015106201,9.803955,-0.22714233,-0.0010528564,-0.015975952,-0.0138549805,2.2949219,-33.255005,-20.289612,0,0.0,0.0,0.0,0.0
0.101531983,0.99436206,0.003970026,0.105963595,0.10602698,-0.022854568,-0.9941006,-0.0015248529,0.99973094,-0.023146646,0.6285908,0.74792594,0.21326141,-0.1760001,0.4038909,-0.8977171,-0.75756025,0.5267627,0.38551715,0.02154541,9.900009,-0.20828247,-0.014953613,9.803955,-0.22698975,-0.0010528564,-0.015975952,-0.0138549805,2.2949219,-33.255005,-20.289612,0,0.0,0.0,0.0,0.0
0.105926514,0.9943604,0.0039598765,0.10598004,0.10604326,-0.022902545,-0.99409777,-0.0015092916,0.9997299,-0.0231933,0.627586,0.7531501,0.19723278,-0.15703766,0.37058577,-0.9154263,-0.76254505,0.54353577,0.35084736,0.026321411,9.828186,-0.3375702,-0.014801025,9.803955,-0.22744751,0.004272461,0.004272461,0.0,2.2949219,-33.255005,-20.289612,0,0.0,0.0,0.0,0.0
0.110351563,0.99816626,0.0029104925,0.060462963,0.06051415,-0.023073481,-0.9979006,-0.001509291,0.99972945,-0.023207294,0.6282302,0.7565891,0.18138294,-0.13826482,0.3379886,-0.93093854,-0.76564336,0.5597648,0.3169443,-0.002380371,9.871292,-0.25138855,-0.014801025,9.803955,-0.22758484,-0.0010528564,-0.0021209717,0.003189087,1.2191772,-32.53784,-18.560791,0,0.0,0.0,0.0,0.0
0.114746094,0.9981678,0.0029254248,0.06043689,0.06048843,-0.023072615,-0.9979022,-0.0015248507,0.99972945,-0.023207294,0.6302485,0.7586889,0.16485749,-0.12043466,0.30530247,-0.94460887,-0.76699567,0.57548374,0.28378883,-0.05984497,9.799454,-0.24180603,-0.014953613,9.803955,-0.22758484,0.01171875,0.0,-0.0032043457,1.2191772,-32.53784,-18.560791,0,0.0,0.0,0.0,0.0
0.119171143,0.99816364,0.0028865556,0.060504753,0.06055549,-0.023151211,-0.9978962,-0.0014797251,0.9997278,-0.023283498,0.6337211,0.75908697,0.14894497,-0.10306677,0.27368274,-0.95628184,-0.76666474,0.5906647,0.2516752,0.09336853,9.799454,-0.4381256,-0.014511108,9.803955,-0.22833252,0.0032043457,0.008529663,0.0021362305,1.2191772,-32.53784,-18.560791,0,0.0,0.0,0.0,0.0
0.123596192,0.9991373,0.0024733148,0.04145578,0.04150206,-0.023186857,-0.99886936,-0.0015092889,0.9997281,-0.0232695,0.6384489,0.7579819,0.13359044,-0.086270556,0.24295262,-0.96619433,-0.764814,0.6053408,0.22050437,-0.09336853,9.837769,-0.17955017,-0.014801025,9.803955,-0.22819519,-0.004257202,0.0063934326,0.003189087,0.8605957,-30.744934,-18.907166,0,0.0,0.0,0.0,0.0
0.127990723,0.99913716,0.0024714493,0.04145881,0.04150498,-0.023140235,-0.9988704,-0.0015092905,0.9997292,-0.023222847,0.6442816,0.75554734,0.11853054,-0.07040344,0.21292008,-0.97452986,-0.761541,0.6195266,0.19037363,-0.03590393,9.847351,-0.10293579,-0.014801025,9.803955,-0.22773743,-0.0021209717,0.010650635,0.0010681152,0.8605957,-30.744934,-18.907166,0,0.0,0.0,0.0,0.0
0.132415772,0.999138,0.002484012,0.04143842,0.041484788,-0.023079041,-0.9988726,-0.0015248522,0.9997305,-0.023162195,0.65103585,0.7518294,0.10442658,-0.055086553,0.18401168,-0.9813793,-0.75704545,0.63316053,0.16121389,-0.03111267,9.818619,-0.08378601,-0.014953613,9.803955,-0.22714233,-0.0074310303,0.012771606,-0.004257202,0.8605957,-30.744934,-18.907166,0,0.0,0.0,0.0,0.0
0.136840821,0.9978418,0.003071683,0.065592326,0.06564577,-0.022994626,-0.9975779,-0.0015559722,0.99973077,-0.023146642,0.65873677,0.74686515,0.09087563,-0.040764585,0.15603778,-0.98690957,-0.7512683,0.6464091,0.13323346,-0.10772705,9.900009,-0.16998291,-0.015258789,9.803955,-0.22698975,-0.004257202,0.004272461,0.0021362305,1.399231,-32.359314,-19.770813,0,0.0,0.0,0.0,0.0
0.141235352,0.99784935,0.0031450267,0.06547281,0.06552798,-0.022989994,-0.9975858,-0.0016322146,0.9997307,-0.02314664,0.6671893,0.7407266,0.078629166,-0.026959985,0.12950209,-0.9912126,-0.74440014,0.65920657,0.106372386,-0.01675415,9.713272,-0.28489685,-0.01600647,9.803955,-0.22698975,-0.0074310303,0.012771606,0.004257202,1.399231,-32.359314,-19.770813,0,0.0,0.0,0.0,0.0
0.145660401,0.99784946,0.0031460086,0.06547121,0.06552642,-0.023005517,-0.99758554,-0.001632214,0.99973035,-0.023162192,0.67624766,0.7336,0.06723184,-0.014028192,0.10407121,-0.9944709,-0.7365408,0.6715655,0.08066899,-0.02154541,9.84256,-0.22744751,-0.01600647,9.803955,-0.22714233,-0.003189087,0.017028809,-0.019180298,1.399231,-32.359314,-19.770813,0,0.0,0.0,0.0,0.0
0.150054932,0.99729764,0.0033385393,0.07339175,0.073449165,-0.022902668,-0.997036,-0.0016477767,0.99973214,-0.023085989,0.6858411,0.725524,0.056893934,-0.0017359033,0.0798084,-0.9968087,-0.7277493,0.6835536,0.05599531,-0.07421875,9.832977,-0.15560913,-0.016159058,9.803955,-0.22639465,-0.006378174,0.012771606,0.0053253174,1.5777588,-32.896423,-19.943237,0,0.0,0.0,0.0,0.0
0.154479981,0.99729383,0.00330642,0.07344443,0.07350104,-0.022873761,-0.99703276,-0.0016166584,0.99973285,-0.023054887,0.6957674,0.7167059,0.047331978,0.009583425,0.056628544,-0.99834925,-0.7182032,0.69507253,0.032531798,0.07421875,9.756363,-0.12689209,-0.015853882,9.803955,-0.22608948,-0.0084991455,0.023422241,0.0010681152,1.5777588,-32.896423,-19.943237,0,0.0,0.0,0.0,0.0
0.15890503,0.99729383,0.00330642,0.07344443,0.07350104,-0.022873761,-0.99703276,-0.0016166584,0.99973285,-0.023054887,0.7059789,0.707181,0.038585074,0.020066623,0.034485847,-0.9992037,-0.7079485,0.706191,0.010155547,-0.002380371,9.86171,-0.25138855,-0.015853882,9.803955,-0.22608948,-0.0053253174,0.012771606,-0.004257202,1.5777588,-32.896423,-19.943237,0,0.0,0.0,0.0,0.0
0.163299561,0.99729216,0.0032925631,0.07346716,0.07352347,-0.02289034,-0.9970307,-0.0016010982,0.99973255,-0.02307044,0.7059789,0.707181,0.038585074,0.020066623,0.034485847,-0.9992037,-0.7079485,0.706191,0.010155547,-0.002380371,9.86171,-0.25138855,-0.015701294,9.803955,-0.22624207,-0.0053253174,0.012771606,-0.004257202,1.5777588,-32.896423,-19.943237,0,0.0,0.0,0.0,0.0
0.16772461,0.9991142,0.0025499836,0.04200282,0.042050265,-0.022891732,-0.9988531,-0.0015855416,0.9997346,-0.022978684,0.7269354,0.6863024,0.023536703,0.038670238,-0.0066912053,-0.99922967,-0.6856162,0.7272855,-0.03140355,-0.03111267,9.962265,-0.17477417,-0.015548706,9.803955,-0.2253418,0.0,0.0053253174,0.0010681152,0.8605957,-31.462097,-18.560791,0,0.0,0.0,0.0,0.0
0.172119141,0.9991152,0.0025643872,0.041978452,0.042026218,-0.02287716,-0.99885464,-0.0016011022,0.99973506,-0.02296469,0.7269354,0.6863024,0.023536703,0.038670238,-0.0066912053,-0.99922967,-0.6856162,0.7272855,-0.03140355,-0.03111267,9.962265,-0.17477417,-0.015701294,9.803955,-0.22520447,0.0,0.0053253174,0.0010681152,0.8605957,-31.462097,-18.560791,0,0.0,0.0,0.0,0.0
0.17654419,0.9997687,0.0021242695,0.021405159,0.02144829,-0.02293843,-0.9995068,-0.001632221,0.9997346,-0.022978684,0.74817127,0.6634274,0.010186143,0.05314231,-0.044613715,-0.9975898,-0.66137403,0.74690944,-0.06863477,-0.10293579,9.880859,-0.2753296,-0.01600647,9.803955,-0.2253418,-0.004257202,0.0021362305,0.007461548,0.50201416,-31.820679,-20.289612,0,0.0,0.0,0.0,0.0
0.180969239,0.99976814,0.0021092496,0.021428699,0.021471478,-0.022938713,-0.9995062,-0.0016166612,0.9997346,-0.022978684,0.75875336,0.65136474,0.004173048,0.058971733,-0.062311232,-0.99631304,-0.64870316,0.7562019,-0.08569096,0.007171631,9.713272,-0.20828247,-0.015853882,9.803955,-0.2253418,0.007461548,0.009597778,-0.007461548,0.50201416,-31.820679,-20.289612,0,0.0,0.0,0.0,0.0
0.18536377,0.9997677,0.0020942297,0.021452246,0.021494675,-0.022938998,-0.9995057,-0.0016011015,0.9997346,-0.022978684,0.7690779,0.639154,-0.0011283383,0.06433478,-0.07916858,-0.99478304,-0.6359089,0.76499313,-0.10200664,0.04548645,9.823395,-0.23222351,-0.015701294,9.803955,-0.2253418,0.009597778,0.011703491,-0.014907837,0.50201416,-31.820679,-20.289612,0,0.0,0.0,0.0,0.0
0.189788819,0.9987645,0.0027733475,0.049615152,0.049665794,-0.022915909,-0.99850297,-0.0016322193,0.99973357,-0.02302534,0.7794187,0.6264762,-0.005841762,0.06884925,-0.094918,-0.99310136,-0.6227089,0.77363956,-0.11711328,-0.12689209,9.832977,-0.32321167,-0.01600647,9.803955,-0.22579956,0.0032043457,0.0,0.004257202,1.0406494,-33.43506,-19.07959,0,0.0,0.0,0.0,0.0
0.19418335,0.99876344,0.0027605563,0.049637508,0.04968792,-0.022961663,-0.99850076,-0.0016166578,0.9997325,-0.023070438,0.78952944,0.6136408,-0.009395361,0.073202506,-0.10936232,-0.99130285,-0.60933137,0.781975,-0.13126482,0.03590393,9.708481,-0.35194397,-0.015853882,9.803955,-0.22624207,0.0,0.0063934326,-0.0021362305,1.0406494,-33.43506,-19.07959,0,0.0,0.0,0.0,0.0
0.198608399,0.998761,0.0027306688,0.04968975,0.04973946,-0.022963071,-0.99849826,-0.0015855384,0.99973255,-0.02307044,0.799338,0.60075676,-0.012253329,0.077225074,-0.12293237,-0.9894059,-0.59589857,0.78992337,-0.144658,0.07421875,9.895233,-0.25138855,-0.015548706,9.803955,-0.22624207,0.0010681152,0.012771606,-0.008529663,1.0406494,-33.43506,-19.07959,0,0.0,0.0,0.0,0.0
0.203033448,0.9969092,0.0033807985,0.07848894,0.078546,-0.022906793,-0.99664724,-0.0015715336,0.9997319,-0.023101544,0.8089872,0.5876407,-0.0147681385,0.08050388,-0.1356439,-0.98748153,-0.58228755,0.7976711,-0.15704153,-0.011962891,9.9479065,-0.28012085,-0.015411377,9.803955,-0.22654724,0.0021362305,0.012771606,-0.0021362305,1.5777588,-34.33075,-18.560791,0,0.0,0.0,0.0,0.0
0.207427979,0.99691147,0.003396423,0.07846023,0.07851771,-0.022935249,-0.9966489,-0.0015855363,0.99973124,-0.023131093,0.8183209,0.574532,-0.016248375,0.08377366,-0.1471935,-0.9855537,-0.5686237,0.80513793,-0.16858214,-0.05027771,9.8138275,-0.31362915,-0.015548706,9.803955,-0.22683716,0.0063934326,0.0,-0.0053253174,1.5777588,-34.33075,-18.560791,0,0.0,0.0,0.0,0.0
0.211853028,0.9969151,0.0034228,0.078411765,0.07846979,-0.022888009,-0.9966537,-0.0016166574,0.9997322,-0.02308599,0.8273658,0.5613966,-0.017309994,0.08659519,-0.15795028,-0.9836427,-0.5549478,0.8123334,-0.17929691,-0.09336853,9.789886,-0.10293579,-0.015853882,9.803955,-0.22639465,-0.010635376,0.0010681152,-0.0021362305,1.5777588,-34.33075,-18.560791,0,0.0,0.0,0.0,0.0
0.216278076,0.99619293,0.003606788,0.08710131,0.08716125,-0.022858642,-0.9959319,-0.0016010976,0.9997322,-0.02308599,0.83618605,0.5481543,-0.01788205,0.08906402,-0.1678911,-0.98177403,-0.5411658,0.8193531,-0.18920903,0.01675415,9.852127,-0.22265625,-0.015701294,9.803955,-0.22639465,-0.003189087,0.0053253174,0.008514404,1.7578125,-33.076477,-18.734741,0,0.0,0.0,0.0,0.0
0.220672608,0.9961887,0.0035784678,0.08715091,0.087210186,-0.022861045,-0.9959276,-0.0015715342,0.99973226,-0.023085993,0.84460145,0.5350914,-0.01804185,0.09124106,-0.17705882,-0.9799619,-0.52756363,0.8260311,-0.19836643,0.06463623,9.832977,-0.21307373,-0.015411377,9.803955,-0.22639465,-0.010635376,0.009597778,-0.0010681152,1.7578125,-33.076477,-18.734741,0,0.0,0.0,0.0,0.0
0.225097657,0.99618727,0.0035686495,0.08716811,0.08722725,-0.02292276,-0.9959246,-0.0015559722,0.99973077,-0.023146642,0.85270476,0.52208656,-0.017892867,0.09307864,-0.1855472,-0.97821707,-0.514034,0.83246493,-0.2068121,0.03111267,9.775513,-0.38545227,-0.015258789,9.803955,-0.22698975,-0.0021209717,0.0063934326,0.0053253174,1.7578125,-33.076477,-18.734741,0,0.0,0.0,0.0,0.0
0.229492188,0.99925387,0.0024476622,0.038545206,0.03859148,-0.023069397,-0.9989886,-0.0015559722,0.99973077,-0.023146642,0.86049145,0.5091655,-0.017464995,0.09460536,-0.19338033,-0.97655207,-0.500604,0.8386624,-0.21457191,-0.002380371,9.890442,-0.24180603,-0.015258789,9.803955,-0.22698975,-0.011703491,0.0010681152,-0.008529663,0.8605957,-31.820679,-20.289612,0,0.0,0.0,0.0,0.0
0.233917237,0.99925286,0.002432073,0.038569614,0.038615502,-0.023054399,-0.99898803,-0.0015404131,0.99973124,-0.023131093,0.86799735,0.49625498,-0.01765138,0.09497532,-0.20080143,-0.9750172,-0.48740152,0.8446359,-0.2214271,0.002380371,9.852127,-0.16998291,-0.015106201,9.803955,-0.22683716,-0.015960693,-0.003189087,-0.0063934326,0.8605957,-31.820679,-20.289612,0,0.0,0.0,0.0,0.0
0.238342285,0.9992529,0.002431552,0.038570434,0.038616292,-0.023040412,-0.99898845,-0.0015404137,0.9997316,-0.023117097,0.87524223,0.48336163,-0.017681897,0.09512389,-0.20785718,-0.9735229,-0.47423896,0.8503863,-0.22790462,-0.03111267,9.933533,-0.21786499,-0.015106201,9.803955,-0.22669983,-0.011703491,-0.018096924,-0.0021362305,0.8605957,-31.820679,-20.289612,0,0.0,0.0,0.0,0.0
0.242736817,0.99909663,0.0025371257,0.04241981,0.042467114,-0.023059728,-0.99883157,-0.0015559722,0.99973077,-0.023146642,0.8821709,0.47060442,-0.01749149,0.09504464,-0.21429825,-0.9721331,-0.46123853,0.8559251,-0.23377612,-0.03590393,9.823395,-0.29927063,-0.015258789,9.803955,-0.22698975,-0.0084991455,-0.007446289,0.0,0.8605957,-34.33075,-18.215942,0,0.0,0.0,0.0,0.0
0.247161866,0.99909794,0.002553293,0.0423894,0.04243714,-0.023090223,-0.9988323,-0.0015715308,0.9997301,-0.023177747,0.88877845,0.45802063,-0.017029643,0.094830304,-0.22011328,-0.9708539,-0.44841957,0.8612591,-0.23906618,-0.04069519,9.880859,-0.28489685,-0.015411377,9.803955,-0.22729492,-0.012756348,-0.007446289,-0.008529663,0.8605957,-34.33075,-18.215942,0,0.0,0.0,0.0,0.0
0.251556397,0.999098,0.0025539252,0.042388212,0.04243599,-0.023105765,-0.998832,-0.0015715302,0.99972975,-0.023193298,0.8950195,0.44571733,-0.01661709,0.094242126,-0.22539425,-0.9696988,-0.43595698,0.86633337,-0.2437376,-0.05505371,9.914383,-0.29447937,-0.015411377,9.803955,-0.22744751,0.0021362305,-0.013839722,-0.007461548,0.8605957,-34.33075,-18.215942,0,0.0,0.0,0.0,0.0
0.255981446,0.9960259,0.0036173486,0.08898921,0.08904911,-0.022992088,-0.99576163,-0.0015559695,0.99972904,-0.023222843,0.90102124,0.43348593,-0.015832335,0.09369394,-0.23012534,-0.96864015,-0.42353532,0.871282,-0.24796283,0.04069519,9.785095,-0.28489685,-0.015258789,9.803955,-0.22773743,-0.017028809,0.007461548,-0.0021362305,1.7578125,-31.64215,-18.388367,0,0.0,0.0,0.0,0.0
0.260406494,0.99602354,0.0036011015,0.08901693,0.08907642,-0.022977889,-0.9957596,-0.0015404104,0.99972945,-0.023207294,0.90664375,0.42166433,-0.0140144825,0.093856156,-0.233968,-0.96770346,-0.411325,0.8760469,-0.2517014,0.03111267,9.780304,-0.17477417,-0.015106201,9.803955,-0.22758484,-0.0021209717,0.0,-0.0021362305,1.7578125,-31.64215,-18.388367,0,0.0,0.0,0.0,0.0
0.264801026,0.9960214,0.0035861873,0.089042395,0.08910153,-0.022979185,-0.9957574,-0.0015248507,0.99972945,-0.023207294,0.91198456,0.41004592,-0.012104452,0.09389278,-0.237369,-0.9668713,-0.39933485,0.88063514,-0.25497723,-0.002380371,9.856918,-0.21786499,-0.014953613,9.803955,-0.22758484,-0.0074310303,-0.0021209717,-0.014907837,1.7578125,-31.64215,-18.388367,0,0.0,0.0,0.0,0.0
0.269226074,0.9997259,0.0020970455,0.023322888,0.023365222,-0.02315065,-0.99945897,-0.0015559706,0.99972975,-0.023193298,0.91706717,0.39861044,-0.009882063,0.093966156,-0.24013707,-0.96618044,-0.38750264,0.88512367,-0.2576777,-0.06463623,9.832977,-0.20828247,-0.015258789,9.803955,-0.22744751,-0.013824463,0.009597778,0.0021362305,0.50201416,-32.896423,-18.560791,0,0.0,0.0,0.0,0.0
0.273651123,0.9997258,0.002096348,0.023324123,0.023366394,-0.023119554,-0.9994597,-0.0015559717,0.9997305,-0.023162195,0.9219882,0.38711086,-0.009110093,0.092580974,-0.24322419,-0.9655417,-0.37598744,0.8893746,-0.26008892,-0.01675415,9.789886,-0.12689209,-0.015258789,9.803955,-0.22714233,0.01171875,0.004272461,0.0021362305,0.50201416,-32.896423,-18.560791,0,0.0,0.0,0.0,0.0
0.278045655,0.99972516,0.0020807025,0.023351833,0.023393687,-0.023088764,-0.9994597,-0.0015404131,0.99973124,-0.023131093,0.92664945,0.37583572,-0.008262545,0.091126025,-0.24589266,-0.9650041,-0.3647147,0.89346755,-0.26210472,-0.007171631,9.9479065,-0.15560913,-0.015106201,9.803955,-0.22683716,-0.012756348,0.012771606,0.007461548,0.50201416,-32.896423,-18.560791,0,0.0,0.0,0.0,0.0
0.282470703,0.9999881,0.0016474854,0.00460439,0.0046413084,-0.023154827,-0.99972117,-0.001540412,0.9997305,-0.023162195,0.93110645,0.36467496,-0.0072833896,0.08963615,-0.24812828,-0.96457124,-0.35356218,0.89746565,-0.26372188,0.002380371,9.761154,-0.31362915,-0.015106201,9.803955,-0.22714233,-0.003189087,0.0032043457,0.007461548,0.14343262,-33.255005,-19.252014,0,0.0,0.0,0.0,0.0
0.286865235,0.99998784,0.0016176946,0.004655847,0.004692109,-0.02318599,-0.99972016,-0.0015092916,0.9997299,-0.0231933,0.93530846,0.3537701,-0.006686032,0.08772966,-0.2501655,-0.9642203,-0.34278494,0.90125686,-0.26501805,0.04069519,9.933533,-0.3184204,-0.014801025,9.803955,-0.22744751,0.0053253174,-0.010650635,0.012786865,0.14343262,-33.255005,-19.252014,0,0.0,0.0,0.0,0.0
0.291290283,0.9999881,0.00163286,0.0046296525,0.0046663415,-0.02323106,-0.9997193,-0.0015248496,0.99972874,-0.023238396,0.93928045,0.34309733,-0.0060412884,0.08579528,-0.2518509,-0.9639555,-0.3322521,0.9049063,-0.2659948,-0.04069519,9.818619,-0.35194397,-0.014953613,9.803955,-0.22789001,0.009597778,-0.004257202,-0.007461548,0.14343262,-33.255005,-19.252014,0,0.0,0.0,0.0,0.0
0.295715332,0.99665886,0.0033978897,0.08160645,0.081663206,-0.02299264,-0.99639475,-0.0015092916,0.9997299,-0.0231933,0.94302833,0.33266914,-0.005359322,0.08384067,-0.25319242,-0.96377605,-0.32197553,0.90841883,-0.26665884,0.002380371,9.727631,-0.09336853,-0.014801025,9.803955,-0.22744751,-0.015960693,-0.003189087,-0.008529663,1.5777588,-33.613586,-17.869568,0,0.0,0.0,0.0,0.0
0.300109864,0.9966552,0.003373663,0.0816517,0.08170768,-0.022855686,-0.9963942,-0.0014952926,0.99973303,-0.023054892,0.9464365,0.32287195,-0.003406167,0.08309817,-0.2537525,-0.9636931,-0.3120138,0.91179127,-0.26699072,-0.05027771,9.799454,-0.11251831,-0.014663696,9.803955,-0.22608948,0.0021362305,-0.014907837,0.0,1.5777588,-33.613586,-17.869568,0,0.0,0.0,0.0,0.0
0.304534912,0.99665064,0.0033428168,0.08170932,0.081764564,-0.022844087,-0.99638987,-0.0014641737,0.99973345,-0.023040896,0.94965005,0.31331027,-0.0012128055,0.082574785,-0.25401613,-0.9636686,-0.30223534,0.9150478,-0.26709795,0.05984497,9.785095,-0.18913269,-0.0143585205,9.803955,-0.22595215,-0.02128601,-0.012771606,0.007461548,1.5777588,-33.613586,-17.869568,0,0.0,0.0,0.0,0.0
0.308929444,0.99665093,0.0033451335,0.08170498,0.081760325,-0.02287355,-0.9963895,-0.0014641727,0.9997328,-0.023070445,0.9526781,0.30397946,9.661019E-4,0.08203676,-0.2540421,-0.96370775,-0.2927019,0.9181825,-0.26695782,-0.011962891,9.818619,-0.28489685,-0.0143585205,9.803955,-0.22624207,0.014923096,-0.01171875,0.004257202,1.5777588,-33.613586,-17.869568,0,0.0,0.0,0.0,0.0
0.313354492,0.9966514,0.0033487908,0.08169815,0.08175364,-0.022920068,-0.99638885,-0.0014641711,0.99973166,-0.023117099,0.9555277,0.29488504,0.003124565,0.08148879,-0.25383902,-0.96380776,-0.28341934,0.92119956,-0.26658002,-0.02154541,9.74678,-0.37109375,-0.0143585205,9.803955,-0.22669983,0.007461548,-0.0053253174,-0.0021362305,1.5777588,-33.613586,-17.869568,0,0.0,0.0,0.0,0.0
0.317779541,0.99665135,0.0033475722,0.08170043,0.081755884,-0.022904567,-0.99638927,-0.0014641718,0.99973214,-0.02310155,0.95823324,0.28594205,0.005118668,0.0808281,-0.25361145,-0.9639232,-0.27432805,0.92407703,-0.26613107,0.007171631,9.852127,-0.15083313,-0.0143585205,9.803955,-0.22654724,0.01171875,-0.0053253174,0.0053253174,1.5777588,-33.613586,-17.869568,0,0.0,0.0,0.0,0.0
0.322174073,0.9977682,0.0030337023,0.066702686,0.066754885,-0.022950249,-0.9975053,-0.001495291,0.99973196,-0.023101546,0.9607514,0.2773166,0.0072261095,0.08027503,-0.2529868,-0.9641336,-0.26554215,0.9268728,-0.26531902,-0.12210083,9.890442,-0.24659729,-0.014663696,9.803955,-0.22654724,0.004272461,-0.0053253174,-0.012786865,1.399231,-33.076477,-19.425964,0,0.0,0.0,0.0,0.0
0.326599121,0.997765,0.00300381,0.06675336,0.06680487,-0.022952178,-0.99750215,-0.0014641718,0.99973214,-0.02310155,0.9631392,0.26885256,0.00901109,0.07943624,-0.25224957,-0.96439624,-0.25700736,0.9295636,-0.26430807,0.06942749,9.852127,-0.22744751,-0.0143585205,9.803955,-0.22654724,0.0021362305,-0.004257202,-0.015975952,1.399231,-33.076477,-19.425964,0,0.0,0.0,0.0,0.0
0.33102417,0.99776316,0.002986863,0.06678208,0.066833146,-0.022922099,-0.9975009,-0.001448613,0.9997328,-0.023070445,0.96538377,0.26061136,0.010766715,0.078609765,-0.25133973,-0.9647014,-0.24870606,0.93215346,-0.26312593,0.03590393,9.785095,-0.14604187,-0.014205933,9.803955,-0.22624207,0.0063934326,-0.0095825195,-0.008529663,1.399231,-33.076477,-19.425964,0,0.0,0.0,0.0,0.0
0.335418701,0.9957238,0.0035758987,0.09231083,0.092368715,-0.02286904,-0.99546224,-0.001448612,0.99973214,-0.02310155,0.96744853,0.25276196,0.012438208,0.0778082,-0.250323,-0.9650307,-0.24080949,0.93458533,-0.26184157,-0.04069519,9.86171,-0.28489685,-0.014205933,9.803955,-0.22654724,0.004272461,-0.0021209717,-0.010650635,1.9363403,-33.255005,-19.598389,0,0.0,0.0,0.0,0.0
0.33984375,0.99572355,0.0035745155,0.09231316,0.092370994,-0.022853546,-0.99546236,-0.0014486125,0.9997325,-0.023085998,0.96939,0.24509056,0.014622062,0.077509254,-0.24897134,-0.9654044,-0.23297103,0.9369866,-0.2603471,0.002380371,9.761154,-0.18913269,-0.014205933,9.803955,-0.22639465,0.0063934326,0.0053253174,-0.007461548,1.9363403,-33.255005,-19.598389,0,0.0,0.0,0.0,0.0
0.344238282,0.99572587,0.0035894369,0.09228807,0.092346236,-0.0228522,-0.9954646,-0.0014641722,0.9997324,-0.023085997,0.9712099,0.2376352,0.016759902,0.077221364,-0.24748562,-0.9658094,-0.22536246,0.9392978,-0.258711,-0.04548645,9.761154,-0.24659729,-0.0143585205,9.803955,-0.22639465,-0.004257202,0.004272461,0.003189087,1.9363403,-33.255005,-19.598389,0,0.0,0.0,0.0,0.0
0.34866333,0.9950908,0.003770487,0.09889397,0.09895453,-0.022809312,-0.99483055,-0.0014952922,0.9997328,-0.023070445,0.9729146,0.2303954,0.018849313,0.076945394,-0.24587396,-0.9662429,-0.2179834,0.9415221,-0.2569422,-0.09815979,9.866501,-0.17477417,-0.014663696,9.803955,-0.22624207,0.004272461,-0.0053253174,0.0021362305,1.9363403,-33.255005,-18.215942,0,0.0,0.0,0.0,0.0
0.353088379,0.99508774,0.0037528067,0.09892592,0.09898601,-0.022781327,-0.9948279,-0.0014797333,0.9997333,-0.023040894,0.9744842,0.22345275,0.021200836,0.07699528,-0.24406001,-0.96669877,-0.21083722,0.94366497,-0.25503743,0.007171631,9.780304,-0.15560913,-0.014511108,9.803955,-0.22595215,-0.003189087,0.010650635,-0.0032043457,1.9363403,-33.255005,-18.215942,0,0.0,0.0,0.0,0.0
0.35748291,0.99509245,0.003779586,0.09887753,0.09893823,-0.02276311,-0.99483323,-0.0015092974,0.99973375,-0.023025343,0.97596896,0.21665868,0.023315549,0.076872975,-0.24220307,-0.96717536,-0.20389985,0.9457255,-0.25303787,-0.07421875,9.885651,-0.15560913,-0.014801025,9.803955,-0.22579956,-0.0021209717,0.0032043457,0.0063934326,1.9363403,-33.255005,-18.215942,0,0.0,0.0,0.0,0.0
0.361907959,0.9977625,0.0030486342,0.066789396,0.06684189,-0.022933533,-0.99749994,-0.0015092952,0.99973226,-0.023085993,0.9773571,0.21006936,0.025377452,0.07676399,-0.24024805,-0.9676716,-0.19718124,0.94770867,-0.2509339,-0.026321411,9.751572,-0.41418457,-0.014801025,9.803955,-0.22639465,0.0010681152,0.018096924,-0.0095825195,1.399231,-32.359314,-19.425964,0,0.0,0.0,0.0,0.0
0.366302491,0.99776596,0.0030814528,0.06673498,0.06678832,-0.022976618,-0.99750257,-0.0015404131,0.99973124,-0.023131093,0.97872233,0.20343235,0.026795715,0.07601875,-0.2381955,-0.96823764,-0.19058824,0.9496727,-0.24859191,-0.10772705,9.8138275,-0.33277893,-0.015106201,9.803955,-0.22683716,-0.009567261,0.0,0.0053253174,1.399231,-32.359314,-19.425964,0,0.0,0.0,0.0,0.0
0.370727539,0.99776596,0.0030814528,0.06673498,0.06678832,-0.022976618,-0.99750257,-0.0015404131,0.99973124,-0.023131093,0.9799818,0.19708835,0.028138876,0.0753206,-0.23620069,-0.9687807,-0.18428896,0.9515069,-0.24631721,0.007171631,9.708481,-0.19871521,-0.015106201,9.803955,-0.22683716,-0.0074310303,0.008529663,-0.004257202,1.399231,-32.359314,-19.425964,0,0.0,0.0,0.0,0.0
0.375152588,0.9997563,0.0020484312,0.021983089,0.022024518,-0.02306205,-0.9994914,-0.0015404142,0.9997319,-0.023101544,0.9811609,0.19093561,0.029441983,0.07464874,-0.23412755,-0.9693358,-0.17818755,0.9532722,-0.2439699,-0.011962891,9.780304,-0.18434143,-0.015106201,9.803955,-0.22654724,-0.015960693,0.0021362305,-0.007461548,0.50201416,-34.68933,-19.598389,0,0.0,0.0,0.0,0.0
0.379547119,0.9997562,0.0020481024,0.021983668,0.022025065,-0.023046501,-0.9994917,-0.0015404148,0.99973226,-0.023085993,0.9811609,0.19093561,0.029441983,0.07464874,-0.23412755,-0.9693358,-0.17818755,0.9532722,-0.2439699,-0.011962891,9.780304,-0.18434143,-0.015106201,9.803955,-0.22639465,-0.015960693,0.0021362305,-0.007461548,0.50201416,-34.68933,-19.598389,0,0.0,0.0,0.0,0.0
0.383972168,0.99976003,0.0021506073,0.02180233,0.021846088,-0.02301343,-0.99949646,-0.0016477779,0.99973285,-0.023054887,0.9834013,0.17888106,0.030389935,0.07185018,-0.23011924,-0.9705064,-0.16661191,0.95658076,-0.2391522,0.002380371,9.866501,-0.19392395,-0.016159058,9.803955,-0.22608948,0.0021362305,0.011703491,-0.0063934326,0.50201416,-34.68933,-19.598389,0,0.0,0.0,0.0,0.0
0.388397217,0.9968799,0.0034700835,0.078857616,0.07891673,-0.022959983,-0.9966168,-0.0016477738,0.99973035,-0.023162192,0.9844247,0.17310026,0.030729681,0.07040152,-0.22797708,-0.971118,-0.16109511,0.95815593,-0.2366128,-0.03590393,9.971848,-0.5051727,-0.016159058,9.803955,-0.22714233,-0.0053253174,0.020233154,-0.02557373,1.5777588,-31.462097,-18.560791,0,0.0,0.0,0.0,0.0
0.392791748,0.996887,0.003525973,0.07876349,0.078823864,-0.022924516,-0.9966249,-0.0017084578,0.999731,-0.023131087,0.98530364,0.16775784,0.032157063,0.07012093,-0.22558437,-0.97169685,-0.15575562,0.9596713,-0.23403245,-0.17955017,9.828186,-0.15560913,-0.01675415,9.803955,-0.22683716,-0.004257202,-0.003189087,-0.01171875,1.5777588,-31.462097,-18.560791,0,0.0,0.0,0.0,0.0
0.397216797,0.9968891,0.0035420896,0.07873635,0.07879713,-0.02293889,-0.9966267,-0.001724017,0.99973065,-0.023146639,0.9861231,0.1625924,0.03353876,0.06985989,-0.22314319,-0.97227913,-0.15060125,0.96112996,-0.23140535,-0.04069519,9.809036,-0.26574707,-0.016906738,9.803955,-0.22698975,-0.0021209717,0.007461548,-0.0095825195,1.5777588,-31.462097,-18.560791,0,0.0,0.0,0.0,0.0
0.401611328,0.9997327,0.002226317,0.023007935,0.023053322,-0.023132596,-0.9994664,-0.0016928962,0.99972993,-0.023177741,0.98687184,0.1577085,0.034816742,0.06957787,-0.22060972,-0.9728774,-0.1457501,0.9625276,-0.22868653,0.03590393,9.919174,-0.32800293,-0.016601563,9.803955,-0.22729492,-0.003189087,-0.004257202,-0.007461548,0.50201416,-33.613586,-18.560791,0,0.0,0.0,0.0,0.0
0.406036377,0.99973226,0.002212381,0.023033163,0.023078296,-0.023177989,-0.9994649,-0.0016773348,0.9997289,-0.023222841,0.98766553,0.15261017,0.035028636,0.06825441,-0.21828382,-0.9734955,-0.14091913,0.9638788,-0.22600771,0.03590393,9.775513,-0.31362915,-0.016448975,9.803955,-0.22773743,-0.0084991455,0.011703491,0.003189087,0.50201416,-33.613586,-18.560791,0,0.0,0.0,0.0,0.0
0.410461426,0.9997306,0.0021690757,0.02311154,0.023155648,-0.023178864,-0.99946314,-0.0016322118,0.999729,-0.023222843,0.98840916,0.14767152,0.035220534,0.0669705,-0.21592197,-0.9741112,-0.13624358,0.96517915,-0.22330888,0.026321411,9.852127,-0.26574707,-0.01600647,9.803955,-0.22773743,0.0063934326,0.0032043457,0.003189087,0.50201416,-33.613586,-18.560791,0,0.0,0.0,0.0,0.0
0.414855957,0.99972993,0.0021544883,0.023137942,0.023181729,-0.023194714,-0.99946207,-0.0016166515,0.9997286,-0.023238394,0.98840916,0.14767152,0.035220534,0.0669705,-0.21592197,-0.9741112,-0.13624358,0.96517915,-0.22330888,0.026321411,9.852127,-0.26574707,-0.015853882,9.803955,-0.22789001,0.0063934326,0.0032043457,0.003189087,0.50201416,-33.613586,-18.560791,0,0.0,0.0,0.0,0.0
0.419281006,0.9946475,0.0040425477,0.10324664,0.10331261,-0.022974819,-0.99438345,-0.0016477697,0.99972785,-0.023269495,0.9897598,0.13824776,0.035539567,0.064521015,-0.21120185,-0.9753106,-0.12732847,0.9676163,-0.21795897,-0.06463623,9.823395,-0.28489685,-0.016159058,9.803955,-0.22819519,0.0053253174,0.0,0.0,2.116394,-33.43506,-19.07959,0,0.0,0.0,0.0,0.0
0.423675537,0.9946473,0.0040410026,0.10324932,0.10331522,-0.022959342,-0.9943836,-0.0016477702,0.99972814,-0.023253944,0.99026734,0.1341025,0.037244916,0.06494343,-0.20853965,-0.9758553,-0.12309759,0.9687764,-0.21521908,-0.03111267,9.866501,-0.20350647,-0.016159058,9.803955,-0.2280426,0.007461548,0.0021362305,0.0021362305,2.116394,-33.43506,-19.07959,0,0.0,0.0,0.0,0.0
0.428100586,0.9942606,0.0040961322,0.10690586,0.10697208,-0.022963112,-0.9939966,-0.0016166504,0.99972785,-0.023269495,0.99073887,0.1300883,0.03890267,0.06537157,-0.2058745,-0.9763924,-0.11900815,0.96989316,-0.21247196,0.04069519,9.799454,-0.26574707,-0.015853882,9.803955,-0.22819519,-0.0084991455,0.004272461,-0.0032043457,2.116394,-33.79364,-18.388367,0,0.0,0.0,0.0,0.0
0.432525635,0.99426126,0.004099166,0.10690036,0.106966704,-0.022992518,-0.9939966,-0.0016166493,0.9997272,-0.023299044,0.99117285,0.12621066,0.04058653,0.065877736,-0.203204,-0.9769177,-0.115050085,0.97096807,-0.20972477,-0.01675415,9.856918,-0.28489685,-0.015853882,9.803955,-0.2284851,0.0053253174,-0.003189087,0.0021362305,2.116394,-33.79364,-18.388367,0,0.0,0.0,0.0,0.0
0.436920166,0.99426186,0.004102359,0.10689455,0.10696102,-0.023023462,-0.99399644,-0.001616648,0.9997264,-0.023330145,0.9915701,0.122437894,0.042399704,0.06655505,-0.20052148,-0.977426,-0.11117192,0.9720083,-0.20697996,-0.01675415,9.8138275,-0.31362915,-0.015853882,9.803955,-0.22879028,-0.0010528564,0.010650635,0.0010681152,2.116394,-33.79364,-18.388367,0,0.0,0.0,0.0,0.0
0.441345215,0.9982948,0.0029765638,0.058299456,0.058353003,-0.02322561,-0.9980259,-0.001616647,0.9997258,-0.023359694,0.991943,0.11880288,0.043988287,0.067064464,-0.19786182,-0.97793305,-0.107477665,0.9730039,-0.20423509,0.007171631,9.804245,-0.3184204,-0.015853882,9.803955,-0.2290802,0.004272461,-0.0021209717,-0.012786865,1.2191772,-31.820679,-19.252014,0,0.0,0.0,0.0,0.0
0.445739746,0.99829483,0.0029783559,0.058296498,0.05835014,-0.023257028,-0.99802524,-0.001616671,0.9997251,-0.023391161,0.992354,0.115092956,0.04457879,0.06660879,-0.19532324,-0.9784744,-0.10390823,0.97396225,-0.20149599,-0.03111267,9.742004,-0.29447937,-0.015853882,9.8038025,-0.22938538,-0.010635376,0.009597778,-0.0032043457,1.2191772,-31.820679,-19.252014,0,0.0,0.0,0.0,0.0
0.450164795,0.9982907,0.0029340438,0.05836948,0.058422036,-0.02324356,-0.99802125,-0.0015715235,0.99972546,-0.023375245,0.9927272,0.111602254,0.04513955,0.06617752,-0.192679,-0.97902775,-0.100564264,0.97489476,-0.19866325,0.08857727,9.852127,-0.19871521,-0.015411377,9.803955,-0.22923279,-0.006378174,-0.0010528564,-0.0063934326,1.2191772,-31.820679,-19.252014,0,0.0,0.0,0.0,0.0
0.454589844,0.99784595,0.003111721,0.06552708,0.06558176,-0.023176,-0.997578,-0.001585529,0.99972653,-0.023330148,0.99308765,0.10812036,0.04568392,0.06576371,-0.19015396,-0.9795492,-0.09722224,0.9757825,-0.19594993,-0.026321411,9.732422,-0.11251831,-0.015548706,9.803955,-0.22879028,-0.010635376,0.0032043457,0.0021362305,1.399231,-32.359314,-19.770813,0,0.0,0.0,0.0,0.0
0.458984375,0.9978432,0.0030851583,0.06557037,0.06562446,-0.023207286,-0.99757445,-0.0015559645,0.9997258,-0.023359694,0.99341476,0.104781754,0.04634589,0.06551179,-0.18761723,-0.9800551,-0.09399661,0.97663736,-0.19324616,0.05984497,9.818619,-0.27053833,-0.015258789,9.803955,-0.2290802,0.004272461,-0.003189087,-0.008529663,1.399231,-32.359314,-19.770813,0,0.0,0.0,0.0,0.0
0.463409424,0.9978416,0.003070195,0.06559475,0.065648496,-0.023208234,-0.9975729,-0.001540405,0.999726,-0.023359697,0.9937205,0.101547934,0.046984553,0.065276474,-0.18509297,-0.98055065,-0.09087638,0.97746027,-0.19055936,0.02154541,9.789886,-0.25138855,-0.015106201,9.803955,-0.2290802,0.004272461,0.004272461,-0.0021362305,1.399231,-32.359314,-19.770813,0,0.0,0.0,0.0,0.0
0.467834473,0.9984111,0.0028215477,0.05627962,0.056330085,-0.023223666,-0.99814206,-0.0015092862,0.9997263,-0.023345701,0.99398243,0.098591805,0.04773447,0.06522602,-0.18262352,-0.98101693,-0.08800279,0.97822714,-0.18795533,0.06463623,9.828186,-0.18913269,-0.014801025,9.803955,-0.22894287,0.0032043457,0.008529663,-0.010650635,1.2191772,-33.613586,-19.943237,0,0.0,0.0,0.0,0.0
0.472229004,0.99841005,0.0028105758,0.056298044,0.056348316,-0.02326979,-0.9981399,-0.0014953043,0.9997252,-0.023391163,0.99426264,0.09552028,0.048142076,0.06483099,-0.1801457,-0.9815011,-0.085080676,0.97899103,-0.1853048,-0.011962891,9.785095,-0.3471527,-0.014663696,9.8038025,-0.22938538,-0.013824463,0.004272461,-0.0032043457,1.2191772,-33.613586,-19.943237,0,0.0,0.0,0.0,0.0
0.476654053,0.9984114,0.0028257198,0.056272604,0.056323286,-0.023300126,-0.99814063,-0.0015093071,0.9997245,-0.023422267,0.99452484,0.09254819,0.048530996,0.06445333,-0.17768255,-0.9819749,-0.08225689,0.9797264,-0.18267474,-0.03590393,9.976624,-0.2896881,-0.014801025,9.8038025,-0.22969055,0.0021362305,0.011703491,-0.0010681152,1.2191772,-33.613586,-19.943237,0,0.0,0.0,0.0,0.0
0.481048584,0.9998998,0.0018256168,0.014041769,0.014080776,-0.023475118,-0.9996253,-0.0014953006,0.9997228,-0.023498468,0.9947697,0.08967667,0.048901916,0.064092696,-0.17523338,-0.9824385,-0.07953257,0.9804343,-0.18006447,0.03111267,9.765945,-0.44291687,-0.014663696,9.8038025,-0.23043823,-0.0053253174,0.008529663,-0.004257202,0.32348633,-33.076477,-18.734741,0,0.0,0.0,0.0,0.0
0.485473633,0.99990004,0.0018394637,0.014017328,0.01405671,-0.023504507,-0.99962485,-0.0015093032,0.999722,-0.023528015,0.99503696,0.08682574,0.04860732,0.063108176,-0.17297548,-0.9829023,-0.07693335,0.9810916,-0.17759642,-0.06942749,9.780304,-0.3088379,-0.014801025,9.8038025,-0.23072815,0.0063934326,0.011703491,-0.004257202,0.32348633,-33.076477,-18.734741,0,0.0,0.0,0.0,0.0
0.489898682,0.99990046,0.0018542178,0.013991284,0.014030999,-0.023490341,-0.99962556,-0.0015248635,0.9997223,-0.023514017,0.995303,0.083999775,0.048125654,0.06194979,-0.17062773,-0.98338616,-0.07439265,0.9817485,-0.17503005,-0.07421875,9.832977,-0.19871521,-0.014953613,9.8038025,-0.23059082,-0.006378174,0.02130127,-0.0010681152,0.32348633,-33.076477,-18.734741,0,0.0,0.0,0.0,0.0
0.494293213,0.9907348,0.0047054845,0.13572931,0.1358023,-0.023103056,-0.99046654,-0.0015248631,0.999722,-0.023528015,0.99555254,0.08127203,0.047643274,0.06082216,-0.1682916,-0.983859,-0.071942255,0.98238117,-0.17248628,-0.007171631,9.885651,-0.25616455,-0.014953613,9.8038025,-0.23072815,-0.003189087,0.0032043457,0.0010681152,2.6535034,-33.255005,-18.215942,0,0.0,0.0,0.0,0.0
0.498718262,0.9907392,0.00472434,0.13569553,0.13576901,-0.023131914,-0.99047035,-0.0015404217,0.9997213,-0.023559118,0.9956382,0.07904239,0.049566656,0.062158197,-0.16577755,-0.98420227,-0.069576666,0.9829904,-0.16996759,-0.04069519,9.765945,-0.3088379,-0.015106201,9.8038025,-0.23103333,0.0021362305,0.011703491,0.0053253174,2.6535034,-33.255005,-18.215942,0,0.0,0.0,0.0,0.0
0.503112793,0.9907392,0.00472434,0.13569553,0.13576901,-0.023131914,-0.99047035,-0.0015404217,0.9997213,-0.023559118,0.9956955,0.077043936,0.051524192,0.06358683,-0.16337246,-0.98451316,-0.06743313,0.98355156,-0.16756819,-0.03111267,9.852127,-0.23222351,-0.015106201,9.8038025,-0.23103333,0.0053253174,0.0053253174,-0.0095825195,2.6535034,-33.255005,-18.215942,0,0.0,0.0,0.0,0.0
0.507537842,0.9958817,0.0036606959,0.09058857,0.09064969,-0.023399845,-0.995608,-0.0015248593,0.99971956,-0.023635319,0.9957589,0.07494881,0.053355813,0.06488258,-0.1609207,-0.98483235,-0.06522595,0.98411745,-0.16510108,0.03590393,9.775513,-0.41418457,-0.014953613,9.8038025,-0.231781,0.0010681152,0.013839722,-0.0010681152,1.9363403,-33.255005,-19.943237,0,0.0,0.0,0.0,0.0
0.511962891,0.9958812,0.0036567599,0.09059509,0.09065604,-0.023354914,-0.99560857,-0.001524861,0.99972063,-0.023590222,0.99587196,0.07277325,0.054249346,0.06525481,-0.15856943,-0.9851891,-0.063093126,0.9846623,-0.16266367,-0.007171631,9.823395,-0.11730957,-0.014953613,9.8038025,-0.2313385,-0.0084991455,0.0021362305,-0.0021362305,1.9363403,-33.255005,-19.943237,0,0.0,0.0,0.0,0.0
0.516357422,0.9958853,0.0036852458,0.09054798,0.09060959,-0.023336774,-0.99561304,-0.0015559809,0.9997209,-0.023574667,0.99597585,0.07066843,0.05511841,0.06562677,-0.15624385,-0.98553586,-0.061034363,0.98518723,-0.16025284,0.01675415,10.010147,-0.41897583,-0.015258789,9.8038025,-0.23118591,-0.0053253174,0.0010681152,-0.0063934326,1.9363403,-33.255005,-19.943237,0,0.0,0.0,0.0,0.0
0.520782471,0.9958841,0.0036769733,0.09056166,0.09062318,-0.02341402,-0.99560994,-0.0015404182,0.999719,-0.023650866,0.99597585,0.07066843,0.05511841,0.06562677,-0.15624385,-0.98553586,-0.061034363,0.98518723,-0.16025284,0.01675415,10.010147,-0.41897583,-0.015106201,9.8038025,-0.2319336,-0.0053253174,0.0010681152,-0.0063934326,1.9363403,-33.255005,-19.943237,0,0.0,0.0,0.0,0.0
0.52520752,0.9958817,0.0036606959,0.09058857,0.09064969,-0.023399845,-0.995608,-0.0015248593,0.99971956,-0.023635319,0.996162,0.066556334,0.05684629,0.06640205,-0.15151246,-0.9862225,-0.057026427,0.9862121,-0.15535043,0.02154541,9.785095,-0.19871521,-0.014953613,9.8038025,-0.231781,-0.015960693,0.013839722,-0.0032043457,1.9363403,-33.255005,-19.943237,0,0.0,0.0,0.0,0.0
0.529602051,0.9958845,0.003679551,0.0905574,0.090619035,-0.023443464,-0.9956097,-0.0015404174,0.9997184,-0.023680417,0.99624145,0.06465351,0.05764383,0.06676993,-0.14927368,-0.98653895,-0.055178497,0.9866799,-0.15302953,-0.05984497,9.832977,-0.3375702,-0.015106201,9.8038025,-0.23222351,-0.009567261,-0.013839722,0.0,1.9363403,-33.255005,-19.943237,0,0.0,0.0,0.0,0.0
0.5340271,0.99912095,0.0025293883,0.041842576,0.04189064,-0.02356562,-0.9988441,-0.0015404182,0.999719,-0.023650866,0.99632454,0.06272541,0.058334947,0.06703651,-0.14701709,-0.9868597,-0.05332494,0.9871431,-0.15068163,-0.011962891,9.837769,-0.15560913,-0.015106201,9.8038025,-0.2319336,-0.003189087,-0.0053253174,0.0053253174,0.8605957,-32.896423,-18.560791,0,0.0,0.0,0.0,0.0
0.538421631,0.9991221,0.0025430664,0.041818388,0.04186674,-0.023533963,-0.9988461,-0.0015559794,0.99971986,-0.023619767,0.9964556,0.060807467,0.05812654,0.066429496,-0.14489502,-0.98721457,-0.05160777,0.9875768,-0.14842086,-0.08857727,9.818619,-0.17477417,-0.015258789,9.8038025,-0.23162842,0.0,-0.0095825195,0.0010681152,0.8605957,-32.896423,-18.560791,0,0.0,0.0,0.0,0.0
0.54284668,0.9991232,0.0025598675,0.041788664,0.04183749,-0.023579994,-0.9988461,-0.0015715373,0.99971867,-0.023666417,0.9965791,0.058955796,0.057916045,0.06583938,-0.14279586,-0.9875599,-0.049952213,0.98799473,-0.14618899,-0.03111267,9.789886,-0.3184204,-0.015411377,9.8038025,-0.23208618,-0.014892578,0.0053253174,-0.012786865,0.8605957,-32.896423,-18.560791,0,0.0,0.0,0.0,0.0
0.547271729,0.99733806,0.003287686,0.072843336,0.07290056,-0.023426907,-0.9970642,-0.0015715397,0.9997202,-0.023604216,0.9966956,0.057168074,0.057703227,0.06526524,-0.14072186,-0.98789567,-0.04835598,0.9883973,-0.14398794,-0.011962891,9.828186,-0.07899475,-0.015411377,9.8038025,-0.23147583,0.004272461,-0.0063934326,-0.004257202,1.399231,-32.359314,-17.697144,0,0.0,0.0,0.0,0.0
0.55166626,0.99733424,0.003259001,0.07289549,0.07295205,-0.023444513,-0.9970599,-0.0015404195,0.99971986,-0.023619767,0.9967371,0.055693503,0.05842349,0.06566292,-0.13854119,-0.9881775,-0.046941005,0.98878944,-0.14174613,0.03111267,9.761154,-0.25616455,-0.015106201,9.8038025,-0.23162842,-0.0053253174,0.019165039,-0.010650635,1.399231,-32.359314,-17.697144,0,0.0,0.0,0.0,0.0
0.556091309,0.99733424,0.003259001,0.07289549,0.07295205,-0.023444513,-0.9970599,-0.0015404195,0.99971986,-0.023619767,0.99680257,0.054096695,0.058807224,0.06572235,-0.13649076,-0.9884589,-0.045445714,0.9891632,-0.1396097,0.011962891,9.785095,-0.25138855,-0.015106201,9.8038025,-0.23162842,0.0053253174,-0.0095825195,-0.010650635,1.399231,-32.359314,-17.697144,0,0.0,0.0,0.0,0.0
0.56048584,0.9977066,0.003101787,0.06761618,0.067670465,-0.023434067,-0.9974326,-0.0015093011,0.99972063,-0.023590222,0.9968631,0.052552175,0.05917868,0.06578484,-0.13446845,-0.9887318,-0.04400234,0.98952335,-0.13750377,0.03590393,9.880859,-0.13166809,-0.014801025,9.8038025,-0.2313385,-0.01914978,-0.004257202,0.0,1.399231,-34.15222,-19.07959,0,0.0,0.0,0.0,0.0
0.564910889,0.9977066,0.003101787,0.06761618,0.067670465,-0.023434067,-0.9974326,-0.0015093011,0.99972063,-0.023590222,0.9969265,0.05104081,0.059434086,0.06574443,-0.13248084,-0.98900276,-0.042605627,0.98987055,-0.13542931,0.007171631,9.914383,-0.25138855,-0.014801025,9.8038025,-0.2313385,0.0010681152,0.009597778,0.0010681152,1.399231,-34.15222,-19.07959,0,0.0,0.0,0.0,0.0
0.569335938,0.99770516,0.0030892824,0.06763846,0.06769246,-0.02344891,-0.9974308,-0.001495297,0.99972034,-0.023604218,0.99697304,0.049682382,0.059802562,0.06584373,-0.13051517,-0.98925745,-0.04134353,0.9902007,-0.1333914,0.002380371,9.799454,-0.2609558,-0.014663696,9.8038025,-0.23147583,0.0,0.007461548,-0.0063934326,1.399231,-34.15222,-19.07959,0,0.0,0.0,0.0,0.0
0.573730469,0.9962591,0.0035341475,0.08634397,0.08640333,-0.02344878,-0.9959844,-0.0014952947,0.9997189,-0.023666423,0.9970286,0.048263766,0.06003782,0.06580976,-0.12858546,-0.9895124,-0.040037606,0.9905233,-0.13137962,0.011962891,9.785095,-0.39024353,-0.014663696,9.8038025,-0.23208618,-0.0084991455,0.0053253174,0.008514404,1.9363403,-33.255005,-20.980835,0,0.0,0.0,0.0,0.0
0.578155518,0.9962589,0.0035328513,0.08634601,0.08640532,-0.023433277,-0.9959845,-0.0014952952,0.9997192,-0.02365087,0.9970556,0.046939313,0.060636163,0.06615427,-0.12666732,-0.98973686,-0.03877695,0.99083406,-0.1293996,-0.01675415,9.919174,-0.19871521,-0.014663696,9.8038025,-0.2319336,-0.006378174,-0.0021209717,0.008514404,1.9363403,-33.255005,-20.980835,0,0.0,0.0,0.0,0.0
0.582580567,0.9962568,0.0035166026,0.08637156,0.08643046,-0.02341904,-0.99598265,-0.001479736,0.99971956,-0.023635319,0.9970796,0.0456575,0.061219037,0.06649527,-0.124777906,-0.98995394,-0.03756004,0.99113363,-0.1274495,-0.011962891,9.900009,-0.20350647,-0.014511108,9.8038025,-0.231781,0.0032043457,0.007461548,-0.010650635,1.9363403,-33.255005,-20.980835,0,0.0,0.0,0.0,0.0
0.586975098,0.99728596,0.00320296,0.07355688,0.07361203,-0.023508452,-0.99701005,-0.0014641747,0.9997186,-0.02368042,0.99710214,0.044377636,0.06178963,0.06682849,-0.12286804,-0.9901704,-0.036349453,0.99143034,-0.12547767,-0.06942749,9.909592,-0.3088379,-0.0143585205,9.8038025,-0.23222351,-0.003189087,0.0,0.0021362305,1.5777588,-33.255005,-19.943237,0,0.0,0.0,0.0,0.0
0.591400147,0.99728966,0.0032350374,0.07350368,0.07355965,-0.023537345,-0.99701303,-0.0014952931,0.9997178,-0.023711521,0.99710214,0.044377636,0.06178963,0.06682849,-0.12286804,-0.9901704,-0.036349453,0.99143034,-0.12547767,-0.06942749,9.909592,-0.3088379,-0.014663696,9.8038025,-0.23252869,-0.003189087,0.0,0.0021362305,1.5777588,-33.255005,-19.943237,0,0.0,0.0,0.0,0.0
0.595794678,0.99729484,0.0032783558,0.073431864,0.07348887,-0.02353426,-0.9970184,-0.0015404163,0.9997177,-0.02371152,0.9971704,0.041956417,0.062376738,0.0669837,-0.11925949,-0.99060094,-0.034123052,0.9919762,-0.12173243,-0.16519165,9.957474,-0.24180603,-0.015106201,9.8038025,-0.23252869,-0.0084991455,-0.0021209717,0.008514404,1.5777588,-33.255005,-19.943237,0,0.0,0.0,0.0,0.0
0.600219727,0.9987973,0.0027009237,0.04895661,0.049006857,-0.02362312,-0.9985191,-0.0015404156,0.9997173,-0.023727069,0.99720055,0.040808856,0.06265524,0.06706181,-0.11749583,-0.9908064,-0.03307195,0.9922345,-0.119903624,-0.007171631,9.809036,-0.2609558,-0.015106201,9.8038025,-0.23268127,-0.0010528564,0.012771606,0.012786865,1.0406494,-32.717896,-19.425964,0,0.0,0.0,0.0,0.0
0.604644776,0.9987973,0.0027023153,0.048954263,0.04900459,-0.023652634,-0.99851847,-0.0015404146,0.99971664,-0.023756616,0.99725664,0.03958012,0.062550336,0.06674999,-0.115626544,-0.9910474,-0.031993296,0.9925039,-0.11795132,-0.026321411,9.756363,-0.3184204,-0.015106201,9.8038025,-0.23297119,-0.009567261,0.0063934326,0.003189087,1.0406494,-32.717896,-19.425964,0,0.0,0.0,0.0,0.0
0.609039307,0.99879843,0.0027158745,0.048931487,0.048982095,-0.023622423,-0.9985203,-0.0015559754,0.9997173,-0.023727069,0.99731433,0.038453404,0.062333345,0.06634869,-0.1139395,-0.9912697,-0.031015467,0.99274325,-0.11618483,-0.05984497,9.828186,-0.15083313,-0.015258789,9.8038025,-0.23268127,-0.017028809,0.008529663,-0.0095825195,1.0406494,-32.717896,-19.425964,0,0.0,0.0,0.0,0.0
0.613464356,0.99575126,0.0037151678,0.092009254,0.09207135,-0.023453556,-0.9954762,-0.0015404167,0.999718,-0.023695966,0.99736917,0.037365448,0.062117398,0.06595737,-0.112277545,-0.9914855,-0.030072907,0.9929741,-0.114446685,0.03590393,9.828186,-0.14125061,-0.015106201,9.8038025,-0.2323761,0.0032043457,0.018096924,-0.008529663,1.9363403,-33.613586,-19.598389,0,0.0,0.0,0.0,0.0
0.617858887,0.9957533,0.0037286924,0.091986254,0.092048645,-0.023436721,-0.99547863,-0.001555977,0.99971837,-0.023680415,0.99736893,0.036491457,0.06263949,0.06632601,-0.110570475,-0.99165267,-0.029260771,0.99319816,-0.11269988,-0.04548645,9.818619,-0.2609558,-0.015258789,9.8038025,-0.23222351,-0.0021209717,-0.007446289,-0.0053253174,1.9363403,-33.613586,-19.598389,0,0.0,0.0,0.0,0.0
0.622283936,0.9957508,0.0037125512,0.092013694,0.092075676,-0.023424115,-0.9954764,-0.0015404179,0.9997187,-0.02366642,0.9973627,0.035561986,0.063269466,0.0668008,-0.108931504,-0.9918022,-0.02837842,0.9934129,-0.11101978,0.026321411,9.876068,-0.19871521,-0.015106201,9.8038025,-0.23208618,-0.004257202,0.028747559,-0.0032043457,1.9363403,-33.613586,-19.598389,0,0.0,0.0,0.0,0.0
0.626708985,0.9902127,0.0047930647,0.1394845,0.1395585,-0.023085043,-0.98994476,-0.0015248631,0.999722,-0.023528015,0.9973552,0.034660384,0.06388509,0.06726824,-0.1073208,-0.9919462,-0.027525041,0.9936201,-0.1093685,-0.06463623,9.919174,-0.15083313,-0.014953613,9.8038025,-0.23072815,0.0032043457,0.0053253174,-0.0010681152,3.012085,-31.820679,-20.289612,0,0.0,0.0,0.0,0.0
0.631103516,0.99020714,0.0047668917,0.13952471,0.13959812,-0.023104377,-0.9899387,-0.0014952989,0.99972165,-0.023543566,0.9972813,0.03388653,0.065435514,0.068682164,-0.10570242,-0.9920231,-0.026699526,0.99382025,-0.10774245,0.03111267,9.847351,-0.2609558,-0.014663696,9.8038025,-0.23088074,-0.023422241,0.008529663,0.0095825195,3.012085,-31.820679,-20.289612,0,0.0,0.0,0.0,0.0
0.635528565,0.99020994,0.004780282,0.13950413,0.13957785,-0.02310252,-0.98994154,-0.0015093028,0.99972165,-0.023543566,0.9971928,0.03306845,0.06717847,0.07028848,-0.10418868,-0.9920707,-0.025807,0.99400765,-0.106220536,-0.05984497,9.86171,-0.22744751,-0.014801025,9.8038025,-0.23088074,0.004272461,0.013839722,0.004257202,3.012085,-31.820679,-20.289612,0,0.0,0.0,0.0,0.0
0.639953614,0.9978343,0.0030348746,0.06570709,0.065760136,-0.02331829,-0.99756294,-0.0014953016,0.9997235,-0.023467366,0.9971158,0.032339647,0.06865999,0.07164566,-0.10262726,-0.9921363,-0.02503895,0.99419403,-0.10464826,0.05984497,9.780304,-0.14125061,-0.014663696,9.8038025,-0.23013306,0.01171875,0.007461548,0.013839722,1.399231,-32.000732,-19.770813,0,0.0,0.0,0.0,0.0
0.644348145,0.9978372,0.0030623265,0.06566285,0.065716535,-0.023300964,-0.9975662,-0.0015248657,0.9997238,-0.023451813,0.9971449,0.03148039,0.068637386,0.07149692,-0.10113999,-0.9922998,-0.024296002,0.99437404,-0.103101976,-0.06942749,9.885651,-0.20350647,-0.014953613,9.8038025,-0.22998047,-0.010635376,0.029815674,-0.0032043457,1.399231,-32.000732,-19.770813,0,0.0,0.0,0.0,0.0
0.648773194,0.9978387,0.0030772935,0.06563873,0.06569277,-0.023300014,-0.99756783,-0.0015404256,0.9997238,-0.023451813,0.9971724,0.030651106,0.06861241,0.071351886,-0.09967626,-0.99245834,-0.023580916,0.9945477,-0.10158143,-0.06942749,9.885651,-0.24659729,-0.015106201,9.8038025,-0.22998047,0.0032043457,0.011703491,0.004257202,1.399231,-32.000732,-19.770813,0,0.0,0.0,0.0,0.0
0.653167725,0.99990916,0.0011810673,-0.013433122,-0.013401782,-0.023424678,-0.9996358,-0.0014953037,0.99972486,-0.023406716,0.9971742,0.029774925,0.0689725,0.07158646,-0.09815476,-0.99259317,-0.022784406,0.99472564,-0.10000887,-0.002380371,9.852127,-0.19871521,-0.014663696,9.8038025,-0.22953796,-0.0053253174,0.023422241,0.004257202,-0.21514893,-32.896423,-18.907166,0,0.0,0.0,0.0,0.0
0.657592774,0.99990946,0.0011659138,-0.01340676,-0.013375759,-0.023439985,-0.99963576,-0.0014797434,0.99972457,-0.023422267,0.9973113,0.028844697,0.06736557,0.06986356,-0.09678708,-0.99285007,-0.022118343,0.99488705,-0.09854205,-0.08378601,9.880859,-0.37109375,-0.014511108,9.8038025,-0.22969055,-0.009567261,0.02130127,0.007461548,-0.21514893,-32.896423,-18.907166,0,0.0,0.0,0.0,0.0
0.662017823,0.99990916,0.0011810673,-0.013433122,-0.013401782,-0.023424678,-0.9996358,-0.0014953037,0.99972486,-0.023406716,0.9974421,0.027945444,0.06578922,0.06817664,-0.095440626,-0.99309766,-0.02147359,0.9950428,-0.097101726,0.002380371,9.885651,-0.2753296,-0.014663696,9.8038025,-0.22953796,-0.009567261,0.022354126,0.007461548,-0.21514893,-32.896423,-18.907166,0,0.0,0.0,0.0,0.0
0.666412354,0.99990946,0.0011659138,-0.01340676,-0.013375759,-0.023439985,-0.99963576,-0.0014797434,0.99972457,-0.023422267,0.9974421,0.027945444,0.06578922,0.06817664,-0.095440626,-0.99309766,-0.02147359,0.9950428,-0.097101726,0.002380371,9.885651,-0.2753296,-0.014511108,9.8038025,-0.22969055,-0.009567261,0.022354126,0.007461548,-0.21514893,-32.896423,-18.907166,0,0.0,0.0,0.0,0.0
0.670837403,0.99975073,0.0020309838,0.022236787,0.022278275,-0.023412405,-0.9994776,-0.0015093059,0.9997238,-0.023451813,0.9976728,0.026352145,0.062885344,0.06507461,-0.09268087,-0.9935671,-0.020354355,0.9953471,-0.09418003,-0.06942749,9.818619,-0.32321167,-0.014801025,9.8038025,-0.22998047,-0.0074310303,0.009597778,-0.007461548,0.50201416,-32.53784,-19.598389,0,0.0,0.0,0.0,0.0
0.675231934,0.99975073,0.0020309838,0.022236787,0.022278275,-0.023412405,-0.9994776,-0.0015093059,0.9997238,-0.023451813,0.9977413,0.025606722,0.06210129,0.06419779,-0.09138124,-0.9937445,-0.019771645,0.9954867,-0.09281873,-0.04069519,9.832977,-0.21786499,-0.014801025,9.8038025,-0.22998047,-0.014892578,-0.0063934326,-0.0095825195,0.50201416,-32.53784,-19.598389,0,0.0,0.0,0.0,0.0
0.679656983,0.993737,0.0041076345,0.11166837,0.11173389,-0.023153411,-0.99346834,-0.0014953016,0.9997235,-0.023467366,0.99780715,0.02488621,0.061331585,0.063339666,-0.09010345,-0.9939162,-0.01920862,0.99562144,-0.09148215,0.04548645,9.809036,-0.2609558,-0.014663696,9.8038025,-0.23013306,-0.0074310303,-0.008514404,0.0,2.2949219,-31.820679,-19.252014,0,0.0,0.0,0.0,0.0
0.684082032,0.99373466,0.0040944093,0.11168994,0.11175517,-0.023170516,-0.9934656,-0.0014797412,0.99972314,-0.023482917,0.9977567,0.024347829,0.062359095,0.064289615,-0.08880374,-0.9939722,-0.018663345,0.9957515,-0.09016984,0.007171631,9.84256,-0.2896881,-0.014511108,9.8038025,-0.23028564,0.0021362305,-0.013839722,-0.004257202,2.2949219,-31.820679,-19.252014,0,0.0,0.0,0.0,0.0
0.688476563,0.99373865,0.00411619,0.11165442,0.11172007,-0.023107091,-0.9934711,-0.0015093071,0.9997245,-0.023422267,0.9977198,0.023891602,0.06312165,0.06498441,-0.08750731,-0.99404204,-0.018225651,0.9958773,-0.088860355,0.01675415,9.919174,-0.16040039,-0.014801025,9.8038025,-0.22969055,-0.0010528564,-0.014907837,-0.004257202,2.2949219,-31.820679,-19.252014,0,0.0,0.0,0.0,0.0
0.692901612,0.9891994,0.0048871506,0.14649467,0.1465687,-0.02289063,-0.98893565,-0.0014797226,0.99972606,-0.0233597,0.99766874,0.023382612,0.06411134,0.06590299,-0.08625543,-0.994091,-0.017714491,0.9959986,-0.087595336,0.05984497,9.981415,-0.22744751,-0.014511108,9.803955,-0.2290802,-0.0084991455,-0.02130127,-0.008529663,2.8335571,-32.717896,-18.041992,0,0.0,0.0,0.0,0.0
0.697296143,0.98920166,0.0048959837,0.14647901,0.14655334,-0.022952596,-0.9889365,-0.0014797434,0.99972457,-0.023422267,0.9975704,0.022945719,0.06577921,0.06750512,-0.085009836,-0.99409074,-0.017218245,0.99611586,-0.086352244,-0.026321411,9.809036,-0.3663025,-0.014511108,9.8038025,-0.22969055,-0.010635376,-0.02130127,0.0,2.8335571,-32.717896,-18.041992,0,0.0,0.0,0.0,0.0
0.701721192,0.9892066,0.0049152495,0.14644486,0.14651954,-0.02288654,-0.988943,-0.0015092858,0.999726,-0.023359697,0.9974863,0.022554522,0.06717412,0.068836406,-0.08352608,-0.9941252,-0.01681123,0.99625033,-0.0848687,-0.13645935,9.86171,-0.22744751,-0.014801025,9.803955,-0.2290802,-0.015960693,-0.014907837,-0.0032043457,2.8335571,-32.717896,-18.041992,0,0.0,0.0,0.0,0.0
0.706146241,0.99941576,0.0022895376,0.034100227,0.034144275,-0.023234447,-0.99914676,-0.0014952843,0.9997274,-0.02329905,0.9973863,0.02214017,0.06877838,0.07038055,-0.0823329,-0.99411666,-0.016347187,0.99635893,-0.08367594,0.01675415,9.900009,-0.29927063,-0.014663696,9.803955,-0.2284851,-0.011703491,-0.02130127,0.004257202,0.6820679,-34.15222,-17.697144,0,0.0,0.0,0.0,0.0
0.710540772,0.9994166,0.0023034436,0.03407342,0.03411782,-0.02324957,-0.99914724,-0.0015092873,0.999727,-0.023314599,0.99744534,0.021552196,0.0681048,0.06964213,-0.08121072,-0.9942609,-0.015897667,0.9964639,-0.0825042,-0.05505371,9.761154,-0.25138855,-0.014801025,9.803955,-0.2286377,-0.020217896,-0.018096924,-0.0010681152,0.6820679,-34.15222,-17.697144,0,0.0,0.0,0.0,0.0
0.714965821,0.9994193,0.0023456244,0.033992127,0.03403741,-0.02317201,-0.99915177,-0.0015559689,0.9997287,-0.023238394,0.99750245,0.020984337,0.06744324,0.06891872,-0.08010832,-0.9944008,-0.015464078,0.9965653,-0.081354454,-0.11251831,9.770737,-0.04069519,-0.015258789,9.803955,-0.22789001,-0.0074310303,-0.018096924,-0.0032043457,0.6820679,-34.15222,-17.697144,0,0.0,0.0,0.0,0.0
0.719390869,0.99777186,0.0031010413,0.06664553,0.06669949,-0.0230674,-0.9975063,-0.0015559695,0.99972904,-0.023222843,0.99757755,0.020309018,0.06653236,0.067937836,-0.07890904,-0.9945642,-0.014948616,0.99667495,-0.08009764,-0.002380371,9.84256,-0.16998291,-0.015258789,9.803955,-0.22773743,-0.0074310303,-0.015975952,0.007461548,1.399231,-32.717896,-19.425964,0,0.0,0.0,0.0,0.0
0.723785401,0.997765,0.003037838,0.066751495,0.06680386,-0.022995101,-0.99750113,-0.0014952896,0.999731,-0.023146648,0.997586,0.019835228,0.06654908,0.06790085,-0.07783046,-0.9946516,-0.014549597,0.99676925,-0.07898941,0.011962891,9.74678,-0.23701477,-0.014663696,9.803955,-0.22698975,0.0,-0.008514404,0.004257202,1.399231,-32.717896,-19.425964,0,0.0,0.0,0.0,0.0
0.728210449,0.99776334,0.0030218863,0.06677824,0.0668302,-0.022980545,-0.9974997,-0.0014797302,0.9997313,-0.023131095,0.9975939,0.019372215,0.06656727,0.06786741,-0.076771505,-0.9947362,-0.014159775,0.9968605,-0.07790152,0.007171631,9.986206,-0.17955017,-0.014511108,9.803955,-0.22683716,-0.015960693,-0.017044067,0.010650635,1.399231,-32.717896,-19.425964,0,0.0,0.0,0.0,0.0
0.732604981,0.99776,0.0029929841,0.06682668,0.066877976,-0.022997994,-0.99749595,-0.0014486104,0.999731,-0.023146648,0.99760133,0.018922338,0.06658475,0.06783545,-0.07573158,-0.9948181,-0.013781715,0.99694866,-0.07683354,0.05505371,9.852127,-0.27053833,-0.014205933,9.803955,-0.22698975,0.0053253174,-0.01171875,-0.0021362305,1.399231,-32.717896,-19.425964,0,0.0,0.0,0.0,0.0
0.73703003,0.99775696,0.0029645772,0.0668743,0.06692494,-0.02299983,-0.99749285,-0.001419047,0.99973106,-0.023146648,0.9976163,0.018620042,0.06644596,0.06765938,-0.074668184,-0.99491054,-0.013563876,0.9970346,-0.075750016,0.06463623,9.732422,-0.22744751,-0.013916016,9.803955,-0.22698975,-0.0021209717,-0.0095825195,-0.008529663,1.399231,-32.717896,-19.425964,0,0.0,0.0,0.0,0.0
0.741455078,0.9977602,0.0029939855,0.066824995,0.06687635,-0.02301352,-0.99749583,-0.00144861,0.9997307,-0.023162201,0.9976228,0.018189024,0.06646693,0.06763445,-0.07366854,-0.9949867,-0.013201315,0.9971169,-0.074723616,-0.06942749,9.895233,-0.2609558,-0.014205933,9.803955,-0.22714233,-0.010635376,-0.0063934326,-0.010650635,1.399231,-32.717896,-19.425964,0,0.0,0.0,0.0,0.0
0.74584961,0.9967664,0.0033056368,0.08028475,0.080339715,-0.022986503,-0.9965024,-0.0014486095,0.99973035,-0.023177752,0.9976291,0.017773021,0.06648576,0.06760952,-0.07268722,-0.9950606,-0.012852568,0.99719644,-0.07371651,-0.011962891,9.8138275,-0.24180603,-0.014205933,9.803955,-0.22729492,-0.003189087,0.0063934326,0.0095825195,1.7578125,-33.076477,-20.462036,0,0.0,0.0,0.0,0.0
0.750274658,0.9967634,0.0032807102,0.08032479,0.08037923,-0.0230337,-0.9964982,-0.0014190444,0.9997293,-0.023222849,0.9976167,0.017389117,0.06677236,0.067854986,-0.071719766,-0.995114,-0.012515256,0.9972732,-0.072728775,0.03590393,9.9048,-0.36151123,-0.013916016,9.803955,-0.22773743,0.0063934326,0.0,0.0053253174,1.7578125,-33.076477,-20.462036,0,0.0,0.0,0.0,0.0
0.75466919,0.9967616,0.0032669578,0.08034687,0.08040101,-0.02305038,-0.9964961,-0.0014034844,0.999729,-0.023238402,0.99760604,0.01691965,0.06705141,0.06808928,-0.07090057,-0.9951568,-0.012083721,0.9973399,-0.07188288,0.04069519,9.70369,-0.28012085,-0.013763428,9.803955,-0.22789001,0.007461548,0.0,0.0063934326,1.7578125,-33.076477,-20.462036,0,0.0,0.0,0.0,0.0
0.759094239,0.99477065,0.003747329,0.10206556,0.10212489,-0.022914888,-0.9945076,-0.0013879265,0.99973035,-0.023177752,0.9975935,0.01655881,0.06732708,0.06832734,-0.06996747,-0.99520653,-0.0117687285,0.99741185,-0.07093052,0.026321411,9.689331,-0.05505371,-0.01361084,9.803955,-0.22729492,-0.006378174,0.011703491,0.0,2.116394,-32.717896,-19.425964,0,0.0,0.0,0.0,0.0
0.763519287,0.9947644,0.0037100085,0.10212774,0.10218609,-0.022842033,-0.994503,-0.0013568096,0.9997322,-0.023101551,0.9975511,0.016237777,0.06803067,0.06899589,-0.06904399,-0.99522483,-0.011463131,0.99748147,-0.06999525,0.05505371,9.900009,-0.007171631,-0.013305664,9.803955,-0.22654724,-0.0084991455,0.007461548,0.0053253174,2.116394,-32.717896,-19.425964,0,0.0,0.0,0.0,0.0
0.767913819,0.9947641,0.0037084776,0.102130294,0.102188595,-0.022826552,-0.994503,-0.0013568101,0.99973255,-0.023086,0.9975088,0.015923884,0.06872092,0.06965245,-0.06813706,-0.9952416,-0.01116567,0.9975489,-0.069076456,-0.026321411,9.8138275,-0.19392395,-0.013305664,9.803955,-0.22639465,0.0053253174,0.013839722,0.004257202,2.116394,-32.717896,-19.425964,0,0.0,0.0,0.0,0.0
0.772338867,0.9961544,0.003350149,0.087550804,0.0876046,-0.02278839,-0.9958945,-0.001341253,0.9997346,-0.022994244,0.9974569,0.015558435,0.069552824,0.070448965,-0.067374185,-0.99523747,-0.010798273,0.99760646,-0.06829892,0.05027771,9.780304,0.007171631,-0.013153076,9.803955,-0.22549438,0.007461548,0.009597778,0.004257202,1.7578125,-33.076477,-18.734741,0,0.0,0.0,0.0,0.0
0.776763916,0.99615246,0.0033367332,0.0875743,0.0876278,-0.022789543,-0.99589264,-0.0013272495,0.99973476,-0.022994248,0.99743605,0.0152435275,0.06992072,0.07078534,-0.0665016,-0.9952723,-0.010521621,0.9976699,-0.06741011,0.007171631,9.866501,-0.22265625,-0.013015747,9.803955,-0.22549438,-0.006378174,0.023422241,0.003189087,1.7578125,-33.076477,-18.734741,0,0.0,0.0,0.0,0.0
0.781158448,0.9961548,0.003352769,0.087546214,0.08760012,-0.02281939,-0.9958942,-0.0013412522,0.9997339,-0.023025349,0.99741536,0.014936846,0.070281506,0.07111591,-0.065645434,-0.99530554,-0.010253067,0.9977312,-0.06653801,0.06463623,9.876068,-0.37109375,-0.013153076,9.803955,-0.22579956,-0.0074310303,0.019165039,-0.008529663,1.7578125,-33.076477,-18.734741,0,0.0,0.0,0.0,0.0
0.785583496,0.99749607,0.0029463037,0.070660464,0.07070941,-0.022797901,-0.99723643,-0.0013272509,0.9997358,-0.022949148,0.9973598,0.014823305,0.07108961,0.07190524,-0.06470595,-0.9953104,-0.010153868,0.9977943,-0.065600984,0.026321411,9.928741,-0.12210083,-0.013015747,9.803955,-0.22505188,-0.0053253174,0.027694702,-0.01171875,1.399231,-32.717896,-18.388367,0,0.0,0.0,0.0,0.0
0.789978028,0.99749476,0.0029355062,0.07067958,0.07072835,-0.022859443,-0.99723357,-0.0013116891,0.9997343,-0.023009798,0.9973645,0.014506188,0.07108852,0.071875274,-0.06388898,-0.9953653,-0.009897183,0.99785155,-0.06476324,-0.01675415,9.828186,-0.27053833,-0.012863159,9.803955,-0.22564697,-0.0084991455,0.025558472,-0.0010681152,1.399231,-32.717896,-18.388367,0,0.0,0.0,0.0,0.0
0.794403076,0.997488,0.00288039,0.07077713,0.07082467,-0.022908442,-0.9972256,-0.0012510049,0.9997333,-0.023054898,0.9973691,0.014197884,0.07108748,0.071846545,-0.06308924,-0.9954184,-0.00964798,0.99790686,-0.06394332,0.007171631,9.818619,-0.28012085,-0.012268066,9.803955,-0.22608948,0.010665894,0.028747559,0.0021362305,1.399231,-32.717896,-18.388367,0,0.0,0.0,0.0,0.0
0.798828125,0.99853694,0.0025590467,0.054011676,0.054056354,-0.023012437,-0.9982726,-0.001311686,0.9997319,-0.023117105,0.9973733,0.013895686,0.07108824,0.07182065,-0.06230624,-0.99546957,-0.009403491,0.9979603,-0.06314057,0.01675415,9.837769,-0.33277893,-0.012863159,9.803955,-0.22669983,0.0053253174,0.025558472,0.010650635,1.2191772,-32.896423,-20.980835,0,0.0,0.0,0.0,0.0
0.803222657,0.9985417,0.0026175492,0.053920228,0.05396628,-0.023009392,-0.99827754,-0.0013723689,0.99973184,-0.023117103,0.9973627,0.013868697,0.07124171,0.071965724,-0.061628938,-0.9955013,-0.009415754,0.99800277,-0.062464472,-0.15083313,9.895233,-0.24180603,-0.013458252,9.803955,-0.22669983,0.0063934326,0.029815674,-0.017044067,1.2191772,-32.896423,-20.980835,0,0.0,0.0,0.0,0.0
0.807647705,0.99854153,0.0026151186,0.053924028,0.053969953,-0.022962797,-0.9982784,-0.0013723703,0.99973285,-0.023070447,0.9973911,0.013561638,0.07090248,0.07160105,-0.06087851,-0.99557376,-0.009185174,0.9980531,-0.061690707,-0.02154541,9.856918,-0.10293579,-0.013458252,9.803955,-0.22624207,-0.0021209717,0.018096924,-0.0032043457,1.2191772,-32.896423,-20.980835,0,0.0,0.0,0.0,0.0
0.812042237,0.99717605,0.0030884354,0.07503664,0.07508792,-0.022950012,-0.9969129,-0.0013568092,0.9997319,-0.023117105,0.9974187,0.013263784,0.07056953,0.07124373,-0.06014069,-0.9956442,-0.00896191,0.9981018,-0.060930412,0.026321411,9.823395,-0.31362915,-0.013305664,9.803955,-0.22669983,-0.003189087,0.020233154,0.0063934326,1.5777588,-33.255005,-19.598389,0,0.0,0.0,0.0,0.0
0.816467285,0.997178,0.0031043869,0.07500973,0.0750614,-0.022962881,-0.99691457,-0.0013723684,0.99973154,-0.023131099,0.9974154,0.012999478,0.070664495,0.07131606,-0.05941275,-0.9956827,-0.008744985,0.99814886,-0.060186267,-0.06463623,9.799454,-0.28489685,-0.013458252,9.803955,-0.22683716,-0.004257202,0.015975952,-0.0095825195,1.5777588,-33.255005,-19.598389,0,0.0,0.0,0.0,0.0
0.820892334,0.9971797,0.0031183148,0.074986234,0.07503821,-0.02294783,-0.99691665,-0.0013879286,0.99973184,-0.023117103,0.99739516,0.012819819,0.07098259,0.071617514,-0.058797583,-0.9956976,-0.008591059,0.9981876,-0.05956255,-0.04548645,9.923965,-0.16998291,-0.01361084,9.803955,-0.22669983,0.0063934326,0.013839722,-0.004257202,1.5777588,-33.255005,-19.598389,0,0.0,0.0,0.0,0.0
0.825286866,0.9958773,0.0034771578,0.09064411,0.090700164,-0.022880504,-0.9956155,-0.0013879291,0.9997322,-0.023101551,0.9973923,0.012569766,0.071067825,0.07168181,-0.05809497,-0.9957343,-0.008387464,0.99823195,-0.058844496,-0.03590393,9.785095,-0.20350647,-0.01361084,9.803955,-0.22654724,-0.004257202,-0.007446289,-0.0032043457,1.9363403,-34.68933,-19.943237,0,0.0,0.0,0.0,0.0
0.829711914,0.9958754,0.003464828,0.09066538,0.09072118,-0.022911265,-0.99561286,-0.0013723684,0.99973154,-0.023131099,0.99736685,0.012344837,0.07146405,0.0720585,-0.057401128,-0.99574727,-0.008190221,0.99827486,-0.058139533,0.02154541,9.847351,-0.3088379,-0.013458252,9.803955,-0.22683716,0.009597778,0.0063934326,0.0021362305,1.9363403,-34.68933,-19.943237,0,0.0,0.0,0.0,0.0
0.834136963,0.9958733,0.0034512773,0.090688735,0.09074425,-0.022928085,-0.99561036,-0.0013568084,0.99973124,-0.023146652,0.9973415,0.012125479,0.07185274,0.07242836,-0.05672179,-0.99575937,-0.007998444,0.9983164,-0.057449225,0.05505371,9.732422,-0.24180603,-0.013305664,9.803955,-0.22698975,0.0,0.004272461,-0.008529663,1.9363403,-34.68933,-19.943237,0,0.0,0.0,0.0,0.0
0.838531494,0.98956686,0.0047166706,0.14399731,0.1440677,-0.022658428,-0.9893084,-0.0014034888,0.99973214,-0.02310155,0.9973099,0.011948632,0.072320566,0.07288034,-0.056088775,-0.9957622,-0.007841624,0.99835426,-0.056808706,-0.14125061,9.871292,-0.13645935,-0.013763428,9.803955,-0.22654724,0.0021362305,0.0053253174,-0.0021362305,3.012085,-33.613586,-19.598389,0,0.0,0.0,0.0,0.0
0.842956543,0.98957354,0.0047448496,0.14395,0.14402105,-0.022654394,-0.9893153,-0.0014330522,0.99973214,-0.02310155,0.9972061,0.011801166,0.07376179,0.07430583,-0.055421833,-0.9956944,-0.00766234,0.9983933,-0.056143884,-0.10293579,9.847351,-0.22744751,-0.014053345,9.803955,-0.22654724,-0.003189087,-0.010650635,0.007461548,3.012085,-33.613586,-19.598389,0,0.0,0.0,0.0,0.0
0.847351074,0.98957264,0.004740535,0.14395726,0.14402816,-0.022623582,-0.98931503,-0.0014330532,0.9997328,-0.023070445,0.9971024,0.011657956,0.07517283,0.07570179,-0.05476722,-0.9956254,-0.0074899495,0.9984311,-0.055491053,-0.011962891,9.967056,-0.11251831,-0.014053345,9.803955,-0.22624207,-0.004257202,-0.004257202,0.008514404,3.012085,-33.613586,-19.598389,0,0.0,0.0,0.0,0.0
0.851776123,0.9976797,0.002970214,0.06801719,0.06806754,-0.022921456,-0.99741733,-0.0014034897,0.99973285,-0.023070447,0.9969988,0.01151772,0.076555416,0.07706988,-0.05412534,-0.99555546,-0.007322942,0.99846774,-0.054850567,0.07421875,9.823395,-0.25138855,-0.013763428,9.803955,-0.22624207,-0.014892578,-0.0010528564,-0.004257202,1.399231,-33.076477,-19.07959,0,0.0,0.0,0.0,0.0
0.856201172,0.997681,0.0029821973,0.06799652,0.068047084,-0.022875462,-0.9974197,-0.001419051,0.99973387,-0.023025347,0.99701875,0.011124422,0.07635388,0.07684285,-0.053525817,-0.99560547,-0.006988632,0.9985045,-0.05422107,-0.06942749,9.74678,-0.08378601,-0.013916016,9.803955,-0.22579956,0.0,-0.0021209717,0.010650635,1.399231,-33.076477,-19.07959,0,0.0,0.0,0.0,0.0
0.860595703,0.997681,0.0029821973,0.06799652,0.068047084,-0.022875462,-0.9974197,-0.001419051,0.99973387,-0.023025347,0.99703354,0.010916161,0.07619034,0.07666415,-0.052923586,-0.9956515,-0.006836426,0.9985389,-0.053603467,-0.01675415,9.871292,-0.23701477,-0.013916016,9.803955,-0.22579956,-0.0010528564,0.0021362305,0.0053253174,1.399231,-33.076477,-19.07959,0,0.0,0.0,0.0,0.0
0.865020752,0.9991985,0.0023336972,0.03995919,0.04000211,-0.022827428,-0.99893874,-0.0014190549,0.99973667,-0.022902489,0.99704796,0.010713861,0.07602974,0.076489,-0.052332986,-0.9956961,-0.006688886,0.99857223,-0.05299799,-0.04548645,9.909592,-0.15083313,-0.013916016,9.803955,-0.22459412,-0.017028809,0.0032043457,-0.014907837,0.8605957,-32.896423,-19.598389,0,0.0,0.0,0.0,0.0
0.869415283,0.9991947,0.0022737859,0.04005958,0.04010111,-0.022829693,-0.99893475,-0.0013568158,0.9997367,-0.02290249,0.99707603,0.01042692,0.07570116,0.07613971,-0.0514108,-0.99577093,-0.0064909663,0.99862313,-0.052054383,0.12689209,9.837769,-0.23222351,-0.013305664,9.803955,-0.22459412,-0.02128601,0.023422241,0.0021362305,0.8605957,-32.896423,-19.598389,0,0.0,0.0,0.0,0.0
0.873840332,0.999192,0.002231554,0.04013035,0.040170938,-0.022862427,-0.9989312,-0.0013116915,0.9997361,-0.022933595,0.9971318,0.010207238,0.07499306,0.075417556,-0.05085385,-0.99585444,-0.0063512377,0.99865395,-0.051477797,0.07899475,9.938324,-0.35673523,-0.012863159,9.803955,-0.22489929,-0.011703491,0.020233154,0.0053253174,0.8605957,-32.896423,-19.598389,0,0.0,0.0,0.0,0.0
0.878265381,0.9994823,0.0020910013,0.032105085,0.032144483,-0.02281754,-0.9992227,-0.0013568167,0.99973744,-0.022872943,0.99718595,0.009992171,0.07430006,0.07471099,-0.050307754,-0.9959355,-0.0062136888,0.99868375,-0.050912708,-0.08857727,9.837769,-0.25138855,-0.013305664,9.803955,-0.2243042,-0.0053253174,0.031951904,0.003189087,0.6820679,-33.076477,-19.07959,0,0.0,0.0,0.0,0.0
0.882659912,0.99948144,0.0020741127,0.032134328,0.03217325,-0.022755807,-0.9992233,-0.0013412589,0.99973893,-0.022810737,0.9972502,0.0097775785,0.0734606,0.07385842,-0.049772497,-0.9960259,-0.006082404,0.9987127,-0.05035779,0.09336853,9.928741,-0.18913269,-0.013153076,9.803955,-0.22369385,-0.014892578,0.022354126,-0.0063934326,0.6820679,-33.076477,-19.07959,0,0.0,0.0,0.0,0.0
0.887084961,0.9994813,0.0020731983,0.03213591,0.032174774,-0.022726268,-0.9992238,-0.0013412598,0.9997396,-0.022781188,0.9972694,0.009640902,0.073216744,0.073603645,-0.0490472,-0.9960807,-0.0060120407,0.9987499,-0.049622875,0.01675415,9.775513,-0.2753296,-0.013153076,9.803955,-0.22340393,-0.011703491,0.03514099,-0.0053253174,0.6820679,-33.076477,-19.07959,0,0.0,0.0,0.0,0.0
0.89151001,0.9997357,0.001847577,0.022912033,0.022948055,-0.022668255,-0.99947953,-0.0013272396,0.9997413,-0.022704666,0.99733114,0.009436161,0.07239925,0.07277393,-0.04853427,-0.99616694,-0.005886146,0.998777,-0.049091443,0.03590393,9.742004,-0.10293579,-0.013015747,9.804092,-0.22265625,-0.009567261,0.025558472,-0.0032043457,0.50201416,-32.896423,-19.252014,0,0.0,0.0,0.0,0.0
0.895904541,0.99973685,0.0018763804,0.022862846,0.022899555,-0.022683218,-0.99948037,-0.0013568025,0.9997409,-0.022720218,0.99740404,0.009227875,0.07141422,0.071776934,-0.04803039,-0.9962636,-0.005763342,0.99880326,-0.048568055,-0.07899475,9.943115,-0.2896881,-0.013305664,9.804092,-0.22280884,-0.0084991455,0.031951904,-0.004257202,0.50201416,-32.896423,-19.252014,0,0.0,0.0,0.0,0.0
0.90032959,0.9997379,0.0019049712,0.022814019,0.022851303,-0.022620408,-0.9994829,-0.0013879237,0.9997423,-0.022658011,0.9974746,0.00902726,0.07044755,0.07079885,-0.047536433,-0.99635726,-0.0056455503,0.9988287,-0.048055504,-0.03590393,9.828186,-0.21786499,-0.01361084,9.804092,-0.22219849,0.0,0.028747559,0.0,0.50201416,-32.896423,-19.252014,0,0.0,0.0,0.0,0.0
0.904724121,0.9990085,0.0024262113,0.044454847,0.04449838,-0.022587994,-0.998754,-0.0014190425,0.99974185,-0.02267356,0.9975113,0.008939111,0.06993781,0.07028138,-0.046815287,-0.99642813,-0.0056330226,0.9988636,-0.04732703,0.05027771,9.70369,-0.21307373,-0.013916016,9.804092,-0.22235107,-0.013824463,0.026626587,-0.007461548,0.8605957,-33.255005,-17.52472,0,0.0,0.0,0.0,0.0
0.90914917,0.99900955,0.00243963,0.044429436,0.044473283,-0.022587433,-0.99875516,-0.0014330462,0.99974185,-0.02267356,0.9975482,0.008769877,0.06943095,0.06976446,-0.046339717,-0.9964866,-0.005521654,0.99888724,-0.046837926,-0.04548645,9.809036,-0.21307373,-0.014053345,9.804092,-0.22235107,0.0063934326,0.034072876,-0.0138549805,0.8605957,-33.255005,-17.52472,0,0.0,0.0,0.0,0.0
0.913574219,0.99900496,0.0023847711,0.044533316,0.044576004,-0.02266633,-0.9987487,-0.0013723804,0.99974024,-0.022750083,0.99758404,0.008606153,0.06893382,0.06925766,-0.045873392,-0.9965434,-0.005414177,0.9989102,-0.046358608,-0.08378601,9.876068,-0.22265625,-0.013458252,9.803955,-0.22309875,0.0063934326,0.017028809,-0.0053253174,0.8605957,-33.255005,-17.52472,0,0.0,0.0,0.0,0.0
0.91796875,0.99900746,0.0024145867,0.044476863,0.044520237,-0.022665078,-0.9987512,-0.0014035,0.9997401,-0.022750081,0.99758404,0.008606153,0.06893382,0.06925766,-0.045873392,-0.9965434,-0.005414177,0.9989102,-0.046358608,-0.08378601,9.876068,-0.22265625,-0.013763428,9.803955,-0.22309875,0.0063934326,0.017028809,-0.0053253174,0.8605957,-33.255005,-17.52472,0,0.0,0.0,0.0,0.0
0.922393799,0.99585,0.0034844307,0.09094207,0.09099773,-0.022542106,-0.9955959,-0.0014190595,0.9997398,-0.022765635,0.99763244,0.008174259,0.06828372,0.06858406,-0.045048773,-0.9966277,-0.005070595,0.9989513,-0.045502745,-0.06463623,9.871292,-0.27053833,-0.013916016,9.803955,-0.22325134,0.004272461,0.019165039,0.007461548,1.9363403,-32.896423,-19.943237,0,0.0,0.0,0.0,0.0
0.92678833,0.9958472,0.0034654785,0.09097305,0.09102821,-0.022498185,-0.995594,-0.0014034814,0.99974084,-0.022720216,0.99760205,0.008069063,0.06873842,0.06903132,-0.04460177,-0.9966169,-0.004975909,0.99897224,-0.045051835,0.03111267,9.909592,-0.11730957,-0.013763428,9.804092,-0.22280884,-0.011703491,0.013839722,-0.0010681152,1.9363403,-32.896423,-19.943237,0,0.0,0.0,0.0,0.0
0.931213379,0.999917,0.0011281305,-0.012829293,-0.01280038,-0.022705434,-0.9996601,-0.001419042,0.9997415,-0.022689112,0.99757206,0.007965772,0.0691847,0.06947033,-0.04416263,-0.99660605,-0.0048833587,0.9989926,-0.04460879,-0.07899475,9.847351,-0.13645935,-0.013916016,9.804092,-0.22250366,-0.004257202,0.0,-0.0010681152,-0.21514893,-32.17926,-19.598389,0,0.0,0.0,0.0,0.0
0.935638428,0.9999174,0.0011129355,-0.012804348,-0.012775766,-0.02272076,-0.99966013,-0.0014034819,0.9997412,-0.022704665,0.9976856,0.0077744196,0.067549914,0.067826614,-0.043746583,-0.9967376,-0.0047939783,0.9990124,-0.04417265,0.03111267,9.890442,-0.25616455,-0.013763428,9.804092,-0.22265625,0.0010681152,0.02130127,0.004257202,-0.21514893,-32.17926,-19.598389,0,0.0,0.0,0.0,0.0
0.940032959,0.99991775,0.0010977411,-0.012779404,-0.012751153,-0.022736086,-0.9996602,-0.0013879219,0.9997409,-0.022720218,0.9977878,0.0078114336,0.06601846,0.066296004,-0.043290127,-0.9968605,-0.004928962,0.999032,-0.04371223,0.011962891,9.852127,-0.24659729,-0.01361084,9.804092,-0.22280884,-0.0021209717,0.004272461,-0.0138549805,-0.21514893,-32.17926,-19.598389,0,0.0,0.0,0.0,0.0
0.944458008,0.9999177,0.0010975685,-0.01277912,-0.012750853,-0.022750078,-0.9996598,-0.0013879213,0.99974054,-0.022734214,0.99789196,0.0076242806,0.064447515,0.06471641,-0.042892195,-0.9969814,-0.004836971,0.9990506,-0.043295193,-0.011962891,9.823395,-0.2609558,-0.01361084,9.804092,-0.22294617,-0.004257202,0.010650635,0.004257202,-0.21514893,-32.17926,-19.598389,0,0.0,0.0,0.0,0.0
0.948852539,0.9999173,0.0011123933,-0.012803457,-0.012774822,-0.02276617,-0.999659,-0.0014035,0.9997401,-0.022750081,0.9979916,0.007442984,0.0629076,0.06316822,-0.042501993,-0.9970975,-0.0047476813,0.9990687,-0.04288679,-0.02154541,9.8138275,-0.2609558,-0.013763428,9.803955,-0.22309875,-0.012756348,0.018096924,-0.0021362305,-0.21514893,-32.17926,-19.598389,0,0.0,0.0,0.0,0.0
0.953277588,0.9999178,0.0010970082,-0.012778201,-0.012749881,-0.02279705,-0.9996588,-0.0013879392,0.99973947,-0.022781186,0.99808687,0.007267816,0.061397724,0.061650418,-0.042118896,-0.99720865,-0.0046615247,0.99908614,-0.04248638,-0.011962891,9.86171,-0.33277893,-0.01361084,9.803955,-0.22340393,-0.0074310303,0.015975952,0.0010681152,-0.21514893,-32.17926,-19.598389,0,0.0,0.0,0.0,0.0
0.957702637,0.9947846,0.003706769,0.101930134,0.10198806,-0.022550292,-0.99452984,-0.0013879383,0.99973875,-0.022810733,0.9981735,0.007276545,0.059972554,0.0602241,-0.041540377,-0.9973201,-0.004765762,0.99911034,-0.04190273,0.007171631,9.852127,-0.27053833,-0.01361084,9.803955,-0.22369385,-0.011703491,0.0032043457,-0.01171875,2.116394,-33.79364,-19.425964,0,0.0,0.0,0.0,0.0
0.962097168,0.99479234,0.0037515087,0.10185314,0.101912126,-0.022561451,-0.9945375,-0.0014330613,0.9997384,-0.022826286,0.9981231,0.0072012227,0.060813665,0.06105957,-0.04116119,-0.997285,-0.0046785087,0.99912655,-0.041523643,-0.11251831,9.967056,-0.2753296,-0.014053345,9.803955,-0.22384644,-0.003189087,-0.004257202,0.0063934326,2.116394,-33.79364,-19.425964,0,0.0,0.0,0.0,0.0
0.966522217,0.99478906,0.003732146,0.10188647,0.10194493,-0.022502422,-0.99453557,-0.0014190595,0.9997398,-0.022765635,0.9980732,0.0071292385,0.061636284,0.06187681,-0.04079024,-0.9972499,-0.0045954734,0.9991423,-0.041152783,0.007171631,9.9048,-0.08378601,-0.013916016,9.803955,-0.22325134,0.0,-0.0234375,-0.0010681152,2.116394,-33.79364,-19.425964,0,0.0,0.0,0.0,0.0
0.970947266,0.9995306,0.0021151796,0.03056187,0.030602094,-0.022727123,-0.9992732,-0.001419059,0.99973947,-0.022781186,0.9980271,0.0071753417,0.062373616,0.06261339,-0.040348772,-0.99722195,-0.004638709,0.9991599,-0.040718436,-0.002380371,9.856918,-0.24180603,-0.013916016,9.803955,-0.22340393,-0.004257202,-0.004257202,-0.007461548,0.6820679,-31.64215,-20.117188,0,0.0,0.0,0.0,0.0
0.975341797,0.99952847,0.0020687394,0.030634845,0.030673927,-0.022681769,-0.9992719,-0.0013723808,0.9997405,-0.02273453,0.9980675,0.0070453067,0.061739318,0.061972715,-0.04000358,-0.9972758,-0.004556321,0.9991747,-0.040362887,0.09815979,9.794678,-0.10772705,-0.013458252,9.803955,-0.22294617,-0.013824463,-0.007446289,-0.0032043457,0.6820679,-31.64215,-20.117188,0,0.0,0.0,0.0,0.0
0.979766846,0.99953043,0.0021115225,0.03056762,0.030607585,-0.022603994,-0.99927586,-0.001419043,0.9997423,-0.022658011,0.9981065,0.00691726,0.061119147,0.061346382,-0.039663598,-0.9973281,-0.0044745724,0.99918914,-0.040012844,-0.13645935,9.962265,-0.23222351,-0.013916016,9.804092,-0.22219849,-0.014892578,-0.003189087,0.007461548,0.6820679,-31.64215,-20.117188,0,0.0,0.0,0.0,0.0
0.984161377,0.99654007,0.0032840213,0.083048135,0.08310092,-0.022309884,-0.9962913,-0.0014190478,0.99974567,-0.022505602,0.9981445,0.006794438,0.060510002,0.060731314,-0.039328765,-0.99737906,-0.004396847,0.9992032,-0.039668422,0.04548645,9.847351,-0.002380371,-0.013916016,9.804092,-0.22070313,-0.018081665,-0.06285095,0.0021362305,1.7578125,-33.43506,-19.770813,0,0.0,0.0,0.0,0.0
0.988586426,0.99652994,0.0032096345,0.08317303,0.08322388,-0.022133334,-0.9962851,-0.0013568146,0.9997499,-0.022323648,0.9981585,0.0067713726,0.060281552,0.060499623,-0.0387591,-0.9974154,-0.0044174124,0.9992256,-0.039097387,0.05027771,9.84256,0.08378601,-0.013305664,9.804092,-0.21891785,-0.013824463,-0.041534424,-0.004257202,1.7578125,-33.43506,-19.770813,0,0.0,0.0,0.0,0.0
0.993011475,0.9965217,0.0031488237,0.08327515,0.083324574,-0.022107068,-0.9962773,-0.0012961325,0.9997506,-0.022292543,0.9981311,0.006690806,0.06074044,0.060953587,-0.038429145,-0.99740046,-0.0043392098,0.9992389,-0.038765155,0.14604187,9.828186,-0.15560913,-0.012710571,9.804092,-0.21861267,-0.014892578,-0.03514099,0.008514404,1.7578125,-33.43506,-19.770813,0,0.0,0.0,0.0,0.0
0.997406006,0.9974842,0.0029153484,0.07082834,0.07087562,-0.022110432,-0.99724,-0.0013412567,0.9997512,-0.022261437,0.99810416,0.0066101514,0.061192155,0.061400466,-0.03810524,-0.99738556,-0.004261128,0.99925184,-0.03843886,-0.14125061,9.880859,-0.12689209,-0.013153076,9.804092,-0.2183075,0.008529663,-0.008514404,-0.0053253174,1.399231,-32.000732,-18.388367,0,0.0,0.0,0.0,0.0
1.001831055,0.9974842,0.0029153484,0.07082834,0.07087562,-0.022110432,-0.99724,-0.0013412567,0.9997512,-0.022261437,0.99809283,0.006523595,0.06138596,0.061589472,-0.03778873,-0.99738604,-0.004186845,0.9992645,-0.038118444,-0.03590393,9.86171,-0.22744751,-0.013153076,9.804092,-0.2183075,0.0,-0.014907837,-0.004257202,1.399231,-32.000732,-18.388367,0,0.0,0.0,0.0,0.0
1.006225586,0.99747866,0.0028689094,0.07090873,0.07095491,-0.022068417,-0.9972353,-0.0012961345,0.99975234,-0.022216339,0.998099,0.0064260866,0.06129556,0.061494447,-0.037548885,-0.9974009,-0.0041078045,0.99927413,-0.037872672,0.12210083,9.832977,-0.10772705,-0.012710571,9.804092,-0.21786499,0.004272461,-0.017044067,0.0010681152,1.399231,-32.000732,-18.388367,0,0.0,0.0,0.0,0.0
1.010650635,0.999548,0.0019465277,0.030001188,0.030036984,-0.022152333,-0.99930334,-0.0012805752,0.9997527,-0.022200786,0.9980876,0.006342679,0.061488733,0.061683066,-0.03724167,-0.99740076,-0.0040362496,0.9992862,-0.03756169,0.007171631,9.809036,-0.14604187,-0.012557983,9.804092,-0.2177124,-0.010635376,-0.008514404,-0.008529663,0.6820679,-34.869385,-20.462036,0,0.0,0.0,0.0,0.0
1.015075684,0.9995501,0.00198975,0.029927602,0.029964292,-0.022090448,-0.9993068,-0.0013272564,0.99975395,-0.02214013,0.99812686,0.006230587,0.0608607,0.06105011,-0.0369452,-0.9974507,-0.0039661927,0.99929786,-0.03725637,-0.11730957,9.8138275,-0.06942749,-0.013015747,9.804092,-0.21711731,-0.006378174,-0.003189087,0.0021362305,0.6820679,-34.869385,-20.462036,0,0.0,0.0,0.0,0.0
1.019470215,0.9995472,0.0019297804,0.0300297,0.03006504,-0.02209212,-0.9993038,-0.0012650171,0.9997541,-0.022140134,0.9981649,0.0061232015,0.060243666,0.06042835,-0.036653634,-0.99749935,-0.0038997396,0.99930924,-0.036956385,0.12210083,9.895233,-0.19871521,-0.0124053955,9.804092,-0.21711731,0.0010681152,-0.0021209717,0.0053253174,0.6820679,-34.869385,-20.462036,0,0.0,0.0,0.0,0.0
1.023895264,0.99434584,0.003629587,0.10612787,0.106182,-0.02178581,-0.9941079,-0.0012961192,0.999756,-0.022048028,0.99819624,0.006089154,0.059726074,0.05991003,-0.03669867,-0.99752885,-0.0038822398,0.9993078,-0.036997277,-0.08857727,9.737213,0.02154541,-0.012710571,9.804245,-0.21621704,0.020248413,0.0053253174,-0.0032043457,2.116394,-32.000732,-18.734741,0,0.0,0.0,0.0,0.0
1.028320313,0.9943476,0.0036398915,0.10611047,0.10616477,-0.021739375,-0.9941107,-0.0013116802,0.999757,-0.022002928,0.9981404,0.006040248,0.060656257,0.060836628,-0.036400907,-0.9974838,-0.0038171064,0.999319,-0.036700685,-0.06463623,9.765945,-0.12689209,-0.012863159,9.804245,-0.21577454,0.018112183,0.011703491,0.004257202,2.116394,-32.000732,-18.734741,0,0.0,0.0,0.0,0.0
1.032714844,0.9943406,0.0035997406,0.10617826,0.10623173,-0.021788938,-0.9941026,-0.001265,0.9997561,-0.022048032,0.9980849,0.005992671,0.06156753,0.061744474,-0.036107633,-0.99743855,-0.0037542635,0.9993299,-0.0364085,0.11251831,9.866501,-0.12210083,-0.0124053955,9.804245,-0.21621704,0.004272461,0.018096924,0.007461548,2.116394,-32.000732,-18.734741,0,0.0,0.0,0.0,0.0
1.037139893,0.9986354,0.0024180382,0.052166093,0.05220678,-0.022028398,-0.99839324,-0.0012650175,0.9997544,-0.022124581,0.9980297,0.005944667,0.062461607,0.06263516,-0.035821673,-0.9973934,-0.0036916924,0.99934053,-0.036123436,-0.03111267,9.84256,-0.3663025,-0.0124053955,9.804092,-0.21696472,0.019180298,0.019165039,0.0010681152,1.0406494,-33.076477,-18.388367,0,0.0,0.0,0.0,0.0
1.041534424,0.99863434,0.0024053638,0.052188825,0.052229248,-0.022044608,-0.99839175,-0.0012510133,0.9997541,-0.022140134,0.9980144,0.005879849,0.0627109,0.06288114,-0.035600558,-0.99738586,-0.003631935,0.9993488,-0.0358996,-0.011962891,9.737213,-0.29927063,-0.012268066,9.804092,-0.21711731,0.0032043457,0.027694702,-0.0010681152,1.0406494,-33.076477,-18.388367,0,0.0,0.0,0.0,0.0
1.045959473,0.9986319,0.0023777315,0.052238394,0.052278243,-0.022091158,-0.99838823,-0.0012198923,0.99975306,-0.022185234,0.99802804,0.0057955976,0.06250121,0.0626676,-0.035332147,-0.99740887,-0.0035722787,0.99935883,-0.03562567,0.06463623,9.890442,-0.3471527,-0.011962891,9.804092,-0.21755981,-0.0053253174,0.031951904,0.003189087,1.0406494,-33.076477,-18.388367,0,0.0,0.0,0.0,0.0
1.050384522,0.99825525,0.0025271547,0.05899269,0.059034187,-0.022074562,-0.9980118,-0.0012198923,0.99975306,-0.022185234,0.99804133,0.0057127452,0.062296897,0.06245955,-0.0350701,-0.9974312,-0.0035133117,0.99936855,-0.03535822,-0.05984497,9.765945,-0.19392395,-0.011962891,9.804092,-0.21755981,0.004272461,0.020233154,0.003189087,1.2191772,-32.17926,-19.252014,0,0.0,0.0,0.0,0.0
1.054779053,0.9982539,0.0025121702,0.059017655,0.059058823,-0.022075424,-0.9980105,-0.0012043326,0.9997532,-0.022185238,0.99800354,0.0055707996,0.06291247,0.06306905,-0.034869388,-0.99739987,-0.003362595,0.99937636,-0.035151113,-0.007171631,9.74678,-0.19871521,-0.011810303,9.804092,-0.21755981,0.0032043457,0.041534424,0.004257202,1.2191772,-32.17926,-19.252014,0,0.0,0.0,0.0,0.0
1.059204102,0.9982525,0.002498958,0.059039652,0.059080556,-0.022107333,-0.9980084,-0.0011887719,0.99975246,-0.02221634,0.9980088,0.0054982426,0.062835224,0.06298845,-0.034615666,-0.9974138,-0.00330894,0.9993856,-0.034893062,0.06463623,9.785095,-0.32321167,-0.011657715,9.804092,-0.21786499,0.0053253174,0.023422241,0.0021362305,1.2191772,-32.17926,-19.252014,0,0.0,0.0,0.0,0.0
1.063598633,0.9964939,0.0030134195,0.08361096,0.083657205,-0.022041524,-0.99625075,-0.0011592081,0.99975246,-0.02221634,0.99801385,0.00542709,0.06276006,0.06291006,-0.034367114,-0.9974273,-0.0032562457,0.99939454,-0.034640275,0.05027771,9.876068,-0.18434143,-0.011367798,9.804092,-0.21786499,-0.004257202,0.023422241,-0.0021362305,1.7578125,-32.717896,-19.770813,0,0.0,0.0,0.0,0.0
1.068023682,0.9964953,0.0030234887,0.08359443,0.083640836,-0.021979837,-0.99625355,-0.0011747696,0.99975383,-0.02215569,0.9979878,0.0053738086,0.0631778,0.06332493,-0.03412163,-0.99740946,-0.003204158,0.99940324,-0.03439327,0.07421875,9.871292,-0.19871521,-0.011520386,9.804092,-0.2172699,-0.003189087,0.020233154,-0.007461548,1.7578125,-32.717896,-19.770813,0,0.0,0.0,0.0,0.0
1.072448731,0.9964876,0.0029672673,0.083686784,0.08373198,-0.02202971,-0.99624467,-0.0011125291,0.9997529,-0.022200791,0.99793303,0.0055203806,0.06402461,0.06417491,-0.03370906,-0.99736917,-0.0033476478,0.9994165,-0.033993658,-0.03590393,9.794678,-0.2896881,-0.010910034,9.804092,-0.2177124,-0.009567261,0.026626587,-0.012786865,1.7578125,-32.717896,-19.770813,0,0.0,0.0,0.0,0.0
1.076843262,0.9976336,0.0026285788,0.068704866,0.06874613,-0.021966314,-0.99739236,-0.0011125318,0.99975526,-0.022095036,0.99790806,0.005462664,0.0644186,0.064565934,-0.03347597,-0.99735177,-0.0032917233,0.9994246,-0.033758644,-0.15560913,9.770737,-0.22265625,-0.010910034,9.804092,-0.2166748,0.004272461,0.023422241,0.014892578,1.399231,-32.359314,-19.07959,0,0.0,0.0,0.0,0.0
1.081268311,0.9976403,0.002688461,0.068603806,0.06864641,-0.021962302,-0.99739915,-0.0011747711,0.9997551,-0.022095032,0.99790806,0.005462664,0.0644186,0.064565934,-0.03347597,-0.99735177,-0.0032917233,0.9994246,-0.033758644,-0.15560913,9.770737,-0.22265625,-0.011520386,9.804092,-0.2166748,0.004272461,0.023422241,0.014892578,1.399231,-32.359314,-19.07959,0,0.0,0.0,0.0,0.0
1.08569336,0.99763703,0.002659447,0.06865277,0.06869475,-0.021978276,-0.99739563,-0.0011436512,0.99975497,-0.022109034,0.997898,0.005335271,0.06458542,0.064726934,-0.033023864,-0.9973565,-0.003188307,0.9994403,-0.033299785,0.04548645,9.742004,-0.25616455,-0.01121521,9.804092,-0.21681213,0.0032043457,0.017028809,0.0053253174,1.399231,-32.359314,-19.07959,0,0.0,0.0,0.0,0.0
1.090087891,0.99946856,0.001878121,0.032544237,0.03257776,-0.022045564,-0.999226,-0.0011592113,0.9997551,-0.022095032,0.99787503,0.0054305266,0.06492935,0.06507316,-0.032812953,-0.9973408,-0.0032855622,0.99944675,-0.033096608,-0.026321411,9.837769,-0.16998291,-0.011367798,9.804092,-0.2166748,0.0010681152,0.015975952,-0.0095825195,0.6820679,-32.359314,-19.07959,1,0.0,0.0,0.0,0.0
1.09451294,0.99946934,0.001895506,0.03251478,0.03254879,-0.022121279,-0.99922514,-0.0011747692,0.9997535,-0.02217124,0.9979174,0.005342725,0.064283065,0.06442364,-0.032602217,-0.99739,-0.00323301,0.99945414,-0.032878518,-0.05505371,9.957474,-0.41897583,-0.011520386,9.804092,-0.21742249,0.009597778,0.012771606,0.0010681152,0.6820679,-32.359314,-19.07959,1,0.0,0.0,0.0,0.0
1.098907471,0.99947095,0.0019239931,0.032466523,0.032501176,-0.02212041,-0.99922687,-0.0012043329,0.9997535,-0.02217124,0.9979585,0.005257768,0.06364904,0.06378649,-0.032396123,-0.99743766,-0.0031823136,0.9994613,-0.03266536,-0.09336853,9.722839,-0.22265625,-0.011810303,9.804092,-0.21742249,-0.0010528564,0.015975952,-0.0032043457,0.6820679,-32.359314,-19.07959,1,0.0,0.0,0.0,0.0
1.10333252,0.99949193,0.0019265179,0.031813037,0.03184796,-0.022166243,-0.9992468,-0.0012198915,0.9997524,-0.022216339,0.9979985,0.0051759495,0.063026324,0.06316079,-0.032193787,-0.99748397,-0.0031338704,0.99946827,-0.032456264,-0.05027771,9.885651,-0.3184204,-0.011962891,9.804092,-0.21786499,-0.0074310303,0.022354126,-0.0021362305,0.6820679,-33.076477,-19.425964,1,0.0,0.0,0.0,0.0
1.107757569,0.9994912,0.0019133899,0.031835366,0.031870067,-0.02222732,-0.9992448,-0.0012043301,0.99975115,-0.022276996,0.99802613,0.005282955,0.06257844,0.06271572,-0.031913154,-0.9975211,-0.0032727832,0.9994767,-0.032181486,0.01675415,9.866501,-0.37109375,-0.011810303,9.804092,-0.21846008,-0.004257202,0.010650635,-0.01171875,0.6820679,-33.076477,-19.425964,1,0.0,0.0,0.0,0.0
1.1121521,0.99949205,0.0019279015,0.031810682,0.031845696,-0.022211328,-0.99924594,-0.0012198903,0.99975145,-0.022261443,0.9980648,0.00520063,0.061964698,0.06209901,-0.03172361,-0.99756575,-0.0032222262,0.99948317,-0.03198517,-0.04548645,9.86171,-0.18913269,-0.011962891,9.804092,-0.2183075,0.0032043457,0.019165039,0.004257202,0.6820679,-33.076477,-19.425964,1,0.0,0.0,0.0,0.0
1.116577149,0.9999855,0.0013207283,0.005217994,0.0052460814,-0.022240838,-0.9997389,-0.0012043308,0.99975175,-0.022247445,0.9981024,0.005120779,0.061362527,0.061494015,-0.03153636,-0.9976091,-0.0031733846,0.9994895,-0.031791415,0.011962891,9.823395,-0.18434143,-0.011810303,9.804092,-0.21817017,-0.0084991455,0.017028809,0.010650635,0.14343262,-32.53784,-19.252014,1,0.0,0.0,0.0,0.0
1.12097168,0.99998534,0.0013055715,0.0052436097,0.005271317,-0.02220978,-0.99973935,-0.0011887719,0.99975246,-0.02221634,0.9981712,0.0050260597,0.060241476,0.06036993,-0.031355884,-0.99768347,-0.0031254916,0.9994956,-0.03160196,0.04069519,9.818619,-0.12210083,-0.011657715,9.804092,-0.21786499,0.008529663,0.0063934326,-0.0138549805,0.14343262,-32.53784,-19.252014,1,0.0,0.0,0.0,0.0
1.125396729,0.9999855,0.0013205719,0.0052182586,0.005246305,-0.022209734,-0.9997396,-0.0012043318,0.99975246,-0.02221634,0.99821985,0.004894496,0.059440747,0.05956468,-0.031110276,-0.99773955,-0.0030342145,0.99950397,-0.031346433,-0.05984497,9.823395,-0.24180603,-0.011810303,9.804092,-0.21786499,-0.004257202,0.018096924,0.0021362305,0.14343262,-32.53784,-19.252014,1,0.0,0.0,0.0,0.0
1.129821778,0.9967289,0.00300837,0.080762066,0.08080886,-0.022014143,-0.9964865,-0.0012198923,0.99975306,-0.022185234,0.99828416,0.0048059723,0.058357984,0.058479153,-0.03093707,-0.9978092,-0.002990018,0.99950975,-0.031165035,-0.06463623,9.962265,-0.14125061,-0.011962891,9.804092,-0.21755981,0.01171875,0.007461548,-0.0010681152,1.7578125,-33.076477,-20.462036,1,0.0,0.0,0.0,0.0
1.134216309,0.9967286,0.0030060634,0.08076577,0.080812484,-0.021984681,-0.9964869,-0.0012198931,0.9997538,-0.022155687,0.99825794,0.004766969,0.05880671,0.05892594,-0.030760206,-0.9977883,-0.0029475195,0.9995154,-0.03098752,-0.02154541,9.804245,-0.10293579,-0.011962891,9.804092,-0.2172699,0.0063934326,0.020233154,0.0063934326,1.7578125,-33.076477,-20.462036,1,0.0,0.0,0.0,0.0
1.138641358,0.9967263,0.0029886526,0.080793716,0.08084,-0.02195485,-0.99648505,-0.0012043341,0.9997544,-0.022124581,0.9982282,0.0047040614,0.05931606,0.059433095,-0.030761572,-0.9977582,-0.0028688605,0.99951565,-0.030986644,0.05505371,9.909592,-0.14125061,-0.011810303,9.804092,-0.21696472,0.010665894,0.004272461,0.0021362305,1.7578125,-33.076477,-20.462036,1,0.0,0.0,0.0,0.0
1.143066407,0.9988103,0.002283455,0.048711397,0.048750013,-0.0220862,-0.9985668,-0.0012043329,0.9997535,-0.02217124,0.9982027,0.0046670707,0.059746146,0.05986134,-0.030587023,-0.997738,-0.002829057,0.9995212,-0.030811427,-0.011962891,9.871292,-0.35673523,-0.011810303,9.804092,-0.21742249,-0.0010528564,0.0010681152,0.008514404,1.0406494,-33.43506,-19.770813,1,0.0,0.0,0.0,0.0
1.147460938,0.99880797,0.0022549815,0.048759423,0.0487974,-0.02208753,-0.99856436,-0.0011747692,0.9997535,-0.02217124,0.9982161,0.0046113515,0.059525594,0.05963871,-0.030419292,-0.99775636,-0.0027902792,0.99952656,-0.030640043,0.04069519,9.856918,-0.19392395,-0.011520386,9.804092,-0.21742249,0.007461548,-0.003189087,-0.0021362305,1.0406494,-33.43506,-19.770813,1,0.0,0.0,0.0,0.0
1.151885987,0.9988069,0.0022406548,0.048783597,0.048821267,-0.022102218,-0.998563,-0.0011592091,0.9997532,-0.022185238,0.99822915,0.0045563597,0.059310712,0.059421778,-0.030255402,-0.9977743,-0.0027517495,0.9995318,-0.030472571,0.01675415,9.866501,-0.27053833,-0.011367798,9.804092,-0.21755981,0.004272461,0.0063934326,-0.004257202,1.0406494,-33.43506,-19.770813,1,0.0,0.0,0.0,0.0
1.156280518,0.9988093,0.0022713204,0.048731867,0.048770282,-0.022147492,-0.99856436,-0.0011887714,0.9997521,-0.022231894,0.9982353,0.0045798784,0.059206136,0.05931706,-0.029931732,-0.9977904,-0.0027976166,0.99954146,-0.030150574,-0.07421875,9.818619,-0.3375702,-0.011657715,9.804092,-0.21801758,-0.009567261,0.0063934326,-0.0053253174,1.0406494,-33.43506,-19.770813,1,0.0,0.0,0.0,0.0
1.160705567,0.99880916,0.0022705891,0.048733097,0.04877148,-0.022131952,-0.9985646,-0.0011887719,0.99975246,-0.02221634,0.99824786,0.004526043,0.05899691,0.059105888,-0.029777585,-0.99780744,-0.0027593337,0.9995463,-0.029992927,-0.03111267,9.876068,-0.16519165,-0.011657715,9.804092,-0.21786499,-0.0053253174,0.009597778,-0.0095825195,1.0406494,-33.43506,-19.770813,1,0.0,0.0,0.0,0.0
1.165130616,0.9988103,0.002283455,0.048711397,0.048750013,-0.0220862,-0.9985668,-0.0012043329,0.9997535,-0.02217124,0.99826026,0.0044736583,0.058791682,0.05889879,-0.029626802,-0.9978242,-0.0027221148,0.999551,-0.029838752,0.011962891,9.852127,-0.3375702,-0.011810303,9.804092,-0.21742249,-0.004257202,0.011703491,0.012786865,1.0406494,-33.43506,-19.770813,1,0.0,0.0,0.0,0.0
1.169525147,0.99881047,0.0022855743,0.04870782,0.048746537,-0.022131253,-0.998566,-0.0012043318,0.99975246,-0.02221634,0.99826026,0.0044736583,0.058791682,0.05889879,-0.029626802,-0.9978242,-0.0027221148,0.999551,-0.029838752,0.011962891,9.852127,-0.3375702,-0.011810303,9.804092,-0.21786499,-0.004257202,0.011703491,0.012786865,1.0406494,-33.43506,-19.770813,1,0.0,0.0,0.0,0.0
1.173950196,0.99250704,0.003903942,0.12212536,0.1221818,-0.021858033,-0.9922671,-0.0012043329,0.9997535,-0.02217124,0.998289,0.0044280034,0.05830551,0.05841074,-0.029365808,-0.99786067,-0.0027063421,0.9995589,-0.029574204,-0.02154541,9.852127,-0.08378601,-0.011810303,9.804092,-0.21742249,0.0021362305,-0.0053253174,-0.0032043457,2.4749756,-32.359314,-19.07959,1,0.0,0.0,0.0,0.0
1.178344727,0.992516,0.0039486387,0.12205072,0.12210816,-0.02185262,-0.99227613,-0.0012510123,0.99975336,-0.022171237,0.99821347,0.004421455,0.059584737,0.05968883,-0.029215077,-0.99778944,-0.002670908,0.9995634,-0.029426793,-0.13166809,9.876068,-0.23701477,-0.012268066,9.804092,-0.21742249,-0.0074310303,-0.0021209717,0.0063934326,2.4749756,-32.359314,-19.07959,1,0.0,0.0,0.0,0.0
1.182769776,0.9983269,0.0025285166,0.057767246,0.057809018,-0.022030825,-0.99808455,-0.0012510133,0.9997541,-0.022140134,0.99813795,0.0044159857,0.060836934,0.060939945,-0.029066702,-0.9977181,-0.00263758,0.99956775,-0.029281689,-0.026321411,9.84256,-0.11251831,-0.012268066,9.804092,-0.21711731,0.0021362305,-0.0063934326,0.0,1.2191772,-33.613586,-19.598389,1,0.0,0.0,0.0,0.0
1.187194824,0.9983272,0.0025318947,0.057761468,0.057803396,-0.022091389,-0.9980835,-0.0012510115,0.9997527,-0.022200786,0.9981418,0.004373034,0.060775764,0.060877167,-0.028926179,-0.997726,-0.0026050794,0.999572,-0.029138647,-0.011962891,9.914383,-0.39024353,-0.012268066,9.804092,-0.2177124,-0.003189087,0.0,-0.0063934326,1.2191772,-33.613586,-19.598389,1,0.0,0.0,0.0,0.0
1.191589356,0.99832875,0.0025479668,0.057734,0.057776343,-0.022137227,-0.99808395,-0.0012650139,0.99975157,-0.022247441,0.9981516,0.0041829203,0.06062922,0.060724467,-0.028642904,-0.9977436,-0.002436885,0.999581,-0.028843965,-0.05984497,9.775513,-0.3375702,-0.0124053955,9.804092,-0.21817017,-0.009567261,-0.0053253174,0.008514404,1.2191772,-33.613586,-19.598389,1,0.0,0.0,0.0,0.0
1.196014405,0.9969421,0.0030002038,0.07808626,0.07813362,-0.022094585,-0.99669796,-0.0012650136,0.99975127,-0.022261439,0.9981553,0.0041462188,0.06057149,0.060665376,-0.028512903,-0.9977509,-0.0024098242,0.99958485,-0.028711835,0.011962891,9.866501,-0.23222351,-0.0124053955,9.804092,-0.2183075,0.0,-0.007446289,0.012786865,1.5777588,-32.17926,-18.907166,1,0.0,0.0,0.0,0.0
1.200408936,0.9969362,0.0029546057,0.07816337,0.078209676,-0.02206843,-0.99669266,-0.0012198911,0.9997521,-0.022231894,0.998134,0.00412198,0.060922176,0.06101492,-0.028383851,-0.99773324,-0.0023834305,0.9995886,-0.02858239,0.09336853,9.837769,-0.16519165,-0.011962891,9.804092,-0.21801758,-0.0010528564,0.009597778,-0.0010681152,1.5777588,-32.17926,-18.907166,1,0.0,0.0,0.0,0.0
1.204833985,0.996935,0.002945397,0.07817894,0.078225136,-0.02214557,-0.99668974,-0.0012043292,0.9997504,-0.022308096,0.998113,0.0040971995,0.061267138,0.061358735,-0.028257405,-0.9977157,-0.0023565898,0.9995923,-0.028455483,0.007171631,9.928741,-0.39024353,-0.011810303,9.804092,-0.21876526,0.0021362305,-0.017044067,-0.0053253174,1.5777588,-32.17926,-18.907166,1,0.0,0.0,0.0,0.0
1.209259033,0.99434835,0.0035621545,0.106106974,0.106159925,-0.022023305,-0.9941052,-0.0012043301,0.99975115,-0.022276996,0.9981017,0.0038560699,0.061466172,0.06155035,-0.028024552,-0.99771047,-0.0021246793,0.9995998,-0.028208697,-0.002380371,9.943115,-0.16040039,-0.011810303,9.804092,-0.21846008,-0.0074310303,-0.008514404,0.012786865,2.116394,-32.717896,-18.734741,1,0.0,0.0,0.0,0.0
1.213653565,0.99434966,0.0035692675,0.106094696,0.1061477,-0.021945922,-0.99410814,-0.001219892,0.99975276,-0.022200787,0.9980462,0.00385286,0.062360458,0.062443934,-0.027903624,-0.9976584,-0.002103755,0.9996032,-0.028089697,0.002380371,9.890442,-0.22744751,-0.011962891,9.804092,-0.2177124,-0.003189087,-0.007446289,0.004257202,2.116394,-32.717896,-18.734741,1,0.0,0.0,0.0,0.0
1.218078614,0.99435025,0.0035724489,0.10608921,0.106142335,-0.021976873,-0.9941081,-0.0012198911,0.9997521,-0.022231894,0.9979912,0.0038498763,0.063236624,0.06331943,-0.0277835,-0.9976065,-0.0020837272,0.99960655,-0.02797146,0.04069519,9.943115,-0.50038147,-0.011962891,9.804092,-0.21801758,-0.018081665,-0.017044067,-0.004257202,2.116394,-32.717896,-18.734741,1,0.0,0.0,0.0,0.0
1.222503662,0.9943495,0.003568357,0.10609627,0.10614943,-0.022083653,-0.994105,-0.0012043285,0.9997498,-0.022337647,0.9979912,0.0038498763,0.063236624,0.06331943,-0.0277835,-0.9976065,-0.0020837272,0.99960655,-0.02797146,0.04069519,9.943115,-0.50038147,-0.011810303,9.804092,-0.21905518,-0.018081665,-0.017044067,-0.004257202,2.116394,-32.717896,-18.734741,1,0.0,0.0,0.0,0.0
1.226898194,0.9982605,0.0025533298,0.058901716,0.058944084,-0.02228812,-0.99801236,-0.0012354462,0.9997483,-0.022399854,0.9978876,0.0038265407,0.06485125,0.06493232,-0.027558401,-0.997509,-0.0020298124,0.99961287,-0.027748654,-0.08378601,9.789886,-0.3375702,-0.0121154785,9.804092,-0.21966553,-0.0010528564,-0.012771606,0.0021362305,1.2191772,-32.53784,-19.252014,1,0.0,0.0,0.0,0.0
1.231323242,0.99825966,0.0025454648,0.058914956,0.058956977,-0.022149913,-0.9980147,-0.0012354502,0.99975145,-0.022261443,0.99789536,0.0037986182,0.06473263,0.06481277,-0.027453637,-0.9975196,-0.0020120505,0.99961585,-0.027642058,-0.01675415,9.837769,-0.16040039,-0.0121154785,9.804092,-0.2183075,-0.0053253174,-0.015975952,-0.008529663,1.2191772,-32.53784,-19.252014,1,0.0,0.0,0.0,0.0
1.235717774,0.996391,0.0031343976,0.0848243,0.08487296,-0.022061033,-0.9961474,-0.0012510101,0.99975157,-0.022247441,0.99790305,0.0037711977,0.0646164,0.064695604,-0.027348438,-0.9975302,-0.0019947265,0.9996188,-0.02753507,-0.04548645,9.880859,-0.17955017,-0.012268066,9.804092,-0.21817017,-0.024475098,-0.007446289,0.0,1.7578125,-33.076477,-19.425964,1,0.0,0.0,0.0,0.0
1.240142823,0.9963887,0.0031181762,0.084851705,0.08489999,-0.022046776,-0.99614555,-0.001235451,0.9997521,-0.022231894,0.997886,0.0037310552,0.064880796,0.06495881,-0.027351659,-0.997513,-0.0019471787,0.9996189,-0.027536202,0.002380371,9.785095,-0.18913269,-0.0121154785,9.804092,-0.21801758,0.0063934326,-0.008514404,0.0021362305,1.7578125,-33.076477,-19.425964,1,0.0,0.0,0.0,0.0
1.244567871,0.9963848,0.0030906997,0.08489814,0.08494584,-0.022078717,-0.99614084,-0.0012043305,0.99975145,-0.022261443,0.99786,0.003719426,0.0652806,0.06535796,-0.027246326,-0.99748987,-0.001931433,0.9996218,-0.027431114,0.07421875,9.837769,-0.3040619,-0.011810303,9.804092,-0.2183075,-0.010635376,-0.017044067,-0.0010681152,1.7578125,-33.076477,-19.425964,1,0.0,0.0,0.0,0.0
1.248962403,0.9964916,0.0030653286,0.08363604,0.08368353,-0.022113608,-0.99624693,-0.0012043295,0.99975073,-0.022292545,0.9978344,0.003707303,0.06567328,0.065749936,-0.027143707,-0.99746686,-0.0019152957,0.99962467,-0.027328677,-0.03111267,9.847351,-0.2609558,-0.011810303,9.804092,-0.21861267,0.0021362305,-0.010650635,-0.0021362305,1.7578125,-32.000732,-19.770813,1,0.0,0.0,0.0,0.0
1.253387451,0.996484,0.003006927,0.08372989,0.083776064,-0.022118412,-0.9962392,-0.0011436465,0.99975085,-0.022292549,0.9978106,0.0036946468,0.06603285,0.066108845,-0.027042966,-0.99744594,-0.0018994861,0.9996275,-0.027228007,0.14604187,9.86171,-0.21786499,-0.01121521,9.804092,-0.21861267,0.007461548,-0.010650635,0.003189087,1.7578125,-32.000732,-19.770813,1,0.0,0.0,0.0,0.0
1.257781983,0.9964798,0.0029757188,0.08378004,0.083825484,-0.022105372,-0.99623525,-0.0011125272,0.9997512,-0.022276998,0.9978014,0.003592464,0.06617768,0.06625064,-0.026931705,-0.9974395,-0.0018009878,0.9996308,-0.027110495,0.09815979,9.818619,-0.20828247,-0.010910034,9.804092,-0.21846008,-0.0010528564,-0.012771606,0.0053253174,1.7578125,-32.000732,-19.770813,1,0.0,0.0,0.0,0.0
1.262207032,0.9959248,0.0031321808,0.09013386,0.09018121,-0.022084536,-0.9956805,-0.001128087,0.9997512,-0.022276998,0.997778,0.0035803162,0.06653009,0.06660243,-0.026835704,-0.99741864,-0.0017856922,0.99963343,-0.027014535,-0.05027771,9.751572,-0.21786499,-0.011062622,9.804092,-0.21846008,0.0032043457,-0.014907837,-0.004257202,1.9363403,-31.820679,-20.289612,1,0.0,0.0,0.0,0.0
1.26663208,0.99592113,0.0031064257,0.09017392,0.09022073,-0.022118052,-0.9956761,-0.0010985227,0.99975055,-0.022308102,0.9977464,0.0035721902,0.06700256,0.06707434,-0.026741093,-0.9973895,-0.0017711434,0.999636,-0.026920432,0.06463623,9.837769,-0.28012085,-0.010772705,9.804092,-0.21876526,0.0053253174,-0.013839722,0.0021362305,1.9363403,-31.820679,-20.289612,1,0.0,0.0,0.0,0.0
1.271026612,0.9959233,0.0031212664,0.09015085,0.090198,-0.02213235,-0.99567795,-0.0011125262,0.9997502,-0.022323653,0.9977152,0.0035635673,0.06746622,0.06753744,-0.026649192,-0.9973608,-0.001756242,0.9996385,-0.026828976,-0.05984497,9.785095,-0.26574707,-0.010910034,9.804092,-0.21891785,0.015991211,-0.010650635,-0.0021362305,1.9363403,-31.820679,-20.289612,1,0.0,0.0,0.0,0.0
1.27545166,0.9994812,0.0018016907,0.032158233,0.03219045,-0.022306778,-0.99923277,-0.0010829617,0.9997495,-0.0223532,0.9976963,0.0035541332,0.067745574,0.06781624,-0.026541166,-0.99734473,-0.0017466499,0.9996414,-0.026721051,0.04548645,9.837769,-0.2896881,-0.010620117,9.804092,-0.21920776,-0.0010528564,-0.010650635,0.0,0.6820679,-31.64215,-19.425964,1,0.0,0.0,0.0,0.0
1.279876709,0.9994788,0.0017557398,0.032232992,0.032264136,-0.022278616,-0.999231,-0.0010362831,0.9997502,-0.022323653,0.99774444,0.003514607,0.067034766,0.0671045,-0.026457233,-0.9973951,-0.0017318971,0.99964374,-0.026633402,0.09815979,9.890442,-0.15083313,-0.0101623535,9.804092,-0.21891785,-0.010635376,-0.007446289,0.010650635,0.6820679,-31.64215,-19.425964,1,0.0,0.0,0.0,0.0
1.284271241,0.99947673,0.0017122081,0.03230383,0.03233398,-0.022279955,-0.9992288,-9.911597E-4,0.99975026,-0.022323655,0.99779105,0.003475116,0.066339634,0.06640841,-0.02637579,-0.9974438,-0.0017164731,0.99964607,-0.026548302,0.11730957,9.8138275,-0.22265625,-0.009719849,9.804092,-0.21891785,-0.006378174,0.012771606,-0.0063934326,0.6820679,-31.64215,-19.425964,1,0.0,0.0,0.0,0.0
1.288696289,0.99797285,0.0024413534,0.06359382,0.06363245,-0.02222736,-0.99772584,-0.001022279,0.99974996,-0.022337653,0.9978362,0.003435401,0.06565967,0.06572749,-0.026294824,-0.9974911,-0.0017002722,0.99964833,-0.026463727,-0.026321411,9.799454,-0.17477417,-0.010025024,9.804092,-0.21905518,-0.006378174,0.004272461,0.013839722,1.2191772,-32.896423,-17.869568,1,0.0,0.0,0.0,0.0
1.293090821,0.9979728,0.0024404975,0.063595384,0.06363398,-0.022213388,-0.997726,-0.0010222794,0.99975026,-0.022323655,0.9978362,0.003435401,0.06565967,0.06572749,-0.026294824,-0.9974911,-0.0017002722,0.99964833,-0.026463727,-0.026321411,9.799454,-0.17477417,-0.010025024,9.804092,-0.21891785,-0.006378174,0.004272461,0.013839722,1.2191772,-32.896423,-17.869568,1,0.0,0.0,0.0,0.0
1.297515869,0.9979655,0.0023769953,0.06371179,0.06374888,-0.022154989,-0.9977198,-9.6004136E-4,0.99975157,-0.022261444,0.9978403,0.0034804004,0.06559507,0.065663874,-0.026164608,-0.99749875,-0.0017554258,0.9996516,-0.026336636,0.02154541,9.794678,-0.20828247,-0.009414673,9.804092,-0.2183075,-0.014892578,-0.0010528564,-0.012786865,1.2191772,-32.896423,-17.869568,1,0.0,0.0,0.0,0.0
1.301940918,0.9983475,0.002236517,0.057422627,0.057458144,-0.022155559,-0.9981021,-9.6004177E-4,0.99975204,-0.02224745,0.9978428,0.0034562305,0.06555722,0.06562528,-0.026084147,-0.99750334,-0.0017375972,0.99965376,-0.026254695,-0.007171631,9.871292,-0.15560913,-0.009414673,9.804092,-0.21817017,-0.012756348,0.018096924,0.010650635,1.2191772,-32.17926,-19.943237,1,0.0,0.0,0.0,0.0
1.306335449,0.9983449,0.0022080122,0.057468463,0.057503335,-0.022157155,-0.9980994,-9.304781E-4,0.99975204,-0.02224745,0.9978471,0.0036372812,0.06548246,0.06555508,-0.025974086,-0.9975109,-0.0019273802,0.999656,-0.026156608,0.04069519,9.775513,-0.21786499,-0.009124756,9.804092,-0.21817017,-0.0010528564,0.0053253174,-0.012786865,1.2191772,-32.17926,-19.943237,1,0.0,0.0,0.0,0.0
1.310760498,0.9983463,0.0022237916,0.057443086,0.05747833,-0.022170292,-0.9981006,-9.4603765E-4,0.99975175,-0.022261448,0.99785775,0.003605576,0.0653222,0.06539388,-0.025897775,-0.9975235,-0.0019049472,0.9996581,-0.026078075,-0.03590393,9.876068,-0.26574707,-0.009277344,9.804092,-0.2183075,-0.0084991455,0.007461548,0.0010681152,1.2191772,-32.17926,-19.943237,1,0.0,0.0,0.0,0.0
1.31515503,0.9994764,0.0016493244,0.03231491,0.032343592,-0.022205733,-0.9992301,-9.304781E-4,0.99975204,-0.02224745,0.9978681,0.003575028,0.06516452,0.065235324,-0.025823452,-0.9975357,-0.0018834454,0.99966013,-0.02600162,0.02154541,9.890442,-0.19392395,-0.009124756,9.804092,-0.21817017,-0.004257202,0.0063934326,-0.0021362305,0.6820679,-32.717896,-19.425964,1,0.0,0.0,0.0,0.0
1.319580078,0.9994772,0.001665724,0.032287322,0.032316417,-0.022250352,-0.9992299,-9.4603695E-4,0.99975103,-0.022292553,0.9979109,0.0035318919,0.064508334,0.0645781,-0.025752287,-0.9975803,-0.0018621088,0.9996621,-0.025926571,-0.05505371,9.938324,-0.32800293,-0.009277344,9.804092,-0.21861267,0.0,0.009597778,0.0063934326,0.6820679,-32.717896,-19.425964,1,0.0,0.0,0.0,0.0
1.324005127,0.99947804,0.0016811059,0.032261442,0.032290947,-0.022310566,-0.9992295,-9.6003956E-4,0.9997497,-0.022353206,0.99795175,0.0033490136,0.06388228,0.06394736,-0.025659898,-0.9976233,-0.0017018416,0.99966514,-0.025821501,-0.02154541,9.971848,-0.39024353,-0.009414673,9.804092,-0.21920776,-0.0021209717,0.0010681152,0.008514404,0.6820679,-32.717896,-19.425964,1,0.0,0.0,0.0,0.0
1.328399658,0.9917901,0.0038508857,0.12781857,0.12787272,-0.022118578,-0.99154395,-9.911574E-4,0.99974793,-0.022429409,0.9979922,0.0033119044,0.06325043,0.06331467,-0.025593217,-0.99766535,-0.0016853904,0.9996669,-0.025751524,-0.08857727,9.933533,-0.3950348,-0.009719849,9.804092,-0.21995544,-0.0053253174,0.0021362305,0.0063934326,2.6535034,-32.896423,-19.598389,1,0.0,0.0,0.0,0.0
1.332824707,0.99178696,0.0038359975,0.12784314,0.12789695,-0.022120472,-0.99154073,-9.755976E-4,0.99974793,-0.022429409,0.99790925,0.0033256998,0.064545184,0.06460923,-0.025524613,-0.9975842,-0.0016701749,0.99966866,-0.025686117,0.007171631,9.866501,-0.20828247,-0.009567261,9.804092,-0.21995544,0.0032043457,0.0063934326,0.0021362305,2.6535034,-32.896423,-19.598389,1,0.0,0.0,0.0,0.0
1.337249756,0.99177754,0.0037909038,0.12791756,0.12797032,-0.022110535,-0.99153143,-9.304746E-4,0.9997483,-0.022413857,0.9978263,0.0033386727,0.06581438,0.06587822,-0.025456695,-0.99750286,-0.0016549189,0.9996703,-0.025621306,0.09336853,9.794678,-0.17477417,-0.009124756,9.804092,-0.21980286,0.0,-0.0021209717,-0.0053253174,2.6535034,-32.896423,-19.598389,1,0.0,0.0,0.0,0.0
1.341644287,0.9958027,0.002994577,0.09147628,0.09152039,-0.022248726,-0.9955546,-9.460341E-4,0.999748,-0.02242941,0.997743,0.0034479578,0.06706006,0.067126006,-0.025278801,-0.99742424,-0.0017438786,0.9996745,-0.025453195,-0.026321411,9.9048,-0.28012085,-0.009277344,9.804092,-0.21995544,-0.006378174,0.0,-0.0063934326,1.9363403,-34.68933,-19.943237,1,0.0,0.0,0.0,0.0
1.346069336,0.99580914,0.0030352522,0.091406144,0.09145115,-0.022215389,-0.9955618,-9.911581E-4,0.9997486,-0.022399861,0.99771005,0.0034387573,0.06754912,0.06761455,-0.025217995,-0.9973928,-0.0017263385,0.99967605,-0.025392758,-0.13166809,9.914383,-0.14604187,-0.009719849,9.804092,-0.21966553,-0.004257202,0.0,0.0010681152,1.9363403,-34.68933,-19.943237,1,0.0,0.0,0.0,0.0
1.350463867,0.9958089,0.003033882,0.091408506,0.09145346,-0.022199892,-0.99556184,-9.911583E-4,0.9997489,-0.022384306,0.99767756,0.0034307742,0.068026714,0.0680917,-0.025158465,-0.9973618,-0.0017102753,0.9996776,-0.025333643,-0.03111267,9.765945,-0.15560913,-0.009719849,9.804092,-0.21951294,0.0010681152,-0.0053253174,0.003189087,1.9363403,-34.68933,-19.943237,1,0.0,0.0,0.0,0.0
1.354888916,0.9994421,0.0017375977,0.033351768,0.03338229,-0.022338761,-0.99919283,-9.911583E-4,0.9997489,-0.022384306,0.9976456,0.0034228086,0.06849502,0.06855955,-0.025098935,-0.99733126,-0.0016945218,0.9996791,-0.025274508,0.002380371,9.823395,-0.23701477,-0.009719849,9.804092,-0.21951294,0.012786865,-0.017044067,-0.007461548,0.6820679,-32.717896,-18.734741,1,0.0,0.0,0.0,0.0
1.359313965,0.9994397,0.001695133,0.033425845,0.033455424,-0.022369677,-0.99918973,-9.460344E-4,0.9997483,-0.022413857,0.9977029,0.0034486954,0.06765367,0.067718826,-0.024936957,-0.9973928,-0.0017526273,0.9996831,-0.025113218,0.09336853,9.856918,-0.3040619,-0.009277344,9.804092,-0.21980286,-0.006378174,-0.008514404,-0.004257202,0.6820679,-32.717896,-18.734741,1,0.0,0.0,0.0,0.0
1.363708496,0.9994405,0.0017086065,0.033402342,0.03343223,-0.022369247,-0.9991905,-9.600381E-4,0.99974823,-0.022413855,0.99774915,0.0034104188,0.066969864,0.06703419,-0.02488677,-0.9974403,-0.0017350254,0.99968445,-0.025059368,-0.04548645,9.770737,-0.21307373,-0.009414673,9.804092,-0.21980286,-0.0053253174,-0.015975952,0.0021362305,0.6820679,-32.717896,-18.734741,1,0.0,0.0,0.0,0.0
1.368133545,0.99944144,0.0017245767,0.033374485,0.03340477,-0.022399863,-0.9991908,-9.7559724E-4,0.9997476,-0.022444962,0.99779403,0.0033733859,0.066299096,0.06636262,-0.024837937,-0.99748635,-0.0017181735,0.9996858,-0.025007015,-0.05505371,9.871292,-0.29927063,-0.009567261,9.804092,-0.22010803,0.0053253174,-0.004257202,0.0010681152,0.6820679,-32.717896,-18.734741,1,0.0,0.0,0.0,0.0
1.372528076,0.9994432,0.001755015,0.03332139,0.033352382,-0.02241446,-0.99919224,-0.0010067164,0.99974716,-0.022460511,0.9978377,0.0033374368,0.06564136,0.0657041,-0.024789406,-0.9975312,-0.0017019869,0.99968714,-0.024955088,-0.06942749,9.770737,-0.2609558,-0.0098724365,9.804092,-0.22026062,-0.006378174,-0.012771606,0.003189087,0.6820679,-32.717896,-18.734741,1,0.0,0.0,0.0,0.0
1.376953125,0.999444,0.0017709815,0.03329354,0.03332493,-0.022445075,-0.9991924,-0.0010222754,0.9997465,-0.022491615,0.99789166,0.0032208988,0.06482146,0.06488117,-0.024554836,-0.9975908,-0.0016214589,0.9996933,-0.024712041,-0.06942749,9.832977,-0.26574707,-0.010025024,9.804092,-0.2205658,-0.011703491,-0.010650635,0.004257202,0.6820679,-32.717896,-18.734741,1,0.0,0.0,0.0,0.0
1.381378174,0.9919017,0.0038528724,0.12694986,0.12700431,-0.022166245,-0.99165446,-0.001006716,0.99974686,-0.022476064,0.99793243,0.0031898138,0.064191915,0.06425097,-0.024514308,-0.9976326,-0.0016086422,0.9996944,-0.024668572,0.03590393,9.84256,-0.20350647,-0.0098724365,9.804092,-0.22041321,-0.010635376,0.0010681152,0.0,2.4749756,-31.28357,-18.388367,1,0.0,0.0,0.0,0.0
1.385772705,0.99189454,0.0038192992,0.12700602,0.1270597,-0.022139128,-0.9916479,-9.7559724E-4,0.9997476,-0.022444962,0.99785066,0.003204882,0.06545036,0.06550935,-0.024466792,-0.9975519,-0.0015956758,0.9996955,-0.024624154,0.08378601,9.871292,-0.15083313,-0.009567261,9.804092,-0.22010803,-0.018081665,-0.008514404,-0.0010681152,2.4749756,-31.28357,-18.388367,1,0.0,0.0,0.0,0.0
1.390197754,0.9918977,0.0038341808,0.12698112,0.12703513,-0.022137247,-0.9916511,-9.91157E-4,0.9997476,-0.022444962,0.9977636,0.0030690685,0.06677179,0.06682713,-0.024535961,-0.99746287,-0.0014229717,0.9996942,-0.024686186,-0.08378601,9.8138275,-0.19392395,-0.009719849,9.804092,-0.22010803,0.0063934326,0.0053253174,0.0095825195,2.4749756,-31.28357,-18.388367,1,0.0,0.0,0.0,0.0
1.394622803,0.9999865,0.0011207893,0.0050598,0.0050837263,-0.022486217,-0.99973416,-0.0010067157,0.9997465,-0.022491615,0.997682,0.0030865592,0.06797911,0.06803446,-0.024488607,-0.9973824,-0.0014137662,0.99969536,-0.024641834,-0.03590393,9.938324,-0.36151123,-0.0098724365,9.804092,-0.2205658,-0.018081665,0.0010681152,0.004257202,0.14343262,-33.255005,-20.980835,1,0.0,0.0,0.0,0.0
1.399017334,0.99998665,0.0011210861,0.0050593307,0.005083324,-0.022546872,-0.99973285,-0.0010067143,0.9997451,-0.022552267,0.9977669,0.0030440914,0.06672251,0.06677714,-0.024449488,-0.9974683,-0.0014050533,0.99969643,-0.024598166,0.007171631,9.823395,-0.36151123,-0.0098724365,9.804092,-0.22116089,0.0053253174,0.0032043457,0.0,0.14343262,-33.255005,-20.980835,1,0.0,0.0,0.0,0.0
1.403442383,0.99998647,0.001106136,0.0050830254,0.0051066913,-0.022562476,-0.9997323,-9.911542E-4,0.9997448,-0.02256782,0.99784863,0.003002779,0.06549126,0.06554519,-0.024413053,-0.9975509,-0.0013965835,0.99969745,-0.024557348,-0.007171631,9.770737,-0.26574707,-0.009719849,9.804092,-0.22131348,0.0063934326,0.0021362305,-0.017044067,0.14343262,-33.255005,-20.980835,1,0.0,0.0,0.0,0.0
