Time,Rot1,Rot2,Rot3,Rot4,Rot5,Rot6,Rot7,Rot8,Rot9,FRot1,FRot2,FRot3,FRot4,FRot5,FRot6,FRot7,FRot8,FRot9,AccX,AccY,AccZ,GravX,GravY,GravZ,GyroX,GyroY,GyroZ,MagX,MagY,MagZ,Imid
0.0,0.0,0.0,0.0,0.0,0.0,0.0,0.0,0.0,0.0,0.0,0.0,0.0,0.0,0.0,0.0,0.0,0.0,0.0,0.16519165,9.76355,-0.16279602,0.18778992,9.804092,-0.11566162,0.0,0.0,0.0,0.0,0.0,0.0,0,0.0,0.0,0.0,0.0
0.004425049,0.99812704,-0.019828811,-0.057872374,-0.058090974,-0.01063121,-0.99825466,0.019178953,0.99974686,-0.011763174,1.0,0.0,0.0,0.0,1.0,0.0,0.0,0.0,1.0,0.16519165,9.691727,0.0143585205,0.18807983,9.804092,-0.115356445,0.0,0.0,0.0,-1.9989014,-30.192566,-24.130249,0,0.0,0.0,0.0,0.0
0.008850098,0.9981281,-0.019849379,-0.057846732,-0.058067318,-0.010722429,-0.99825495,0.019194484,0.99974537,-0.011854959,0.99830437,-0.041227356,-0.041094553,0.039898198,0.99867,-0.0326559,0.042386215,0.030960925,0.99862146,0.20828247,9.830582,-0.21546936,0.18823242,9.804092,-0.116256714,0.0032043457,-0.03727722,0.007461548,-1.9989014,-30.192566,-24.130249,0,0.0,0.0,0.0,0.0
0.013275147,0.9981237,-0.019765997,-0.057950694,-0.058172718,-0.010848398,-0.9982476,0.01910269,0.99974585,-0.011977886,0.9935615,-0.08151066,-0.07868685,0.07624893,0.9947873,-0.06770843,0.08379563,0.061272703,0.9945974,0.05505371,9.8736725,-0.14364624,0.18733215,9.804092,-0.11746216,0.012786865,-0.02130127,0.0,-1.9989014,-30.192566,-24.130249,0,0.0,0.0,0.0,0.0
0.017700195,0.99660575,-0.019984283,-0.07985959,-0.080078386,-0.010397313,-0.99673426,0.019088693,0.9997462,-0.011962331,0.98622525,-0.12068285,-0.11311722,0.10890187,0.9884789,-0.10511827,0.12449995,0.091351606,0.98800534,0.13166809,9.753967,-0.09576416,0.18719482,9.804092,-0.11730957,0.02557373,-0.022369385,-0.007446289,-2.5360107,-30.731201,-23.957825,0,0.0,0.0,0.0,0.0
0.022125244,0.99660575,-0.019984283,-0.07985959,-0.080078386,-0.010397313,-0.99673426,0.019088693,0.9997462,-0.011962331,0.97689295,-0.15822838,-0.14368033,0.13764568,0.980044,-0.14341347,0.16350514,0.12032262,0.97917753,0.18913269,9.739609,-0.11012268,0.18719482,9.804092,-0.11730957,-0.003189087,-0.0234375,0.0010681152,-2.5360107,-30.731201,-23.957825,0,0.0,0.0,0.0,0.0
0.026519776,0.99660575,-0.019984283,-0.07985959,-0.080078386,-0.010397313,-0.99673426,0.019088693,0.9997462,-0.011962331,0.96594423,-0.1944063,-0.17075689,0.16285433,0.96959776,-0.18264385,0.2010726,0.14861527,0.9682372,0.18434143,9.92157,-0.12927246,0.18719482,9.804092,-0.11730957,-0.0021209717,-0.003189087,0.009597778,-2.5360107,-30.731201,-23.957825,0,0.0,0.0,0.0,0.0
0.030944824,0.99222034,-0.020393316,-0.12281252,-0.12302445,-0.009480541,-0.9923583,0.019073151,0.99974704,-0.011915662,0.9537747,-0.22913316,-0.19445258,0.1846385,0.95731026,-0.22240904,0.23711273,0.17622468,0.95536506,0.12689209,9.844955,0.0143585205,0.18704224,9.804092,-0.11685181,0.0063934326,-0.0063934326,-0.006378174,-3.6117554,-31.448364,-23.957825,0,0.0,0.0,0.0,0.0
0.035369873,0.9922133,-0.02034329,-0.122877136,-0.12309007,-0.009563876,-0.9923494,0.019012474,0.99974734,-0.011993464,0.9409802,-0.26124334,-0.21519314,0.20201793,0.94363236,-0.262196,0.2715602,0.20324838,0.94071525,0.05027771,9.787491,-0.31123352,0.18644714,9.804092,-0.117614746,0.0021362305,-0.0053253174,-0.017044067,-3.6117554,-31.448364,-23.957825,0,0.0,0.0,0.0,0.0
0.039794922,0.9922073,-0.020299254,-0.12293403,-0.123146795,-0.009582362,-0.99234223,0.018965805,0.999748,-0.012007476,0.9275749,-0.2921747,-0.23289213,0.21666688,0.92842406,-0.30180174,0.30440146,0.22948372,0.92448735,0.11251831,9.835373,-0.2681427,0.18598938,9.804092,-0.117752075,0.0010681152,-0.022369385,-0.003189087,-3.6117554,-31.448364,-23.957825,0,0.0,0.0,0.0,0.0
0.044219971,0.98533696,-0.020706154,-0.1693583,-0.16956374,-0.008592904,-0.9854816,0.018950257,0.9997486,-0.011977919,0.9138981,-0.32157183,-0.24775371,0.22842619,0.9118931,-0.3409874,0.3355768,0.2550343,0.9068328,0.05984497,9.849731,-0.32081604,0.18583679,9.804092,-0.11746216,-0.008514404,-0.034088135,-0.0053253174,-4.689026,-30.014038,-23.61145,0,0.0,0.0,0.0,0.0
0.04864502,0.9853287,-0.020662174,-0.16941255,-0.16961761,-0.0085994275,-0.9854725,0.01890515,0.9997495,-0.01197793,0.9004316,-0.34852937,-0.26028883,0.23661363,0.8945288,-0.3792523,0.3650164,0.27990288,0.8879287,0.05505371,9.859314,-0.19631958,0.18539429,9.804092,-0.11746216,-0.024475098,-0.067108154,0.009597778,-4.689026,-30.014038,-23.61145,0,0.0,0.0,0.0,0.0
0.053039551,0.9853346,-0.020693379,-0.16937406,-0.16957794,-0.008517461,-0.98548,0.018950276,0.9997496,-0.011901689,0.88687515,-0.3739066,-0.27137846,0.24190004,0.87624264,-0.4167531,0.39362013,0.30396152,0.8675659,0.16998291,9.854523,-0.2394104,0.18583679,9.804092,-0.11671448,-0.0095825195,-0.061782837,-0.0010528564,-4.689026,-30.014038,-23.61145,0,0.0,0.0,0.0,0.0
0.0574646,0.99062634,-0.020375445,-0.13507156,-0.13528082,-0.009261659,-0.99076396,0.01893627,0.9997495,-0.011931251,0.873985,-0.39772847,-0.2792173,0.24528663,0.85706836,-0.4530653,0.41950533,0.327484,0.8466224,0.12689209,9.878464,-0.40701294,0.18569946,9.804092,-0.117004395,-0.027679443,-0.08203125,0.014923096,-3.791809,-31.26831,-23.092651,0,0.0,0.0,0.0,0.0
0.061889649,0.99062407,-0.020361328,-0.13509029,-0.1352974,-0.009156474,-0.9907627,0.018936293,0.99975073,-0.011825458,0.86140716,-0.42062286,-0.28469992,0.24721412,0.8368618,-0.48841318,0.44369224,0.3503408,0.82486266,0.21307373,9.710876,-0.32081604,0.18569946,9.804092,-0.1159668,-0.01914978,-0.08415222,0.0010681152,-3.791809,-31.26831,-23.092651,0,0.0,0.0,0.0,0.0
0.066314697,0.99061316,-0.020293215,-0.13518074,-0.135384,-0.008994499,-0.99075234,0.018889667,0.99975353,-0.011657446,0.8494874,-0.4418932,-0.28827345,0.24721171,0.8160537,-0.5224392,0.46610895,0.37254095,0.80246854,0.08857727,9.830582,-0.36869812,0.1852417,9.804092,-0.11431885,-0.04472351,-0.10119629,-0.003189087,-3.791809,-31.26831,-23.092651,0,0.0,0.0,0.0,0.0
0.070739746,0.9906092,-0.02026869,-0.1352133,-0.13541283,-0.008811975,-0.99075,0.018889708,0.9997557,-0.011473863,0.8376764,-0.4612725,-0.2924481,0.24425836,0.79532075,-0.55479974,0.48850393,0.39330977,0.7788911,0.11251831,9.844955,-0.16758728,0.1852417,9.804092,-0.11251831,-0.060699463,-0.13421631,-0.0010528564,-3.791809,-31.26831,-23.092651,0,0.0,0.0,0.0,0.0
0.075134277,0.9905932,-0.02016919,-0.1353454,-0.13554054,-0.008637633,-0.9907342,0.01881324,0.9997593,-0.011290123,0.8273624,-0.47935516,-0.29272854,0.24095528,0.7737028,-0.585939,0.5073578,0.41424942,0.75563586,0.07899475,9.801849,-0.09576416,0.18449402,9.804245,-0.11071777,-0.051116943,-0.14807129,0.010665894,-3.791809,-31.26831,-23.092651,0,0.0,0.0,0.0,0.0
0.080810547,0.99059224,-0.020163152,-0.13535342,-0.13554764,-0.008592777,-0.9907336,0.018813249,0.9997598,-0.011245004,0.81792986,-0.4959006,-0.29167348,0.23631084,0.751823,-0.6155642,0.52454555,0.43456274,0.73212516,0.23222351,9.806641,-0.2106781,0.18449402,9.804245,-0.11027527,-0.04045105,-0.1565857,-0.007446289,-3.791809,-31.26831,-23.092651,0,0.0,0.0,0.0,0.0
0.086486817,0.99058217,-0.020100638,-0.13543642,-0.13562748,-0.008461596,-0.9907238,0.018768169,0.9997621,-0.011108105,0.81792986,-0.4959006,-0.29167348,0.23631084,0.751823,-0.6155642,0.52454555,0.43456274,0.73212516,0.23222351,9.806641,-0.2106781,0.18405151,9.804245,-0.108932495,-0.04045105,-0.1565857,-0.007446289,-3.791809,-31.26831,-23.092651,0,0.0,0.0,0.0,0.0
0.092163086,0.99058807,-0.020137575,-0.13538738,-0.13557558,-0.008287909,-0.99073225,0.018828867,0.99976283,-0.0109400675,0.81792986,-0.4959006,-0.29167348,0.23631084,0.751823,-0.6155642,0.52454555,0.43456274,0.73212516,0.23222351,9.806641,-0.2106781,0.1846466,9.804245,-0.107284546,-0.04045105,-0.1565857,-0.007446289,-3.791809,-31.26831,-23.092651,0,0.0,0.0,0.0,0.0
0.097808838,0.99643326,-0.019639883,-0.082068205,-0.08226162,-0.009250107,-0.99656796,0.018813334,0.9997644,-0.010832721,0.7880619,-0.54755056,-0.28133032,0.20475066,0.6641266,-0.7190362,0.58054763,0.5090425,0.6354842,0.13645935,9.758759,-0.13406372,0.18449402,9.804245,-0.10623169,-0.029800415,-0.12783813,0.0021362305,-2.5360107,-31.448364,-23.265076,0,0.0,0.0,0.0,0.0
0.102691651,0.9964322,-0.019628782,-0.0820831,-0.08227382,-0.009113392,-0.99656814,0.018813362,0.9997658,-0.010695811,0.7880619,-0.54755056,-0.28133032,0.20475066,0.6641266,-0.7190362,0.58054763,0.5090425,0.6354842,0.08857727,9.82579,-0.03829956,0.18449402,9.804245,-0.104888916,-0.029800415,-0.12783813,0.0021362305,-2.5360107,-31.448364,-23.265076,0,0.0,0.0,0.0,0.0
0.107574463,0.99643576,-0.019668547,-0.082029745,-0.0822194,-0.009034633,-0.9965733,0.01886004,0.99976575,-0.010619568,0.7880619,-0.54755056,-0.28133032,0.20475066,0.6641266,-0.7190362,0.58054763,0.5090425,0.6354842,0.08857727,9.82579,-0.03829956,0.18495178,9.804245,-0.104141235,-0.029800415,-0.12783813,0.0021362305,-2.5360107,-31.448364,-23.265076,0,0.0,0.0,0.0,0.0
0.112487793,0.99643517,-0.019661108,-0.08203973,-0.08222757,-0.008942971,-0.9965735,0.018860059,0.9997667,-0.010527775,0.7787673,-0.567014,-0.26835912,0.18812516,0.6191977,-0.7623668,0.59844,0.5432212,0.58888054,0.04069519,9.811432,-0.028717041,0.18495178,9.804245,-0.10324097,-0.012756348,-0.116119385,0.02130127,-2.5360107,-31.448364,-23.265076,0,0.0,0.0,0.0,0.0
0.116424561,0.995978,-0.019749874,-0.08739409,-0.087580696,-0.008788285,-0.9961186,0.018905174,0.9997663,-0.0104826465,0.7753737,-0.57493323,-0.26124218,0.1792211,0.5970138,-0.7819555,0.6055373,0.5594876,0.5659489,0.20828247,9.777908,-0.1197052,0.18539429,9.804245,-0.10279846,-0.018081665,-0.10758972,0.01171875,-2.7160645,-30.192566,-24.130249,0,0.0,0.0,0.0,0.0
0.120178223,0.99597794,-0.019748531,-0.087395765,-0.08758207,-0.008772757,-0.9961187,0.018905178,0.99976647,-0.010467089,0.7722762,-0.5817091,-0.25535083,0.16870952,0.5753056,-0.8003503,0.6124758,0.5750114,0.5424347,0.21307373,9.758759,-0.1819458,0.18539429,9.804245,-0.102645874,-0.013824463,-0.102264404,0.008529663,-2.7160645,-30.192566,-24.130249,0,0.0,0.0,0.0,0.0
0.123931885,0.9959826,-0.01980172,-0.08732973,-0.08751506,-0.008692815,-0.9961252,0.018965855,0.9997661,-0.010390842,0.77044135,-0.58738273,-0.24779364,0.15928051,0.5537191,-0.817328,0.61729234,0.5902345,0.5201667,0.28489685,9.892838,-0.10533142,0.18598938,9.804245,-0.10189819,-0.0095825195,-0.078826904,-0.0010528564,-2.7160645,-30.192566,-24.130249,0,0.0,0.0,0.0,0.0
0.127685547,0.9941603,-0.019942993,-0.10605492,-0.10623678,-0.008289458,-0.9943063,0.018950306,0.9997667,-0.010359729,0.769326,-0.59201694,-0.24011129,0.14975813,0.53249305,-0.83308077,0.62105554,0.6049521,0.49832013,0.23222351,9.811432,-0.13885498,0.18583679,9.804245,-0.10159302,-0.01914978,-0.0703125,0.004272461,-3.2531738,-31.089783,-24.649048,0,0.0,0.0,0.0,0.0
0.131439209,0.9941531,-0.019878557,-0.10613524,-0.106315695,-0.008249455,-0.9942983,0.018889653,0.9997683,-0.010314622,0.76891017,-0.5955116,-0.23268664,0.13991511,0.5118442,-0.847608,0.6238597,0.619178,0.47688332,0.16519165,9.768341,-0.04788208,0.1852417,9.804245,-0.10115051,-0.011703491,-0.069244385,-0.0053253174,-3.2531738,-31.089783,-24.649048,0,0.0,0.0,0.0,0.0
0.135192871,0.9941466,-0.01982196,-0.10620577,-0.10638629,-0.008283897,-0.99429035,0.018828984,0.99976915,-0.010344193,0.7690456,-0.59793663,-0.22592193,0.12932491,0.49169236,-0.8611119,0.6259744,0.63301694,0.45546195,0.10293579,9.806641,0.09576416,0.1846466,9.804245,-0.10144043,-0.006378174,-0.046875,-0.013839722,-3.2531738,-31.089783,-24.649048,0,0.0,0.0,0.0,0.0
0.138946533,0.98708916,-0.020181704,-0.1588953,-0.15906842,-0.007274529,-0.98724073,0.018768312,0.9997698,-0.0103908805,0.7697537,-0.59976923,-0.21853164,0.11959371,0.4717811,-0.87356734,0.62703794,0.64629674,0.4348839,0.11251831,9.787491,-0.02394104,0.18405151,9.804245,-0.10189819,0.026641846,-0.025558472,-0.007446289,-4.508972,-30.551147,-24.130249,0,0.0,0.0,0.0,0.0
0.142700195,0.98708475,-0.020156933,-0.15892585,-0.15909766,-0.00721649,-0.98723656,0.018752772,0.9997708,-0.010330208,0.7710619,-0.6003756,-0.21216229,0.10915652,0.45288447,-0.8848618,0.6273345,0.6591243,0.4147368,0.13166809,9.768341,0.08139038,0.18389893,9.804245,-0.1013031,0.018112183,-0.02130127,-0.007446289,-4.508972,-30.551147,-24.130249,0,0.0,0.0,0.0,0.0
0.146453858,0.9870703,-0.02007639,-0.15902512,-0.15919743,-0.0072888713,-0.9872197,0.018660698,0.99977183,-0.01039074,0.7728248,-0.60028064,-0.20592433,0.09889379,0.43443498,-0.8952576,0.6268666,0.6715127,0.3951062,0.14604187,9.844955,-0.0909729,0.18299866,9.804398,-0.10189819,0.0021362305,0.003189087,-0.003189087,-4.508972,-30.551147,-24.130249,0,0.0,0.0,0.0,0.0
0.15020752,0.9913039,-0.01981873,-0.13009138,-0.13027118,-0.008062806,-0.99144566,0.01860029,0.9997711,-0.0105745,0.77496195,-0.59958464,-0.19983056,0.088817626,0.4163661,-0.90484846,0.6257359,0.68347466,0.37592155,0.19871521,9.787491,-0.25378418,0.18240356,9.804245,-0.10369873,0.017044067,0.014892578,-0.015975952,-3.791809,-31.26831,-24.130249,0,0.0,0.0,0.0,0.0
0.154541016,0.99128276,-0.019675039,-0.13027424,-0.13045591,-0.008245995,-0.9914198,0.018431982,0.9997724,-0.010740838,0.77758133,-0.5984409,-0.19296607,0.07940468,0.39788866,-0.91399103,0.62374854,0.69537985,0.35690978,0.08378601,9.76355,-0.27293396,0.18075562,9.804398,-0.10533142,0.028762817,0.008514404,-0.018096924,-3.791809,-31.26831,-24.130249,0,0.0,0.0,0.0,0.0
0.158874512,0.9912723,-0.019604277,-0.13036428,-0.13054593,-0.008285019,-0.9914076,0.018355759,0.9997735,-0.010771969,0.7802805,-0.5969227,-0.18666992,0.07019302,0.38016164,-0.9222527,0.6214783,0.70651287,0.33853254,0.11251831,9.691727,0.028717041,0.18000793,9.804398,-0.1056366,0.021316528,0.009567261,-0.027694702,-3.791809,-31.26831,-24.130249,0,0.0,0.0,0.0,0.0
0.163269043,0.9868478,-0.019820409,-0.16043241,-0.1606119,-0.00781269,-0.9869867,0.018309072,0.999773,-0.010893329,0.7832802,-0.5948645,-0.18057781,0.061224937,0.36287564,-0.929824,0.6186466,0.7172569,0.32065383,0.09815979,9.8736725,-0.42137146,0.17955017,9.804398,-0.10682678,0.022384644,0.013839722,-0.014907837,-4.508972,-31.985474,-23.783875,0,0.0,0.0,0.0,0.0
0.167633057,0.9868258,-0.019706225,-0.1605818,-0.16076262,-0.007953014,-0.98696107,0.018172167,0.99977416,-0.011016264,0.7866811,-0.5920324,-0.17501554,0.05207303,0.34611297,-0.9367466,0.6151595,0.7278073,0.3031095,0.11251831,9.787491,-0.16279602,0.1782074,9.804398,-0.10803223,0.017044067,0.006378174,-0.0095825195,-4.508972,-31.985474,-23.783875,0,0.0,0.0,0.0,0.0
0.17199707,0.986811,-0.019629633,-0.16068198,-0.16086523,-0.008133859,-0.98694277,0.018066362,0.99977416,-0.011184309,0.79017174,-0.5888607,-0.16991669,0.043137044,0.32998788,-0.942999,0.6113655,0.7378015,0.2861488,0.10772705,9.859314,-0.37348938,0.1771698,9.804398,-0.109680176,0.021316528,0.020233154,-0.027694702,-4.508972,-31.985474,-23.783875,0,0.0,0.0,0.0,0.0
0.176361084,0.9961138,-0.018885575,-0.086026534,-0.086221494,-0.009761945,-0.99622816,0.017974557,0.99977404,-0.011352352,0.79383755,-0.5853093,-0.16502985,0.034463406,0.3142361,-0.94871914,0.6071525,0.7474414,0.26962417,0.12689209,9.715668,-0.46446228,0.17626953,9.804398,-0.111328125,0.017044067,0.028747559,-0.019165039,-2.7160645,-30.192566,-24.821472,0,0.0,0.0,0.0,0.0
0.180725098,0.9961066,-0.0188017,-0.08612778,-0.086323254,-0.009843903,-0.9962185,0.017882768,0.99977475,-0.011428602,0.7976174,-0.5818504,-0.15892309,0.0272609,0.29798892,-0.95418,0.60254735,0.7567382,0.2535429,0.07899475,9.840164,-0.19631958,0.17536926,9.804398,-0.112075806,0.009597778,0.039398193,-0.017044067,-2.7160645,-30.192566,-24.821472,0,0.0,0.0,0.0,0.0
0.185089111,0.9960966,-0.018684559,-0.08626916,-0.086464256,-0.009896829,-0.99620575,0.017759876,0.9997764,-0.011473745,0.8017724,-0.577832,-0.15254924,0.020790935,0.28207156,-0.959168,0.59726775,0.7658628,0.23817085,0.04069519,9.753967,-0.18673706,0.17416382,9.804398,-0.11251831,0.008529663,0.03300476,-0.012771606,-2.7160645,-30.192566,-24.821472,0,0.0,0.0,0.0,0.0
0.189453125,0.99879485,-0.01824001,-0.045565404,-0.045766152,-0.010743714,-0.9988945,0.017730303,0.99977595,-0.011565541,0.8058608,-0.57357955,-0.14695169,0.014131248,0.26674548,-0.96366346,0.59193635,0.774502,0.22306514,0.20828247,9.844955,-0.26335144,0.1738739,9.804398,-0.11341858,0.0063934326,0.057510376,-0.017044067,-1.6403198,-31.26831,-23.439026,0,0.0,0.0,0.0,0.0
0.193817139,0.998793,-0.01819608,-0.045623876,-0.045824934,-0.010789859,-0.99889123,0.017683629,0.9997762,-0.011610668,0.8100653,-0.5691792,-0.14081669,0.00841251,0.2514198,-0.96784157,0.58627933,0.78283024,0.20845467,0.11730957,9.931137,-0.22984314,0.17341614,9.804398,-0.113861084,0.008529663,0.045791626,-0.012771606,-1.6403198,-31.26831,-23.439026,0,0.0,0.0,0.0,0.0
0.198181152,0.9987867,-0.018048763,-0.04581996,-0.04602048,-0.010855489,-0.99888164,0.017531179,0.9997782,-0.01167293,0.8143834,-0.5644187,-0.13494912,0.0029698014,0.23658995,-0.9716051,0.58031964,0.79085827,0.19435114,0.06942749,9.758759,-0.28729248,0.17192078,9.804398,-0.114471436,0.0032043457,0.055374146,-0.006378174,-1.6403198,-31.26831,-23.439026,0,0.0,0.0,0.0,0.0
0.202545166,0.99878967,-0.017989041,-0.04577676,-0.045977157,-0.010888596,-0.9988832,0.017470509,0.999779,-0.011702503,0.81909764,-0.5589959,-0.12885159,-0.00170964,0.22223568,-0.9749915,0.5736517,0.79883343,0.18107703,0.15083313,9.787491,-0.1819458,0.17132568,9.804398,-0.11476135,-0.0010528564,0.03727722,-0.025558472,-1.6403198,-30.551147,-23.783875,0,0.0,0.0,0.0,0.0
0.20690918,0.9987854,-0.017882593,-0.045913193,-0.046112128,-0.010875571,-0.998877,0.01736318,0.9997809,-0.011686965,0.82355773,-0.55362123,-0.12351574,-0.006622404,0.20835242,-0.9780314,0.56719375,0.8062833,0.16792396,0.12689209,9.797058,-0.0143585205,0.17027283,9.804398,-0.114608765,0.0032043457,0.028747559,-0.013839722,-1.6403198,-30.551147,-23.783875,0,0.0,0.0,0.0,0.0
0.211273194,0.9987829,-0.01782219,-0.045990612,-0.04618863,-0.0108630145,-0.99887365,0.017302519,0.99978215,-0.0116729755,0.82807195,-0.54796714,-0.118443474,-0.011268556,0.19496022,-0.9807464,0.5605086,0.8134633,0.15526628,0.23222351,9.811432,-0.0622406,0.16967773,9.804398,-0.114471436,0.0063934326,0.039398193,-0.022369385,-1.6403198,-30.551147,-23.783875,0,0.0,0.0,0.0,0.0
0.215637207,0.9940264,-0.018372567,-0.10758203,-0.107774004,-0.009796547,-0.99412715,0.017210733,0.9997832,-0.011718112,0.8326235,-0.54205704,-0.11363241,-0.015649214,0.18206422,-0.98316205,0.5536183,0.8203821,0.14310817,0.20350647,9.715668,-0.16279602,0.16877747,9.804398,-0.11491394,0.0010681152,0.05432129,-0.020233154,-3.2531738,-29.655457,-24.993896,0,0.0,0.0,0.0,0.0
0.220001221,0.9940155,-0.018271917,-0.107700035,-0.10789153,-0.009836732,-0.9941141,0.017104952,0.9997847,-0.011749249,0.8375001,-0.53540695,-0.10923855,-0.01972352,0.17016108,-0.9852189,0.5460812,0.8272754,0.13194981,0.14125061,9.840164,-0.01914978,0.16773987,9.804398,-0.115219116,0.007461548,0.07136536,-0.023422241,-3.2531738,-29.655457,-24.993896,0,0.0,0.0,0.0,0.0
0.224395752,0.99399376,-0.018071959,-0.107934445,-0.1081257,-0.009960683,-0.9940873,0.016890002,0.99978703,-0.011854899,0.84201825,-0.528906,-0.10613029,-0.02465199,0.15880588,-0.98700196,0.5388854,0.83369005,0.120678864,0.10772705,9.811432,-0.06703186,0.16563416,9.80455,-0.116256714,0.017044067,0.09799194,-0.025558472,-3.2531738,-29.655457,-24.993896,0,0.0,0.0,0.0,0.0
0.229370117,0.9946013,-0.017858256,-0.102222666,-0.10241442,-0.0101727,-0.9946899,0.016723543,0.99978876,-0.011946722,0.8465061,-0.5222767,-0.103220776,-0.0293556,0.14779997,-0.98858154,0.5315691,0.8398704,0.10978183,0.11251831,9.701294,-0.07661438,0.16400146,9.80455,-0.11715698,0.03303528,0.123550415,-0.043670654,-2.8945923,-30.014038,-22.920227,0,0.0,0.0,0.0,0.0
0.234344483,0.99458015,-0.017675204,-0.1024597,-0.10265157,-0.010311164,-0.99466395,0.01652441,0.9997906,-0.012069666,0.8509616,-0.5155444,-0.10039057,-0.033733606,0.13709581,-0.98998326,0.52414346,0.84582424,0.099272095,0.06463623,9.797058,-0.0909729,0.16204834,9.80455,-0.11836243,0.024505615,0.11717224,-0.036209106,-2.8945923,-30.014038,-22.920227,0,0.0,0.0,0.0,0.0
0.239349365,0.99455273,-0.017438676,-0.10276597,-0.102958314,-0.010513553,-0.99463016,0.016264597,0.99979264,-0.012251739,0.8559359,-0.5081979,-0.09543881,-0.03561984,0.12618424,-0.9913671,0.5158536,0.85194623,0.089903705,0.10772705,9.749176,-0.12449646,0.15950012,9.80455,-0.120147705,0.03303528,0.14486694,-0.039413452,-2.8945923,-30.014038,-22.920227,0,0.0,0.0,0.0,0.0
0.244323731,0.9947941,-0.017265225,-0.10043208,-0.100625746,-0.010738368,-0.9948663,0.016098116,0.99979323,-0.012419792,0.8602716,-0.50128,-0.0930116,-0.039630935,0.11613332,-0.9924426,0.5082934,0.8574563,0.08003999,0.10772705,9.696503,-0.06703186,0.15786743,9.80455,-0.121795654,0.045806885,0.15231323,-0.05432129,-2.8945923,-31.448364,-23.265076,0,0.0,0.0,0.0,0.0
0.249298096,0.99476856,-0.017048398,-0.100722,-0.100916915,-0.010985533,-0.99483424,0.015853846,0.9997943,-0.012648534,0.86455077,-0.4942918,-0.090705335,-0.043402776,0.10637603,-0.9933782,0.5006676,0.86276287,0.07051385,0.16519165,9.806641,-0.0909729,0.1554718,9.80455,-0.1240387,0.04475403,0.1459198,-0.036209106,-2.8945923,-31.448364,-23.265076,0,0.0,0.0,0.0,0.0
0.254302979,0.9947485,-0.016879022,-0.10094845,-0.10114555,-0.011260275,-0.9948079,0.015654678,0.9997941,-0.01290838,0.86945325,-0.4864743,-0.085986115,-0.044665605,0.0959324,-0.9943852,0.49199173,0.86841214,0.06168008,0.24659729,9.888046,-0.29208374,0.15351868,9.80455,-0.12658691,0.057525635,0.14805603,-0.05857849,-2.8945923,-31.448364,-23.265076,0,0.0,0.0,0.0,0.0
0.259277344,0.98939157,-0.0171938,-0.14425193,-0.14445001,-0.010890341,-0.9894521,0.015441489,0.9997929,-0.013258457,0.8735781,-0.479373,-0.0840409,-0.04812123,0.086756356,-0.99506664,0.48429918,0.8733126,0.052720435,0.14125061,9.959869,-0.16279602,0.15142822,9.80455,-0.13002014,0.046875,0.14059448,-0.055389404,-3.970337,-30.37262,-23.61145,0,0.0,0.0,0.0,0.0
0.264251709,0.9893545,-0.016970754,-0.1445326,-0.1447331,-0.011242438,-0.9894069,0.015166081,0.9997928,-0.013578987,0.87758225,-0.4721702,-0.083095126,-0.05218225,0.07821918,-0.9955696,0.47657794,0.87803024,0.044004858,0.06463623,9.92157,-0.39743042,0.14872742,9.80455,-0.13316345,0.080963135,0.1331482,-0.051132202,-3.970337,-30.37262,-23.61145,0,0.0,0.0,0.0,0.0
0.269256592,0.98930997,-0.016703976,-0.14486828,-0.14506891,-0.011493372,-0.98935485,0.014861134,0.9997944,-0.013793734,0.8821358,-0.46417356,-0.07987157,-0.0538773,0.069020994,-0.9961593,0.4679036,0.883051,0.035877474,-0.08378601,9.840164,-0.33039856,0.1457367,9.80455,-0.13526917,0.051132202,0.13847351,-0.057510376,-3.970337,-30.37262,-23.61145,0,0.0,0.0,0.0,0.0
0.274230957,0.99380976,-0.016055664,-0.109928146,-0.110130765,-0.012330577,-0.9938406,0.014601296,0.99979514,-0.014022472,0.88596356,-0.4569405,-0.079208,-0.057651583,0.060952216,-0.9964743,0.46015736,0.88740647,0.0276581,-0.04548645,9.801849,-0.39263916,0.14318848,9.80455,-0.1375122,0.034088135,0.11289978,-0.05218506,-3.074646,-29.833984,-23.439026,0,0.0,0.0,0.0,0.0
0.278900147,0.99378526,-0.015856666,-0.11017823,-0.11038164,-0.012579089,-0.9938096,0.014372568,0.99979514,-0.014251201,0.8897536,-0.44973618,-0.07794869,-0.060637,0.052796174,-0.99676263,0.4523956,0.89159966,0.019704932,-0.05027771,9.835373,-0.40701294,0.14094543,9.80455,-0.13975525,0.029830933,0.102249146,-0.041534424,-3.074646,-29.833984,-23.439026,0,0.0,0.0,0.0,0.0
0.28326416,0.9937608,-0.015658127,-0.11042772,-0.11062987,-0.012689947,-0.9937807,0.014159423,0.99979687,-0.014343029,0.893465,-0.4425158,-0.07681215,-0.06347509,0.04489531,-0.99697304,0.44462484,0.8956362,0.012023659,0.002380371,9.797058,-0.25856018,0.13885498,9.80455,-0.14065552,0.030899048,0.08201599,-0.03727722,-3.074646,-29.833984,-23.439026,0,0.0,0.0,0.0,0.0
0.287628174,0.9937452,-0.015532192,-0.11058597,-0.11078951,-0.01291617,-0.99376005,0.014006925,0.99979603,-0.014556185,0.89744544,-0.43474182,-0.07477422,-0.06513423,0.037055463,-0.99718827,0.43629023,0.89979243,0.0049386835,-0.01675415,9.691727,-0.53630066,0.13735962,9.80455,-0.14274597,0.012786865,0.06390381,-0.03727722,-3.074646,-29.833984,-23.439026,0,0.0,0.0,0.0,0.0
0.291992188,0.9937247,-0.015367599,-0.110792786,-0.11099603,-0.01306939,-0.99373484,0.013823326,0.99979645,-0.014693119,0.90098596,-0.4275071,-0.073905066,-0.06769084,0.029740542,-0.99726295,0.42853498,0.9035227,-0.002142505,0.04548645,9.935928,-0.49798584,0.13555908,9.80455,-0.14408875,0.012786865,0.04472351,-0.025558472,-3.074646,-29.833984,-23.439026,0,0.0,0.0,0.0,0.0
0.296356201,0.9937237,-0.015358999,-0.1108036,-0.111007385,-0.013117158,-0.99373305,0.013809316,0.99979603,-0.014739791,0.9044441,-0.4202738,-0.07315002,-0.07010816,0.022704752,-0.99728096,0.42079192,0.90711325,-0.008929446,0.08378601,9.859314,-0.28729248,0.13542175,9.80455,-0.14454651,0.0010681152,0.008514404,-0.031951904,-3.074646,-29.833984,-23.439026,0,0.0,0.0,0.0,0.0
0.300720215,0.9924737,-0.015396242,-0.121486284,-0.12168902,-0.01299361,-0.99248326,0.013701967,0.99979705,-0.01476937,0.9078181,-0.4130469,-0.072515726,-0.07237241,0.016015757,-0.99724907,0.41307202,0.9105689,-0.0153538035,0.09336853,9.7827,-0.37348938,0.1343689,9.80455,-0.14483643,0.0010681152,-0.012786865,-0.010650635,-3.4332275,-30.909729,-24.130249,0,0.0,0.0,0.0,0.0
0.305084229,0.9924623,-0.015314057,-0.12158993,-0.12179242,-0.013064957,-0.9924696,0.013610168,0.99979734,-0.014831614,0.91119593,-0.40551704,-0.07264896,-0.075081326,0.009929307,-0.99712795,0.40507373,0.91403353,-0.021399213,0.08857727,9.8736725,-0.41178894,0.13346863,9.80455,-0.14544678,-0.013824463,-0.0234375,-0.020233154,-3.4332275,-30.909729,-24.130249,0,0.0,0.0,0.0,0.0
0.309448242,0.9924392,-0.015148142,-0.121799186,-0.12199925,-0.013066826,-0.9924442,0.013442157,0.9997999,-0.014816091,0.91437423,-0.39833918,-0.07242723,-0.07726032,0.003929649,-0.99700326,0.39743003,0.9172298,-0.02718264,-0.03111267,9.806641,-0.24899292,0.13182068,9.80455,-0.14529419,-0.010650635,-0.031951904,-0.015975952,-3.4332275,-30.909729,-24.130249,0,0.0,0.0,0.0,0.0
0.313812256,0.99393046,-0.014818506,-0.10900809,-0.109205045,-0.013201539,-0.99393165,0.013289506,0.99980307,-0.014739666,0.9174644,-0.3911932,-0.072298594,-0.07931613,-0.0017868994,-0.9968479,0.38983095,0.92030686,-0.03266735,0.03111267,9.844955,-0.23461914,0.13032532,9.804703,-0.14454651,-0.011703491,-0.053268433,-0.024490356,-3.074646,-31.26831,-23.783875,0,0.0,0.0,0.0,0.0
0.31817627,0.99392265,-0.014757546,-0.10908723,-0.10928314,-0.01319154,-0.99392307,0.013228836,0.999804,-0.0147241205,0.9204867,-0.3840837,-0.07199992,-0.08101064,-0.007310552,-0.9966864,0.3822846,0.92326933,-0.03784413,0.08378601,9.777908,-0.31602478,0.12973022,9.804703,-0.14439392,-0.026611328,-0.055389404,-0.025558472,-3.074646,-31.26831,-23.783875,0,0.0,0.0,0.0,0.0
0.322540283,0.9939129,-0.01468138,-0.1091861,-0.109380774,-0.013182965,-0.99391246,0.01315261,0.9998053,-0.0147085795,0.92341644,-0.3768396,-0.07276041,-0.083515525,-0.01225689,-0.9964311,0.37460288,0.92619747,-0.04279017,0.12210083,9.768341,-0.2681427,0.12898254,9.804703,-0.14424133,-0.018081665,-0.05645752,-0.010650635,-3.074646,-31.26831,-23.783875,0,0.0,0.0,0.0,0.0
0.326904297,0.98164874,-0.015621209,-0.19005738,-0.19024836,-0.01180079,-0.98166513,0.013091967,0.9998084,-0.014556139,0.92625636,-0.3698327,-0.07261465,-0.08497165,-0.01720857,-0.9962347,0.3671906,0.928939,-0.047364842,0.11730957,9.864105,-0.05265808,0.12838745,9.804703,-0.14274597,-0.015960693,-0.07136536,-0.014907837,-4.8675537,-29.116821,-22.747803,0,0.0,0.0,0.0,0.0
0.331268311,0.98161435,-0.015467131,-0.19024725,-0.19043492,-0.0117188,-0.98162985,0.012953529,0.9998117,-0.014448825,0.92886347,-0.3629188,-0.0741799,-0.08783968,-0.02125738,-0.99590784,0.35985678,0.9315783,-0.051623873,0.17955017,9.797058,-0.04309082,0.12702942,9.804703,-0.14169312,-0.026611328,-0.05859375,-0.012771606,-4.8675537,-29.116821,-22.747803,0,0.0,0.0,0.0,0.0
0.335632324,0.9815775,-0.015301946,-0.19045079,-0.19063625,-0.011733918,-0.98159057,0.012785513,0.99981403,-0.014434855,0.93149835,-0.3555412,-0.076820135,-0.09159248,-0.024877282,-0.9954857,0.35202512,0.9343295,-0.05573805,0.17955017,9.715668,-0.2106781,0.12538147,9.804703,-0.14155579,-0.014892578,-0.061782837,-0.034088135,-4.8675537,-29.116821,-22.747803,0,0.0,0.0,0.0,0.0
0.339996338,0.99156487,-0.014403911,-0.128809,-0.1289932,-0.012683866,-0.99156445,0.012648609,0.9998158,-0.014434881,0.93391305,-0.3487897,-0.0784357,-0.09422375,-0.028504485,-0.9951429,0.3448598,0.93676746,-0.05948499,0.12689209,9.883255,-0.0909729,0.1240387,9.804703,-0.14155579,-0.0095825195,-0.055389404,-0.043670654,-3.4332275,-29.833984,-23.092651,0,0.0,0.0,0.0,0.0
0.344360352,0.99153674,-0.014218184,-0.12904477,-0.12922576,-0.012642121,-0.99153453,0.012466423,0.999819,-0.014372486,0.93391305,-0.3487897,-0.0784357,-0.09422375,-0.028504485,-0.9951429,0.3448598,0.93676746,-0.05948499,0.12689209,9.883255,-0.0909729,0.12225342,9.80484,-0.14094543,-0.0095825195,-0.055389404,-0.043670654,-3.4332275,-29.833984,-23.092651,0,0.0,0.0,0.0,0.0
0.348724365,0.9915041,-0.014001415,-0.12931997,-0.12949891,-0.012729736,-0.9914979,0.012236164,0.99982095,-0.014434753,0.93872327,-0.3354321,-0.079271436,-0.0968792,-0.036060967,-0.9946427,0.33077648,0.94137394,-0.06634766,0.08857727,9.854523,-0.21546936,0.11999512,9.80484,-0.14155579,-0.008514404,-0.055389404,-0.041534424,-3.4332275,-29.833984,-23.092651,0,0.0,0.0,0.0,0.0
0.353088379,0.9809355,-0.0145336725,-0.19378938,-0.19396605,-0.011919225,-0.9809359,0.0119467825,0.9998234,-0.01451103,0.9412208,-0.32811597,-0.080270484,-0.09866025,-0.039760347,-0.9943266,0.32306284,0.94380033,-0.069795266,0.04548645,9.811432,-0.09576416,0.11715698,9.80484,-0.14230347,0.008529663,-0.036224365,-0.04899597,-4.8675537,-29.833984,-22.401428,0,0.0,0.0,0.0,0.0
0.357452393,0.98087984,-0.014300399,-0.19408795,-0.1942619,-0.0119760325,-0.98087656,0.0117025245,0.999826,-0.014525073,0.9432824,-0.32168666,-0.08207263,-0.1010388,-0.042683408,-0.99396646,0.3162426,0.94588363,-0.07276534,0.06942749,9.787491,-0.12927246,0.11476135,9.80484,-0.1424408,0.020248413,-0.020233154,-0.057510376,-4.8675537,-29.833984,-22.401428,0,0.0,0.0,0.0,0.0
0.361816406,0.9808322,-0.014100925,-0.19434327,-0.19451421,-0.011966533,-0.98082674,0.01150495,0.999829,-0.014479992,0.9452647,-0.3153386,-0.08388224,-0.10334219,-0.045474406,-0.9936058,0.3095078,0.94788903,-0.07557313,0.15083313,9.854523,-0.0909729,0.11282349,9.80484,-0.14199829,0.005340576,-0.0063934326,-0.053253174,-4.8675537,-29.833984,-22.401428,0,0.0,0.0,0.0,0.0
0.36618042,0.99382335,-0.012801511,-0.11023358,-0.11040004,-0.013116649,-0.9938008,0.011276254,0.9998321,-0.0144489175,0.9471682,-0.30907574,-0.08569971,-0.10556923,-0.048113797,-0.9932473,0.3028653,0.94981956,-0.07820075,0.07899475,9.859314,-0.12927246,0.110580444,9.80484,-0.14169312,-0.0053253174,0.007446289,-0.050064087,-3.074646,-30.909729,-24.130249,0,0.0,0.0,0.0,0.0
0.370544434,0.99378884,-0.012531958,-0.11057447,-0.11073884,-0.013281913,-0.9937608,0.010985128,0.9998333,-0.014587191,0.94943154,-0.30205503,-0.0856884,-0.10588975,-0.051120106,-0.993063,0.29557928,0.95191884,-0.08051958,0.01675415,9.787491,-0.43572998,0.10772705,9.804993,-0.14305115,-0.0053253174,0.010635376,-0.047927856,-3.074646,-30.909729,-24.130249,0,0.0,0.0,0.0,0.0
0.374908447,0.9937582,-0.012293223,-0.110876374,-0.11103751,-0.01330527,-0.9937272,0.010740869,0.99983597,-0.014587229,0.9513614,-0.29587406,-0.08584887,-0.10639346,-0.054019872,-0.9928556,0.28912267,0.9536983,-0.08287148,0.011962891,9.710876,-0.29208374,0.10533142,9.804993,-0.14305115,0.005340576,0.018096924,-0.057510376,-3.074646,-30.909729,-24.130249,0,0.0,0.0,0.0,0.0
0.379272461,0.9860821,-0.012731128,-0.1657712,-0.16593052,-0.01268084,-0.98605597,0.010451485,0.9998386,-0.014616831,0.95322114,-0.28976926,-0.08604236,-0.10686004,-0.05677318,-0.9926519,0.2827551,0.9554112,-0.08508215,-0.03590393,9.7444,-0.25378418,0.102493286,9.804993,-0.14334106,-0.010650635,0.010635376,-0.050064087,-4.508972,-30.551147,-24.475098,0,0.0,0.0,0.0,0.0
0.383636475,0.98604727,-0.0125491815,-0.16599189,-0.16614948,-0.012770679,-0.98601794,0.010253889,0.9998397,-0.014677532,0.9548948,-0.28380343,-0.0873588,-0.10834785,-0.059089635,-0.99235535,0.27647182,0.9570601,-0.08717387,0.05027771,9.82579,-0.37828064,0.10055542,9.804993,-0.14393616,-0.003189087,0.020233154,-0.055389404,-4.508972,-30.551147,-24.475098,0,0.0,0.0,0.0,0.0
0.388000488,0.98602533,-0.012434849,-0.16613057,-0.16628793,-0.01291314,-0.9859927,0.010115403,0.99983937,-0.014800448,0.95672154,-0.27729106,-0.08828077,-0.10929334,-0.061227974,-0.992122,0.2697013,0.95883304,-0.08888418,-0.03111267,9.792282,-0.31123352,0.09919739,9.804993,-0.1451416,-0.007446289,0.027679443,-0.039413452,-4.508972,-30.551147,-24.475098,0,0.0,0.0,0.0,0.0
0.392364502,0.9872812,-0.012076636,-0.15852435,-0.1586788,-0.013127372,-0.987243,0.009841566,0.9998409,-0.014876714,0.95825565,-0.2715067,-0.08961202,-0.110688105,-0.06330216,-0.99183714,0.26361778,0.96035254,-0.09071221,-0.08857727,9.849731,-0.36390686,0.09651184,9.804993,-0.14588928,0.015991211,0.020233154,-0.022369385,-4.1503906,-31.626892,-23.439026,0,0.0,0.0,0.0,0.0
0.396728516,0.9872488,-0.011913576,-0.15873861,-0.15889084,-0.013151478,-0.9872086,0.009673536,0.9998425,-0.014876738,0.9597471,-0.26578933,-0.090784326,-0.11188704,-0.065330364,-0.9915711,0.25761804,0.96181494,-0.092438996,0.007171631,9.710876,-0.26335144,0.09486389,9.804993,-0.14588928,-0.003189087,0.030883789,-0.04685974,-4.1503906,-31.626892,-23.439026,0,0.0,0.0,0.0,0.0
0.401092529,0.9871944,-0.011641493,-0.15909612,-0.15924439,-0.013160347,-0.9871515,0.009398157,0.9998457,-0.014845665,0.96117663,-0.26015842,-0.09196165,-0.1130424,-0.06723196,-0.99131286,0.25171563,0.96322244,-0.09403073,-0.17955017,9.773117,-0.20111084,0.092163086,9.804993,-0.1455841,-0.008514404,0.026611328,-0.031951904,-4.1503906,-31.626892,-23.439026,0,0.0,0.0,0.0,0.0
0.405456543,0.9889644,-0.011349388,-0.14771833,-0.14786394,-0.013284565,-0.9889185,0.009261246,0.99984735,-0.014816126,0.96274805,-0.2540178,-0.09268807,-0.11360027,-0.06890096,-0.9911345,0.24537951,0.96474224,-0.09519075,-0.15560913,9.76355,-0.19631958,0.09082031,9.804993,-0.14529419,-0.011703491,0.031936646,-0.036209106,-3.970337,-29.655457,-24.302673,0,0.0,0.0,0.0,0.0
0.409820557,0.98893875,-0.011196257,-0.14790101,-0.14804424,-0.013274089,-0.98889154,0.009108634,0.99984914,-0.014784804,0.96408075,-0.24855226,-0.09364879,-0.114463404,-0.07062534,-0.9909138,0.2396799,0.9660403,-0.09653867,-0.15083313,9.76355,-0.27293396,0.08932495,9.805145,-0.14498901,-0.008514404,0.038330078,-0.010650635,-3.970337,-29.655457,-24.302673,0,0.0,0.0,0.0,0.0
0.41418457,0.98893005,-0.011143988,-0.14796336,-0.1481063,-0.013328533,-0.98888165,0.009047951,0.9998491,-0.0148314815,0.965357,-0.24317488,-0.09461409,-0.1152921,-0.07222633,-0.9907023,0.23408028,0.9672897,-0.097760335,-0.06942749,9.821014,-0.25378418,0.08872986,9.805145,-0.14544678,-0.018081665,0.024490356,-0.015975952,-3.970337,-29.655457,-24.302673,0,0.0,0.0,0.0,0.0
0.418548584,0.9866693,-0.011329261,-0.16234346,-0.16248657,-0.013118844,-0.9866236,0.009047956,0.99984974,-0.014784812,0.9665776,-0.23789091,-0.095580995,-0.1160855,-0.07370019,-0.9905011,0.22858688,0.96849173,-0.098852634,0.06463623,9.902405,-0.28250122,0.08872986,9.805145,-0.14498901,-0.008514404,0.0010681152,-0.02130127,-4.1503906,-30.551147,-23.092651,0,0.0,0.0,0.0,0.0
0.422912598,0.98666173,-0.011291866,-0.16239157,-0.16253376,-0.0130788395,-0.98661613,0.009016845,0.99985063,-0.0147397015,0.9676645,-0.23271374,-0.09731278,-0.11752552,-0.07459772,-0.9902641,0.22318874,0.9696801,-0.09953536,-0.007171631,9.897629,-0.3256073,0.08842468,9.805145,-0.14454651,-0.022354126,-0.024505615,0.0010681152,-4.1503906,-30.551147,-23.092651,0,0.0,0.0,0.0,0.0
0.427276611,0.9866558,-0.011262109,-0.16242987,-0.16257083,-0.012990378,-0.9866113,0.009001299,0.9998522,-0.0146479225,0.96874195,-0.22765426,-0.09855211,-0.118519396,-0.075739086,-0.99005896,0.21792689,0.970792,-0.10035308,0.08857727,9.859314,-0.13885498,0.088272095,9.805145,-0.14364624,-0.025543213,-0.0095825195,0.0010681152,-4.1503906,-30.551147,-23.092651,0,0.0,0.0,0.0,0.0
0.431640625,0.9928176,-0.010612569,-0.11916633,-0.11930342,-0.013386176,-0.99276763,0.008940633,0.9998541,-0.014556147,0.9697677,-0.22269624,-0.09978482,-0.11947703,-0.07674754,-0.9898662,0.21278124,0.97186226,-0.10103438,-0.08378601,9.844955,-0.22505188,0.087677,9.805145,-0.14274597,-0.02128601,-0.020233154,-0.003189087,-3.2531738,-31.448364,-24.302673,0,0.0,0.0,0.0,0.0
0.436004639,0.9928114,-0.010569486,-0.11922125,-0.11935666,-0.013268653,-0.9927627,0.008911088,0.9998561,-0.014434811,0.9708496,-0.21776725,-0.10014227,-0.11955199,-0.07783037,-0.98977256,0.20774594,0.9728925,-0.101596095,-0.04548645,9.801849,-0.004776001,0.087387085,9.805145,-0.14155579,-0.027679443,-0.02130127,0.0,-3.2531738,-31.448364,-24.302673,0,0.0,0.0,0.0,0.0
0.440368652,0.9928083,-0.010547,-0.11924993,-0.11938448,-0.01320843,-0.99276024,0.008895537,0.9998571,-0.014372586,0.97181934,-0.2130038,-0.100978345,-0.1200518,-0.07856684,-0.9896539,0.2028665,0.9738874,-0.10192427,0.05984497,9.749176,-0.1771698,0.0872345,9.805145,-0.14094543,-0.012756348,-0.026626587,0.005340576,-3.2531738,-31.448364,-24.302673,0,0.0,0.0,0.0,0.0
0.444732666,0.9898322,-0.010832427,-0.1418266,-0.14196026,-0.012767052,-0.9897899,0.008911121,0.99985975,-0.014175015,0.9728063,-0.20827447,-0.10133961,-0.12008768,-0.079405315,-0.98958254,0.19805789,0.9748418,-0.102257185,0.03111267,9.758759,0.05744934,0.087387085,9.805145,-0.13900757,-0.01914978,-0.014907837,0.0,-3.791809,-30.551147,-24.130249,0,0.0,0.0,0.0,0.0
0.44909668,0.989829,-0.010812923,-0.1418508,-0.14198393,-0.012738202,-0.989787,0.008895566,0.99986035,-0.014143903,0.9736914,-0.20368828,-0.1021575,-0.120551676,-0.08001264,-0.9894772,0.19337103,0.97576076,-0.10246259,0.03590393,9.572006,-0.04309082,0.0872345,9.805145,-0.1387024,-0.025543213,-0.024505615,0.007461548,-3.791809,-30.551147,-24.130249,0,0.0,0.0,0.0,0.0
0.453460694,0.9898233,-0.010778474,-0.14189352,-0.14202595,-0.012712903,-0.9897814,0.008864453,0.9998611,-0.01411435,0.9745094,-0.19925,-0.10310584,-0.12110704,-0.080345616,-0.9893825,0.18885036,0.9766494,-0.10242814,0.026321411,9.797058,-0.06703186,0.08692932,9.805145,-0.13841248,-0.010650635,-0.0063934326,0.004272461,-3.791809,-30.551147,-24.130249,0,0.0,0.0,0.0,0.0
0.457824707,0.9866911,-0.010998553,-0.16223317,-0.16236538,-0.012431794,-0.9866523,0.0088348985,0.9998622,-0.014052126,0.9753129,-0.19485444,-0.10390636,-0.1215339,-0.080775894,-0.9892951,0.1843754,0.9775004,-0.10246319,0.01675415,9.76355,0.03829956,0.086639404,9.805145,-0.13780212,-0.007446289,-0.012786865,0.007461548,-4.3304443,-30.014038,-24.302673,0,0.0,0.0,0.0,0.0
0.462188721,0.9866836,-0.010958155,-0.16228174,-0.1624137,-0.012469539,-0.98664397,0.008788219,0.9998622,-0.014083245,0.97602725,-0.19058734,-0.10510531,-0.122345656,-0.08104043,-0.98917335,0.18000616,0.9783194,-0.102415204,-0.04069519,9.835373,-0.2106781,0.08618164,9.805145,-0.1381073,-0.003189087,0.011703491,-0.0010528564,-4.3304443,-30.014038,-24.302673,0,0.0,0.0,0.0,0.0
0.466552735,0.9866855,-0.010968305,-0.16226953,-0.16240133,-0.012436447,-0.98664635,0.008803781,0.99986243,-0.014052129,0.97670615,-0.18640864,-0.106286705,-0.1231364,-0.08124235,-0.9890587,0.17573409,0.9791075,-0.1023036,0.12689209,9.787491,-0.0909729,0.08633423,9.805145,-0.13780212,0.0138549805,-0.0010681152,-0.007446289,-4.3304443,-30.014038,-24.302673,0,0.0,0.0,0.0,0.0
0.470916748,0.9944748,-0.010262049,-0.10447167,-0.10460202,-0.013113373,-0.99442756,0.008834891,0.9998613,-0.014114353,0.9773332,-0.18242459,-0.10742998,-0.12394443,-0.08164941,-0.98892426,0.1716325,0.97982377,-0.102409184,0.15083313,9.730026,-0.2681427,0.086639404,9.805145,-0.13841248,0.018112183,-0.0021362305,0.004272461,-2.7160645,-31.626892,-22.747803,0,0.0,0.0,0.0,0.0
0.475280762,0.9944627,-0.010170779,-0.10459712,-0.10472611,-0.013106235,-0.99441475,0.008743096,0.9998623,-0.014098807,0.9780885,-0.1783347,-0.10742256,-0.12355006,-0.08190838,-0.98895216,0.16756567,0.9805548,-0.10214691,-0.14125061,9.811432,-0.08618164,0.085739136,9.805145,-0.13825989,-0.010650635,0.006378174,0.0032043457,-2.7160645,-31.626892,-22.747803,0,0.0,0.0,0.0,0.0
0.479644776,0.99446076,-0.010157176,-0.10461579,-0.104744755,-0.013123146,-0.9944125,0.008727537,0.9998623,-0.014114367,0.97881067,-0.1743284,-0.10742062,-0.12316024,-0.0821052,-0.98898447,0.16358829,0.9812586,-0.10183577,-0.06463623,9.792282,-0.07182312,0.08558655,9.805145,-0.13841248,0.014923096,0.007446289,-0.008514404,-2.7160645,-31.626892,-22.747803,0,0.0,0.0,0.0,0.0
0.484008789,0.9778819,-0.011433874,-0.20884518,-0.20897831,-0.012036278,-0.97784626,0.008666852,0.9998622,-0.0141594885,0.97950023,-0.17041041,-0.10742295,-0.122774005,-0.08223404,-0.98902184,0.15970579,0.9819358,-0.101470225,-0.04069519,9.801849,-0.16758728,0.084991455,9.805145,-0.13885498,0.01171875,0.02128601,0.009597778,-5.406189,-31.089783,-23.61145,0,0.0,0.0,0.0,0.0
0.488372803,0.9778766,-0.011413187,-0.2088712,-0.20900446,-0.012086598,-0.97784,0.008635729,0.9998618,-0.014204607,0.9799639,-0.16669643,-0.10900894,-0.12396994,-0.08211956,-0.98888206,0.15589134,0.9825826,-0.10113955,0.026321411,9.811432,-0.04788208,0.08468628,9.805145,-0.13929749,0.009597778,0.029815674,-0.004257202,-5.406189,-31.089783,-23.61145,0,0.0,0.0,0.0,0.0
0.492736817,0.9778831,-0.011438467,-0.20883942,-0.20897408,-0.012207148,-0.977845,0.008635714,0.99986005,-0.014327505,0.98033476,-0.16311488,-0.11107275,-0.1256316,-0.08180477,-0.9886984,0.15218516,0.9832098,-0.10068844,-0.03590393,9.897629,-0.42616272,0.08468628,9.805145,-0.14050293,0.019180298,0.02128601,-0.0021209717,-5.406189,-31.089783,-23.61145,0,0.0,0.0,0.0,0.0
0.49710083,0.9779014,-0.011510055,-0.20874932,-0.20888612,-0.012332641,-0.9778622,0.008680817,0.9998577,-0.014464398,0.98068017,-0.15961131,-0.11309567,-0.12725824,-0.081463136,-0.9885186,0.14856562,0.983813,-0.10020113,0.026321411,9.7827,-0.19631958,0.085128784,9.805145,-0.1418457,0.0021362305,0.039398193,0.008529663,-5.406189,-31.089783,-23.61145,0,0.0,0.0,0.0,0.0
0.501464844,0.9779061,-0.011528231,-0.20872648,-0.20886363,-0.01234487,-0.9778669,0.008696374,0.99985737,-0.014479952,0.9810008,-0.15618788,-0.11507735,-0.12884936,-0.08109091,-0.98834306,0.14503549,0.984393,-0.09967496,-0.01675415,9.7444,-0.22505188,0.08528137,9.805145,-0.14199829,0.02557373,0.036209106,0.015991211,-5.406189,-31.089783,-23.61145,0,0.0,0.0,0.0,0.0
0.505828858,0.97788787,-0.01145734,-0.20881565,-0.20895135,-0.012297178,-0.9778486,0.008635702,0.9998587,-0.014419288,0.9813469,-0.15299734,-0.116404474,-0.12979731,-0.080647655,-0.98825526,0.1418127,0.98493034,-0.09900198,-0.07899475,9.777908,-0.16279602,0.08468628,9.805145,-0.1414032,-0.0010528564,0.038330078,0.009597778,-5.406189,-31.089783,-23.61145,0,0.0,0.0,0.0,0.0
0.510192871,0.9842227,-0.011088611,-0.17658602,-0.17672142,-0.012721064,-0.9841786,0.0086668115,0.99985754,-0.014479956,0.98162204,-0.1497255,-0.118323326,-0.13133723,-0.0802119,-0.9880873,0.13845092,0.98546857,-0.09840231,-0.07421875,9.76355,-0.22984314,0.084991455,9.805145,-0.14199829,-0.015960693,0.023422241,0.0010681152,-4.3304443,-30.37262,-22.229004,0,0.0,0.0,0.0,0.0
0.514556885,0.98423094,-0.011125053,-0.17653784,-0.17667413,-0.012760782,-0.98418665,0.008696368,0.9998567,-0.014525066,0.9819627,-0.14647844,-0.119555265,-0.13220063,-0.07984268,-0.9880022,0.1351754,0.9859864,-0.09776707,0.007171631,9.864105,-0.40701294,0.08528137,9.805145,-0.1424408,0.0063934326,0.025558472,0.017044067,-4.3304443,-30.37262,-22.229004,0,0.0,0.0,0.0,0.0
0.518920899,0.98424584,-0.011190681,-0.17645106,-0.17658849,-0.012781386,-0.9842017,0.008758598,0.99985564,-0.01455617,0.9822825,-0.14330886,-0.12076205,-0.13304487,-0.07943886,-0.98792124,0.13198468,0.9864847,-0.09709792,0.007171631,9.883255,-0.5027771,0.08589172,9.805145,-0.14274597,-0.011703491,0.015960693,0.015991211,-4.3304443,-30.37262,-22.229004,0,0.0,0.0,0.0,0.0
0.523284912,0.99042475,-0.010781707,-0.13763252,-0.13777028,-0.013289798,-0.99037516,0.008848826,0.99985355,-0.014647942,0.9825772,-0.14046288,-0.121705174,-0.13360053,-0.07858675,-0.9879145,0.12920089,0.98696214,-0.09598346,0.04069519,9.76355,-0.44052124,0.08677673,9.805145,-0.14364624,-0.023406982,0.018096924,0.018096924,-3.6117554,-30.37262,-23.61145,0,0.0,0.0,0.0,0.0
0.527648926,0.9904289,-0.010807807,-0.13759959,-0.13773745,-0.01325505,-0.99038005,0.0088799475,0.9998538,-0.014616827,0.9829649,-0.1373832,-0.1220898,-0.13364202,-0.07823734,-0.9879366,0.1261739,0.9874233,-0.095264725,0.02154541,9.907196,-0.30166626,0.08708191,9.805145,-0.14334106,-0.004257202,0.0053100586,0.023422241,-3.6117554,-30.37262,-23.61145,0,0.0,0.0,0.0,0.0
0.53201294,0.99044544,-0.010908386,-0.13747273,-0.13761169,-0.013212371,-0.99039817,0.008987305,0.99985325,-0.014587255,0.9833331,-0.13438053,-0.12246612,-0.13368103,-0.077846564,-0.9879622,0.12322933,0.9878673,-0.09451323,0.007171631,9.878464,-0.32081604,0.088134766,9.805145,-0.14305115,-0.020217896,0.0053100586,0.014923096,-3.6117554,-30.37262,-23.61145,0,0.0,0.0,0.0,0.0
0.536376953,0.99044544,-0.010983597,-0.13746732,-0.13760531,-0.0129852295,-0.9904021,0.009093131,0.9998554,-0.014372561,0.98368204,-0.13146006,-0.122832805,-0.13371587,-0.07740849,-0.9879919,0.12037317,0.9882946,-0.09372365,0.026321411,9.768341,-0.11491394,0.08917236,9.805145,-0.14094543,-0.023406982,-0.027694702,0.028747559,-3.791809,-31.26831,-24.821472,0,0.0,0.0,0.0,0.0
0.540740967,0.9904526,-0.011028436,-0.13741194,-0.13754952,-0.012872713,-0.99041116,0.0091538215,0.99985623,-0.014266768,0.98390114,-0.12902758,-0.12365395,-0.13415283,-0.0760978,-0.9880345,0.1180739,0.98871684,-0.09218214,0.04548645,9.787491,-0.16279602,0.089767456,9.805145,-0.13990784,-0.046844482,-0.022369385,0.030883789,-3.791809,-31.26831,-24.821472,0,0.0,0.0,0.0,0.0
0.545104981,0.990466,-0.011111623,-0.1373092,-0.13744746,-0.012815003,-0.9904263,0.009245624,0.9998562,-0.014220087,0.9842175,-0.12625937,-0.12399414,-0.13417667,-0.075591184,-0.98807013,0.11538026,0.98911303,-0.09133923,0.04548645,9.811432,-0.1484375,0.090667725,9.805145,-0.13945007,-0.025543213,-0.0234375,0.018096924,-3.791809,-31.26831,-24.821472,0,0.0,0.0,0.0,0.0
0.549468994,0.99481887,-0.010756116,-0.10109308,-0.1012311,-0.013169894,-0.99477583,0.009368539,0.9998554,-0.014190512,0.98451746,-0.123566635,-0.12432486,-0.1341975,-0.07504738,-0.98810875,0.112767026,0.9894944,-0.09046779,0.05984497,9.849731,-0.16279602,0.09187317,9.805145,-0.13916016,-0.010650635,-0.003189087,0.022369385,-2.7160645,-30.909729,-23.439026,0,0.0,0.0,0.0,0.0
0.553833008,0.9948327,-0.010870179,-0.10094428,-0.101083376,-0.01311279,-0.99479157,0.0094899,0.9998549,-0.014143826,0.98483586,-0.1213927,-0.12394422,-0.13353926,-0.07435673,-0.98825014,0.110750265,0.9898156,-0.08943986,0.08857727,9.859314,-0.06703186,0.093063354,9.805145,-0.1387024,-0.008514404,0.0,0.031951904,-2.7160645,-30.909729,-23.439026,0,0.0,0.0,0.0,0.0
0.558197022,0.9948449,-0.010970714,-0.100813106,-0.10095311,-0.013058486,-0.99480546,0.009597259,0.9998545,-0.014098696,0.98520327,-0.11878517,-0.123550355,-0.13285163,-0.073838934,-0.9883816,0.108282246,0.99017066,-0.088527165,0.12210083,9.816223,-0.11491394,0.09411621,9.805145,-0.13825989,-0.003189087,0.010635376,0.024490356,-2.7160645,-30.909729,-23.439026,0,0.0,0.0,0.0,0.0
0.562561035,0.99496925,-0.011072021,-0.09956779,-0.099709,-0.013029136,-0.9949314,0.009718618,0.99985385,-0.014067568,0.9855542,-0.11625078,-0.12316057,-0.13217482,-0.07328584,-0.98851347,0.105889544,0.9905125,-0.087592594,0.007171631,9.926346,-0.20111084,0.0953064,9.805145,-0.13795471,-0.006378174,0.019165039,0.023422241,-2.7160645,-30.192566,-23.783875,0,0.0,0.0,0.0,0.0
0.566925049,0.99496794,-0.011061362,-0.099581175,-0.099722534,-0.013061341,-0.9949295,0.009704611,0.9998535,-0.014098682,0.98589265,-0.11378669,-0.12275261,-0.13148671,-0.07270277,-0.9886483,0.103570566,0.9908415,-0.08663858,0.07421875,9.888046,-0.2106781,0.09516907,9.805145,-0.13825989,-0.011703491,0.012771606,0.03302002,-2.7160645,-30.192566,-23.783875,0,0.0,0.0,0.0,0.0
0.571289063,0.9949739,-0.011113297,-0.09951593,-0.09965723,-0.012980166,-0.99493706,0.009765298,0.9998539,-0.014022446,0.9861884,-0.1116445,-0.12234384,-0.13081643,-0.07199054,-0.9887893,0.10158529,0.99113715,-0.08560117,0.11251831,9.854523,-0.16758728,0.09576416,9.805145,-0.1375122,-0.0053253174,0.0010681152,0.017044067,-2.7160645,-30.192566,-23.783875,0,0.0,0.0,0.0,0.0
0.575653076,0.9944253,-0.011284553,-0.10483841,-0.104980916,-0.01287845,-0.99439085,0.009871099,0.9998533,-0.013991318,0.98650026,-0.1092972,-0.121947944,-0.13015532,-0.07137788,-0.988921,0.099381916,0.99144304,-0.084639914,0.17477417,9.777908,-0.08139038,0.09680176,9.805145,-0.13720703,-0.020217896,0.025558472,0.010665894,-2.8945923,-29.296875,-24.302673,0,0.0,0.0,0.0,0.0
0.58001709,0.99442697,-0.011299791,-0.10482024,-0.10496295,-0.012877021,-0.99439275,0.009886658,0.99985325,-0.013991317,0.98678446,-0.107023716,-0.12166473,-0.12961373,-0.07072891,-0.98903877,0.097245395,0.99173754,-0.08366594,-0.03590393,9.792282,-0.11491394,0.096954346,9.805145,-0.13720703,0.0010681152,0.023422241,0.014923096,-2.8945923,-29.296875,-24.302673,0,0.0,0.0,0.0,0.0
0.584381104,0.9944325,-0.011348717,-0.10476192,-0.10490558,-0.012903718,-0.99439836,0.009933328,0.9998523,-0.014022423,0.98705685,-0.104806304,-0.12138528,-0.12908328,-0.07006909,-0.9891552,0.095164336,0.99202114,-0.08269092,0.09336853,9.696503,-0.21546936,0.09741211,9.805145,-0.1375122,0.0010681152,0.026611328,0.014923096,-2.8945923,-29.296875,-24.302673,0,0.0,0.0,0.0,0.0
0.588745117,0.98847646,-0.0120526375,-0.15089442,-0.15104176,-0.012421324,-0.98844945,0.010039113,0.9998503,-0.014098637,0.98736775,-0.10281708,-0.12055519,-0.12802094,-0.06937945,-0.9893418,0.09335718,0.99227774,-0.08166577,0.09815979,9.911987,-0.3543396,0.09844971,9.805145,-0.13825989,0.0,0.034072876,0.010665894,-3.970337,-30.014038,-23.61145,0,0.0,0.0,0.0,0.0
0.593109131,0.9884784,-0.012063963,-0.15088035,-0.15102859,-0.012496844,-0.9884504,0.010039102,0.99984914,-0.014174864,0.9874978,-0.10077294,-0.12121385,-0.12844154,-0.06860852,-0.989341,0.091382496,0.992541,-0.0806942,0.15083313,9.897629,-0.32081604,0.09844971,9.805145,-0.13900757,0.0,0.06283569,0.02130127,-3.970337,-30.014038,-23.61145,0,0.0,0.0,0.0,0.0
0.597473145,0.9884691,-0.012011612,-0.15094534,-0.15109336,-0.012549821,-0.9884398,0.009978419,0.9998491,-0.014219986,0.98762053,-0.09877473,-0.121857435,-0.12885481,-0.06784326,-0.98934,0.08945459,0.99279445,-0.079730995,-0.03111267,9.710876,-0.1819458,0.097854614,9.805145,-0.13945007,0.0021362305,0.04260254,-0.004257202,-3.970337,-30.014038,-23.61145,0,0.0,0.0,0.0,0.0
0.601837158,0.99738175,-0.010969289,-0.0714806,-0.07162565,-0.013453976,-0.997341,0.009978422,0.9998494,-0.01420443,0.98773634,-0.0968181,-0.122487724,-0.12926224,-0.06708657,-0.9893385,0.08756859,0.9930386,-0.07877876,0.03590393,9.768341,-0.10055542,0.097854614,9.805145,-0.13929749,0.009597778,0.050048828,-0.003189087,-1.9989014,-31.26831,-23.092651,0,0.0,0.0,0.0,0.0
0.606201172,0.9973771,-0.010916294,-0.071551956,-0.07169718,-0.01354909,-0.99733436,0.009917731,0.9998486,-0.014296222,0.98810947,-0.09483449,-0.121020585,-0.12758154,-0.066459954,-0.9895989,0.08580509,0.9932721,-0.07776884,0.03590393,9.830582,-0.41178894,0.09725952,9.805145,-0.14019775,-0.0010528564,0.030883789,0.0021362305,-1.9989014,-31.26831,-23.092651,0,0.0,0.0,0.0,0.0
0.610565186,0.99737686,-0.010913123,-0.071556225,-0.07170096,-0.013504049,-0.9973348,0.009917738,0.99984926,-0.014251107,0.9884114,-0.092860036,-0.12008259,-0.12643692,-0.065858446,-0.989786,0.084003106,0.9934987,-0.076836176,-0.011962891,9.739609,-0.13406372,0.09725952,9.805145,-0.13975525,-0.0010528564,0.04472351,-0.006378174,-1.9989014,-31.26831,-23.092651,0,0.0,0.0,0.0,0.0
0.614929199,0.9929264,-0.011525097,-0.118170105,-0.11831714,-0.013040404,-0.9928901,0.009902171,0.9998485,-0.01431178,0.9887017,-0.090935774,-0.119161904,-0.12531567,-0.06524626,-0.98996913,0.08224874,0.9937171,-0.07590477,0.04069519,9.787491,-0.4165802,0.09710693,9.805145,-0.14035034,-0.0095825195,0.03727722,0.0063934326,-3.2531738,-31.089783,-24.302673,0,0.0,0.0,0.0,0.0
0.619293213,0.9929268,-0.011526907,-0.11816783,-0.118315056,-0.013055878,-0.9928903,0.009902169,0.9998483,-0.014327336,0.9888646,-0.08911645,-0.11918515,-0.12514359,-0.06454936,-0.9900366,0.08053522,0.99392736,-0.074982926,0.04069519,9.888046,-0.2394104,0.09710693,9.805145,-0.14050293,-0.010650635,0.03300476,0.0021362305,-3.2531738,-31.089783,-24.302673,0,0.0,0.0,0.0,0.0
0.623657227,0.99292785,-0.011535052,-0.118157566,-0.11830429,-0.012993912,-0.99289227,0.009917735,0.99984896,-0.014266663,0.98908085,-0.08740367,-0.11865744,-0.124426186,-0.06379365,-0.99017596,0.078975424,0.9941282,-0.07397238,0.05027771,9.725235,-0.34954834,0.09725952,9.805145,-0.13990784,-0.003189087,0.034072876,0.004272461,-3.2531738,-31.089783,-24.302673,0,0.0,0.0,0.0,0.0
0.62802124,0.99247205,-0.011516505,-0.121928036,-0.122073404,-0.012895663,-0.9924373,0.009857068,0.9998506,-0.014204447,0.9892287,-0.085671894,-0.11868805,-0.1242736,-0.06309425,-0.99024,0.0773472,0.9943236,-0.0730614,0.011962891,9.753967,-0.31123352,0.09666443,9.805145,-0.13929749,-0.03086853,0.025558472,0.0063934326,-3.2531738,-30.37262,-23.61145,0,0.0,0.0,0.0,0.0
0.632385254,0.99246734,-0.0114830155,-0.12197047,-0.12211386,-0.012745769,-0.9924342,0.00984153,0.9998527,-0.014051993,0.98936105,-0.083984,-0.11879179,-0.12419987,-0.062389243,-0.9902939,0.07575752,0.9945121,-0.07215628,-0.02154541,9.725235,-0.02394104,0.09651184,9.805145,-0.13780212,-0.03086853,0.0010681152,-0.007446289,-3.2531738,-30.37262,-23.61145,0,0.0,0.0,0.0,0.0
0.636749268,0.9924563,-0.0114073055,-0.12206634,-0.12220741,-0.012616216,-0.99242425,0.009780872,0.9998553,-0.013915103,0.98948705,-0.08234014,-0.118893206,-0.12412903,-0.061676994,-0.9903474,0.07421237,0.99469393,-0.07124939,0.01675415,9.811432,-0.05265808,0.09591675,9.805145,-0.13645935,-0.022354126,0.0053100586,0.005340576,-3.2531738,-30.37262,-23.61145,0,0.0,0.0,0.0,0.0
0.641113281,0.99109155,-0.011554868,-0.13268027,-0.13282065,-0.012369224,-0.99106294,0.00981045,0.99985677,-0.013793757,0.98959553,-0.08055292,-0.11921415,-0.12424508,-0.060617324,-0.9903983,0.07255303,0.9949054,-0.069994934,0.05505371,9.801849,-0.2681427,0.096206665,9.805145,-0.13526917,-0.022354126,-0.01171875,-0.008514404,-3.6117554,-30.731201,-24.302673,0,0.0,0.0,0.0,0.0
0.645477295,0.99108046,-0.011483638,-0.1327687,-0.13290727,-0.012285298,-0.99105227,0.009749784,0.9998586,-0.013701979,0.9896833,-0.0790079,-0.11951849,-0.12438887,-0.059887245,-0.9904246,0.07109374,0.9950735,-0.06909712,0.07899475,9.773117,-0.22984314,0.09561157,9.805145,-0.1343689,-0.04045105,-0.0095825195,0.009597778,-3.6117554,-30.731201,-24.302673,0,0.0,0.0,0.0,0.0
0.649841309,0.9910718,-0.011427585,-0.1328383,-0.13297528,-0.012199532,-0.9910443,0.009704677,0.9998603,-0.013610199,0.98976654,-0.07749824,-0.119817585,-0.12453258,-0.059160165,-0.99045026,0.06966972,0.9952357,-0.0682058,0.07421875,9.849731,-0.18673706,0.09516907,9.805145,-0.13346863,-0.027679443,0.0042419434,-0.012771606,-3.6117554,-30.731201,-24.302673,0,0.0,0.0,0.0,0.0
0.654205322,0.9920681,-0.011250263,-0.12519656,-0.12533067,-0.012128177,-0.9920409,0.009642316,0.9998632,-0.013441983,0.9898525,-0.07584961,-0.1201621,-0.12468642,-0.05801974,-0.9904984,0.06815714,0.9954298,-0.0668884,0.05984497,9.773117,-0.0909729,0.094558716,9.805298,-0.13182068,-0.026611328,-0.0010681152,-0.007446289,-3.2531738,-31.806946,-22.920227,0,0.0,0.0,0.0,0.0
0.658569336,0.9920557,-0.011172257,-0.12530304,-0.12543471,-0.011983347,-0.99202967,0.009581658,0.99986583,-0.013289534,0.989946,-0.07440441,-0.12029469,-0.12467483,-0.05731617,-0.99054086,0.06680578,0.99557966,-0.06601627,-0.03590393,9.725235,-0.09576416,0.09396362,9.805298,-0.13032532,-0.031936646,0.0,-0.011703491,-3.2531738,-31.806946,-22.920227,0,0.0,0.0,0.0,0.0
0.66293335,0.9920502,-0.011138048,-0.12534975,-0.12548068,-0.011955862,-0.9920241,0.009550545,0.9998665,-0.013258423,0.9900352,-0.072993636,-0.12042579,-0.124666244,-0.056611918,-0.99058235,0.065488674,0.9957244,-0.06514763,0.007171631,9.830582,-0.0622406,0.09365845,9.805298,-0.13002014,-0.034072876,0.0010681152,-0.003189087,-3.2531738,-31.806946,-22.920227,0,0.0,0.0,0.0,0.0
0.667297363,0.99074084,-0.011220012,-0.13530259,-0.13543274,-0.01178734,-0.99071646,0.009520993,0.99986756,-0.0131977545,0.9901202,-0.07161513,-0.12055403,-0.12465942,-0.0559133,-0.9906229,0.06420302,0.9958639,-0.06428839,0.026321411,9.878464,0.0143585205,0.09336853,9.805298,-0.12942505,0.0,0.0,-0.012771606,-3.6117554,-30.014038,-23.957825,0,0.0,0.0,0.0,0.0
0.671661377,0.9907404,-0.011217936,-0.13530512,-0.1354351,-0.011771895,-0.9907162,0.009520994,0.99986774,-0.013182196,0.99018145,-0.07030189,-0.120823175,-0.12480128,-0.055237316,-0.99064296,0.062970124,0.9959952,-0.06346873,0.11251831,9.801849,-0.07182312,0.09336853,9.805298,-0.12927246,0.0021362305,0.003189087,0.0010681152,-3.6117554,-30.014038,-23.957825,0,0.0,0.0,0.0,0.0
0.676025391,0.9907384,-0.011204817,-0.13532126,-0.13545124,-0.011789236,-0.9907139,0.009505434,0.99986774,-0.013197756,0.9902344,-0.06899805,-0.12114024,-0.12499192,-0.054533932,-0.99065787,0.061747216,0.99612516,-0.06262558,0.03590393,9.830582,-0.16279602,0.09321594,9.805298,-0.12942505,-0.008514404,-0.0053253174,0.009597778,-3.6117554,-30.014038,-23.957825,0,0.0,0.0,0.0,0.0
0.680389404,0.9892808,-0.011357207,-0.1455834,-0.145714,-0.011667919,-0.989258,0.00953655,0.99986744,-0.013197752,0.99028444,-0.06772316,-0.12145054,-0.1251801,-0.053839408,-0.9906721,0.060552623,0.9962504,-0.061793923,0.17477417,9.830582,-0.13406372,0.09352112,9.805298,-0.12942505,0.004272461,-0.007461548,0.007461548,-3.791809,-29.833984,-23.439026,0,0.0,0.0,0.0,0.0
0.684753418,0.9892797,-0.011350731,-0.14559147,-0.14572155,-0.011623195,-0.9892574,0.009536556,0.99986804,-0.013152637,0.9903055,-0.06649113,-0.12195894,-0.12557036,-0.053136613,-0.99066067,0.05938966,0.99637115,-0.060970794,0.08378601,9.816223,-0.0335083,0.09352112,9.805298,-0.12898254,-0.0053253174,-0.0010681152,0.0032043457,-3.791809,-29.833984,-23.439026,0,0.0,0.0,0.0,0.0
0.689117432,0.9892891,-0.011405663,-0.14552307,-0.14565454,-0.011692813,-0.9892664,0.0095816655,0.99986655,-0.01322886,0.99030995,-0.0653035,-0.12256196,-0.12605914,-0.052420236,-0.9906367,0.058267314,0.9964876,-0.06014439,0.05984497,9.821014,-0.30166626,0.09396362,9.805298,-0.12973022,-0.0010528564,-0.0063934326,0.0010681152,-3.791809,-29.833984,-23.439026,0,0.0,0.0,0.0,0.0
0.693481445,0.9891201,-0.011365816,-0.14667064,-0.14680193,-0.011733116,-0.98909634,0.009520982,0.99986655,-0.013273983,0.9903269,-0.06412886,-0.123045236,-0.12643242,-0.051733956,-0.99062526,0.05716205,0.99659973,-0.05934149,-0.06942749,9.701294,-0.26335144,0.09336853,9.805298,-0.13017273,0.0,-0.03302002,0.0138549805,-3.791809,-31.985474,-23.092651,0,0.0,0.0,0.0,0.0
0.697845459,0.98911154,-0.011320374,-0.14673217,-0.14686292,-0.011739271,-0.9890873,0.009474308,0.9998671,-0.01327399,0.99033904,-0.06297791,-0.12354082,-0.12682176,-0.05106063,-0.9906105,0.056078505,0.99670786,-0.058554307,-0.002380371,9.864105,-0.1197052,0.09291077,9.805298,-0.13017273,-0.006378174,-0.014907837,0.0032043457,-3.791809,-31.985474,-23.092651,0,0.0,0.0,0.0,0.0
0.702209473,0.9891106,-0.011315728,-0.14673842,-0.1468697,-0.011802805,-0.9890853,0.009460297,0.99986625,-0.013336218,0.9903493,-0.061850633,-0.124027014,-0.12720531,-0.05039787,-0.9905952,0.055018242,0.9968122,-0.057779226,0.02154541,9.758759,-0.27772522,0.09277344,9.805298,-0.13078308,0.009597778,-0.017044067,-0.012771606,-3.791809,-31.985474,-23.092651,0,0.0,0.0,0.0,0.0
0.706573486,0.9890978,-0.011248033,-0.1468301,-0.1469591,-0.01165629,-0.9890739,0.009413642,0.9998688,-0.013182211,0.9903233,-0.06089791,-0.12470418,-0.12779692,-0.04983382,-0.9905476,0.05410779,0.9968992,-0.05713416,-0.05027771,9.797058,-0.06703186,0.092315674,9.805298,-0.12927246,0.0063934326,-0.012786865,0.008529663,-3.791809,-31.985474,-23.092651,0,0.0,0.0,0.0,0.0
0.7109375,0.9890902,-0.011208227,-0.14688398,-0.14701179,-0.011584628,-0.9890669,0.00938409,0.99987006,-0.013105984,0.9903307,-0.059817214,-0.12516785,-0.1281642,-0.049184438,-0.9905326,0.05309459,0.9969969,-0.05637528,-0.06942749,9.82579,-0.19631958,0.09202576,9.805298,-0.12852478,-0.027679443,-0.008514404,0.0032043457,-3.791809,-31.985474,-23.092651,0,0.0,0.0,0.0,0.0
0.715301514,0.98908824,-0.011197578,-0.14689842,-0.1470264,-0.011617531,-0.98906446,0.009368529,0.9998699,-0.013137102,0.99033636,-0.05876132,-0.12562233,-0.12852544,-0.04854072,-0.9905175,0.05210632,0.99709123,-0.055623963,0.03590393,9.859314,-0.19152832,0.09187317,9.805298,-0.12882996,-0.023406982,-0.003189087,0.0063934326,-3.791809,-31.985474,-23.092651,0,0.0,0.0,0.0,0.0
0.719665527,0.9926341,-0.010886068,-0.12066061,-0.120787926,-0.0119099235,-0.99260694,0.009368529,0.9998699,-0.013137102,0.9903406,-0.05772779,-0.12606719,-0.12888038,-0.047907576,-0.99050224,0.051139932,0.9971822,-0.0548848,0.11251831,9.801849,-0.33517456,0.09187317,9.805298,-0.12882996,0.009597778,-0.0138549805,0.009597778,-3.2531738,-31.089783,-23.957825,0,0.0,0.0,0.0,0.0
0.724029541,0.99264103,-0.010933882,-0.1205995,-0.12072769,-0.011936026,-0.992614,0.009413644,0.99986905,-0.01316821,0.9903631,-0.056661554,-0.12637353,-0.12908614,-0.047072656,-0.9905155,0.05017541,0.9972831,-0.053933244,0.08857727,9.8736725,-0.22505188,0.092315674,9.805298,-0.12913513,-0.014892578,-0.0234375,0.0,-3.2531738,-31.089783,-23.957825,0,0.0,0.0,0.0,0.0
0.728393555,0.99263936,-0.010922181,-0.12061446,-0.120742775,-0.011967081,-0.9926117,0.009398081,0.99986875,-0.013197769,0.99043274,-0.055652767,-0.1262764,-0.1289058,-0.046490945,-0.99056643,0.049257055,0.9973672,-0.05322012,0.04069519,9.758759,-0.3543396,0.092163086,9.805298,-0.12942505,-0.0021209717,-0.028762817,0.01171875,-3.2531738,-31.089783,-23.957825,0,0.0,0.0,0.0,0.0
0.732757569,0.99550235,-0.010635006,-0.094139,-0.09426741,-0.012297213,-0.99547106,0.009429193,0.99986786,-0.013244437,0.99049985,-0.05466598,-0.1261808,-0.12872979,-0.045917887,-0.990616,0.04835904,0.9974483,-0.052518807,0.06942749,9.667786,-0.16758728,0.09246826,9.805298,-0.12988281,-0.014892578,-0.027694702,-0.0010528564,-2.5360107,-31.448364,-23.265076,0,0.0,0.0,0.0,0.0
0.737121582,0.9955063,-0.010669259,-0.09409313,-0.094220944,-0.012186584,-0.9954768,0.009474325,0.9998688,-0.013137087,0.9906329,-0.0536788,-0.12555853,-0.12803,-0.0453808,-0.9907315,0.047483332,0.9975265,-0.051828217,0.14125061,9.926346,-0.21546936,0.09291077,9.805298,-0.12882996,0.008529663,-0.040481567,0.009597778,-2.5360107,-31.448364,-23.265076,0,0.0,0.0,0.0,0.0
0.741485596,0.9954995,-0.010611262,-0.09417079,-0.09429803,-0.012206968,-0.99546915,0.009413646,0.99986917,-0.013152652,0.99067837,-0.052735414,-0.12560019,-0.12797216,-0.044297572,-0.990788,0.04668583,0.9976255,-0.05063331,0.007171631,9.859314,-0.13406372,0.092315674,9.805298,-0.12898254,-0.03300476,-0.038345337,0.005340576,-2.5360107,-31.448364,-23.265076,0,0.0,0.0,0.0,0.0
0.74584961,0.9907313,-0.011018483,-0.13538872,-0.13551503,-0.011660223,-0.99070674,0.009337423,0.9998714,-0.013045318,0.9908054,-0.051792644,-0.124988765,-0.12728927,-0.043782976,-0.99089885,0.045848887,0.99769765,-0.049973056,0.05505371,9.840164,-0.19631958,0.09156799,9.805298,-0.12792969,0.0032043457,-0.050064087,-0.004257202,-3.6117554,-30.37262,-23.957825,0,0.0,0.0,0.0,0.0
0.750213623,0.9907364,-0.011050946,-0.13534832,-0.13547517,-0.011671865,-0.990712,0.009368538,0.99987084,-0.0130608715,0.99082327,-0.050905958,-0.12521118,-0.12744227,-0.043229133,-0.9909035,0.04503012,0.99776745,-0.049320005,0.16040039,9.720444,-0.25856018,0.09187317,9.805298,-0.12808228,-0.028747559,-0.06071472,-0.014907837,-3.6117554,-30.37262,-23.957825,0,0.0,0.0,0.0,0.0
0.754577637,0.99073166,-0.01102056,-0.13538612,-0.13551262,-0.011675665,-0.99070686,0.0093374215,0.99987113,-0.013060875,0.99083996,-0.050040822,-0.1254279,-0.12759212,-0.04268202,-0.9909079,0.044232327,0.99783474,-0.04867587,0.011962891,9.806641,-0.15800476,0.09156799,9.805298,-0.12808228,-0.006378174,-0.031951904,-0.0010528564,-3.6117554,-30.37262,-23.957825,0,0.0,0.0,0.0,0.0
0.758941651,0.99336815,-0.01072721,-0.11447589,-0.11460129,-0.011910518,-0.99334013,0.009292301,0.9998715,-0.01306088,0.9908061,-0.049202353,-0.1260258,-0.12812263,-0.042072974,-0.9908655,0.043450635,0.9979023,-0.04799009,0.026321411,9.758759,-0.10055542,0.09112549,9.805298,-0.12808228,-0.004257202,-0.0234375,0.0010681152,-3.074646,-30.909729,-23.783875,0,0.0,0.0,0.0,0.0
0.763305664,0.99336624,-0.010713741,-0.114493154,-0.11461853,-0.011927569,-0.99333787,0.00927674,0.99987143,-0.013076439,0.9908754,-0.04835507,-0.12580812,-0.12784266,-0.041566897,-0.990923,0.042686697,0.9979649,-0.047369458,0.04548645,9.749176,-0.15322876,0.0909729,9.805298,-0.12823486,0.0032043457,-0.031951904,-0.004257202,-3.074646,-30.909729,-23.783875,0,0.0,0.0,0.0,0.0
0.767669678,0.9933665,-0.010715496,-0.114490904,-0.11461645,-0.011943048,-0.993338,0.009276738,0.99987125,-0.013091995,0.99094266,-0.047526244,-0.12559453,-0.12756878,-0.041067977,-0.9909792,0.0419396,0.9980254,-0.04675887,0.07899475,9.787491,-0.19152832,0.0909729,9.805298,-0.12838745,0.0032043457,-0.0063934326,0.0010681152,-3.074646,-30.909729,-23.783875,0,0.0,0.0,0.0,0.0
0.772033692,0.98996574,-0.01102039,-0.14087734,-0.14100392,-0.011700603,-0.9899399,0.009261175,0.99987084,-0.013137114,0.9910302,-0.046757247,-0.1251916,-0.12711152,-0.040622987,-0.9910562,0.041253403,0.9980799,-0.04620199,0.05505371,9.706085,-0.2106781,0.09082031,9.805298,-0.12882996,0.0032043457,0.011703491,0.0021362305,-3.6117554,-31.448364,-22.920227,0,0.0,0.0,0.0,0.0
0.776397705,0.9899589,-0.010982677,-0.140928,-0.14105456,-0.011751072,-0.98993206,0.00921605,0.99987066,-0.013182235,0.9910251,-0.045985665,-0.12551698,-0.12738055,-0.040114332,-0.9910424,0.040538713,0.99813634,-0.045611992,0.09815979,9.830582,-0.15322876,0.09037781,9.805298,-0.12927246,-0.013824463,0.015960693,0.008529663,-3.6117554,-31.448364,-22.920227,0,0.0,0.0,0.0,0.0
0.780761719,0.98993814,-0.010867474,-0.14108281,-0.14120726,-0.011689065,-0.9899111,0.009108705,0.9998726,-0.013106017,0.9910195,-0.0452284,-0.1258362,-0.12764531,-0.03961632,-0.9910283,0.039837465,0.9981908,-0.04503374,-0.002380371,9.749176,-0.028717041,0.08932495,9.805298,-0.12852478,0.009597778,0.030883789,-0.011703491,-3.6117554,-31.448364,-22.920227,0,0.0,0.0,0.0,0.0
0.785125733,0.9908613,-0.010830028,-0.13444957,-0.13457504,-0.011832932,-0.99083287,0.009139814,0.9998714,-0.013182244,0.99101305,-0.044484664,-0.12615177,-0.12790823,-0.03912626,-0.99101394,0.039149076,0.9982436,-0.04446459,0.17955017,9.811432,-0.33039856,0.08963013,9.805298,-0.12927246,-0.007446289,0.025558472,-0.018096924,-3.791809,-30.192566,-25.512695,0,0.0,0.0,0.0,0.0
0.789489746,0.9908554,-0.010790599,-0.13449535,-0.13462077,-0.011884964,-0.99082583,0.009093133,0.99987113,-0.013228921,0.9910703,-0.04374721,-0.12595987,-0.12766859,-0.038739294,-0.9910601,0.03847651,0.99829125,-0.043978505,-0.007171631,9.749176,-0.24899292,0.08917236,9.805298,-0.12973022,0.005340576,0.022354126,-0.0010528564,-3.791809,-30.192566,-25.512695,0,0.0,0.0,0.0,0.0
0.79385376,0.99085695,-0.010800711,-0.1344836,-0.13460985,-0.011960626,-0.99082655,0.009093124,0.9998702,-0.013305151,0.99107873,-0.043030147,-0.1261405,-0.1277999,-0.038271796,-0.9910613,0.037817888,0.9983405,-0.04342961,0.05984497,9.8688965,-0.3256073,0.08917236,9.805298,-0.1304779,-0.007446289,0.007446289,0.0021362305,-3.791809,-30.192566,-25.512695,0,0.0,0.0,0.0,0.0
0.798217774,0.99329233,-0.010572515,-0.115145326,-0.11527159,-0.012229139,-0.9932587,0.009093116,0.99986935,-0.013365823,0.9910865,-0.042327963,-0.12631667,-0.12792847,-0.03781342,-0.9910623,0.03717318,0.99838793,-0.042891324,0.09815979,9.830582,-0.27772522,0.08917236,9.805298,-0.131073,-0.0010528564,-0.0010681152,0.004272461,-3.074646,-29.833984,-23.783875,0,0.0,0.0,0.0,0.0
0.802581787,0.9932897,-0.010552241,-0.11517041,-0.11529711,-0.0123080015,-0.9932548,0.009063546,0.9998685,-0.013442054,0.99114347,-0.041626994,-0.12610245,-0.12766844,-0.037380476,-0.99111223,0.036543254,0.9984337,-0.042363867,0.03111267,9.907196,-0.33996582,0.08888245,9.805298,-0.13182068,-0.008514404,-0.012786865,0.007461548,-3.074646,-29.833984,-23.783875,0,0.0,0.0,0.0,0.0
0.806945801,0.99328774,-0.010537018,-0.115189254,-0.11531577,-0.0123096,-0.99325275,0.009047988,0.99986875,-0.013442057,0.9911567,-0.040930867,-0.12622541,-0.12774423,-0.036887873,-0.99112093,0.03591125,0.9984808,-0.041790348,0.02154541,9.773117,-0.11012268,0.08872986,9.805298,-0.13182068,-0.004257202,-0.020233154,0.0,-3.074646,-29.833984,-23.783875,0,0.0,0.0,0.0,0.0
0.811309815,0.9927655,-0.010610753,-0.11959934,-0.11972654,-0.012291703,-0.99273074,0.009063542,0.99986815,-0.013473169,0.9912113,-0.040259622,-0.12601325,-0.12748927,-0.036472104,-0.9911692,0.035308126,0.99852335,-0.04128423,0.12210083,9.849731,-0.2106781,0.08888245,9.805298,-0.13212585,-0.018081665,-0.0138549805,-0.0021209717,-3.074646,-31.26831,-22.747803,0,0.0,0.0,0.0,0.0
0.815673828,0.9927704,-0.010642189,-0.11955678,-0.11968338,-0.012180187,-0.9927374,0.009108675,0.99986917,-0.013365821,0.9912529,-0.039607696,-0.12589282,-0.12732744,-0.03605872,-0.9912051,0.034719817,0.9985645,-0.040786464,0.05505371,9.725235,-0.19631958,0.08932495,9.805298,-0.131073,-0.018081665,-0.007461548,0.0010681152,-3.074646,-31.26831,-22.747803,0,0.0,0.0,0.0,0.0
0.820037842,0.9927672,-0.010621686,-0.119584545,-0.119710475,-0.012136964,-0.9927346,0.009093122,0.9998699,-0.013320707,0.9912931,-0.038973708,-0.12577397,-0.12716872,-0.03564461,-0.9912405,0.03414915,0.9986043,-0.04029049,0.11730957,9.696503,-0.08139038,0.08917236,9.805298,-0.1306305,-0.028747559,-0.01171875,0.014923096,-3.074646,-31.26831,-22.747803,0,0.0,0.0,0.0,0.0
0.824401856,0.98491865,-0.011215036,-0.17265402,-0.17278032,-0.011479875,-0.9848935,0.00906357,0.99987125,-0.013244482,0.99128747,-0.03824024,-0.12604314,-0.12739208,-0.03516146,-0.99122906,0.033472974,0.9986498,-0.03972662,-0.011962891,9.773117,-0.18673706,0.08888245,9.805298,-0.12988281,-0.0053253174,-0.0234375,-0.006378174,-4.508972,-29.833984,-23.783875,0,0.0,0.0,0.0,0.0
0.829223633,0.98491824,-0.011212905,-0.17265663,-0.1727836,-0.0115576135,-0.98489195,0.009048001,0.9998703,-0.013320711,0.9911889,-0.037674695,-0.1269849,-0.12829661,-0.034716047,-0.99112797,0.032932036,0.99868685,-0.039243698,0.03111267,9.859314,-0.31602478,0.08872986,9.805298,-0.1306305,-0.022354126,-0.008514404,0.0010681152,-4.508972,-29.833984,-23.783875,0,0.0,0.0,0.0,0.0
0.83404541,0.98491526,-0.011197796,-0.172675,-0.1728018,-0.011560099,-0.98488885,0.009032443,0.9998705,-0.013320715,0.99109125,-0.037120033,-0.12790728,-0.12918305,-0.03428189,-0.991028,0.03240209,0.9987226,-0.03877176,0.08378601,9.797058,-0.1197052,0.08857727,9.805298,-0.1306305,-0.015960693,-0.008514404,-0.0010528564,-4.508972,-29.833984,-23.783875,0,0.0,0.0,0.0,0.0
0.838897705,0.9951974,-0.010245145,-0.097350866,-0.09747504,-0.012411239,-0.9951606,0.008987321,0.9998705,-0.013350278,0.99099433,-0.03657683,-0.12881151,-0.1300526,-0.033855725,-0.99092895,0.031884033,0.9987572,-0.03830774,-0.03111267,9.883255,-0.21546936,0.088134766,9.805298,-0.13092041,-0.022354126,0.0042419434,-0.0010528564,-2.7160645,-31.26831,-24.475098,0,0.0,0.0,0.0,0.0
0.843719483,0.99519587,-0.010231392,-0.097368255,-0.09749238,-0.01242806,-0.9951586,0.008971759,0.99987036,-0.013365836,0.9910904,-0.035915166,-0.1282573,-0.12946427,-0.033573586,-0.99101555,0.03128643,0.99879074,-0.03792419,0.04548645,9.821014,-0.17237854,0.08798218,9.805298,-0.131073,0.004272461,-0.004257202,-0.0053253174,-2.7160645,-31.26831,-24.475098,0,0.0,0.0,0.0,0.0
0.848571777,0.9951995,-0.01026334,-0.09732786,-0.097452685,-0.012456556,-0.99516225,0.009001317,0.99986976,-0.013396948,0.99118966,-0.03534579,-0.12764707,-0.12882143,-0.0332144,-0.9911115,0.030791894,0.99882305,-0.037475064,0.15560913,9.753967,-0.22505188,0.088272095,9.805298,-0.13137817,-0.017028809,-0.0095825195,-0.010650635,-2.7160645,-31.26831,-24.475098,0,0.0,0.0,0.0,0.0
0.853393555,0.9924868,-0.010500525,-0.121900365,-0.12202469,-0.012146216,-0.9924527,0.008940646,0.9998711,-0.013336282,0.9912862,-0.03479081,-0.12704837,-0.12819117,-0.032860085,-0.991205,0.030310003,0.9988543,-0.03703362,-0.01675415,9.844955,-0.23461914,0.087677,9.805298,-0.13078308,0.0,-0.0021362305,-0.003189087,-3.074646,-30.551147,-22.401428,0,0.0,0.0,0.0,0.0
0.85824585,0.9924848,-0.010488081,-0.12191708,-0.12204247,-0.012285522,-0.9924487,0.008911069,0.99986947,-0.013473187,0.9913267,-0.034126196,-0.12691239,-0.12800878,-0.032123778,-0.99125266,0.029750777,0.9989011,-0.03621361,0.026321411,9.840164,-0.48840332,0.087387085,9.805298,-0.13212585,-0.023406982,0.003189087,-0.0053253174,-3.074646,-30.551147,-22.401428,0,0.0,0.0,0.0,0.0
0.863067627,0.9924808,-0.010461247,-0.121953115,-0.12207844,-0.012318282,-0.9924441,0.008879948,0.9998694,-0.01350275,0.9913564,-0.03361004,-0.12681785,-0.12788537,-0.031776357,-0.9912797,0.02928714,0.99892974,-0.035799928,-0.026321411,9.76355,-0.19631958,0.08708191,9.805298,-0.13241577,-0.017028809,0.0042419434,-0.004257202,-3.074646,-30.551147,-22.401428,0,0.0,0.0,0.0,0.0
0.867919922,0.99438214,-0.010226307,-0.10535455,-0.105479166,-0.012525571,-0.9943425,0.008848826,0.99986917,-0.013533866,0.9913852,-0.03310428,-0.1267257,-0.12776536,-0.031435624,-0.99130607,0.028832769,0.9989574,-0.035394393,0.03590393,9.792282,-0.22984314,0.08677673,9.805298,-0.13272095,0.005340576,-0.0053253174,-0.0021209717,-2.8945923,-31.089783,-24.302673,0,0.0,0.0,0.0,0.0
0.872741699,0.99438775,-0.010271424,-0.10529749,-0.105421335,-0.012367988,-0.9943508,0.00891108,0.9998708,-0.013381402,0.9914757,-0.032575674,-0.1261535,-0.1271604,-0.03093993,-0.9913995,0.028392328,0.99899024,-0.034818526,0.06463623,9.753967,-0.07661438,0.087387085,9.805298,-0.13122559,-0.010650635,0.009567261,0.0,-2.8945923,-31.089783,-24.302673,0,0.0,0.0,0.0,0.0
0.877593994,0.99438155,-0.010221043,-0.10536121,-0.10548401,-0.012327398,-0.99434465,0.00886441,0.9998718,-0.0133362925,0.991544,-0.03208569,-0.12574172,-0.1267226,-0.030619012,-0.9914655,0.02796177,0.999016,-0.03442608,0.002380371,9.739609,-0.02394104,0.08692932,9.805298,-0.13078308,-0.03086853,-0.004257202,0.012786865,-2.8945923,-31.089783,-24.302673,0,0.0,0.0,0.0,0.0
0.882415772,0.9830358,-0.011136207,-0.18307547,-0.18320094,-0.011536962,-0.98300785,0.008834843,0.99987143,-0.01338141,0.99161035,-0.03160565,-0.12533939,-0.126295,-0.030301964,-0.99152976,0.027539913,0.99904096,-0.03403938,-0.002380371,9.806641,-0.22984314,0.086639404,9.805298,-0.13122559,-0.013824463,-0.007461548,0.004272461,-4.689026,-31.448364,-23.265076,0,0.0,0.0,0.0,0.0
0.887268067,0.9830313,-0.011116844,-0.18310073,-0.18322504,-0.011431155,-0.98300457,0.008834856,0.9998729,-0.013274067,0.99147606,-0.031182282,-0.1265026,-0.12743399,-0.029942453,-0.991395,0.027126161,0.9990651,-0.033660907,-0.04069519,9.830582,-0.009567261,0.086639404,9.805298,-0.13017273,-0.014892578,-0.010650635,0.004272461,-4.689026,-31.448364,-23.265076,0,0.0,0.0,0.0,0.0
0.891906738,0.9830256,-0.011092323,-0.18313274,-0.183257,-0.011467085,-0.9829981,0.008803735,0.9998727,-0.013305184,0.9912977,-0.03089346,-0.12796262,-0.12886795,-0.029342128,-0.99122757,0.026867755,0.9990919,-0.033067964,0.007171631,9.758759,-0.23461914,0.08633423,9.805298,-0.1304779,-0.013824463,-0.019180298,0.009597778,-4.689026,-31.448364,-23.265076,0,0.0,0.0,0.0,0.0
0.89654541,0.9901164,-0.010554903,-0.13985004,-0.13997215,-0.011884583,-0.99008405,0.008788182,0.99987364,-0.013244513,0.99116635,-0.030482277,-0.12907407,-0.12995678,-0.029000748,-0.9910955,0.026467603,0.9991145,-0.03270594,0.08378601,9.739609,-0.19152832,0.08618164,9.805298,-0.12988281,-0.011703491,-0.014907837,0.0,-3.4332275,-29.833984,-22.055054,0,0.0,0.0,0.0,0.0
0.901184082,0.9901102,-0.010519282,-0.13989726,-0.14001949,-0.011950477,-0.9900767,0.008743056,0.9998733,-0.013305192,0.99115086,-0.03005482,-0.12929353,-0.13015416,-0.028690519,-0.9910786,0.026077189,0.9991364,-0.032348387,-0.01675415,9.686935,-0.31123352,0.085739136,9.805298,-0.1304779,-0.02128601,-0.024505615,-0.003189087,-3.4332275,-29.833984,-22.055054,0,0.0,0.0,0.0,0.0
0.904937744,0.99011105,-0.010523948,-0.13989106,-0.14001268,-0.011872887,-0.9900786,0.008758624,0.9998742,-0.01322896,0.99113524,-0.029635273,-0.12950951,-0.13034874,-0.028388545,-0.9910617,0.025693798,0.99915755,-0.031999808,0.007171631,9.840164,-0.19152832,0.08589172,9.805298,-0.12973022,-0.003189087,0.0,0.010665894,-3.4332275,-29.833984,-22.055054,0,0.0,0.0,0.0,0.0
0.908691406,0.98701537,-0.010751043,-0.16026592,-0.160388,-0.011655973,-0.9869852,0.0087430645,0.99987423,-0.013228961,0.99107474,-0.029315751,-0.13004398,-0.13085568,-0.027709372,-0.9910141,0.025448885,0.99918604,-0.031298194,0.05984497,9.749176,-0.11012268,0.085739136,9.805298,-0.12973022,-0.022354126,-0.019180298,0.008529663,-4.1503906,-31.626892,-23.439026,0,0.0,0.0,0.0,0.0
0.912445069,0.98702073,-0.0107779605,-0.16023055,-0.16035199,-0.011543166,-0.9869923,0.008788197,0.99987525,-0.013121612,0.99100626,-0.028922861,-0.13065276,-0.1314447,-0.027413169,-0.9909444,0.02507934,0.99920565,-0.030968376,0.12689209,9.816223,-0.08618164,0.08618164,9.805298,-0.12867737,-0.011703491,-0.0138549805,-0.0010528564,-4.1503906,-31.626892,-23.439026,0,0.0,0.0,0.0,0.0
0.916198731,0.9870229,-0.010788422,-0.16021681,-0.16033812,-0.011511644,-0.986995,0.00880376,0.99987555,-0.013092052,0.99093854,-0.028541185,-0.1312486,-0.13202137,-0.027117655,-0.99087584,0.024721617,0.9992247,-0.030639976,0.04548645,9.811432,-0.22026062,0.08633423,9.805298,-0.12838745,-0.02128601,-0.0138549805,0.0063934326,-4.1503906,-31.626892,-23.439026,0,0.0,0.0,0.0,0.0
0.919952393,0.9870184,-0.010765929,-0.16024637,-0.16036698,-0.011467755,-0.98699087,0.008788206,0.99987626,-0.013045383,0.9908717,-0.028168041,-0.13183197,-0.13258615,-0.026825346,-0.99080837,0.024372693,0.9992432,-0.03031517,-0.06463623,9.76355,-0.20111084,0.08618164,9.805298,-0.12792969,-0.012756348,-0.024505615,0.007461548,-4.1503906,-31.626892,-23.439026,0,0.0,0.0,0.0,0.0
0.923706055,0.9870075,-0.010712477,-0.16031659,-0.16043605,-0.011414347,-0.9869802,0.008743092,0.99987745,-0.012984714,0.99076426,-0.02792324,-0.13268924,-0.13342223,-0.026259288,-0.99071133,0.024179544,0.9992651,-0.029742343,-0.01675415,9.749176,-0.11491394,0.085739136,9.805298,-0.1273346,-0.015960693,-0.017044067,0.009597778,-4.1503906,-31.626892,-23.439026,0,0.0,0.0,0.0,0.0
0.927459717,0.9870059,-0.0107044745,-0.16032708,-0.16044682,-0.011461262,-0.9869779,0.008727529,0.999877,-0.013029831,0.99069977,-0.027561063,-0.13324538,-0.13396102,-0.025983606,-0.9906459,0.02384106,0.99928236,-0.02943406,0.05505371,9.758759,-0.22984314,0.08558655,9.805298,-0.1277771,-0.012756348,-0.026626587,-0.0021209717,-4.1503906,-31.626892,-23.439026,0,0.0,0.0,0.0,0.0
0.931213379,0.9942311,-0.0100439,-0.10678882,-0.10690699,-0.012072391,-0.9941958,0.008696407,0.9998767,-0.0130765075,0.9906361,-0.027205598,-0.13379058,-0.13448939,-0.025713913,-0.9905814,0.023509078,0.9992991,-0.029131994,-0.026321411,9.801849,-0.24420166,0.08528137,9.805298,-0.12823486,-0.0010528564,-0.014907837,0.007461548,-2.8945923,-31.806946,-23.957825,0,0.0,0.0,0.0,0.0
0.934967041,0.9942312,-0.010045535,-0.10678667,-0.106905,-0.012087879,-0.9941958,0.008696404,0.9998765,-0.013092064,0.9907186,-0.026828362,-0.1332545,-0.13393691,-0.025479177,-0.9906623,0.023182632,0.99931526,-0.028836004,0.10293579,9.8688965,-0.18673706,0.08528137,9.805298,-0.12838745,-0.012756348,-0.010650635,-0.0021209717,-2.8945923,-31.806946,-23.957825,0,0.0,0.0,0.0,0.0
0.938812256,0.99423057,-0.01004063,-0.106793106,-0.10691096,-0.012041411,-0.9941957,0.00869641,0.9998771,-0.013045393,0.99079907,-0.026461007,-0.13272893,-0.13339552,-0.025249124,-0.99074113,0.02286472,0.99933094,-0.028546588,0.10293579,9.816223,-0.10533142,0.08528137,9.805298,-0.12792969,-0.004257202,-0.018112183,0.0021362305,-2.8945923,-31.806946,-23.957825,0,0.0,0.0,0.0,0.0
0.943115235,0.99050874,-0.01044929,-0.13705212,-0.13717154,-0.011723313,-0.990478,0.008743086,0.9998767,-0.013045388,0.99082696,-0.026065644,-0.13259897,-0.13324597,-0.024884148,-0.9907705,0.02252546,0.9993505,-0.028129028,0.14125061,9.696503,-0.04788208,0.085739136,9.805298,-0.12792969,-0.008514404,-0.0234375,-0.0010528564,-3.4332275,-31.626892,-22.401428,0,0.0,0.0,0.0,0.0
0.947387695,0.990516,-0.010489282,-0.13699678,-0.1371164,-0.011688426,-0.9904861,0.008788209,0.9998767,-0.013015824,0.99082357,-0.025731524,-0.13269046,-0.13332278,-0.024644554,-0.9907663,0.022223828,0.9993651,-0.027849,0.05984497,9.715668,-0.19152832,0.08618164,9.805298,-0.12763977,0.007461548,-0.03302002,0.004272461,-3.4332275,-31.626892,-22.401428,0,0.0,0.0,0.0,0.0
0.951690674,0.9905223,-0.010524503,-0.13694802,-0.13706739,-0.0116070295,-0.9904938,0.008834895,0.9998773,-0.012939588,0.99082005,-0.025406424,-0.13277885,-0.13339692,-0.024406936,-0.9907621,0.021930998,0.9993792,-0.027572019,0.14125061,9.715668,-0.07661438,0.086639404,9.805298,-0.12689209,-0.012756348,-0.0138549805,0.0138549805,-3.4332275,-31.626892,-22.401428,0,0.0,0.0,0.0,0.0
0.956054688,0.9962463,-0.009930813,-0.085992545,-0.08611061,-0.012144025,-0.9962116,0.008848896,0.999877,-0.012953589,0.9908166,-0.025090976,-0.13286433,-0.1334686,-0.024170509,-0.9907583,0.021647694,0.9993929,-0.027297398,0.14125061,9.840164,-0.11491394,0.08677673,9.805298,-0.12702942,-0.012756348,-0.028762817,0.004272461,-2.357483,-30.551147,-23.783875,0,0.0,0.0,0.0,0.0
0.960449219,0.9962517,-0.009984376,-0.085924275,-0.08604381,-0.012232127,-0.9962163,0.00889556,0.9998753,-0.01304537,0.9908972,-0.024733715,-0.13232931,-0.13292104,-0.024037398,-0.9908351,0.02132618,0.999405,-0.02710622,0.15560913,9.749176,-0.07182312,0.0872345,9.805298,-0.12792969,0.004272461,-0.024505615,-0.0021209717,-2.357483,-30.551147,-23.783875,0,0.0,0.0,0.0,0.0
0.965118408,0.9962487,-0.009955166,-0.085961506,-0.08608081,-0.0122499345,-0.99621284,0.008864442,0.99987537,-0.01306093,0.991028,-0.024411233,-0.13140577,-0.1319845,-0.023833519,-0.9909651,0.02105882,0.99941784,-0.02684159,-0.002380371,9.821014,-0.15322876,0.08692932,9.805298,-0.12808228,0.02557373,-0.0095825195,0.0032043457,-2.357483,-30.551147,-23.783875,0,0.0,0.0,0.0,0.0
0.969787598,0.9920899,-0.010440952,-0.12509403,-0.12521562,-0.011939791,-0.9920577,0.008864431,0.9998742,-0.013152718,0.99115527,-0.02409508,-0.13050151,-0.13106763,-0.023633292,-0.9910917,0.020796252,0.9994303,-0.026582347,0.12210083,9.821014,-0.14364624,0.08692932,9.805298,-0.12898254,0.0021362305,-0.008514404,-0.004257202,-3.2531738,-30.37262,-23.265076,0,0.0,0.0,0.0,0.0
0.974456787,0.9920789,-0.01036838,-0.12518723,-0.12530808,-0.011963807,-0.9920457,0.008788192,0.99987465,-0.013168284,0.9911332,-0.023832995,-0.13071677,-0.13127872,-0.02376648,-0.9910606,0.020513264,0.9994334,-0.026684513,-0.12689209,9.835373,-0.16758728,0.08618164,9.805298,-0.12913513,0.021316528,-0.020233154,-0.0010528564,-3.2531738,-30.37262,-23.265076,0,0.0,0.0,0.0,0.0
0.979125977,0.99207515,-0.010343143,-0.12521963,-0.12534043,-0.011996502,-0.9920413,0.008758627,0.99987453,-0.013197846,0.9911543,-0.023546696,-0.1306082,-0.13115817,-0.023549367,-0.99108166,0.020260956,0.9994453,-0.0264294,0.011962891,9.797058,-0.19152832,0.08589172,9.805298,-0.12942505,-0.014892578,-0.0138549805,0.010665894,-3.2531738,-30.37262,-23.265076,0,0.0,0.0,0.0,0.0
0.983764649,0.99553007,-0.009996793,-0.093914665,-0.09403546,-0.012389399,-0.9954918,0.00878818,0.9998733,-0.013274073,0.99117494,-0.023265688,-0.13050213,-0.13104036,-0.02333714,-0.99110234,0.02001313,0.9994569,-0.026179934,0.15083313,9.844955,-0.33996582,0.08618164,9.805298,-0.13017273,0.004272461,0.0053100586,-0.004257202,-2.5360107,-30.731201,-23.61145,0,0.0,0.0,0.0,0.0
0.988433838,0.99552876,-0.009985862,-0.093928754,-0.09404983,-0.012437185,-0.99548984,0.008772616,0.99987286,-0.013320746,0.9912773,-0.022976918,-0.12977383,-0.13030073,-0.023144433,-0.99120426,0.019771278,0.999468,-0.02593646,0.07899475,9.811432,-0.26335144,0.08602905,9.805298,-0.1306305,-0.0010528564,-0.003189087,0.0032043457,-2.5360107,-30.731201,-23.61145,0,0.0,0.0,0.0,0.0
0.993103027,0.9955268,-0.009967826,-0.09395201,-0.09407244,-0.012391808,-0.99548817,0.008758618,0.9998735,-0.013274075,0.99135655,-0.022794522,-0.12919977,-0.12971738,-0.022910116,-0.9912863,0.019635916,0.9994776,-0.025668941,0.01675415,9.94072,-0.0909729,0.08589172,9.805298,-0.13017273,-0.0021209717,-0.008514404,0.0063934326,-2.5360107,-30.731201,-23.61145,0,0.0,0.0,0.0,0.0
0.997772217,0.99613667,-0.009843295,-0.087263174,-0.087383375,-0.012524555,-0.996096,0.008711935,0.9998731,-0.013336309,0.9914541,-0.022515377,-0.1284981,-0.12900507,-0.022725213,-0.99138355,0.019401224,0.9994882,-0.025435602,-0.09815979,9.773117,-0.20588684,0.08543396,9.805298,-0.13078308,-0.008514404,-0.027694702,0.0,-2.5360107,-28.938293,-25.68512,0,0.0,0.0,0.0,0.0
1.002441406,0.99613965,-0.009877748,-0.08722466,-0.087345704,-0.012567155,-0.99609876,0.008743048,0.99987227,-0.013381422,0.9915664,-0.022237813,-0.12767714,-0.12817365,-0.022548245,-0.9914954,0.019169794,0.9994984,-0.025208384,0.026321411,9.911987,-0.24899292,0.085739136,9.805298,-0.13122559,0.009597778,-0.026626587,0.008529663,-2.5360107,-28.938293,-25.68512,0,0.0,0.0,0.0,0.0
1.007110596,0.9961383,-0.009861126,-0.087243244,-0.08736393,-0.012552836,-0.99609745,0.008727491,0.9998726,-0.013365867,0.991619,-0.022122428,-0.12728837,-0.12777838,-0.022354726,-0.9915508,0.019090014,0.9995053,-0.024994139,0.05505371,9.888046,-0.10533142,0.08558655,9.805298,-0.131073,0.0,-0.025558472,0.009597778,-2.5360107,-28.938293,-25.68512,0,0.0,0.0,0.0,0.0
1.011749268,0.994862,-0.01001809,-0.10074243,-0.100863785,-0.012450488,-0.99482226,0.0087119285,0.9998723,-0.013396982,0.991727,-0.021854531,-0.12649077,-0.12697092,-0.02218522,-0.99165833,0.018866,0.999515,-0.024776574,0.03590393,9.950287,-0.20588684,0.08543396,9.805298,-0.13137817,-0.0010528564,-0.024505615,0.0,-2.7160645,-30.551147,-23.783875,0,0.0,0.0,0.0,0.0
1.016418457,0.9948679,-0.010066736,-0.10068061,-0.10080283,-0.012475808,-0.9948282,0.008758601,0.9998715,-0.013426535,0.9917979,-0.021597179,-0.12597814,-0.12644869,-0.022012148,-0.9917289,0.018645499,0.9995244,-0.024562538,0.10772705,9.840164,-0.20588684,0.08589172,9.805298,-0.13166809,0.0010681152,-0.04260254,0.0021362305,-2.7160645,-30.551147,-23.783875,0,0.0,0.0,0.0,0.0
1.021087647,0.9948672,-0.010060722,-0.100688264,-0.10080988,-0.01241537,-0.9948283,0.008758607,0.9998723,-0.013365863,0.9918672,-0.021347163,-0.12547424,-0.12593555,-0.021841887,-0.9917979,0.01843148,0.99953353,-0.024352618,0.09815979,9.835373,-0.09576416,0.08589172,9.805298,-0.131073,-0.0010528564,-0.051132202,0.0063934326,-2.7160645,-30.551147,-23.783875,0,0.0,0.0,0.0,0.0
1.025756836,0.98403645,-0.01096749,-0.17762895,-0.17775384,-0.01171064,-0.9840053,0.008711919,0.99987125,-0.01347321,0.99185395,-0.02106153,-0.12562719,-0.12607512,-0.021484714,-0.99178797,0.018189508,0.9995473,-0.02396503,0.06942749,9.773117,-0.13885498,0.08543396,9.805298,-0.13212585,-0.011703491,-0.039413452,-0.0010528564,-4.508972,-30.551147,-23.092651,0,0.0,0.0,0.0,0.0
1.030426026,0.9840322,-0.0109479455,-0.17765398,-0.17777918,-0.0117756035,-0.9840001,0.008680795,0.9998708,-0.013533887,0.9917254,-0.020855375,-0.12667194,-0.12711138,-0.021293845,-0.9916599,0.017984105,0.9995557,-0.023768602,0.03111267,9.7827,-0.17237854,0.085128784,9.805298,-0.13272095,0.024505615,-0.036224365,-0.008514404,-4.508972,-30.551147,-23.092651,0,0.0,0.0,0.0,0.0
1.035095215,0.9840164,-0.010876773,-0.17774507,-0.17786954,-0.011803467,-0.9839832,0.008604555,0.99987113,-0.013549453,0.99159825,-0.020652466,-0.12769595,-0.12812722,-0.021108627,-0.9915331,0.017782116,0.9995639,-0.023577422,-0.08378601,9.806641,-0.08139038,0.0843811,9.805298,-0.13287354,0.01171875,-0.026626587,-0.0021209717,-4.508972,-30.551147,-23.092651,0,0.0,0.0,0.0,0.0
1.039733887,0.9924343,-0.010161264,-0.122355856,-0.12247834,-0.012459864,-0.992393,0.008559429,0.9998708,-0.01361013,0.9914725,-0.020451037,-0.1287016,-0.12912488,-0.020927778,-0.99140745,0.017581873,0.9995718,-0.023390053,-0.026321411,9.706085,-0.1771698,0.0839386,9.805298,-0.13346863,0.008529663,-0.026626587,-0.0021209717,-3.074646,-30.551147,-22.401428,0,0.0,0.0,0.0,0.0
1.044403076,0.99243695,-0.010178323,-0.12233295,-0.122455776,-0.012473629,-0.9923955,0.008574985,0.99987036,-0.013625684,0.9914237,-0.02023286,-0.12911099,-0.12952912,-0.02093328,-0.99135464,0.017355222,0.99957615,-0.023374494,0.07421875,9.758759,-0.3830719,0.08409119,9.805298,-0.13362122,0.009597778,-0.03302002,-0.0010528564,-3.074646,-30.551147,-22.401428,0,0.0,0.0,0.0,0.0
1.049072266,0.9924517,-0.010273347,-0.122205384,-0.12232982,-0.0125084715,-0.99241084,0.008666776,0.99986905,-0.013670789,0.99144554,-0.020016547,-0.12897655,-0.12938708,-0.020779202,-0.9913764,0.017163904,0.9995837,-0.023191331,0.11251831,9.792282,-0.3591156,0.084991455,9.805298,-0.13406372,-0.020217896,-0.034088135,0.0032043457,-3.074646,-30.551147,-22.401428,0,0.0,0.0,0.0,0.0
1.053741455,0.9864292,-0.010774958,-0.16383353,-0.16395938,-0.012067908,-0.98639333,0.008651217,0.9998691,-0.013670791,0.99146736,-0.019807603,-0.12884194,-0.12924507,-0.020627514,-0.9913981,0.01697953,0.999591,-0.02301154,0.06463623,9.7827,-0.24420166,0.08483887,9.805298,-0.13406372,-0.006378174,-0.031951904,0.018096924,-4.3304443,-32.165527,-23.957825,1,0.0,0.0,0.0,0.0
1.058410645,0.98642397,-0.01075006,-0.16386598,-0.163991,-0.012010258,-0.9863886,0.008635666,0.99987006,-0.013610121,0.9912777,-0.019565677,-0.13032898,-0.13072109,-0.020311462,-0.9912112,0.016746545,0.99960226,-0.022691946,0.08857727,9.797058,-0.10055542,0.08468628,9.805298,-0.13346863,-0.0095825195,-0.047943115,-0.0021209717,-4.3304443,-32.165527,-23.957825,1,0.0,0.0,0.0,0.0
1.063079834,0.9864164,-0.010712563,-0.16391498,-0.16403913,-0.011970333,-0.98638123,0.0086045535,0.99987096,-0.013565009,0.99119264,-0.019382773,-0.13100189,-0.13138714,-0.020151103,-0.9911263,0.016570942,0.99960905,-0.022520272,0.04069519,9.7827,-0.12927246,0.0843811,9.805298,-0.13302612,-0.012756348,-0.03515625,-0.0021209717,-4.3304443,-32.165527,-23.957825,1,0.0,0.0,0.0,0.0
1.067718506,0.9829688,-0.01097844,-0.18344444,-0.18356965,-0.011749812,-0.9829366,0.008635672,0.9998708,-0.013565007,0.99110854,-0.019203268,-0.13166255,-0.13204113,-0.019993238,-0.9910425,0.016398896,0.99961567,-0.022351092,-0.01675415,9.806641,-0.21546936,0.08468628,9.805298,-0.13302612,-0.010650635,-0.050064087,-0.004257202,-4.689026,-31.089783,-23.265076,1,0.0,0.0,0.0,0.0
1.072387695,0.9829737,-0.011000132,-0.18341644,-0.18354149,-0.011698532,-0.9829423,0.008666794,0.9998711,-0.013518332,0.990973,-0.019036755,-0.13270268,-0.13307491,-0.019830812,-0.99090755,0.01623206,0.9996221,-0.022185113,0.08378601,9.787491,-0.20588684,0.084991455,9.805298,-0.13256836,-0.007446289,-0.039413452,0.014923096,-4.689026,-31.089783,-23.265076,1,0.0,0.0,0.0,0.0
1.076873779,0.98297185,-0.010991982,-0.18342696,-0.18355152,-0.011654068,-0.982941,0.008666799,0.9998717,-0.013473216,0.99072385,-0.018981086,-0.13455883,-0.13492313,-0.01942671,-0.9906657,0.016189873,0.9996311,-0.021807492,0.10772705,9.82579,-0.20111084,0.084991455,9.805298,-0.13212585,-0.013824463,-0.051132202,0.008529663,-4.689026,-31.089783,-23.265076,1,0.0,0.0,0.0,0.0
1.081237793,0.99358606,-0.0101246685,-0.11262454,-0.1127461,-0.012364334,-0.99354696,0.008666805,0.9998723,-0.013426546,0.9905931,-0.018818226,-0.13554034,-0.13589859,-0.019273616,-0.99053526,0.016027763,0.9996371,-0.021649681,0.04069519,9.773117,-0.25378418,0.084991455,9.805298,-0.13166809,-0.017028809,-0.052200317,-0.0010528564,-3.074646,-29.475403,-24.475098,1,0.0,0.0,0.0,0.0
1.085601807,0.993583,-0.010100968,-0.112652704,-0.11277331,-0.012290062,-0.99354476,0.008651256,0.9998735,-0.013350318,0.99065906,-0.01863197,-0.13508359,-0.13543582,-0.019149631,-0.99060106,0.01587005,0.999643,-0.021494191,0.05984497,9.844955,-0.1484375,0.08483887,9.805298,-0.13092041,-0.02128601,-0.045806885,0.0021362305,-3.074646,-29.475403,-24.475098,1,0.0,0.0,0.0,0.0
1.08996582,0.99357677,-0.0100502465,-0.112713,-0.11283257,-0.012249896,-0.9935385,0.008604584,0.9998744,-0.013305208,0.99072325,-0.018448802,-0.13463652,-0.13498288,-0.01902503,-0.99066526,0.015715122,0.9996488,-0.021338813,-0.02154541,9.911987,-0.0622406,0.0843811,9.805298,-0.1304779,-0.020217896,-0.03727722,-0.0010528564,-3.074646,-29.475403,-24.475098,1,0.0,0.0,0.0,0.0
1.094329834,0.9986329,-0.0092287455,-0.05144989,-0.05156546,-0.012754979,-0.9985882,0.008559475,0.99987614,-0.013213427,0.99069405,-0.018263258,-0.13487712,-0.13521704,-0.018866803,-0.99063635,0.0155475475,0.9996552,-0.021160733,-0.02154541,9.739609,-0.12927246,0.0839386,9.805298,-0.12957764,-0.0021209717,-0.041549683,0.0,-1.4602661,-32.165527,-22.573853,1,0.0,0.0,0.0,0.0
1.098693848,0.9986329,-0.0092287455,-0.05144989,-0.05156546,-0.012754979,-0.9985882,0.008559475,0.99987614,-0.013213427,0.99069405,-0.018263258,-0.13487712,-0.13521704,-0.018866803,-0.99063635,0.0155475475,0.9996552,-0.021160733,-0.02154541,9.739609,-0.12927246,0.0839386,9.805298,-0.12957764,-0.0021209717,-0.041549683,0.0,-1.4602661,-32.165527,-22.573853,1,0.0,0.0,0.0,0.0
1.103057861,0.9986318,-0.009209628,-0.051477056,-0.05159172,-0.012679406,-0.9985878,0.0085439235,0.99987715,-0.013137197,0.9911432,-0.01786887,-0.13158941,-0.13191819,-0.018669493,-0.9910848,0.015252859,0.99966604,-0.02086137,0.06463623,9.844955,-0.30166626,0.08378601,9.805298,-0.12882996,-0.0021209717,-0.06391907,0.01171875,-1.4602661,-32.165527,-22.573853,1,0.0,0.0,0.0,0.0
1.107421875,0.9986328,-0.00922568,-0.051454253,-0.05156926,-0.012694349,-0.9985888,0.008559481,0.99987686,-0.013152753,0.9911432,-0.01786887,-0.13158941,-0.13191819,-0.018669493,-0.9910848,0.015252859,0.99966604,-0.02086137,0.06463623,9.844955,-0.30166626,0.0839386,9.805298,-0.12898254,-0.0021209717,-0.06391907,0.01171875,-1.4602661,-32.165527,-22.573853,1,0.0,0.0,0.0,0.0
1.111785889,0.99501663,-0.009860054,-0.09922078,-0.099338755,-0.012295211,-0.9949778,0.008590592,0.99987584,-0.013213423,0.9914592,-0.017524494,-0.12923461,-0.12954956,-0.018209977,-0.9914057,0.015020524,0.9996806,-0.020324739,0.04548645,9.7444,-0.3830719,0.084243774,9.805298,-0.12957764,-0.011703491,-0.050064087,0.004272461,-2.7160645,-31.26831,-24.130249,1,0.0,0.0,0.0,0.0
1.116149902,0.99501055,-0.009808398,-0.09928703,-0.09940383,-0.012238829,-0.99497193,0.008543923,0.999877,-0.013152755,0.99153984,-0.017360274,-0.12863618,-0.12894621,-0.018104654,-0.9914863,0.014883558,0.99968535,-0.020190027,-0.03111267,9.773117,-0.1197052,0.08378601,9.805298,-0.12898254,-0.007446289,-0.046875,0.009597778,-2.7160645,-31.26831,-24.130249,1,0.0,0.0,0.0,0.0
1.120513916,0.9909072,-0.010185278,-0.1341614,-0.13427879,-0.011877537,-0.99087244,0.008498804,0.9998776,-0.013137203,0.9916184,-0.017198917,-0.12805077,-0.12835604,-0.018000267,-0.9915648,0.014748892,0.99969006,-0.020056983,0.04069519,9.840164,-0.2681427,0.083343506,9.805298,-0.12882996,-0.013824463,-0.043670654,-0.0010528564,-3.4332275,-29.833984,-23.092651,1,0.0,0.0,0.0,0.0
1.12487793,0.9909031,-0.010159855,-0.13419363,-0.13431005,-0.011803578,-0.99086916,0.008483122,0.99987876,-0.013060771,0.9915253,-0.016948562,-0.1288032,-0.12909806,-0.017634088,-0.99147505,0.014532749,0.99970084,-0.01967267,0.06463623,9.840164,-0.13885498,0.08319092,9.80545,-0.12808228,-0.015960693,-0.038345337,-0.004257202,-3.4332275,-29.833984,-23.092651,1,0.0,0.0,0.0,0.0
1.129241944,0.9909036,-0.0101629095,-0.13418975,-0.13430542,-0.011710575,-0.99087083,0.00849869,0.9998798,-0.012968983,0.99151367,-0.016806288,-0.12891158,-0.12920207,-0.017524522,-0.9914634,0.0144037055,0.9997052,-0.01954721,0.07899475,9.797058,-0.26335144,0.083343506,9.80545,-0.127182,-0.018081665,-0.030899048,-0.003189087,-3.4332275,-29.833984,-23.092651,1,0.0,0.0,0.0,0.0
1.133605957,0.9909034,-0.010162053,-0.13419084,-0.13430546,-0.011588229,-0.99087214,0.008514262,0.99988115,-0.012847635,0.9915022,-0.01666698,-0.12901777,-0.12930402,-0.01741389,-0.9914521,0.01427781,0.9997094,-0.019421019,0.08378601,9.816223,-0.11012268,0.083496094,9.80545,-0.12599182,-0.029800415,-0.0138549805,0.0032043457,-3.4332275,-29.833984,-23.092651,1,0.0,0.0,0.0,0.0
1.137969971,0.9909013,-0.010148918,-0.13420749,-0.13432209,-0.011605566,-0.99086976,0.008498702,0.99988115,-0.012863195,0.99149084,-0.01653218,-0.12912181,-0.12940377,-0.017303202,-0.9914409,0.014156461,0.9997136,-0.019295296,0.05505371,9.883255,-0.16758728,0.083343506,9.80545,-0.12614441,-0.027679443,-0.018112183,0.0021362305,-3.4332275,-29.833984,-23.092651,1,0.0,0.0,0.0,0.0
1.142333985,0.990892,-0.010091519,-0.13428025,-0.13439429,-0.011626857,-0.99085975,0.008438022,0.9998815,-0.0128772035,0.99144214,-0.01633153,-0.12952143,-0.12979645,-0.017080039,-0.99139357,0.013978742,0.99972075,-0.019053644,-0.08378601,9.849731,-0.1819458,0.08274841,9.80545,-0.12628174,-0.007446289,-0.018112183,-0.003189087,-3.4332275,-29.833984,-23.092651,1,0.0,0.0,0.0,0.0
1.146697998,0.9906324,-0.010144387,-0.13617826,-0.13629375,-0.011727342,-0.99059904,0.008452011,0.9998798,-0.013000102,0.9914317,-0.016200945,-0.1296173,-0.12988839,-0.016976183,-0.9913833,0.01386094,0.9997246,-0.018935042,0.12210083,9.749176,-0.40701294,0.08288574,9.80545,-0.12748718,-0.011703491,-0.014907837,0.004272461,-3.6117554,-31.089783,-23.957825,1,0.0,0.0,0.0,0.0
1.151062012,0.9906388,-0.010182897,-0.13612925,-0.13624573,-0.011783705,-0.99060506,0.008483122,0.99987876,-0.013060771,0.9914166,-0.016074695,-0.12974912,-0.13001648,-0.016876893,-0.9913682,0.01374618,0.9997283,-0.018822007,0.10293579,9.8736725,-0.296875,0.08319092,9.80545,-0.12808228,-0.014892578,-0.014907837,0.004272461,-3.6117554,-31.089783,-23.957825,1,0.0,0.0,0.0,0.0
1.155426026,0.9906194,-0.0100658005,-0.13627829,-0.1363926,-0.011705903,-0.9905857,0.008375778,0.99988085,-0.012968997,0.9914017,-0.015952593,-0.12987742,-0.13014117,-0.016781192,-0.9913535,0.01363516,0.9997319,-0.018712992,0.05505371,9.892838,-0.20111084,0.08213806,9.80545,-0.127182,0.0,-0.027694702,0.005340576,-3.6117554,-31.089783,-23.957825,1,0.0,0.0,0.0,0.0
1.159790039,0.9982187,-0.009139422,-0.058956213,-0.059067328,-0.012406136,-0.9981769,0.008391341,0.9998812,-0.012923879,0.9913007,-0.015444164,-0.130707,-0.13095474,-0.0162953,-0.9912543,0.013179185,0.99974793,-0.01817603,0.11730957,9.883255,-0.13406372,0.08229065,9.80545,-0.1267395,-0.026611328,-0.04260254,-0.020233154,-1.6403198,-30.192566,-23.092651,1,0.0,0.0,0.0,0.0
1.164154053,0.9982206,-0.009167286,-0.058919914,-0.059030995,-0.0123580415,-0.99817973,0.008422464,0.9998817,-0.012877205,0.99149024,-0.0153074935,-0.12927788,-0.12952244,-0.01623131,-0.9914437,0.013078167,0.9997511,-0.018075848,0.09336853,9.82579,-0.13885498,0.082595825,9.80545,-0.12628174,-0.008514404,-0.030899048,0.0,-1.6403198,-30.192566,-23.092651,1,0.0,0.0,0.0,0.0
1.168518067,0.9982196,-0.009151999,-0.05893983,-0.059050713,-0.012358778,-0.99817854,0.0084069045,0.99988174,-0.012877206,0.99167407,-0.015173999,-0.12787646,-0.12811774,-0.016165942,-0.9916272,0.012979708,0.9997542,-0.017975405,0.05027771,9.8688965,-0.12927246,0.08244324,9.80545,-0.12628174,-0.012756348,-0.022369385,0.005340576,-1.6403198,-30.192566,-23.092651,1,0.0,0.0,0.0,0.0
1.17288208,0.98881555,-0.010201093,-0.1487942,-0.14890723,-0.011393837,-0.98878545,0.008391355,0.999883,-0.01278542,0.99185216,-0.0150431795,-0.1265029,-0.12674117,-0.016101494,-0.99180514,0.012883017,0.9997572,-0.017876891,0.01675415,9.844955,-0.19152832,0.08229065,9.80545,-0.12538147,0.0010681152,-0.0138549805,-0.0053253174,-3.970337,-30.37262,-24.302673,1,0.0,0.0,0.0,0.0
1.177246094,0.9888061,-0.01014649,-0.14886092,-0.14897355,-0.0114329625,-0.9887751,0.008330674,0.9998831,-0.012816541,0.99176097,-0.014889307,-0.12723428,-0.12746301,-0.015577724,-0.99172103,0.012784018,0.9997678,-0.017347215,0.002380371,9.835373,-0.27293396,0.08169556,9.80545,-0.12568665,-0.026611328,-0.017044067,0.0,-3.970337,-30.37262,-24.302673,1,0.0,0.0,0.0,0.0
1.181610108,0.98880166,-0.010120714,-0.14889239,-0.149005,-0.011468045,-0.98876995,0.008299553,0.999883,-0.012847658,0.99170667,-0.0147918835,-0.12766755,-0.12789363,-0.015498713,-0.99166673,0.012689937,0.99977046,-0.017261965,0.02154541,9.801849,-0.19631958,0.08139038,9.80545,-0.12599182,-0.006378174,-0.028762817,-0.007446289,-3.970337,-30.37262,-24.302673,1,0.0,0.0,0.0,0.0
1.185974121,0.99286616,-0.009754333,-0.11883488,-0.118946314,-0.011771394,-0.99283093,0.00828555,0.9998831,-0.01284766,0.9916532,-0.014695436,-0.12809294,-0.12831631,-0.015421719,-0.9916134,0.012596777,0.9997731,-0.017178662,0.026321411,9.730026,-0.1197052,0.08125305,9.80545,-0.12599182,-0.0053253174,-0.019180298,0.0010681152,-3.074646,-31.626892,-23.092651,1,0.0,0.0,0.0,0.0
1.190338135,0.99285513,-0.009681764,-0.118932806,-0.11904361,-0.01180905,-0.99281883,0.008207754,0.9998834,-0.012877228,0.99167866,-0.014591122,-0.12790817,-0.12812886,-0.015354819,-0.99163866,0.012505115,0.99977565,-0.01709659,-0.04548645,9.840164,-0.30645752,0.08049011,9.80545,-0.12628174,0.0010681152,-0.03302002,0.0021362305,-3.074646,-31.626892,-23.092651,1,0.0,0.0,0.0,0.0
1.194702149,0.992866,-0.009753323,-0.11883625,-0.11894868,-0.011893714,-0.9928292,0.00826998,0.99988174,-0.012969009,0.9916556,-0.014369726,-0.12811261,-0.12832767,-0.0151991295,-0.9916154,0.012302042,0.99978125,-0.016916335,0.026321411,9.686935,-0.22505188,0.081100464,9.80545,-0.127182,-0.006378174,-0.0234375,-0.006378174,-3.074646,-31.626892,-23.092651,1,0.0,0.0,0.0,0.0
1.199066162,0.9961278,-0.009359996,-0.08741705,-0.08752837,-0.012228209,-0.99608696,0.008254417,0.99988145,-0.013000124,0.99168086,-0.014271508,-0.12792736,-0.12814,-0.01513795,-0.9916406,0.012215648,0.9997836,-0.016840765,0.03111267,9.8736725,-0.20111084,0.080947876,9.80545,-0.12748718,0.010665894,-0.015975952,0.017044067,-2.357483,-31.985474,-23.439026,1,0.0,0.0,0.0,0.0
1.203430176,0.99612135,-0.009300536,-0.08749754,-0.08760812,-0.012232776,-0.99608004,0.008193739,0.999882,-0.013000131,0.99178624,-0.01416592,-0.12711933,-0.12732965,-0.015087884,-0.99174565,0.012131028,0.99978584,-0.016767697,-0.05505371,9.82579,-0.13406372,0.08035278,9.80545,-0.12748718,-0.0010528564,-0.018112183,0.010665894,-2.357483,-31.985474,-23.439026,1,0.0,0.0,0.0,0.0
1.20779419,0.99612004,-0.009289173,-0.08751292,-0.087623715,-0.012278935,-0.99607795,0.0081781745,0.99988145,-0.013045247,0.99188876,-0.014060974,-0.12632897,-0.12653694,-0.015038569,-0.9918479,0.012046541,0.99978805,-0.01669582,0.026321411,9.806641,-0.24899292,0.080200195,9.80545,-0.12792969,0.007461548,-0.008514404,-0.0021209717,-2.357483,-31.985474,-23.439026,1,0.0,0.0,0.0,0.0
1.212158203,0.99413604,-0.009553652,-0.10771418,-0.10782616,-0.0121016335,-0.99409616,0.008193732,0.99988115,-0.013060803,0.9919756,-0.014120982,-0.12563857,-0.12584913,-0.0151644945,-0.99193347,0.012101829,0.9997853,-0.01681992,0.13645935,9.749176,-0.15322876,0.08035278,9.80545,-0.12808228,0.01171875,-0.0053253174,0.008529663,-2.8945923,-31.089783,-23.957825,1,0.0,0.0,0.0,0.0
1.216522217,0.9941317,-0.009519888,-0.10775747,-0.107868776,-0.012073645,-0.99409187,0.008162618,0.99988174,-0.013029691,0.9920222,-0.014023759,-0.12528065,-0.12548885,-0.015109397,-0.99197996,0.012018374,0.9997875,-0.016748684,-0.011962891,9.883255,-0.07182312,0.08004761,9.80545,-0.1277771,0.0021362305,-0.0010681152,0.009597778,-2.8945923,-31.089783,-23.957825,1,0.0,0.0,0.0,0.0
1.220886231,0.9941277,-0.0094894245,-0.10779652,-0.107907444,-0.012076632,-0.99408764,0.0081315,0.99988204,-0.013029695,0.9920677,-0.013927952,-0.12493065,-0.1251367,-0.015054698,-0.99202526,0.011936087,0.99978966,-0.016678179,0.01675415,9.706085,-0.11491394,0.07974243,9.80545,-0.1277771,0.005340576,0.0053100586,-0.003189087,-2.8945923,-31.089783,-23.957825,1,0.0,0.0,0.0,0.0
1.225250244,0.989076,-0.0099800695,-0.1470682,-0.14718112,-0.011719959,-0.98904014,0.008147056,0.9998815,-0.013060807,0.9921346,-0.013815224,-0.12441152,-0.12461829,-0.015268333,-0.99208736,0.01180635,0.999788,-0.01686987,0.10293579,9.892838,-0.19152832,0.07989502,9.80545,-0.12808228,0.015991211,0.010635376,-0.003189087,-3.6117554,-30.37262,-22.229004,1,0.0,0.0,0.0,0.0
1.229614258,0.9890764,-0.009982489,-0.14706495,-0.1471789,-0.011842301,-0.98903894,0.0081314845,0.9998801,-0.013182154,0.99207854,-0.0137363495,-0.12486547,-0.12506995,-0.015199537,-0.99203146,0.011728995,0.99979013,-0.016797142,-0.03590393,9.696503,-0.24899292,0.07974243,9.80545,-0.12927246,0.012786865,0.006378174,0.0010681152,-3.6117554,-30.37262,-22.229004,1,0.0,0.0,0.0,0.0
1.233978272,0.98907936,-0.009998029,-0.1470442,-0.14715922,-0.0119486805,-0.98904055,0.008131472,0.9998786,-0.013289496,0.99202365,-0.013658547,-0.1253101,-0.12551254,-0.01513442,-0.9919766,0.011652464,0.99979216,-0.016728021,0.05984497,9.758759,-0.11012268,0.07974243,9.80545,-0.13032532,0.019180298,0.024490356,0.0063934326,-3.6117554,-30.37262,-22.229004,1,0.0,0.0,0.0,0.0
1.238342285,0.995959,-0.009323376,-0.08932412,-0.08943765,-0.012567298,-0.99591315,0.008162711,0.9998776,-0.013350373,0.9919695,-0.0135834655,-0.12574568,-0.12594613,-0.015073899,-0.9919225,0.011578267,0.9997941,-0.016663633,0.13166809,9.82579,-0.27772522,0.08004761,9.805298,-0.13092041,0.026641846,0.012771606,0.0010681152,-2.5360107,-31.448364,-24.993896,1,0.0,0.0,0.0,0.0
1.242706299,0.9959561,-0.0092956,-0.08935878,-0.08947221,-0.012600748,-0.9959096,0.008131589,0.9998774,-0.01338149,0.99209005,-0.013429948,-0.12480798,-0.12500775,-0.015231654,-0.99203885,0.011421998,0.99979377,-0.01679002,0.02154541,9.864105,-0.2106781,0.07974243,9.805298,-0.13122559,0.01171875,0.012771606,-0.0053253174,-2.5360107,-31.448364,-24.993896,1,0.0,0.0,0.0,0.0
1.247070313,0.995954,-0.00927469,-0.08938487,-0.08949879,-0.012694569,-0.99590605,0.008102017,0.99987644,-0.01347328,0.99218,-0.013342919,-0.12410045,-0.124298245,-0.015186156,-0.99212873,0.011353284,0.9997957,-0.016725902,0.007171631,9.888046,-0.3543396,0.079452515,9.805298,-0.13212585,0.0138549805,0.009567261,0.009597778,-2.5360107,-31.448364,-24.993896,1,0.0,0.0,0.0,0.0
1.251434326,0.99238133,-0.009699942,-0.122822456,-0.12293819,-0.012404855,-0.99233687,0.008102014,0.99987596,-0.013502838,0.9922676,-0.01325569,-0.123407364,-0.123603314,-0.015141701,-0.9922162,0.011283912,0.99979746,-0.016663065,0.07899475,9.7444,-0.22505188,0.079452515,9.805298,-0.13241577,0.005340576,0.02128601,0.0021362305,-3.074646,-30.909729,-22.401428,1,0.0,0.0,0.0,0.0
1.25579834,0.99237883,-0.009684756,-0.12284307,-0.12295863,-0.012406567,-0.99233425,0.008086455,0.99987614,-0.01350284,0.9922699,-0.013182124,-0.12339586,-0.12359002,-0.0150914015,-0.99221855,0.0112173315,0.9997992,-0.016603922,0.03590393,9.758759,-0.13885498,0.07929993,9.805298,-0.13241577,0.0010681152,0.0042419434,0.0021362305,-3.074646,-30.909729,-22.401428,1,0.0,0.0,0.0,0.0
1.260162354,0.9923668,-0.009608663,-0.122946426,-0.12306091,-0.0124010565,-0.99232167,0.008010219,0.999877,-0.013488848,0.9922652,-0.013145095,-0.123437315,-0.123630226,-0.015038447,-0.9922144,0.011186447,0.9998005,-0.01654726,-0.11730957,9.696503,-0.07661438,0.078552246,9.805298,-0.13227844,0.0,-0.003189087,0.0021362305,-3.074646,-30.909729,-22.401428,1,0.0,0.0,0.0,0.0
1.264526367,0.99360746,-0.009467191,-0.11249281,-0.11260703,-0.012548107,-0.9935604,0.007994655,0.99987644,-0.013533964,0.9922675,-0.013070985,-0.1234276,-0.12361869,-0.014989393,-0.9922166,0.011119143,0.99980223,-0.016489306,0.03111267,9.7827,-0.22984314,0.07839966,9.805298,-0.13272095,-0.006378174,0.011703491,0.0063934326,-2.8945923,-31.448364,-22.920227,1,0.0,0.0,0.0,0.0
1.268890381,0.9936106,-0.009489103,-0.112463154,-0.11257814,-0.012606918,-0.99356276,0.008010206,0.99987537,-0.013594633,0.9922956,-0.012994542,-0.12320927,-0.12339866,-0.014944381,-0.9922446,0.011052477,0.9998039,-0.016432753,0.11251831,9.797058,-0.29208374,0.078552246,9.805298,-0.13331604,0.004272461,0.011703491,0.005340576,-2.8945923,-31.448364,-22.920227,1,0.0,0.0,0.0,0.0
1.273254395,0.993611,-0.0094925435,-0.11245848,-0.112573765,-0.012637877,-0.9935628,0.008010203,0.999875,-0.0136257475,0.9923232,-0.012920285,-0.12299466,-0.123182386,-0.014901365,-0.9922722,0.010987651,0.9998055,-0.016378522,0.08378601,9.806641,-0.21546936,0.078552246,9.805298,-0.13362122,-0.010650635,0.009567261,0.0,-2.8945923,-31.448364,-22.920227,1,0.0,0.0,0.0,0.0
1.277618408,0.9902447,-0.009818735,-0.1389928,-0.13910873,-0.012319383,-0.99020046,0.0080102105,0.9998759,-0.0135650765,0.9923532,-0.012917001,-0.12275314,-0.12293717,-0.014569318,-0.99230754,0.011029207,0.9998104,-0.016045889,0.08857727,9.787491,0.0143585205,0.078552246,9.805298,-0.13302612,-0.017028809,0.0021362305,0.0063934326,-3.6117554,-30.014038,-23.61145,1,0.0,0.0,0.0,0.0
1.281982422,0.99024504,-0.009820651,-0.13899042,-0.13910648,-0.012333272,-0.9902006,0.008010209,0.99987566,-0.013579077,0.9923137,-0.01285338,-0.123078376,-0.123260945,-0.014528225,-0.99226797,0.0109658865,0.9998118,-0.016000876,0.08857727,9.7348175,-0.16758728,0.078552246,9.805298,-0.13316345,-0.008514404,0.018096924,0.01171875,-3.6117554,-30.014038,-23.61145,1,0.0,0.0,0.0,0.0
1.286346436,0.99024284,-0.009807607,-0.13900667,-0.13912272,-0.012350681,-0.990198,0.007994648,0.9998756,-0.013594636,0.992275,-0.012790743,-0.12339684,-0.12357795,-0.01448767,-0.9922291,0.010903615,0.99981326,-0.015956406,0.026321411,9.806641,-0.1771698,0.07839966,9.805298,-0.13331604,-0.020217896,0.0053100586,0.008529663,-3.6117554,-30.014038,-23.61145,1,0.0,0.0,0.0,0.0
1.290710449,0.99444544,-0.009361148,-0.10483656,-0.104950786,-0.012682625,-0.9943965,0.007979088,0.99987566,-0.013594638,0.99223685,-0.012727881,-0.12370953,-0.12388909,-0.014446805,-0.99219084,0.010841281,0.9998146,-0.015911499,0.04548645,9.835373,-0.13885498,0.07824707,9.805298,-0.13331604,0.012786865,0.017028809,0.010665894,-2.8945923,-31.448364,-24.649048,1,0.0,0.0,0.0,0.0
1.295074463,0.99444616,-0.009367408,-0.10482865,-0.104943454,-0.012743034,-0.99439657,0.007979083,0.99987495,-0.0136553105,0.9923167,-0.012670424,-0.123072624,-0.1232506,-0.014380198,-0.99227136,0.01080269,0.9998163,-0.015831348,0.002380371,9.844955,-0.1819458,0.07824707,9.805298,-0.13391113,-0.0021209717,0.015960693,0.0010681152,-2.8945923,-31.448364,-24.649048,1,0.0,0.0,0.0,0.0
1.299438477,0.9944391,-0.00931014,-0.1049009,-0.10501629,-0.01291745,-0.9943866,0.007902826,0.9998732,-0.013823332,0.9923628,-0.012601499,-0.12270802,-0.12288469,-0.014353043,-0.99231714,0.010743449,0.99981755,-0.015791956,0.05027771,9.787491,-0.42616272,0.07749939,9.805298,-0.13555908,0.009597778,0.030883789,0.004272461,-2.8945923,-31.448364,-24.649048,1,0.0,0.0,0.0,0.0
1.30380249,0.9914352,-0.009681561,-0.13024054,-0.13035868,-0.01277804,-0.9913846,0.007933932,0.9998715,-0.013930672,0.99240756,-0.012533118,-0.12235224,-0.1225276,-0.0143305585,-0.99236166,0.010684009,0.99981874,-0.015757406,0.07899475,9.787491,-0.05265808,0.077804565,9.805298,-0.13661194,0.01171875,0.03727722,-0.013839722,-3.4332275,-31.626892,-23.783875,1,0.0,0.0,0.0,0.0
1.308166504,0.9914238,-0.009611209,-0.13033246,-0.13044992,-0.012817943,-0.99137205,0.007857691,0.9998717,-0.013961794,0.99238896,-0.012474129,-0.122510016,-0.12268409,-0.014303587,-0.9923427,0.010626278,0.9998199,-0.015725099,0.05984497,9.7444,-0.14364624,0.077056885,9.805298,-0.13691711,0.03303528,0.011703491,0.004272461,-3.4332275,-31.626892,-23.783875,1,0.0,0.0,0.0,0.0
1.312530518,0.9914161,-0.009563223,-0.13039514,-0.13051172,-0.012792382,-0.99136424,0.007812573,0.9998724,-0.013930684,0.9924337,-0.012154855,-0.122178525,-0.12234914,-0.014451187,-0.992382,0.0102966335,0.9998217,-0.01582898,0.13166809,9.816223,-0.19152832,0.07661438,9.805298,-0.13661194,0.008529663,0.029815674,-0.017044067,-3.4332275,-31.626892,-23.783875,1,0.0,0.0,0.0,0.0
1.316894531,0.9878118,-0.009788454,-0.15534507,-0.15546232,-0.012639239,-0.987761,0.0077052093,0.99987227,-0.014006925,0.99241406,-0.01210004,-0.12234315,-0.12251258,-0.01441956,-0.9923622,0.0102434885,0.9998228,-0.015792582,0.04548645,9.777908,-0.19631958,0.07556152,9.805298,-0.13735962,-0.010650635,0.022354126,-0.017044067,-3.970337,-31.448364,-23.265076,1,0.0,0.0,0.0,0.0
1.321258545,0.9878131,-0.009795346,-0.15533598,-0.15545365,-0.012683893,-0.9877616,0.0077052033,0.9998715,-0.014052038,0.992333,-0.012052987,-0.123004615,-0.12317285,-0.014386376,-0.992281,0.010190358,0.99982387,-0.015760675,0.05984497,9.768341,-0.24899292,0.07556152,9.805298,-0.13780212,0.01171875,0.020233154,-0.020233154,-3.970337,-31.448364,-23.265076,1,0.0,0.0,0.0,0.0
1.325622559,0.987815,-0.009804853,-0.15532346,-0.15544178,-0.0127454875,-0.98776287,0.0077051977,0.9998708,-0.014114267,0.9922519,-0.011726226,-0.12368804,-0.12385103,-0.014370143,-0.9921967,0.009857307,0.999828,-0.015711106,0.08857727,9.883255,-0.27293396,0.07556152,9.805298,-0.13841248,-0.0010528564,-0.0021362305,-0.017044067,-3.970337,-31.448364,-23.265076,1,0.0,0.0,0.0,0.0
1.329986572,0.9911119,-0.00946265,-0.13269427,-0.13281141,-0.013063868,-0.99105525,0.007644508,0.9998699,-0.014204501,0.99217296,-0.011686877,-0.124322414,-0.12448439,-0.014338712,-0.9921179,0.009812137,0.9998289,-0.015681319,-0.10293579,9.811432,-0.39263916,0.07496643,9.805298,-0.13929749,-0.0053253174,-0.0063934326,-0.012771606,-3.4332275,-30.909729,-23.439026,1,0.0,0.0,0.0,0.0
1.334350586,0.9911104,-0.009453578,-0.13270603,-0.13282341,-0.013112077,-0.991053,0.007628944,0.99986935,-0.014251172,0.9921525,-0.0116413515,-0.12449014,-0.12465119,-0.014316143,-0.9920974,0.009767136,0.99982977,-0.015654905,0.05984497,9.787491,-0.27293396,0.07481384,9.805298,-0.13975525,-0.0010528564,-0.008514404,-0.004257202,-3.4332275,-30.909729,-23.439026,1,0.0,0.0,0.0,0.0
1.3387146,0.99109,-0.009329729,-0.13286635,-0.13298185,-0.013096074,-0.99103194,0.007506033,0.9998708,-0.014220074,0.9921324,-0.011595212,-0.12465438,-0.12481445,-0.014293274,-0.9920771,0.009721626,0.9998306,-0.015628072,0.11251831,9.916779,-0.25378418,0.0736084,9.805298,-0.13945007,-0.017028809,-0.003189087,-0.013839722,-3.4332275,-30.909729,-23.439026,1,0.0,0.0,0.0,0.0
1.343078613,0.9910859,-0.009304088,-0.13289957,-0.13301402,-0.013006659,-0.9910288,0.007492039,0.9998721,-0.014128289,0.9920813,-0.010974509,-0.12511748,-0.12526563,-0.014045235,-0.9920238,0.0091296695,0.99984115,-0.015308742,0.05027771,9.878464,-0.24899292,0.07347107,9.805298,-0.1385498,-0.018081665,-0.018112183,-0.03302002,-3.4332275,-30.909729,-23.439026,1,0.0,0.0,0.0,0.0
1.347442627,0.99108434,-0.009295023,-0.1329113,-0.13302597,-0.013054873,-0.99102646,0.0074764746,0.9998715,-0.014174961,0.9920813,-0.010974509,-0.12511748,-0.12526563,-0.014045235,-0.9920238,0.0091296695,0.99984115,-0.015308742,0.05027771,9.878464,-0.24899292,0.07331848,9.805298,-0.13900757,-0.018081665,-0.018112183,-0.03302002,-3.4332275,-30.909729,-23.439026,1,0.0,0.0,0.0,0.0
1.351806641,0.9910865,-0.009308154,-0.13289429,-0.13300905,-0.013037544,-0.991029,0.0074920356,0.9998717,-0.014159403,0.992043,-0.010904758,-0.1254265,-0.12557322,-0.014006825,-0.99198544,0.009060535,0.99984246,-0.015264719,0.10772705,9.8736725,-0.10533142,0.07347107,9.805298,-0.13885498,-0.012756348,0.0010681152,-0.015975952,-3.4332275,-30.909729,-23.439026,1,0.0,0.0,0.0,0.0
1.356170654,0.9838319,-0.009928775,-0.17881882,-0.1789369,-0.012647942,-0.98377925,0.007506033,0.9998708,-0.014220074,0.9920244,-0.010870898,-0.12557611,-0.12572217,-0.013987259,-0.99196684,0.009027104,0.99984306,-0.015242415,0.09336853,9.8736725,-0.30645752,0.0736084,9.805298,-0.13945007,-0.020217896,-0.004257202,-0.0095825195,-4.1503906,-32.702637,-21.018982,1,0.0,0.0,0.0,0.0
1.360534668,0.9838172,-0.009872934,-0.17890282,-0.17902029,-0.012673269,-0.98376375,0.0074453508,0.99987096,-0.014235635,0.9918717,-0.010572107,-0.1268017,-0.12694284,-0.013963498,-0.99181175,0.008714944,0.99984664,-0.015192053,0.16040039,9.916779,-0.27293396,0.073013306,9.805298,-0.13960266,-0.0021209717,-0.0095825195,-0.017044067,-4.1503906,-32.702637,-21.018982,1,0.0,0.0,0.0,0.0
1.364898682,0.98378646,-0.0097558,-0.17907898,-0.1791949,-0.012693264,-0.9837318,0.007323991,0.9998718,-0.014235647,0.9917376,-0.010557674,-0.12784755,-0.12798828,-0.013936452,-0.99167776,0.008688068,0.9998471,-0.015172562,0.007171631,9.777908,-0.24899292,0.07182312,9.805298,-0.13960266,-0.0095825195,-0.0138549805,-0.020233154,-4.1503906,-32.702637,-21.018982,1,0.0,0.0,0.0,0.0
1.369262695,0.97872436,-0.009984962,-0.20493646,-0.2050526,-0.01246906,-0.97867155,0.007216633,0.9998724,-0.014251215,0.9916047,-0.010542845,-0.12887633,-0.12901646,-0.013912845,-0.99154496,0.008660668,0.99984765,-0.015156243,0.05984497,9.792282,-0.25378418,0.07077026,9.805298,-0.13975525,-0.010650635,-0.0095825195,-0.022369385,-5.0476074,-31.448364,-22.573853,1,0.0,0.0,0.0,0.0
1.373626709,0.97867507,-0.009801984,-0.20518036,-0.20529392,-0.012473837,-0.9786209,0.0070330394,0.9998742,-0.014220121,0.99140465,-0.010531703,-0.13040671,-0.1305463,-0.013882701,-0.991345,0.008630155,0.9998482,-0.01513825,0.12210083,9.816223,-0.17237854,0.06896973,9.805298,-0.13945007,-0.003189087,-0.03302002,-0.024490356,-5.0476074,-31.448364,-22.573853,1,0.0,0.0,0.0,0.0
1.377990723,0.97863543,-0.009654815,-0.2053765,-0.20548764,-0.012425425,-0.97858083,0.006896127,0.9998762,-0.0141439065,0.9911529,-0.0097840205,-0.13236415,-0.13249153,-0.01377533,-0.9910884,0.007873469,0.99985725,-0.014949759,0.10772705,9.811432,-0.16279602,0.06762695,9.805298,-0.1387024,-0.010650635,-0.027694702,-0.043670654,-5.0476074,-31.448364,-22.573853,1,0.0,0.0,0.0,0.0
1.382354736,0.9954576,-0.008002056,-0.09486836,-0.09496931,-0.013352622,-0.99539053,0.0066984305,0.9998788,-0.014051922,0.9909556,-0.009782388,-0.13383275,-0.13395983,-0.013747973,-0.9908914,0.007853354,0.99985766,-0.01493408,0.19871521,9.725235,-0.05265808,0.06568909,9.80545,-0.13780212,-0.018081665,-0.012786865,-0.03727722,-2.5360107,-31.448364,-23.957825,1,0.0,0.0,0.0,0.0
1.38671875,0.99544114,-0.007859982,-0.095053114,-0.09515263,-0.013441542,-0.9953719,0.006545945,0.99987876,-0.014128163,0.99106073,-0.009744782,-0.13305533,-0.13318178,-0.013740769,-0.99099636,0.007828761,0.9998581,-0.0149157625,0.07421875,9.8736725,-0.19631958,0.064193726,9.80545,-0.1385498,-0.012756348,-0.027694702,-0.055389404,-2.5360107,-31.448364,-23.957825,1,0.0,0.0,0.0,0.0
1.391082764,0.995419,-0.0076695113,-0.09530079,-0.095398016,-0.013505063,-0.9953477,0.006346786,0.9998794,-0.014174852,0.99116266,-0.009706763,-0.13229689,-0.1324228,-0.013738183,-0.9910981,0.0078028347,0.9998585,-0.014902171,0.11730957,9.859314,-0.15322876,0.0622406,9.80545,-0.13900757,0.01171875,-0.018112183,-0.038345337,-2.5360107,-31.448364,-23.957825,1,0.0,0.0,0.0,0.0
1.395446777,0.9910827,-0.008018025,-0.1330062,-0.13310432,-0.013286784,-0.99101293,0.0061787427,0.9998796,-0.0142355375,0.9912109,-0.0089030005,-0.13199154,-0.13210723,-0.013978145,-0.99113685,0.0069790944,0.9998627,-0.015031439,0.16040039,9.792282,-0.0909729,0.06059265,9.80545,-0.13960266,0.008529663,-0.026626587,-0.047927856,-3.4332275,-29.833984,-23.783875,1,0.0,0.0,0.0,0.0
1.399810791,0.99104863,-0.007801133,-0.13327335,-0.13336882,-0.013361401,-0.99097645,0.0059500197,0.9998803,-0.014282226,0.9912083,-0.008884727,-0.13201183,-0.13212714,-0.013964346,-0.9911344,0.0069625,0.999863,-0.0150154885,0.11730957,9.773117,-0.24899292,0.05834961,9.80545,-0.14006042,0.019180298,-0.04260254,-0.04685974,-3.4332275,-29.833984,-23.783875,1,0.0,0.0,0.0,0.0
1.404174805,0.9910066,-0.0075349407,-0.13360119,-0.13369372,-0.01351779,-0.9909307,0.00566061,0.9998803,-0.014403591,0.9912051,-0.008862237,-0.1320371,-0.13215202,-0.013952511,-0.9911312,0.006941391,0.9998634,-0.015000964,-0.04069519,9.792282,-0.22505188,0.055511475,9.80545,-0.14125061,0.0010681152,-0.052200317,-0.057510376,-3.4332275,-29.833984,-23.783875,1,0.0,0.0,0.0,0.0
1.408538819,0.99811345,-0.0062620793,-0.061077006,-0.061160557,-0.014154664,-0.9980276,0.0053852033,0.9998802,-0.014510952,0.9912012,-0.008834805,-0.13206854,-0.13218299,-0.013944648,-0.99112725,0.0069147674,0.99986374,-0.014989763,-0.06942749,9.82579,-0.20588684,0.05281067,9.80545,-0.14230347,0.020248413,-0.045806885,-0.057510376,-1.6403198,-29.475403,-23.783875,1,0.0,0.0,0.0,0.0
