Time,Rot1,Rot2,Rot3,Rot4,Rot5,Rot6,Rot7,Rot8,Rot9,FRot1,FRot2,FRot3,FRot4,FRot5,FRot6,FRot7,FRot8,FRot9,AccX,AccY,AccZ,GravX,GravY,GravZ,GyroX,GyroY,GyroZ,MagX,MagY,MagZ,Imid
0.0,0.0,0.0,0.0,0.0,0.0,0.0,0.0,0.0,0.0,0.0,0.0,0.0,0.0,0.0,0.0,0.0,0.0,0.0,0.08378601,9.8736725,0.07899475,0.05177307,9.805893,-0.10458374,0.0,0.0,0.0,0.0,0.0,0.0,0,0.0,0.0,0.0,0.0
0.004394531,0.0,0.0,0.0,0.0,0.0,0.0,0.0,0.0,0.0,1.0,0.0,0.0,0.0,1.0,0.0,0.0,0.0,1.0,-0.03111267,9.916779,-0.03111267,0.051620483,9.805893,-0.104141235,0.0,0.0,0.0,0.0,0.0,0.0,0,0.0,0.0,0.0,0.0
0.008789063,0.0,0.0,0.0,0.0,0.0,0.0,0.0,0.0,0.0,0.9999998,-5.2403E-5,-5.7777925E-4,5.2463587E-5,1.0,1.04852996E-4,5.777738E-4,-1.0488329E-4,0.9999998,0.06463623,9.840164,-0.05505371,0.05177307,9.805893,-0.10383606,-0.006378174,-0.03514099,0.003189087,0.0,0.0,0.0,0,0.0,0.0,0.0,0.0
0.013183594,0.9998149,-0.005080314,0.018557502,0.018501846,-0.010791752,-0.99977064,0.005279416,0.9999289,-0.010695758,0.9999998,-5.1354942E-5,-5.6622364E-4,5.141313E-5,1.0,1.0275653E-4,5.6621834E-4,-1.0278563E-4,0.9999998,0.06463623,9.835373,-0.35673523,0.05177307,9.805893,-0.104888916,0.0,-0.01171875,-0.0010681152,0.18005371,-32.24182,-18.527222,0,0.0,0.0,0.0,0.0
0.017578125,0.99981165,-0.005168598,0.018711105,0.0186544,-0.010809765,-0.99976766,0.005369659,0.99992824,-0.01071131,0.9971617,-0.05403002,-0.05243349,0.05229539,0.99805576,-0.03390993,0.054163698,0.031071655,0.9980485,0.12689209,9.864105,-0.05505371,0.05265808,9.805893,-0.105041504,-0.006378174,-0.008514404,-0.0053253174,0.18005371,-32.24182,-18.527222,0,0.0,0.0,0.0,0.0
0.021972656,0.9998127,-0.0051395847,0.018660627,0.01860424,-0.010808956,-0.99976856,0.0053400965,0.9999284,-0.010711312,0.98933864,-0.10650631,-0.09932486,0.099582225,0.99240255,-0.07225371,0.106265716,0.0615924,0.99242836,-0.05505371,9.797058,-0.11730957,0.052368164,9.805893,-0.105041504,0.008529663,-0.020233154,0.014892578,0.18005371,-32.24182,-18.527222,0,0.0,0.0,0.0,0.0
0.026367188,0.99981326,-0.0051248837,0.01863505,0.018578988,-0.010777426,-0.9997694,0.0053245393,0.99992883,-0.010680198,0.97735816,-0.15746675,-0.14133383,0.14189875,0.983267,-0.114239804,0.15695786,0.09159811,0.9833484,0.01675415,9.844955,-0.01675415,0.052215576,9.805893,-0.10473633,0.009597778,-0.0095825195,0.003189087,0.18005371,-32.24182,-18.527222,0,0.0,0.0,0.0,0.0
0.030761719,0.9998138,-0.0051098964,0.018608972,0.018553156,-0.010761448,-0.9997699,0.00530898,0.999929,-0.010664639,0.96210146,-0.20652278,-0.1780708,0.17905635,0.97095937,-0.15867203,0.2056689,0.12077388,0.9711406,0.01675415,9.92157,-0.06463623,0.05206299,9.805893,-0.10458374,0.0063934326,-0.007446289,-0.0032043457,0.18005371,-32.24182,-18.527222,0,0.0,0.0,0.0,0.0
0.03515625,0.99981374,-0.005110436,0.018609911,0.018554248,-0.010731899,-0.9997703,0.0053089825,0.9999294,-0.010635081,0.9443082,-0.2535798,-0.20971224,0.21112971,0.95572853,-0.20495659,0.25240082,0.14926572,0.95604056,0.05027771,9.801849,-0.01675415,0.05206299,9.805893,-0.10429382,0.0010681152,-0.0234375,0.0010681152,0.18005371,-32.24182,-18.527222,0,0.0,0.0,0.0,0.0
0.039550781,0.9998328,-0.0050921077,0.017563337,0.017507944,-0.010726028,-0.9997892,0.0052794195,0.9999295,-0.010635082,0.92469484,-0.29846328,-0.23634522,0.23820545,0.9378519,-0.25237247,0.29698074,0.17706883,0.9383224,-0.05505371,9.840164,-0.11251831,0.05177307,9.805893,-0.10429382,0.012786865,-0.003189087,0.010650635,0.18005371,-33.317566,-19.909668,0,0.0,0.0,0.0,0.0
0.043945313,0.9998339,-0.0050615417,0.017512197,0.017457135,-0.010725226,-0.9997902,0.005248301,0.9999297,-0.010635084,0.9039025,-0.34104997,-0.2581574,0.2603819,0.91755617,-0.30048603,0.3393547,0.20439056,0.9181846,-0.011962891,9.739609,-0.11251831,0.051467896,9.805893,-0.10429382,0.01171875,-0.0010528564,-0.0063934326,0.18005371,-33.317566,-19.909668,0,0.0,0.0,0.0,0.0
0.048339844,0.9998338,-0.0050607645,0.017510898,0.017455608,-0.010770328,-0.9997896,0.0052482984,0.9999292,-0.010680201,0.8824213,-0.3813804,-0.27546614,0.27812445,0.89514184,-0.34837896,0.37944618,0.23080316,0.89596343,0.04548645,9.806641,-0.23222351,0.051467896,9.805893,-0.10473633,0.017044067,-0.010650635,-0.008529663,0.18005371,-33.317566,-19.909668,0,0.0,0.0,0.0,0.0
0.052734375,0.99669725,-0.0043152967,0.081091955,0.08103983,-0.0111273425,-0.9966488,0.005203173,0.99992883,-0.010740881,0.86077577,-0.41932768,-0.2884949,0.29159385,0.8708389,-0.39574316,0.41717866,0.25652277,0.8718704,-0.06463623,9.844955,-0.2609558,0.05102539,9.805893,-0.10533142,0.012786865,-0.0095825195,-0.004257202,1.435852,-32.780457,-19.392395,0,0.0,0.0,0.0,0.0
0.057128906,0.9967024,-0.0042787846,0.081030615,0.080978505,-0.011200539,-0.99665284,0.00517205,0.9999281,-0.010817115,0.8389206,-0.45602664,-0.29707217,0.30203903,0.8441626,-0.4429018,0.45275223,0.28183207,0.84592324,-0.03111267,9.792282,-0.2753296,0.050720215,9.805893,-0.1060791,0.018112183,-0.013839722,-0.0032043457,1.435852,-32.780457,-19.392395,0,0.0,0.0,0.0,0.0
0.061523438,0.99670494,-0.004261089,0.081000894,0.08094884,-0.011230168,-0.9966551,0.0051564896,0.99992794,-0.0108482335,0.81767684,-0.490201,-0.30184048,0.30891898,0.81606627,-0.488472,0.4857713,0.30616796,0.8187108,-0.002380371,9.768341,-0.18434143,0.050567627,9.805893,-0.10638428,0.01171875,-0.0021209717,-0.0032043457,1.435852,-32.780457,-19.392395,0,0.0,0.0,0.0,0.0
0.065917969,0.9985406,-0.0046097273,0.05381078,0.053756643,-0.011157436,-0.9984918,0.0052031646,0.99992716,-0.010893348,0.79734516,-0.52183884,-0.3031911,0.3124097,0.78670204,-0.5324473,0.51637274,0.32982442,0.7903006,0.03111267,9.878464,-0.13645935,0.05102539,9.805893,-0.10682678,0.01171875,-0.018096924,-0.004257202,0.8972168,-34.03473,-19.56482,0,0.0,0.0,0.0,0.0
0.0703125,0.99854374,-0.0045760297,0.053752307,0.053698223,-0.01121781,-0.9984941,0.0051721227,0.99992657,-0.010955751,0.79734516,-0.52183884,-0.3031911,0.3124097,0.78670204,-0.5324473,0.51637274,0.32982442,0.7903006,0.03111267,9.878464,-0.13645935,0.050720215,9.80574,-0.107437134,0.01171875,-0.018096924,-0.004257202,0.8972168,-34.03473,-19.56482,0,0.0,0.0,0.0,0.0
0.074707031,0.99854237,-0.0045905323,0.05377748,0.05372316,-0.011232743,-0.9984927,0.0051876814,0.9999264,-0.010969752,0.79734516,-0.52183884,-0.3031911,0.3124097,0.78670204,-0.5324473,0.51637274,0.32982442,0.7903006,0.03111267,9.878464,-0.13645935,0.050872803,9.80574,-0.10757446,0.01171875,-0.018096924,-0.004257202,0.8972168,-34.03473,-19.56482,0,0.0,0.0,0.0,0.0
0.079101563,0.9987016,-0.0045773177,0.05073552,0.050681505,-0.0112318825,-0.99865174,0.005141002,0.9999265,-0.010985314,0.7444413,-0.60062945,-0.2916357,0.30444843,0.6940893,-0.6523428,0.5942375,0.39684293,0.69956946,0.08857727,9.806641,-0.13645935,0.05041504,9.80574,-0.10772705,0.0021362305,-0.04685974,0.003189087,0.8972168,-32.600403,-20.602417,0,0.0,0.0,0.0,0.0
0.083496094,0.99869895,-0.004609333,0.050786063,0.050731834,-0.011204169,-0.9986495,0.0051721227,0.99992657,-0.010955751,0.7444413,-0.60062945,-0.2916357,0.30444843,0.6940893,-0.6523428,0.5942375,0.39684293,0.69956946,0.08857727,9.806641,-0.13645935,0.050720215,9.80574,-0.107437134,0.0021362305,-0.04685974,0.003189087,0.8972168,-32.600403,-20.602417,0,0.0,0.0,0.0,0.0
0.087890625,0.99869746,-0.004625379,0.050811388,0.050757054,-0.011189534,-0.9986482,0.005187683,0.9999266,-0.010940191,0.71726155,-0.64105844,-0.27309346,0.28865576,0.630072,-0.7208934,0.63420326,0.43823904,0.63697153,-0.09336853,9.840164,-0.24180603,0.050872803,9.80574,-0.107284546,-0.0084991455,-0.038345337,0.003189087,0.8972168,-32.600403,-20.602417,0,0.0,0.0,0.0,0.0
0.092285156,0.9987016,-0.0045773177,0.05073552,0.050681505,-0.0112318825,-0.99865174,0.005141002,0.9999265,-0.010985314,0.71726155,-0.64105844,-0.27309346,0.28865576,0.630072,-0.7208934,0.63420326,0.43823904,0.63697153,-0.09336853,9.840164,-0.24180603,0.05041504,9.80574,-0.10772705,-0.0084991455,-0.038345337,0.003189087,0.8972168,-32.600403,-20.602417,0,0.0,0.0,0.0,0.0
0.096679688,0.9980842,-0.0044526234,0.06170935,0.06165582,-0.0112970425,-0.99803346,0.005141001,0.99992627,-0.011000871,0.69671494,-0.67264163,-0.24928193,0.26693782,0.5656513,-0.78024536,0.66583216,0.47706583,0.5736512,0.04069519,9.8688965,-0.13645935,0.05041504,9.80574,-0.10787964,-0.0021209717,-0.022369385,-0.0010681152,1.0772705,-32.063293,-19.737244,0,0.0,0.0,0.0,0.0
0.101074219,0.99808216,-0.00447243,0.061741415,0.061688058,-0.011221884,-0.99803245,0.005156485,0.9999271,-0.010924466,0.6889709,-0.6854396,-0.23556672,0.25493294,0.5334238,-0.8065162,0.67847496,0.49561247,0.54225457,0.002380371,9.739609,-0.15083313,0.050567627,9.805893,-0.10713196,-0.003189087,-0.022369385,-0.0010681152,1.0772705,-32.063293,-19.737244,0,0.0,0.0,0.0,0.0
0.10546875,0.9996478,-0.0048848744,0.026085412,0.02602998,-0.011086809,-0.99959964,0.0051721227,0.99992657,-0.010955751,0.68290174,-0.69621384,-0.22120482,0.2422809,0.50152695,-0.8305243,0.68916273,0.51357275,0.51117295,0.07421875,9.844955,-0.20350647,0.050720215,9.80574,-0.107437134,-0.02128601,-0.015975952,0.008514404,0.36010742,-31.704712,-19.737244,0,0.0,0.0,0.0,0.0
0.109863281,0.9996492,-0.00485503,0.026037497,0.025982562,-0.011054492,-0.99960136,0.0051409258,0.99992716,-0.010924467,0.6785126,-0.7047617,-0.20719972,0.22855665,0.47059965,-0.8522311,0.6981279,0.5308926,0.48038572,-0.007171631,9.797058,-0.01675415,0.05041504,9.805893,-0.10713196,-0.006378174,-0.010650635,0.0010681152,0.36010742,-31.704712,-19.737244,0,0.0,0.0,0.0,0.0
0.114257813,0.9996505,-0.004826785,0.02599215,0.02593769,-0.011022401,-0.99960285,0.0051113646,0.9999277,-0.010893353,0.67563426,-0.7115939,-0.19274965,0.21471459,0.44004372,-0.87192845,0.70527726,0.5477186,0.45009822,-0.03111267,9.840164,-0.03111267,0.050125122,9.805893,-0.10682678,-0.0021209717,-0.007446289,-0.0053253174,0.36010742,-31.704712,-19.737244,0,0.0,0.0,0.0,0.0
0.118652344,0.9992806,-0.005517983,-0.037520934,-0.037578493,-0.010724827,-0.9992362,0.0051113633,0.9999274,-0.01092447,0.6741307,-0.7167911,-0.17820887,0.20077324,0.4100224,-0.88970315,0.71080095,0.5639966,0.42032114,0.05505371,9.859314,-0.18913269,0.050125122,9.805893,-0.10713196,0.0032043457,-0.0053253174,0.0053253174,-0.8956909,-31.524658,-19.218445,0,0.0,0.0,0.0,0.0
0.123046875,0.9992789,-0.0054868483,-0.037571933,-0.03762907,-0.010710172,-0.99923456,0.0050802454,0.9999277,-0.010908913,0.674146,-0.71996284,-0.16486573,0.18601486,0.3815184,-0.9054514,0.71479064,0.5797389,0.39112288,-0.03111267,9.892838,-0.06942749,0.049819946,9.805893,-0.10697937,-0.012756348,-0.0095825195,-0.01171875,-0.8956909,-31.524658,-19.218445,0,0.0,0.0,0.0,0.0
0.127441406,0.9992755,-0.0054284036,-0.03766764,-0.037724297,-0.01074303,-0.9992303,0.005019562,0.9999275,-0.010940031,0.6753117,-0.7217838,-0.1515987,0.17145742,0.3535574,-0.91956484,0.71732587,0.5950002,0.36251664,-0.12689209,9.840164,-0.18434143,0.049224854,9.805893,-0.107284546,0.0063934326,0.0021362305,0.0,-0.8956909,-31.524658,-19.218445,0,0.0,0.0,0.0,0.0
0.131835938,0.9988829,-0.005511521,-0.04693225,-0.046989076,-0.010677421,-0.99883837,0.0050040036,0.9999278,-0.010924474,0.6774952,-0.7223341,-0.13868576,0.15711296,0.3263222,-0.9321102,0.7185512,0.6097108,0.33456975,0.06463623,9.878464,-0.17477417,0.049072266,9.805893,-0.10713196,0.0053253174,-0.012771606,0.0021362305,-1.0757446,-32.780457,-19.04602,0,0.0,0.0,0.0,0.0
0.136230469,0.99888396,-0.0055275005,-0.046904813,-0.046961885,-0.01069238,-0.99883926,0.005019562,0.9999275,-0.010940031,0.6774952,-0.7223341,-0.13868576,0.15711296,0.3263222,-0.9321102,0.7185512,0.6097108,0.33456975,0.06463623,9.878464,-0.17477417,0.049224854,9.805893,-0.107284546,0.0053253174,-0.012771606,0.0021362305,-1.0757446,-32.780457,-19.04602,0,0.0,0.0,0.0,0.0
0.140625,0.99888194,-0.005497694,-0.046956,-0.047012825,-0.010709105,-0.99883693,0.0049884426,0.9999275,-0.010955591,0.68474525,-0.719726,-0.114535406,0.12908706,0.2744546,-0.95289624,0.71725893,0.63770616,0.2808388,-0.011962891,9.902405,-0.12689209,0.048919678,9.805893,-0.107437134,-0.003189087,-0.012771606,-0.0053253174,-1.0757446,-32.780457,-19.04602,0,0.0,0.0,0.0,0.0
0.145019531,0.99787164,-0.004236756,0.06507073,0.06501969,-0.011239428,-0.9978206,0.0049588806,0.9999278,-0.010940034,0.6895378,-0.71688175,-0.1030442,0.11586827,0.24963726,-0.96138227,0.71492106,0.65096986,0.25519818,0.01675415,9.739609,-0.06463623,0.04862976,9.805893,-0.107284546,-0.003189087,-0.012771606,0.003189087,1.0772705,-33.49762,-18.701172,0,0.0,0.0,0.0,0.0
0.149414063,0.99787676,-0.004194066,0.064994566,0.06494424,-0.011189501,-0.99782616,0.004912205,0.9999286,-0.0108933635,0.69477004,-0.7135924,-0.08989096,0.10472207,0.22401716,-0.96894246,0.71156716,0.6637787,0.2303693,0.03111267,9.897629,0.02154541,0.048171997,9.805893,-0.10682678,0.0032043457,-0.03514099,-0.0053253174,1.0772705,-33.49762,-18.701172,0,0.0,0.0,0.0,0.0
0.153808594,0.99787855,-0.004179735,0.064968996,0.0649189,-0.011174412,-0.997828,0.0048966464,0.99992883,-0.010879362,0.7006447,-0.7093114,-0.07729393,0.09411585,0.19925746,-0.9754172,0.7072759,0.67614627,0.20636612,0.03111267,9.7444,-0.06942749,0.04801941,9.805893,-0.10668945,-0.0010528564,-0.027694702,-0.0095825195,1.0772705,-33.49762,-18.701172,0,0.0,0.0,0.0,0.0
0.158203125,0.9996731,-0.004637757,0.02514533,0.025093157,-0.010983772,-0.9996248,0.004912207,0.9999289,-0.010863803,0.7070528,-0.7041025,-0.065696105,0.0835143,0.17539155,-0.9809502,0.702212,0.688097,0.18281373,-0.01675415,9.854523,-0.03590393,0.048171997,9.805893,-0.106536865,0.0,-0.03514099,-0.0010681152,0.36010742,-33.139038,-20.428467,0,0.0,0.0,0.0,0.0
0.162597656,0.9996744,-0.004609486,0.025099492,0.025047787,-0.010951715,-0.99962634,0.004882646,0.9999294,-0.01083269,0.7140338,-0.69794023,-0.055093214,0.07352814,0.15301467,-0.9854847,0.6962395,0.69961846,0.1605759,-0.026321411,9.8688965,-0.05505371,0.04788208,9.805893,-0.10623169,0.0032043457,-0.045806885,0.0095825195,0.36010742,-33.139038,-20.428467,0,0.0,0.0,0.0,0.0
0.166992188,0.9996771,-0.004546477,0.024997326,0.024945952,-0.011025902,-0.99962795,0.004820404,0.9999289,-0.010908927,0.72139305,-0.69105583,-0.045097843,0.06414014,0.13151284,-0.98923725,0.68954915,0.71073633,0.13919687,-0.08378601,9.7348175,-0.28489685,0.04727173,9.805893,-0.10697937,-0.0021209717,-0.043670654,-0.0021362305,0.36010742,-33.139038,-20.428467,0,0.0,0.0,0.0,0.0
0.171386719,0.99573284,-0.0038027228,0.092203945,0.09215552,-0.011384178,-0.9956795,0.0048359595,0.99992794,-0.010985158,0.7290479,-0.68353206,-0.035680808,0.05531896,0.11080139,-0.99230176,0.68222356,0.7214617,0.1185918,0.14125061,9.82579,-0.16519165,0.047424316,9.805893,-0.10772705,0.0032043457,-0.041534424,-0.0010681152,1.7944336,-33.8562,-20.774841,0,0.0,0.0,0.0,0.0
0.17578125,0.99572945,-0.0038248412,0.09223969,0.09219139,-0.01130984,-0.995677,0.004851523,0.9999287,-0.010908924,0.73690975,-0.6754991,-0.025786906,0.047580652,0.08988294,-0.99481505,0.6743145,0.731862,0.09837631,0.026321411,9.945511,-0.002380371,0.047576904,9.805893,-0.10697937,0.010665894,-0.030883789,-0.0032043457,1.7944336,-33.8562,-20.774841,0,0.0,0.0,0.0,0.0
0.180175781,0.9957276,-0.0038372362,0.092259735,0.09221115,-0.011342335,-0.9956749,0.0048670806,0.99992836,-0.0109400395,0.7449654,-0.6669044,-0.016282499,0.040980414,0.07011157,-0.996697,0.66584325,0.7418375,0.07956071,0.06942749,9.811432,-0.16040039,0.047729492,9.805893,-0.107284546,-0.0053253174,-0.045806885,0.004257202,1.7944336,-33.8562,-20.774841,0,0.0,0.0,0.0,0.0
0.184570313,0.9876914,-0.0031060397,0.15638396,0.15633906,-0.011506588,-0.98763645,0.004867084,0.999929,-0.010879364,0.75316596,-0.65778905,-0.007392578,0.03496547,0.05125219,-0.9980734,0.6569007,0.75145644,0.06160131,0.05505371,9.902405,-0.02154541,0.047729492,9.805893,-0.10668945,-0.0010528564,-0.014907837,0.0095825195,3.048706,-32.958984,-19.909668,0,0.0,0.0,0.0,0.0
0.188964844,0.98769647,-0.0030864172,0.15635225,0.15630743,-0.011533252,-0.98764104,0.004851523,0.9999287,-0.010908924,0.7614212,-0.64825386,0.0021803416,0.030512579,0.032479182,-0.9990065,0.647539,0.7607313,0.044510234,-0.02154541,9.902405,-0.18434143,0.047576904,9.805893,-0.10697937,-0.003189087,-0.03302002,0.0021362305,3.048706,-32.958984,-19.909668,0,0.0,0.0,0.0,0.0
0.193359375,0.9877055,-0.0030514738,0.15629578,0.15625122,-0.011558949,-0.9876497,0.0048204027,0.99992853,-0.010940042,0.7696537,-0.63836884,0.010886749,0.02630172,0.014664565,-0.99954647,0.6379197,0.7695909,0.028076835,-0.026321411,9.76355,-0.15560913,0.04727173,9.805893,-0.107284546,-0.004257202,-0.018096924,0.007461548,3.048706,-32.958984,-19.909668,0,0.0,0.0,0.0,0.0
0.197753906,0.9999568,-0.0047034984,0.0080067245,0.007954773,-0.010962374,-0.9999082,0.0047908407,0.9999289,-0.010924486,0.77797574,-0.6279977,0.019299664,0.022902308,-0.0023520892,-0.99973494,0.62787664,0.7782116,0.012552729,-0.026321411,9.878464,-0.08857727,0.04698181,9.805893,-0.10713196,0.0010681152,-0.013839722,-0.008529663,0.0,-32.421875,-19.04602,0,0.0,0.0,0.0,0.0
0.202148438,0.99995685,-0.004704098,0.008007745,0.007956152,-0.010886148,-0.9999091,0.004790845,0.9999297,-0.010848252,0.7863252,-0.61733955,0.024177618,0.01765882,-0.016660064,-0.99970526,0.61756045,0.78652036,-0.0021987394,0.05984497,9.911987,0.07421875,0.04698181,9.805893,-0.10638428,-0.0074310303,-0.004257202,0.0021362305,0.0,-32.421875,-19.04602,0,0.0,0.0,0.0,0.0
0.206542969,0.99995685,-0.0047039757,0.008007537,0.007955869,-0.010901704,-0.99990886,0.0047908435,0.9999295,-0.01086381,0.7945871,-0.60647774,0.02856482,0.012905223,-0.030166171,-0.99946153,0.60701287,0.794528,-0.016142922,0.02154541,9.859314,-0.11251831,0.04698181,9.805893,-0.106536865,-0.0021209717,-0.017044067,-0.004257202,0.0,-32.421875,-19.04602,0,0.0,0.0,0.0,0.0
0.2109375,0.9999545,-0.0046855826,0.008302993,0.0082517285,-0.010856294,-0.99990696,0.0047752867,0.9999301,-0.010817137,0.8027825,-0.5953961,0.032306507,0.008378398,-0.042911902,-0.9990437,0.5962131,0.8022855,-0.02946046,-0.002380371,9.7827,-0.007171631,0.046829224,9.805893,-0.1060791,-0.0010528564,-0.013839722,-0.004257202,0.0,-33.139038,-18.701172,0,0.0,0.0,0.0,0.0
0.215332031,0.9999549,-0.004670064,0.008275494,0.008224252,-0.010887153,-0.99990696,0.0047597256,0.99992985,-0.010848254,0.81078947,-0.58424103,0.035819426,0.0045158267,-0.05494918,-0.99847895,0.5853206,0.8097179,-0.041913882,0.002380371,9.773117,-0.18434143,0.046676636,9.805893,-0.10638428,-0.0010528564,-0.0095825195,0.008514404,0.0,-33.139038,-18.701172,0,0.0,0.0,0.0,0.0
0.219726563,0.9999554,-0.0046411855,0.00822432,0.0081734685,-0.010871116,-0.9999075,0.0047301636,0.99993014,-0.010832697,0.818639,-0.572987,0.038937293,0.0010473952,-0.06630891,-0.99779856,0.57430756,0.8168776,-0.053682923,-0.007171631,9.801849,-0.07421875,0.04638672,9.805893,-0.10623169,0.01171875,0.009597778,-0.0010681152,0.0,-33.139038,-18.701172,0,0.0,0.0,0.0,0.0
0.224121094,0.9954838,-0.0036644982,0.094860375,0.09481399,-0.011246492,-0.9954315,0.0047146035,0.9999301,-0.010848256,0.8263152,-0.56166345,0.04168214,-0.0020491108,-0.07700609,-0.9970286,0.5632042,0.8237744,-0.06478221,-0.007171631,9.82579,-0.13166809,0.04623413,9.805893,-0.10638428,-0.0021209717,0.0,-0.01171875,1.7944336,-32.421875,-20.083618,0,0.0,0.0,0.0,0.0
0.228515625,0.99548167,-0.0036782632,0.0948824,0.09483578,-0.011263535,-0.99542916,0.004730162,0.9999298,-0.010863813,0.83382535,-0.55011356,0.045938633,-0.0032234937,-0.08806858,-0.99610925,0.55201894,0.830433,-0.07520711,0.07899475,9.82579,-0.14604187,0.04638672,9.805893,-0.106536865,0.0032043457,0.007461548,-0.0021362305,1.7944336,-32.421875,-20.083618,0,0.0,0.0,0.0,0.0
0.232910156,0.9954838,-0.0036644982,0.094860375,0.09481399,-0.011246492,-0.9954315,0.0047146035,0.9999301,-0.010848256,0.8411252,-0.5385528,0.04969214,-0.004195854,-0.09837453,-0.9951406,0.54082423,0.8368293,-0.08500498,0.01675415,9.725235,-0.08857727,0.04623413,9.805893,-0.10638428,0.01171875,-0.0021209717,-0.0053253174,1.7944336,-32.421875,-20.083618,0,0.0,0.0,0.0,0.0
0.237304688,0.995486,-0.0036507328,0.09483834,0.094792195,-0.011229452,-0.99543387,0.0046990453,0.9999304,-0.0108327,0.8482205,-0.5269742,0.05310422,-0.0048681796,-0.10801698,-0.9941371,0.52962077,0.842989,-0.094187625,0.011962891,9.844955,-0.06463623,0.046081543,9.805893,-0.10623169,-0.004257202,0.018096924,0.0,1.7944336,-32.421875,-20.083618,0,0.0,0.0,0.0,0.0
0.241699219,0.99549705,-0.0035799532,0.09472507,0.09467915,-0.011345645,-0.99544317,0.0046383566,0.9999292,-0.010955608,0.8550615,-0.51545626,0.05634518,-0.005028546,-0.11690199,-0.99313074,0.5185023,0.8489045,-0.10255038,-0.02154541,9.835373,-0.22265625,0.04548645,9.805893,-0.107437134,-0.0074310303,0.014907837,0.003189087,1.7944336,-32.421875,-20.083618,0,0.0,0.0,0.0,0.0
0.24609375,0.9955007,-0.0035566173,0.09468772,0.094642416,-0.011266677,-0.9954475,0.0046072416,0.99993014,-0.010879377,0.8617342,-0.50389856,0.059163496,-0.005200818,-0.12537757,-0.9920955,0.5073332,0.854615,-0.11066283,-0.04069519,9.8736725,0.10772705,0.045181274,9.805893,-0.10668945,0.017044067,0.025558472,-0.008529663,1.7944336,-32.421875,-20.083618,0,0.0,0.0,0.0,0.0
0.250488281,0.9985652,-0.003997934,0.05339994,0.053352166,-0.011230141,-0.9985127,0.0045916764,0.999929,-0.01100073,0.868184,-0.49239138,0.061702564,-0.005136311,-0.13324921,-0.9910692,0.4962158,0.86011356,-0.11821391,-0.002380371,9.931137,-0.29447937,0.045028687,9.805893,-0.10787964,-0.0021209717,0.010650635,-0.014907837,0.8972168,-32.600403,-19.218445,0,0.0,0.0,0.0,0.0
0.254882813,0.9985709,-0.0039368384,0.053296566,0.053249348,-0.011257569,-0.99851775,0.0045309933,0.9999289,-0.011031848,0.87440896,-0.481059,0.06317712,-0.005592361,-0.14019525,-0.99010813,0.48515755,0.865406,-0.12527822,-0.02154541,9.888046,-0.16040039,0.044433594,9.805893,-0.108184814,0.014923096,0.026626587,-0.0021362305,0.8972168,-32.600403,-19.218445,0,0.0,0.0,0.0,0.0
0.259277344,0.9985737,-0.0039079697,0.053247727,0.05320098,-0.011224653,-0.99852085,0.004499876,0.9999294,-0.011000735,0.88043493,-0.46971473,0.06482613,-0.0054123104,-0.14666213,-0.98917186,0.4741361,0.8705506,-0.1316687,-0.04548645,9.907196,-0.05027771,0.044128418,9.805893,-0.10787964,0.0,0.026626587,-0.0063934326,0.8972168,-32.600403,-19.218445,0,0.0,0.0,0.0,0.0
0.263671875,0.9952227,-0.0033913117,0.09757256,0.097528376,-0.01138588,-0.99516773,0.0044858726,0.9999295,-0.011000736,0.8862128,-0.45856977,0.06588322,-0.0055083632,-0.15263075,-0.98826796,0.4632456,0.8754528,-0.1377893,0.007171631,9.811432,-0.08857727,0.04399109,9.805893,-0.10787964,0.0032043457,0.020233154,-0.0095825195,1.7944336,-31.34613,-19.392395,0,0.0,0.0,0.0,0.0
0.268066406,0.9952227,-0.0033913117,0.09757256,0.097528376,-0.01138588,-0.99516773,0.0044858726,0.9999295,-0.011000736,0.8917708,-0.44740403,0.06763476,-0.004645884,-0.15851873,-0.987345,0.45246354,0.88017124,-0.14344096,0.04548645,9.811432,-0.10772705,0.04399109,9.805893,-0.10787964,0.0010681152,0.018096924,-0.007461548,1.7944336,-31.34613,-19.392395,0,0.0,0.0,0.0,0.0
0.272460938,0.9952273,-0.0033623863,0.09752622,0.097482435,-0.0113672055,-0.9951724,0.0044547543,0.9999298,-0.010985179,0.8971038,-0.43636727,0.06919843,-0.0036385953,-0.1639129,-0.9864681,0.44180492,0.88471246,-0.14863466,0.03111267,9.892838,-0.14604187,0.043685913,9.805893,-0.10772705,-0.006378174,0.015975952,0.0063934326,1.7944336,-31.34613,-19.392395,0,0.0,0.0,0.0,0.0
0.276855469,0.99846196,-0.0038267015,0.0553081,0.055262312,-0.011184293,-0.9984092,0.0044391965,0.99993014,-0.01095562,0.90223336,-0.42535865,0.07102761,-0.0019859374,-0.1687988,-0.9856485,0.4312435,0.88914394,-0.15314065,0.007171631,9.797058,0.007171631,0.043533325,9.805893,-0.107437134,-0.003189087,0.030883789,-0.007461548,0.8972168,-33.676147,-18.527222,0,0.0,0.0,0.0,0.0
0.28125,0.99846196,-0.0038275453,0.055309635,0.05526391,-0.011168766,-0.99840945,0.0044391975,0.9999304,-0.010940062,0.9071255,-0.414755,0.07142481,-0.0015196502,-0.17293833,-0.98493147,0.42085734,0.893348,-0.15750706,0.02154541,9.8736725,-0.06942749,0.043533325,9.805893,-0.107284546,0.0063934326,0.015975952,-0.008529663,0.8972168,-33.676147,-18.527222,0,0.0,0.0,0.0,0.0
0.285644531,0.99846375,-0.0038107156,0.055279132,0.055233467,-0.011197304,-0.9984108,0.0044236365,0.9999301,-0.010969622,0.9118044,-0.4043171,0.07169691,-9.4512105E-4,-0.17667045,-0.9842696,0.4106238,0.8973936,-0.16147101,0.002380371,9.753967,-0.18434143,0.043380737,9.805893,-0.10757446,-0.0053253174,0.014907837,0.0095825195,0.8972168,-33.676147,-18.527222,0,0.0,0.0,0.0,0.0
0.290039063,0.9994166,-0.0040633157,0.033911057,0.033863902,-0.011160406,-0.9993642,0.0044391933,0.9999295,-0.011016295,0.91627836,-0.39404318,0.071860045,-2.797246E-4,-0.1800365,-0.98365986,0.40054193,0.9012862,-0.1650738,0.09815979,9.8736725,-0.23701477,0.043533325,9.805893,-0.10803223,-0.004257202,0.018096924,0.004257202,0.53863525,-33.676147,-19.909668,0,0.0,0.0,0.0,0.0
0.294433594,0.99941844,-0.0040322985,0.033858642,0.03381157,-0.011219834,-0.99936515,0.0044096275,0.9999289,-0.011076972,0.92049515,-0.38410482,0.071778,3.5107136E-4,-0.182878,-0.9831355,0.39075372,0.90499675,-0.16820346,-0.002380371,9.7827,-0.05027771,0.04324341,9.805893,-0.10862732,0.0,0.018096924,0.0053253174,0.53863525,-33.676147,-19.909668,0,0.0,0.0,0.0,0.0
0.298828125,0.9994206,-0.003999762,0.033803664,0.033756696,-0.011279205,-0.9993666,0.0043785055,0.9999284,-0.0111376485,0.9245784,-0.37425268,0.07134199,7.7039003E-4,-0.18541656,-0.98265976,0.38099098,0.9086009,-0.17114383,0.007171631,9.911987,-0.10293579,0.042938232,9.805893,-0.10922241,0.021316528,0.024490356,-0.0021362305,0.53863525,-33.676147,-19.909668,0,0.0,0.0,0.0,0.0
0.303222656,0.99967444,-0.0040941383,0.025187613,0.02513974,-0.011351621,-0.99961954,0.0043785004,0.99992716,-0.011244997,0.9284769,-0.36457157,0.07083896,0.0012516081,-0.18766734,-0.9822318,0.371388,0.91206825,-0.1737885,0.04069519,9.859314,-0.32321167,0.042938232,9.805893,-0.11027527,0.0138549805,0.027694702,-0.004257202,0.36010742,-33.49762,-19.737244,0,0.0,0.0,0.0,0.0
0.307617188,0.9996771,-0.0040357285,0.02508853,0.025041522,-0.011304595,-0.99962246,0.004317821,0.99992794,-0.011199883,0.932195,-0.35510194,0.070108235,0.0016280413,-0.18957692,-0.9818646,0.3619529,0.9154033,-0.17614454,0.002380371,9.878464,-0.14125061,0.04234314,9.805893,-0.10983276,0.0063934326,0.038345337,-0.0032043457,0.36010742,-33.49762,-19.737244,0,0.0,0.0,0.0,0.0
0.312011719,0.9996777,-0.004021231,0.025063938,0.025017232,-0.011273,-0.9996234,0.0043022633,0.9999284,-0.011168769,0.93574965,-0.34567842,0.069850326,0.0027009845,-0.19103386,-0.9815797,0.35265473,0.9187015,-0.17782618,0.05027771,9.935928,-0.002380371,0.04219055,9.805893,-0.10952759,-0.011703491,0.038345337,-0.0095825195,0.36010742,-33.49762,-19.737244,0,0.0,0.0,0.0,0.0
0.31640625,0.99915296,-0.0037955286,0.04097495,0.040929567,-0.011349291,-0.9990976,0.0042571397,0.9999284,-0.011184328,0.9391211,-0.3365826,0.06901923,0.0031579435,-0.19241479,-0.9813086,0.34357172,0.9217856,-0.1796379,0.02154541,9.883255,-0.10772705,0.041748047,9.805893,-0.109680176,0.0032043457,0.041534424,-0.004257202,0.71868896,-31.34613,-20.428467,0,0.0,0.0,0.0,0.0
0.320800781,0.9991539,-0.0037808733,0.040952496,0.040907346,-0.011333024,-0.9990986,0.004241581,0.9999286,-0.0111687705,0.94233096,-0.32760423,0.068468064,0.003951639,-0.19367097,-0.9810586,0.33465922,0.9247524,-0.18120758,-0.002380371,9.8736725,-0.07421875,0.04159546,9.805893,-0.10952759,0.004272461,0.04473877,-0.0095825195,0.71868896,-31.34613,-20.428467,0,0.0,0.0,0.0,0.0
0.325195313,0.99915576,-0.0037527499,0.040909406,0.040864836,-0.011270967,-0.9991011,0.004210465,0.9999295,-0.011108098,0.94233096,-0.32760423,0.068468064,0.003951639,-0.19367097,-0.9810586,0.33465922,0.9247524,-0.18120758,-0.002380371,9.8736725,-0.07421875,0.041290283,9.805893,-0.108932495,0.004272461,0.04473877,-0.0095825195,0.71868896,-31.34613,-20.428467,0,0.0,0.0,0.0,0.0
0.329589844,0.9921492,-0.0027498915,0.1250302,0.12499054,-0.011619263,-0.9920899,0.0041808984,0.9999287,-0.011184331,0.94827026,-0.31012452,0.06786868,0.006260842,-0.19547333,-0.98068905,0.31740224,0.9303832,-0.18341991,-0.07421875,9.797058,-0.29927063,0.041000366,9.805893,-0.109680176,-0.010635376,0.050064087,-0.0021362305,2.331543,-32.600403,-19.218445,0,0.0,0.0,0.0,0.0
0.333984375,0.9921467,-0.0027611519,0.12504901,0.12500961,-0.011528245,-0.99208856,0.004180903,0.9999298,-0.011092541,0.9510128,-0.30138177,0.06887454,0.0087144375,-0.1965635,-0.9804524,0.3090287,0.9330229,-0.18430802,-0.03111267,9.835373,-0.026321411,0.041000366,9.805893,-0.10877991,0.0021362305,0.04899597,0.0,2.331543,-32.600403,-19.218445,0,0.0,0.0,0.0,0.0
0.338378906,0.9921366,-0.0028088908,0.12512876,0.12508892,-0.011503239,-0.99207884,0.0042260266,0.99992985,-0.0110614225,0.9536057,-0.29284889,0.06982604,0.0111607015,-0.19738816,-0.9802619,0.30085143,0.9355627,-0.18496208,0.002380371,9.897629,-0.16519165,0.04144287,9.805893,-0.10847473,-0.014892578,0.023422241,0.0053253174,2.331543,-32.600403,-19.218445,0,0.0,0.0,0.0,0.0
0.342773438,0.99901575,-0.003735924,0.0441975,0.044153336,-0.0111767,-0.9989622,0.00422603,0.9999306,-0.011000748,0.9559652,-0.28474477,0.071070194,0.013947725,-0.19780988,-0.98014116,0.2931485,0.9379721,-0.18512782,0.05505371,9.864105,-0.05984497,0.04144287,9.805893,-0.10787964,-0.009567261,0.024490356,0.012786865,0.71868896,-33.139038,-19.04602,0,0.0,0.0,0.0,0.0
0.347167969,0.9990217,-0.0036625492,0.044070058,0.04402685,-0.0111417845,-0.99896824,0.0041497895,0.9999313,-0.010969635,0.958306,-0.27695268,0.07033387,0.014798701,-0.19770877,-0.9801491,0.28536054,0.9403236,-0.18536696,-0.03111267,9.835373,-0.19871521,0.04069519,9.805893,-0.10757446,-0.0074310303,0.03302002,0.0010681152,0.71868896,-33.139038,-19.04602,0,0.0,0.0,0.0,0.0
0.3515625,0.9990215,-0.0036645,0.044073444,0.044030406,-0.011096723,-0.9989685,0.004149792,0.99993175,-0.010924517,0.9605296,-0.26933208,0.0695917,0.015646607,-0.19746514,-0.98018503,0.2777372,0.94258565,-0.18545698,0.06942749,9.892838,-0.18434143,0.04069519,9.805893,-0.10713196,-0.015960693,0.038345337,-0.014907837,0.71868896,-33.139038,-19.04602,0,0.0,0.0,0.0,0.0
0.355957031,0.9998001,-0.0043477565,-0.019513356,-0.01955971,-0.01088677,-0.9997494,0.0041342303,0.99993134,-0.010969636,0.9626343,-0.26190692,0.06884685,0.016493827,-0.1970542,-0.9802538,0.27030182,0.9447616,-0.1853713,-0.002380371,9.715668,-0.21786499,0.040542603,9.805893,-0.10757446,-0.017028809,0.030883789,-0.0021362305,-0.5371094,-32.600403,-20.256042,0,0.0,0.0,0.0,0.0
0.360351563,0.99980015,-0.004346892,-0.01951475,-0.019560909,-0.0108416565,-0.99974996,0.004134232,0.9999318,-0.010924518,0.9646876,-0.2547015,0.06711945,0.016391098,-0.19627813,-0.9804112,0.2628863,0.9468907,-0.18517223,0.05984497,9.821014,-0.02154541,0.040542603,9.805893,-0.10713196,0.0063934326,0.014907837,-0.012786865,-0.5371094,-32.600403,-20.256042,0,0.0,0.0,0.0,0.0
0.364746094,0.99980015,-0.0043474887,-0.01951379,-0.019560082,-0.010872769,-0.9997496,0.004134231,0.99993145,-0.010955634,0.96659404,-0.24789377,0.06515041,0.016014367,-0.19527805,-0.98061717,0.25581133,0.9489021,-0.18478476,0.03111267,9.911987,-0.18434143,0.040542603,9.805893,-0.107437134,-0.0010528564,0.010650635,-0.010650635,-0.5371094,-32.600403,-20.256042,0,0.0,0.0,0.0,0.0
0.369140625,0.9972877,-0.003333228,0.07352706,0.07348551,-0.011231041,-0.99723315,0.0041497904,0.99993145,-0.010955634,0.9684,-0.24125874,0.06321129,0.015647948,-0.19417647,-0.98084176,0.24891078,0.9508363,-0.18426529,0.05984497,9.753967,-0.09815979,0.04069519,9.805893,-0.107437134,0.007461548,0.015975952,-0.0063934326,1.2557983,-32.958984,-18.527222,0,0.0,0.0,0.0,0.0
0.373535156,0.9972875,-0.0033343497,0.07352904,0.073487535,-0.01121553,-0.9972331,0.004149791,0.9999316,-0.010940075,0.9700782,-0.23444177,0.06313011,0.017097622,-0.19340718,-0.98096955,0.24219008,0.95269656,-0.18361169,0.06463623,9.821014,-0.06942749,0.04069519,9.805893,-0.107284546,-0.0084991455,0.020233154,0.004257202,1.2557983,-32.958984,-18.527222,0,0.0,0.0,0.0,0.0
0.377929688,0.9972897,-0.0033180127,0.07350013,0.07345874,-0.0112298075,-0.99723506,0.004134231,0.99993145,-0.010955634,0.9716493,-0.22779031,0.06331724,0.018802285,-0.19251136,-0.9811145,0.23567769,0.9544899,-0.18277057,-0.002380371,9.835373,-0.12210083,0.040542603,9.805893,-0.107437134,0.0,0.017028809,-0.0010681152,1.2557983,-32.958984,-18.527222,0,0.0,0.0,0.0,0.0
0.382324219,0.99850124,-0.0046912674,-0.054527037,-0.054574445,-0.010653345,-0.99845284,0.0041031144,0.9999322,-0.010893403,0.97314775,-0.22132805,0.06322557,0.020198226,-0.19150914,-0.981283,0.22929373,0.9562103,-0.18189625,0.002380371,9.883255,-0.05984497,0.040237427,9.805893,-0.10682678,0.0063934326,0.011703491,0.0021362305,-1.2542725,-31.524658,-20.256042,0,0.0,0.0,0.0,0.0
0.38671875,0.9985013,-0.0046921023,-0.054525744,-0.054573227,-0.010668887,-0.9984528,0.004103114,0.9999321,-0.010908961,0.97461504,-0.21552484,0.06061858,0.01907152,-0.18985058,-0.98162776,0.22307365,0.95786524,-0.18092084,0.05984497,9.835373,-0.12689209,0.040237427,9.805893,-0.10697937,-0.006378174,0.024490356,-0.0063934326,-1.2542725,-31.524658,-20.256042,0,0.0,0.0,0.0,0.0
0.391113281,0.9985004,-0.004680017,-0.054544494,-0.054591976,-0.010700634,-0.9984515,0.004089109,0.9999318,-0.010940078,0.9760027,-0.20987484,0.058062106,0.01796168,-0.18813628,-0.98197865,0.21701619,0.95945674,-0.17985182,0.007171631,9.964661,-0.18913269,0.040100098,9.805893,-0.107284546,-0.0010528564,0.015975952,0.015960693,-1.2542725,-31.524658,-20.256042,0,0.0,0.0,0.0,0.0
0.395507813,0.99857354,-0.0034776842,0.053279184,0.053238127,-0.010988429,-0.9985214,0.0040579964,0.9999336,-0.010787611,0.97731507,-0.20432127,0.055749685,0.017082453,-0.18632531,-0.9823396,0.21110046,0.96100765,-0.17860824,0.007171631,9.964661,-0.05984497,0.039794922,9.805893,-0.105789185,-0.003189087,0.012771606,-0.0032043457,0.8972168,-31.524658,-18.873596,0,0.0,0.0,0.0,0.0
0.399902344,0.9985707,-0.0035098314,0.05333274,0.05329146,-0.010959203,-0.998519,0.004089117,0.99993384,-0.010756494,0.9785186,-0.19857246,0.05540976,0.018110096,-0.18493827,-0.9825833,0.20536135,0.96247953,-0.17736937,0.10772705,9.7348175,-0.026321411,0.040100098,9.805893,-0.10548401,-0.029800415,0.012771606,-0.0053253174,0.8972168,-31.524658,-18.873596,0,0.0,0.0,0.0,0.0
0.404296875,0.99857336,-0.0034801264,0.05328325,0.053242356,-0.010941837,-0.9985216,0.0040579983,0.999934,-0.010740937,0.9796524,-0.19299583,0.055079788,0.019115955,-0.18346326,-0.98284066,0.19978927,0.96389514,-0.17604093,-0.04069519,9.816223,-0.06463623,0.039794922,9.805893,-0.10533142,0.010665894,0.0063934326,0.010650635,0.8972168,-31.524658,-18.873596,0,0.0,0.0,0.0,0.0
0.408691406,0.99985987,-0.0038666397,0.016290959,0.016248228,-0.010836398,-0.9998093,0.0040424378,0.99993384,-0.010772053,0.9807241,-0.18756793,0.054758757,0.020097077,-0.18192872,-0.9831064,0.19436142,0.9652566,-0.17465232,0.007171631,9.926346,-0.20828247,0.039642334,9.805893,-0.1056366,-0.004257202,0.0053253174,-0.0063934326,0.18005371,-32.958984,-18.873596,0,0.0,0.0,0.0,0.0
0.413085938,0.99986136,-0.0038216405,0.016212393,0.016169976,-0.010880481,-0.9998102,0.0039973133,0.9999336,-0.010817175,0.9817264,-0.18254247,0.053773195,0.02037412,-0.18012527,-0.9834327,0.18920414,0.9665574,-0.17311458,-0.06942749,9.7827,-0.20828247,0.03919983,9.805893,-0.1060791,-0.0053253174,0.004272461,0.007461548,0.18005371,-32.958984,-18.873596,0,0.0,0.0,0.0,0.0
0.417480469,0.99986124,-0.0038213928,0.016211959,0.016169483,-0.010896034,-0.99980986,0.0039973124,0.99993336,-0.010832733,0.9827026,-0.17751676,0.052757293,0.020590901,-0.17837828,-0.9837465,0.18404226,0.9678166,-0.17163758,0.002380371,9.897629,-0.13166809,0.03919983,9.805893,-0.10623169,0.009597778,-0.0010528564,0.008514404,0.18005371,-32.958984,-18.873596,0,0.0,0.0,0.0,0.0
0.421875,0.9969767,-0.0031109536,0.07763869,0.0775997,-0.011138934,-0.99692225,0.003966192,0.99993306,-0.010863849,0.9836252,-0.17263179,0.051766127,0.020796716,-0.17659001,-0.98406476,0.17902224,0.96902746,-0.17010821,-0.026321411,9.888046,-0.19392395,0.038894653,9.805893,-0.106536865,-0.0053253174,-0.008514404,-0.0032043457,1.435852,-32.421875,-19.737244,0,0.0,0.0,0.0,0.0
0.426269531,0.9969804,-0.0030820058,0.07759142,0.07755276,-0.0111364955,-0.99692607,0.003936629,0.9999333,-0.010863851,0.98449844,-0.16758043,0.051763207,0.021994025,-0.17484166,-0.9843508,0.1740083,0.97023046,-0.16844559,-0.026321411,9.7827,-0.12689209,0.038604736,9.805893,-0.106536865,-0.0084991455,-0.013839722,-0.0053253174,1.435852,-32.421875,-19.737244,0,0.0,0.0,0.0,0.0
0.430664063,0.99698424,-0.0030527192,0.07754359,0.07750532,-0.011118426,-0.99692994,0.0039055105,0.9999336,-0.010848294,0.98529613,-0.16274543,0.0520131,0.023370087,-0.17319188,-0.9846108,0.16924915,0.9713488,-0.16684191,-0.04069519,9.787491,-0.06463623,0.03829956,9.805893,-0.10638428,0.0053253174,0.0021362305,0.010650635,1.435852,-32.421875,-19.737244,0,0.0,0.0,0.0,0.0
0.435058594,0.99907494,-0.0034189268,0.04286856,0.042828385,-0.011065635,-0.99902123,0.0038899481,0.99993294,-0.010908971,0.986048,-0.1580441,0.05226314,0.024712533,-0.17150146,-0.9848739,0.16461669,0.97242445,-0.16520299,0.07899475,9.897629,-0.18434143,0.038146973,9.805893,-0.10697937,-0.003189087,-0.01171875,0.0,0.71868896,-33.139038,-19.392395,0,0.0,0.0,0.0,0.0
0.439453125,0.9990749,-0.0034182724,0.04286744,0.042827215,-0.011081174,-0.999021,0.0038899474,0.99993277,-0.010924528,0.98677456,-0.15358914,0.05183032,0.02533713,-0.16967237,-0.9851748,0.16010632,0.9734586,-0.16353686,0.02154541,9.816223,-0.13166809,0.038146973,9.805893,-0.10713196,0.007461548,-0.022369385,-0.007461548,0.71868896,-33.139038,-19.392395,0,0.0,0.0,0.0,0.0
0.443847656,0.9990782,-0.0033740252,0.042791955,0.04275223,-0.011078988,-0.9990243,0.0038448249,0.999933,-0.010924531,0.9874675,-0.1493204,0.051099986,0.025639951,-0.16769762,-0.985505,0.15572535,0.9744644,-0.1617674,0.026321411,9.864105,-0.28012085,0.037704468,9.805893,-0.10713196,-0.0074310303,-0.018096924,0.003189087,0.71868896,-33.139038,-19.392395,0,0.0,0.0,0.0,0.0
0.448242188,0.99907947,-0.0033587678,0.04276593,0.04272637,-0.011078237,-0.9990254,0.0038292652,0.999933,-0.010924531,0.988116,-0.14510696,0.05070114,0.026230395,-0.16582766,-0.9858058,0.15145494,0.9754205,-0.16005076,0.011962891,9.888046,-0.11730957,0.03755188,9.805893,-0.10713196,-0.015960693,-0.017044067,-0.0095825195,0.71868896,-33.139038,-19.392395,0,0.0,0.0,0.0,0.0
0.452636719,0.99908274,-0.0033151722,0.042691547,0.042652536,-0.01106052,-0.9990287,0.0037841431,0.99993336,-0.010908975,0.9887282,-0.14101355,0.050316215,0.026801854,-0.16393746,-0.9861066,0.1473031,0.97633994,-0.15831016,0.011962891,9.7827,0.02154541,0.037109375,9.805893,-0.10697937,-0.004257202,-0.010650635,0.0010681152,0.71868896,-33.139038,-19.392395,0,0.0,0.0,0.0,0.0
0.45703125,0.9990849,-0.0032871957,0.042643823,0.042605355,-0.010998417,-0.9990315,0.0037530265,0.9999342,-0.0108483005,0.98930705,-0.13703041,0.049943596,0.027353555,-0.16203475,-0.98640597,0.14326021,0.97722435,-0.15655385,-0.05984497,9.8688965,0.026321411,0.0368042,9.805893,-0.10638428,0.008529663,-0.020233154,-0.0095825195,0.71868896,-33.139038,-19.392395,0,0.0,0.0,0.0,0.0
0.461425781,0.99834657,-0.0030967651,0.057398383,0.057361234,-0.01098342,-0.99829304,0.0037219094,0.99993485,-0.010787625,0.9898875,-0.13298719,0.049368262,0.027690291,-0.16017587,-0.9867,0.13912605,0.978089,-0.15487362,-0.007171631,9.931137,0.05984497,0.036499023,9.805893,-0.105789185,0.004272461,-0.013839722,-0.010650635,1.0772705,-31.34613,-20.428467,0,0.0,0.0,0.0,0.0
0.465820313,0.99834776,-0.003083893,0.057378694,0.057341754,-0.010967025,-0.9982945,0.0037079067,0.99993515,-0.010772068,0.9903928,-0.1291892,0.049317896,0.028502285,-0.15827584,-0.9869834,0.13531344,0.978907,-0.15307307,-0.026321411,9.797058,-0.05505371,0.036361694,9.805893,-0.1056366,-0.003189087,-0.007446289,-0.0010681152,1.0772705,-31.34613,-20.428467,0,0.0,0.0,0.0,0.0
0.470214844,0.9983502,-0.0030567588,0.057337187,0.057300773,-0.010904538,-0.9982975,0.0036767898,0.9999359,-0.010711393,0.9908688,-0.12550272,0.04927486,0.029290885,-0.15636218,-0.98726535,0.1316092,0.9796938,-0.15125832,-0.05984497,9.787491,0.05984497,0.03605652,9.805893,-0.105041504,0.0053253174,-0.0063934326,0.004257202,1.0772705,-31.34613,-20.428467,0,0.0,0.0,0.0,0.0
0.474609375,0.99678594,-0.0027945654,0.08006126,0.080026306,-0.010939073,-0.99673265,0.0036612314,0.9999363,-0.010680277,0.9913173,-0.12192395,0.049238205,0.030056328,-0.15443733,-0.98754525,0.12800965,0.98045075,-0.14943184,0.002380371,9.888046,-0.05027771,0.03590393,9.805893,-0.10473633,0.009597778,-0.0053253174,0.0,1.435852,-33.49762,-19.04602,0,0.0,0.0,0.0,0.0
0.479003906,0.99679077,-0.0027616853,0.08000379,0.0799691,-0.010967442,-0.99673706,0.003630111,0.9999361,-0.010711394,0.99174774,-0.11831098,0.049387276,0.030985624,-0.15260553,-0.9878013,0.12440451,0.98117995,-0.14768025,-0.02154541,9.816223,-0.16040039,0.035598755,9.805893,-0.105041504,0.0032043457,-0.017044067,-0.004257202,1.435852,-33.49762,-19.04602,0,0.0,0.0,0.0,0.0
0.483398438,0.9967931,-0.002745669,0.0799758,0.079941176,-0.010995711,-0.99673903,0.003616106,0.9999358,-0.010740955,0.992131,-0.11486925,0.04981032,0.032155216,-0.15071969,-0.98805344,0.12100435,0.9818801,-0.14584003,-0.026321411,9.844955,-0.20350647,0.035461426,9.805893,-0.10533142,0.015991211,-0.014907837,-0.008529663,1.435852,-33.49762,-19.04602,0,0.0,0.0,0.0,0.0
0.487792969,0.9999883,-0.0036950398,-0.0031161183,-0.0031557768,-0.010776093,-0.999937,0.0036612272,0.99993515,-0.010787628,0.992491,-0.11152761,0.05023101,0.033294797,-0.14882967,-0.9883021,0.11769884,0.9825535,-0.14399883,0.14125061,9.950287,-0.20350647,0.03590393,9.805893,-0.105789185,-0.0053253174,0.004272461,0.022354126,-0.17852783,-31.524658,-19.909668,0,0.0,0.0,0.0,0.0
0.4921875,0.99998826,-0.0036948966,-0.0031163446,-0.0031558305,-0.010729418,-0.9999374,0.003661229,0.9999356,-0.0107409535,0.99288344,-0.10854077,0.04900551,0.03275338,-0.14674784,-0.9886316,0.11449828,0.9832009,-0.1421484,0.04548645,9.844955,-0.01675415,0.03590393,9.805893,-0.10533142,-0.013824463,0.013839722,0.012786865,-0.17852783,-31.524658,-19.909668,0,0.0,0.0,0.0,0.0
0.496582031,0.99998826,-0.003635225,-0.0032108277,-0.0032496676,-0.010729271,-0.9999373,0.0036005466,0.9999359,-0.010740957,0.9932537,-0.10566171,0.047777086,0.032178223,-0.14468992,-0.9889537,0.11140741,0.9838193,-0.14031379,-0.11730957,9.974243,-0.08378601,0.035308838,9.805893,-0.10533142,0.0010681152,-0.0021209717,0.0010681152,-0.17852783,-31.524658,-19.909668,0,0.0,0.0,0.0,0.0
0.500976563,0.9984579,-0.0030014017,0.055434898,0.055399213,-0.010894475,-0.99840504,0.0036005478,0.9999362,-0.010711396,0.9936056,-0.10283668,0.046609253,0.03164336,-0.14263463,-0.98926944,0.108381286,0.9844186,-0.13846847,0.04069519,9.883255,-0.03111267,0.035308838,9.805893,-0.105041504,0.012786865,-0.014907837,0.003189087,1.0772705,-31.704712,-21.11969,0,0.0,0.0,0.0,0.0
0.505371094,0.9984562,-0.0030208495,0.055464003,0.055428375,-0.010819305,-0.9984041,0.00361611,0.9999369,-0.01063516,0.99390095,-0.0999321,0.046631485,0.032278866,-0.1407061,-0.9895251,0.10544666,0.9849951,-0.13662224,0.06942749,9.92157,0.08378601,0.035461426,9.805893,-0.10429382,-0.0053253174,-0.004257202,-0.004257202,1.0772705,-31.704712,-21.11969,0,0.0,0.0,0.0,0.0
0.509765625,0.998455,-0.0030337595,0.055483323,0.055447493,-0.010835673,-0.9984028,0.003630113,0.99993664,-0.010650718,0.9941897,-0.09692809,0.046816766,0.03306207,-0.13893683,-0.9897492,0.10243907,0.9855463,-0.13492492,0.08378601,9.902405,-0.12689209,0.035598755,9.805893,-0.10444641,0.010665894,0.008529663,-0.01171875,1.0772705,-31.704712,-21.11969,0,0.0,0.0,0.0,0.0
0.514160156,0.99987733,-0.0035144698,0.015263699,0.015225413,-0.010674419,-0.99982715,0.0036767933,0.9999369,-0.0106196,0.9944489,-0.09421579,0.04684794,0.033658415,-0.13700277,-0.9899986,0.0996918,0.98607993,-0.1330711,0.15083313,9.758759,-0.03111267,0.03605652,9.805893,-0.104141235,-0.0074310303,0.011703491,-0.004257202,0.18005371,-32.24182,-19.218445,0,0.0,0.0,0.0,0.0
0.518554688,0.9998778,-0.003499185,0.015238061,0.015199939,-0.010674093,-0.9998275,0.0036612335,0.9999369,-0.0106196,0.99471885,-0.09170787,0.046087116,0.03343585,-0.13499391,-0.9902822,0.09703814,0.9865933,-0.13121465,-0.011962891,9.878464,-0.10772705,0.03590393,9.805893,-0.104141235,-0.0021209717,-0.01171875,0.0063934326,0.18005371,-32.24182,-19.218445,0,0.0,0.0,0.0,0.0
0.522949219,0.99987596,-0.003560649,0.015341157,0.01530283,-0.0105524855,-0.99982715,0.003721921,0.99993795,-0.010496689,0.9949746,-0.089270994,0.045345813,0.03321132,-0.13300285,-0.9905591,0.09445931,0.9870871,-0.12936965,-0.007171631,9.830582,0.002380371,0.036499023,9.805893,-0.10293579,0.0053253174,0.0032043457,-0.0053253174,0.18005371,-32.24182,-19.218445,0,0.0,0.0,0.0,0.0
0.52734375,0.99997497,-0.0036445141,0.006052965,0.0060143345,-0.010518871,-0.99992657,0.0037079174,0.9999381,-0.01049669,0.99519134,-0.087215096,0.044584543,0.03293249,-0.13074942,-0.99086833,0.092248075,0.98757184,-0.12724848,0.011962891,9.854523,-0.09336853,0.036361694,9.805893,-0.10293579,-0.017028809,-0.0010528564,0.017028809,0.0,-32.780457,-19.737244,0,0.0,0.0,0.0,0.0
0.531738281,0.9999751,-0.003644422,0.0060528116,0.0060141245,-0.010534428,-0.99992645,0.0037079167,0.99993783,-0.010512247,0.9954262,-0.08495198,0.043701142,0.032523185,-0.12877296,-0.9911406,0.08982688,0.9880287,-0.12542106,0.07421875,9.907196,-0.13166809,0.036361694,9.805893,-0.10308838,0.0,-0.012771606,-0.0053253174,0.0,-32.780457,-19.737244,0,0.0,0.0,0.0,0.0
0.536132813,0.9999749,-0.0036580926,0.006075516,0.0060366257,-0.010550153,-0.99992615,0.00372192,0.99993765,-0.010527805,0.9954262,-0.08495198,0.043701142,0.032523185,-0.12877296,-0.9911406,0.08982688,0.9880287,-0.12542106,0.07421875,9.907196,-0.13166809,0.036499023,9.805893,-0.10324097,0.0,-0.012771606,-0.0053253174,0.0,-32.780457,-19.737244,0,0.0,0.0,0.0,0.0
0.540527344,0.99320257,-0.0024834645,0.11637212,0.116338596,-0.0109220855,-0.9931495,0.0037374783,0.99993724,-0.010558921,0.9958592,-0.08062463,0.042001367,0.03171423,-0.124879375,-0.9916649,0.085197724,0.9888907,-0.121805325,0.07899475,9.849731,-0.16519165,0.03665161,9.805893,-0.10354614,-0.0010528564,-0.0021209717,0.004257202,2.331543,-32.958984,-20.602417,0,0.0,0.0,0.0,0.0
0.544921875,0.99319583,-0.0025191891,0.1164285,0.116394766,-0.0108794905,-0.9931434,0.0037685996,0.99993765,-0.010512246,0.9959959,-0.07835277,0.043046832,0.03317842,-0.12315722,-0.9918324,0.08301435,0.9892892,-0.12006447,0.09815979,9.811432,0.007171631,0.036956787,9.805893,-0.10308838,0.0010681152,-0.020233154,0.004257202,2.331543,-32.958984,-20.602417,0,0.0,0.0,0.0,0.0
0.549316406,0.9931987,-0.002503997,0.11640453,0.11637095,-0.01087762,-0.9931462,0.0037530398,0.99993765,-0.010512246,0.9961114,-0.07609357,0.044407517,0.034948528,-0.12141638,-0.9919863,0.080875576,0.98968065,-0.11828487,0.01675415,10.00296,-0.13166809,0.0368042,9.805893,-0.10308838,-0.0084991455,-0.003189087,-0.0010681152,2.331543,-32.958984,-20.602417,0,0.0,0.0,0.0,0.0
0.553710938,0.9945113,-0.0026143233,0.10459708,0.10456297,-0.010876423,-0.9944589,0.003737479,0.9999375,-0.010543363,0.99621576,-0.073902525,0.045744896,0.03667867,-0.119687445,-0.9921339,0.07879628,0.99005723,-0.11652386,-0.002380371,9.926346,-0.18434143,0.03665161,9.805893,-0.103393555,-0.004257202,0.0032043457,0.004257202,1.9729614,-32.24182,-19.56482,0,0.0,0.0,0.0,0.0
0.558105469,0.994513,-0.0026039155,0.10458011,0.104546286,-0.010828332,-0.994461,0.003721921,0.99993795,-0.010496689,0.9963192,-0.071803294,0.046824217,0.0381338,-0.11795553,-0.99228644,0.07677261,0.9904195,-0.11478321,0.002380371,9.840164,0.03590393,0.036499023,9.805893,-0.10293579,-0.0021209717,-0.0010528564,-0.010650635,1.9729614,-32.24182,-19.56482,0,0.0,0.0,0.0,0.0
0.5625,0.99450964,-0.0026237594,0.10461247,0.1045786,-0.010785175,-0.99445826,0.0037374825,0.9999384,-0.01045157,0.99641585,-0.06983992,0.047726214,0.03939107,-0.116204605,-0.9924439,0.07485821,0.9907668,-0.11303705,0.07899475,9.945511,0.002380371,0.03665161,9.805893,-0.102493286,-0.0021209717,-0.0095825195,0.004257202,1.9729614,-32.24182,-19.56482,0,0.0,0.0,0.0,0.0
0.566894531,0.999457,-0.0034242736,0.032769572,0.03273176,-0.010569388,-0.99940825,0.0037686017,0.99993825,-0.010451568,0.99650097,-0.06787322,0.04877457,0.040784508,-0.11449556,-0.9925862,0.07295449,0.9911024,-0.11132677,0.09336853,9.811432,-0.09336853,0.036956787,9.805893,-0.102493286,-0.0021209717,-0.0010528564,-0.0032043457,0.53863525,-33.317566,-19.909668,0,0.0,0.0,0.0,0.0
0.571289063,0.99945885,-0.00339371,0.032718472,0.03268099,-0.010568199,-0.99941003,0.0037374825,0.9999384,-0.01045157,0.9966372,-0.0661367,0.048376173,0.040710688,-0.11270299,-0.9927944,0.07111228,0.9914252,-0.109631516,0.11730957,9.816223,-0.04069519,0.03665161,9.805893,-0.102493286,-0.015960693,-0.003189087,-0.015975952,0.53863525,-33.317566,-19.909668,0,0.0,0.0,0.0,0.0
0.575683594,0.99945694,-0.0034247746,0.032770406,0.032732647,-0.0105538415,-0.99940836,0.0037686024,0.9999384,-0.01043601,0.9966372,-0.0661367,0.048376173,0.040710688,-0.11270299,-0.9927944,0.07111228,0.9914252,-0.109631516,0.11730957,9.816223,-0.04069519,0.036956787,9.805893,-0.1023407,-0.015960693,-0.003189087,-0.015975952,0.53863525,-33.317566,-19.909668,0,0.0,0.0,0.0,0.0
0.580078125,0.99813545,-0.0031237032,0.060958885,0.060922418,-0.0106773395,-0.9980855,0.0037686012,0.99993813,-0.010467127,0.9968873,-0.06284856,0.04760006,0.04053542,-0.10925494,-0.9931869,0.06762091,0.9920249,-0.10636727,0.03590393,9.878464,-0.20828247,0.036956787,9.805893,-0.102645874,0.004272461,-0.0010528564,0.0021362305,1.0772705,-34.214783,-19.392395,0,0.0,0.0,0.0,0.0
0.584472656,0.9981305,-0.0031679133,0.06103661,0.06099966,-0.010680334,-0.9980807,0.0038137243,0.99993795,-0.010467125,0.99698067,-0.061198197,0.047795564,0.041018903,-0.107564464,-0.9933516,0.06593243,0.9923128,-0.10472941,0.13645935,9.888046,-0.10293579,0.037399292,9.805893,-0.102645874,0.009597778,0.007461548,0.0053253174,1.0772705,-34.214783,-19.392395,0,0.0,0.0,0.0,0.0
0.588867188,0.9981304,-0.0031688455,0.06103825,0.061001353,-0.0106648095,-0.99808073,0.003813725,0.99993813,-0.010451566,0.9970677,-0.059605524,0.047991544,0.041490227,-0.105890125,-0.9935119,0.06430063,0.9925898,-0.10310657,0.03590393,9.964661,-0.11251831,0.037399292,9.805893,-0.102493286,0.0053253174,0.0021362305,-0.008529663,1.0772705,-34.214783,-19.392395,0,0.0,0.0,0.0,0.0
0.593261719,0.9942878,-0.0026679416,0.10669858,0.10666433,-0.010736795,-0.9942371,0.0037981677,0.99993885,-0.010390891,0.99714935,-0.05806143,0.048186988,0.04194936,-0.10423607,-0.9936675,0.06271658,0.9928563,-0.10150329,0.08378601,9.749176,-0.04069519,0.037246704,9.805893,-0.10189819,-0.004257202,0.024490356,0.0021362305,1.9729614,-33.317566,-19.218445,0,0.0,0.0,0.0,0.0
0.59765625,0.9942907,-0.002652641,0.10667236,0.10663822,-0.010750702,-0.9942398,0.0037841634,0.9999387,-0.010406449,0.9971765,-0.056320574,0.049669266,0.04370901,-0.10252394,-0.99376976,0.061061975,0.99313486,-0.099772744,0.01675415,9.82579,-0.14604187,0.037109375,9.805893,-0.10205078,-0.0074310303,0.023422241,-0.0095825195,1.9729614,-33.317566,-19.218445,0,0.0,0.0,0.0,0.0
0.602050781,0.9942887,-0.0026632147,0.10669048,0.10665611,-0.010781633,-0.99423754,0.0037981658,0.99993837,-0.010436009,0.997208,-0.054779954,0.050747335,0.04503131,-0.100962035,-0.9938706,0.05956774,0.993381,-0.098213345,0.06942749,9.840164,-0.15560913,0.037246704,9.805893,-0.1023407,0.01171875,0.020233154,0.004257202,1.9729614,-33.317566,-19.218445,0,0.0,0.0,0.0,0.0
0.606445313,0.999975,-0.0037059088,0.006020275,0.0059812292,-0.010458437,-0.9999274,0.0037686024,0.9999384,-0.01043601,0.9972344,-0.053287987,0.051806867,0.04632464,-0.09941832,-0.9939668,0.058117047,0.99361783,-0.09667482,-0.06942749,9.777908,-0.12689209,0.036956787,9.805893,-0.1023407,0.0063934326,0.022354126,-0.004257202,0.0,-32.063293,-19.737244,0,0.0,0.0,0.0,0.0
0.610839844,0.99997526,-0.0036904248,0.005995122,0.0059561227,-0.010489368,-0.9999272,0.0037530414,0.99993813,-0.010467127,0.9973377,-0.0519682,0.051154047,0.04589811,-0.09773447,-0.99415356,0.056663882,0.99385476,-0.09508904,0.02154541,9.773117,-0.18434143,0.0368042,9.805893,-0.102645874,-0.003189087,0.019165039,-0.004257202,0.0,-32.063293,-19.737244,0,0.0,0.0,0.0,0.0
0.615234375,0.99997437,-0.0037506428,0.006092946,0.0060536596,-0.010398302,-0.9999276,0.003813728,0.9999389,-0.010375332,0.9974488,-0.050747838,0.050204188,0.045156687,-0.09613592,-0.9943434,0.0552872,0.9940737,-0.09359906,-0.002380371,9.835373,-0.011962891,0.037399292,9.805893,-0.101745605,0.0021362305,0.009597778,-0.0063934326,0.0,-32.063293,-19.737244,0,0.0,0.0,0.0,0.0
0.619628906,0.99988085,-0.003642013,0.015005943,0.014967183,-0.010446648,-0.9998335,0.0037981677,0.99993885,-0.010390891,0.997554,-0.049575817,0.04927787,0.044429302,-0.09455389,-0.9945278,0.053963948,0.9942846,-0.09211999,-0.01675415,9.864105,-0.15560913,0.037246704,9.805893,-0.10189819,-0.014892578,0.023422241,0.015960693,0.18005371,-32.600403,-19.909668,0,0.0,0.0,0.0,0.0
0.624023438,0.99988073,-0.003641117,0.015004476,0.014965491,-0.01050731,-0.9998327,0.003798165,0.99993813,-0.010451566,0.9976467,-0.048416052,0.048549056,0.043891877,-0.09300788,-0.9946975,0.05267477,0.9944875,-0.09066393,0.06463623,9.7827,-0.25616455,0.037246704,9.805893,-0.102493286,-0.0021209717,0.012771606,0.0021362305,0.18005371,-32.600403,-19.909668,0,0.0,0.0,0.0,0.0
0.628417969,0.99988073,-0.003641117,0.015004476,0.014965491,-0.01050731,-0.9998327,0.003798165,0.99993813,-0.010451566,0.99772835,-0.047098994,0.04816532,0.043711454,-0.0914093,-0.9948536,0.051259365,0.99469894,-0.08914288,0.002380371,9.8736725,-0.08857727,0.037246704,9.805893,-0.102493286,-0.004257202,0.020233154,-0.01171875,0.18005371,-32.600403,-19.909668,0,0.0,0.0,0.0,0.0
0.6328125,0.9981983,-0.0044480436,-0.059836257,-0.05987904,-0.010203604,-0.9981535,0.0038292846,0.9999381,-0.0104515655,0.997813,-0.046006233,0.047462404,0.043183446,-0.08991559,-0.99501276,0.050044395,0.9948862,-0.08773223,0.13645935,9.926346,-0.12210083,0.03755188,9.805893,-0.102493286,-0.014892578,0.012771606,0.0053253174,-1.2542725,-32.24182,-18.527222,0,0.0,0.0,0.0,0.0
0.637207031,0.99819696,-0.0044346116,-0.059859544,-0.05990231,-0.010235496,-0.99815184,0.0038137238,0.99993783,-0.010482684,0.9979564,-0.045080822,0.045285195,0.041169554,-0.08837635,-0.99523604,0.048868198,0.9950665,-0.08633979,-0.01675415,9.840164,-0.16040039,0.037399292,9.805893,-0.10279846,0.007461548,-0.003189087,-0.0053253174,-1.2542725,-32.24182,-18.527222,0,0.0,0.0,0.0,0.0
0.641601563,0.9981971,-0.0044354354,-0.059858117,-0.059900943,-0.010249479,-0.9981518,0.003813723,0.99993765,-0.010496685,0.99809146,-0.044173703,0.043151855,0.039193034,-0.08686761,-0.99544865,0.04772115,0.99524003,-0.08497052,0.03590393,9.849731,-0.16519165,0.037399292,9.805893,-0.10293579,0.009597778,-0.007446289,0.007461548,-1.2542725,-32.24182,-18.527222,0,0.0,0.0,0.0,0.0
0.645996094,0.9999885,-0.0038285633,-0.0028857293,-0.0029256246,-0.010456045,-0.9999411,0.0037981647,0.9999381,-0.010467126,0.9982077,-0.043294724,0.041315913,0.037515163,-0.08519635,-0.9956577,0.046626687,0.9954231,-0.08341944,0.011962891,9.82579,-0.03590393,0.037246704,9.805893,-0.102645874,-0.011703491,0.015975952,0.0,-0.17852783,-31.88324,-19.56482,0,0.0,0.0,0.0,0.0
0.650390625,0.9999884,-0.0037995789,-0.0029329623,-0.002972663,-0.010485512,-0.9999405,0.0037686,0.99993783,-0.010496687,0.9982865,-0.04233233,0.04039955,0.036745757,-0.08379645,-0.99580514,0.04554009,0.9955833,-0.08209733,-0.05984497,9.749176,-0.18434143,0.036956787,9.805893,-0.10293579,0.0063934326,0.0010681152,0.0053253174,-0.17852783,-31.88324,-19.56482,0,0.0,0.0,0.0,0.0
0.654785156,0.9999885,-0.0038147937,-0.0029081684,-0.0029479181,-0.010456,-0.999941,0.0037841608,0.9999381,-0.010467126,0.9983619,-0.041390378,0.039501756,0.035989106,-0.082423344,-0.9959474,0.044478506,0.99573755,-0.08079872,0.09336853,9.811432,0.011962891,0.037109375,9.805893,-0.102645874,-0.006378174,0.0,-0.015975952,-0.17852783,-31.88324,-19.56482,0,0.0,0.0,0.0,0.0
0.659179688,0.9999886,-0.0038590764,-0.002836005,-0.0028761034,-0.010425029,-0.99994165,0.0038292853,0.99993825,-0.010436009,0.9984337,-0.040477045,0.03862393,0.035246402,-0.08107116,-0.9960849,0.04344986,0.9958861,-0.079517506,0.12689209,9.854523,-0.05984497,0.03755188,9.805893,-0.1023407,0.0032043457,0.0021362305,0.0010681152,-0.17852783,-31.88324,-19.56482,0,0.0,0.0,0.0,0.0
0.663574219,0.99998856,-0.0038897197,-0.0027860678,-0.0028265486,-0.010440691,-0.9999415,0.003860404,0.99993795,-0.0104515655,0.9985059,-0.03949147,0.03776738,0.034526587,-0.07975103,-0.99621665,0.042354047,0.99603224,-0.078268364,0.12689209,9.835373,-0.11730957,0.037857056,9.805893,-0.102493286,0.0010681152,0.0,-0.0063934326,-0.17852783,-31.88324,-19.56482,0,0.0,0.0,0.0,0.0
0.66796875,0.99998856,-0.0038745059,-0.0028108614,-0.0028513013,-0.010471755,-0.9999411,0.003844843,0.99993765,-0.010482682,0.99857056,-0.038640317,0.036929667,0.033812135,-0.07843873,-0.99634534,0.041395817,0.9961698,-0.077020094,0.007171631,9.797058,-0.16998291,0.037704468,9.805893,-0.10279846,-0.0010528564,-0.008514404,-0.0053253174,-0.17852783,-31.88324,-19.56482,0,0.0,0.0,0.0,0.0
0.672363281,0.99978584,-0.004085804,-0.02028138,-0.020322822,-0.010370747,-0.9997395,0.0038744071,0.99993783,-0.010451564,0.9986323,-0.037808392,0.03610912,0.033109933,-0.07715178,-0.99646944,0.04046079,0.99630225,-0.075794436,0.09815979,9.883255,-0.04548645,0.037994385,9.805893,-0.102493286,0.010665894,-0.0021209717,-0.0010681152,-0.5371094,-32.600403,-19.909668,0,0.0,0.0,0.0,0.0
0.676757813,0.999786,-0.004086425,-0.020280367,-0.020321937,-0.010401862,-0.9997394,0.0038744062,0.99993753,-0.01048268,0.9987025,-0.03702981,0.034958094,0.03207141,-0.07587135,-0.9966017,0.03955629,0.9964298,-0.07458531,0.03111267,9.797058,-0.17477417,0.037994385,9.805893,-0.10279846,0.019180298,-0.0021209717,0.0010681152,-0.5371094,-32.600403,-19.909668,0,0.0,0.0,0.0,0.0
0.681152344,0.99978524,-0.0040585743,-0.02032595,-0.020367462,-0.010462945,-0.999738,0.0038448407,0.9999371,-0.010543359,0.9987714,-0.036356356,0.03367263,0.030888408,-0.07460165,-0.9967349,0.038749684,0.99655044,-0.07338701,-0.026321411,9.844955,-0.2609558,0.037704468,9.805893,-0.103393555,-0.0010528564,-0.0095825195,0.0053253174,-0.5371094,-32.600403,-19.909668,0,0.0,0.0,0.0,0.0
0.685546875,0.99687064,-0.0030320906,0.078991756,0.07895493,-0.010785391,-0.9968198,0.003874405,0.99993724,-0.010512241,0.99883497,-0.035606436,0.032571018,0.029890895,-0.07337351,-0.9968565,0.03788436,0.9966687,-0.07222372,0.11251831,9.835373,-0.01675415,0.037994385,9.805893,-0.10308838,0.0063934326,-0.0021209717,-0.0021362305,1.435852,-33.139038,-19.392395,0,0.0,0.0,0.0,0.0
0.689941406,0.9968682,-0.0030496165,0.07902152,0.07898461,-0.0107572405,-0.9968177,0.0038899656,0.9999375,-0.010482679,0.9988357,-0.034736823,0.033474416,0.030897677,-0.07223414,-0.99690896,0.037047446,0.9967826,-0.07107675,0.05505371,9.76355,-0.05027771,0.038146973,9.805893,-0.10279846,-0.003189087,-0.014907837,0.013839722,1.435852,-33.139038,-19.392395,0,0.0,0.0,0.0,0.0
0.694335938,0.9968742,-0.0030054413,0.07894648,0.078910045,-0.010753452,-0.9968236,0.003844843,0.99993765,-0.010482682,0.9988381,-0.033879083,0.034273654,0.031797945,-0.071092784,-0.99696285,0.036212794,0.9968942,-0.06993289,0.03590393,9.816223,-0.011962891,0.037704468,9.805893,-0.10279846,-0.0010528564,-0.0053253174,-0.0010681152,1.435852,-33.139038,-19.392395,0,0.0,0.0,0.0,0.0
0.698730469,0.9994747,-0.0041644387,-0.032139454,-0.032181107,-0.010354104,-0.9994285,0.0038292834,0.9999378,-0.010482683,0.9988354,-0.03305788,0.03514436,0.03276372,-0.069989115,-0.9970096,0.035418745,0.99699986,-0.0688245,-0.02154541,9.8736725,-0.09815979,0.03755188,9.805893,-0.10279846,0.007461548,-0.022369385,-0.008529663,-0.7171631,-33.139038,-18.008423,0,0.0,0.0,0.0,0.0
0.703125,0.99947214,-0.004117276,-0.032226138,-0.03226695,-0.010263458,-0.99942666,0.003784164,0.9999389,-0.010390892,0.9989036,-0.032412,0.0337812,0.031487823,-0.06883136,-0.99713135,0.03464422,0.99710166,-0.06773531,-0.06942749,9.892838,0.11251831,0.037109375,9.805893,-0.10189819,0.010665894,-0.007446289,-0.01171875,-0.7171631,-33.139038,-18.008423,0,0.0,0.0,0.0,0.0
0.707519531,0.99947363,-0.004144804,-0.03217554,-0.03221646,-0.010216061,-0.9994287,0.0038137292,0.9999392,-0.010344215,0.9989681,-0.031779546,0.032444596,0.03023523,-0.067693956,-0.9972479,0.03388839,0.9971999,-0.06666324,0.02154541,9.739609,0.007171631,0.037399292,9.805893,-0.10144043,-0.0010528564,-0.019165039,0.0010681152,-0.7171631,-33.139038,-18.008423,0,0.0,0.0,0.0,0.0
0.711914063,0.9982649,-0.0031826415,0.058797725,0.058761172,-0.010565123,-0.9982163,0.0037981689,0.99993914,-0.010359774,0.9990378,-0.031323146,0.030697793,0.028560251,-0.066545494,-0.99737453,0.03328371,0.9972916,-0.06558687,-0.03590393,9.76355,-0.12210083,0.037246704,9.805893,-0.10159302,-0.0021209717,-0.026626587,0.0095825195,1.0772705,-33.139038,-20.083618,0,0.0,0.0,0.0,0.0
0.716308594,0.9982662,-0.0031688998,0.05877512,0.05873872,-0.010564228,-0.9982175,0.0037841653,0.9999392,-0.010359774,0.99904346,-0.030598488,0.031240761,0.029183835,-0.06550624,-0.9974253,0.03256617,0.9973829,-0.0645506,0.01675415,9.8736725,-0.06942749,0.037109375,9.805893,-0.10159302,0.0032043457,-0.022369385,0.0021362305,1.0772705,-33.139038,-20.083618,0,0.0,0.0,0.0,0.0
0.720703125,0.9982736,-0.0030949838,0.058653552,0.05861799,-0.010543843,-0.9982248,0.0037079232,0.99993956,-0.010344218,0.999048,-0.029893171,0.03177318,0.02979365,-0.06448522,-0.9974739,0.031866558,0.99747086,-0.06353321,0.05505371,9.806641,0.04069519,0.036361694,9.805893,-0.10144043,0.0053253174,-0.036209106,0.0,1.0772705,-33.139038,-20.083618,0,0.0,0.0,0.0,0.0
0.725097656,0.99925464,-0.004103053,-0.0383836,-0.038423784,-0.010209733,-0.9992094,0.0037079228,0.9999395,-0.010359778,0.9990518,-0.029199911,0.03229323,0.030388236,-0.06348339,-0.9975201,0.031177584,0.9975556,-0.06253586,0.05027771,9.859314,-0.12210083,0.036361694,9.805893,-0.10159302,0.008529663,-0.012771606,-0.019180298,-0.8956909,-31.88324,-19.909668,0,0.0,0.0,0.0,0.0
0.729492188,0.99925464,-0.004103053,-0.0383836,-0.038423784,-0.010209733,-0.9992094,0.0037079228,0.9999395,-0.010359778,0.99912626,-0.028629882,0.030447483,0.028612316,-0.062460598,-0.9976372,0.030464003,0.99763674,-0.061586857,0.02154541,9.849731,-0.10772705,0.036361694,9.805893,-0.10159302,0.0010681152,-0.025558472,-0.0010681152,-0.8956909,-31.88324,-19.909668,0,0.0,0.0,0.0,0.0
0.733886719,0.9992521,-0.004057156,-0.038456984,-0.03849669,-0.01021123,-0.99920654,0.0036612435,0.99993956,-0.010359779,0.99918294,-0.028090915,0.029058367,0.027289093,-0.06143934,-0.99773777,0.029812694,0.9977155,-0.060622565,-0.05984497,9.768341,-0.11730957,0.03590393,9.805893,-0.10159302,-0.006378174,-0.017044067,-0.0021362305,-0.8956909,-31.88324,-19.909668,0,0.0,0.0,0.0,0.0
0.73828125,0.99719375,-0.0029083518,0.07480751,0.07477292,-0.010591408,-0.9971444,0.0036923639,0.99993974,-0.01034422,0.9992364,-0.02755977,0.027695745,0.02598989,-0.060439434,-0.9978335,0.029173976,0.99779135,-0.05967701,0.09336853,10.050858,-0.06942749,0.036209106,9.805893,-0.10144043,-0.0010528564,-0.0010528564,0.012786865,1.435852,-33.139038,-20.428467,0,0.0,0.0,0.0,0.0
0.742675781,0.99719524,-0.0028964148,0.07478825,0.07475394,-0.010545196,-0.99714625,0.0036768054,0.99994016,-0.010299101,0.999228,-0.026909988,0.028623283,0.026981294,-0.059517715,-0.9978625,0.028556062,0.9978645,-0.058745697,0.011962891,9.907196,0.04069519,0.03605652,9.805893,-0.100997925,-0.006378174,0.0032043457,0.008514404,1.435852,-33.139038,-20.428467,0,0.0,0.0,0.0,0.0
0.747070313,0.99719083,-0.0029313935,0.07484468,0.07481024,-0.01048718,-0.9971426,0.0037079274,0.99994075,-0.010238423,0.9992225,-0.02629699,0.02937448,0.027793407,-0.058594298,-0.9978949,0.02796281,0.9979355,-0.057817858,0.09336853,9.864105,0.04069519,0.036361694,9.805893,-0.10040283,-0.0010528564,-0.0095825195,0.0010681152,1.435852,-33.139038,-20.428467,0,0.0,0.0,0.0,0.0
0.751464844,0.9999885,-0.0037236938,-0.0030422397,-0.0030801843,-0.010227073,-0.999943,0.0036923676,0.99994075,-0.010238423,0.99921167,-0.025688475,0.030270368,0.028747886,-0.057698973,-0.9979201,0.027381614,0.9980035,-0.056914993,-0.007171631,9.950287,-0.08857727,0.036209106,9.805893,-0.10040283,0.004272461,-0.007446289,0.010650635,-0.17852783,-32.24182,-19.218445,0,0.0,0.0,0.0,0.0
0.755859375,0.9999884,-0.0036931871,-0.0030934173,-0.0031311552,-0.010256541,-0.99994254,0.0036612472,0.99994063,-0.010267986,0.99924475,-0.025184589,0.02959305,0.028124839,-0.05678005,-0.9979904,0.026814274,0.998069,-0.056028854,-0.03590393,9.931137,-0.18913269,0.03590393,9.805893,-0.10069275,-0.003189087,0.010650635,-0.0063934326,-0.17852783,-32.24182,-19.218445,0,0.0,0.0,0.0,0.0
0.760253906,0.9999885,-0.0037238286,-0.0030420132,-0.0030801257,-0.010272192,-0.9999426,0.003692366,0.99994034,-0.010283543,0.9992765,-0.024689628,0.028928787,0.027512878,-0.05588065,-0.9980583,0.026258247,0.99813217,-0.05516094,0.09815979,9.907196,-0.15083313,0.036209106,9.805893,-0.10084534,0.01171875,0.0053253174,0.0063934326,-0.17852783,-32.24182,-19.218445,0,0.0,0.0,0.0,0.0
0.764648438,0.99990064,-0.0035360935,0.013647621,0.013610385,-0.010348257,-0.9998538,0.0036768054,0.99994016,-0.010299101,0.9993105,-0.024141282,0.028208435,0.026847303,-0.054959662,-0.9981276,0.025646403,0.99819666,-0.05427364,0.026321411,9.902405,-0.12210083,0.03605652,9.805893,-0.100997925,-0.0021209717,-0.004257202,-0.004257202,0.18005371,-32.600403,-21.638489,0,0.0,0.0,0.0,0.0
0.769042969,0.99990094,-0.0035213784,0.013625453,0.013588537,-0.010302854,-0.99985456,0.0036612477,0.99994075,-0.010253984,0.9993306,-0.023655513,0.027906895,0.026594132,-0.05410224,-0.9981812,0.025122315,0.99825513,-0.053436924,-0.007171631,9.844955,0.02154541,0.03590393,9.805893,-0.10055542,0.004272461,0.013839722,0.004257202,0.18005371,-32.600403,-21.638489,0,0.0,0.0,0.0,0.0
0.7734375,0.99990135,-0.0035066826,0.013603317,0.013566724,-0.010255896,-0.9998554,0.0036456897,0.9999413,-0.010207308,0.99934983,-0.023181982,0.027611315,0.026344985,-0.05325948,-0.9982331,0.024611589,0.9983116,-0.05261413,-0.03590393,9.821014,0.007171631,0.035751343,9.805893,-0.100097656,0.010665894,0.014907837,-0.0010681152,0.18005371,-32.600403,-21.638489,0,0.0,0.0,0.0,0.0
0.777832031,0.9999891,-0.003555123,-0.0030288566,-0.0030646988,-0.010120134,-0.99994403,0.0035242715,0.9999424,-0.0101309195,0.9993685,-0.02272025,0.027321607,0.02609995,-0.052430835,-0.9982834,0.024113743,0.99836606,-0.051804725,-0.03111267,9.844955,-0.09336853,0.034561157,9.806046,-0.099349976,0.0010681152,0.010650635,0.003189087,-0.17852783,-32.958984,-20.256042,0,0.0,0.0,0.0,0.0
0.782226563,0.9999891,-0.003570431,-0.0030039488,-0.0030399475,-0.010120175,-0.99994415,0.0035398314,0.9999424,-0.0101309195,0.9993901,-0.021956028,0.027155787,0.02599904,-0.0513579,-0.9983419,0.023314288,0.99843895,-0.05075574,-0.01675415,9.854523,-0.09815979,0.034713745,9.806046,-0.099349976,-0.014892578,0.027694702,-0.020248413,-0.17852783,-32.958984,-20.256042,0,0.0,0.0,0.0,0.0
0.786621094,0.99998915,-0.0035994716,-0.0029566975,-0.0029929373,-0.010104696,-0.99994445,0.0035693946,0.9999424,-0.01011536,0.9994156,-0.021535935,0.026544511,0.025427997,-0.050556492,-0.9983974,0.022843419,0.99848896,-0.04997933,0.13166809,9.859314,-0.03590393,0.035003662,9.806046,-0.09919739,-0.0010528564,0.030883789,0.0063934326,-0.17852783,-32.958984,-20.256042,0,0.0,0.0,0.0,0.0
0.791015625,0.99888736,-0.004036634,-0.04698717,-0.04702497,-0.009844698,-0.9988452,0.003569398,0.9999434,-0.010023567,0.9994401,-0.02112955,0.025946826,0.024868935,-0.04976942,-0.9984511,0.02238818,0.9985372,-0.049216077,-0.03111267,9.758759,-0.06942749,0.035003662,9.806046,-0.09829712,0.0032043457,0.029815674,-0.0010681152,-1.0757446,-32.421875,-20.083618,0,0.0,0.0,0.0,0.0
0.795410156,0.9988862,-0.0040206863,-0.047012858,-0.04705045,-0.009831341,-0.9988442,0.0035538392,0.9999436,-0.010009565,0.99947524,-0.020870447,0.024773836,0.02373311,-0.048718322,-0.9985305,0.022046719,0.99859446,-0.048197433,-0.01675415,9.8736725,-0.05984497,0.034851074,9.806046,-0.09815979,-0.015960693,0.018096924,0.0053253174,-1.0757446,-32.421875,-20.083618,0,0.0,0.0,0.0,0.0
0.799804688,0.99888617,-0.004019966,-0.047014017,-0.047051545,-0.009815794,-0.9988442,0.0035538394,0.9999437,-0.009994007,0.9995171,-0.02052126,0.02333185,0.022326022,-0.047946975,-0.9986003,0.021611229,0.99863905,-0.047465667,0.03590393,9.811432,-0.05027771,0.034851074,9.806046,-0.0980072,0.0053253174,0.0010681152,-0.004257202,-1.0757446,-32.421875,-20.083618,0,0.0,0.0,0.0,0.0
0.804199219,0.9999143,-0.0036794816,-0.012561947,-0.012598068,-0.009964065,-0.99987096,0.0035538392,0.9999436,-0.010009565,0.9995561,-0.02017989,0.021918923,0.020946711,-0.04719037,-0.99866635,0.021187339,0.9986821,-0.04674672,0.04548645,9.902405,-0.15560913,0.034851074,9.806046,-0.09815979,-0.0053253174,0.020233154,-0.0095825195,-0.35858154,-32.421875,-19.04602,0,0.0,0.0,0.0,0.0
0.80859375,0.9999143,-0.0036794816,-0.012561947,-0.012598068,-0.009964065,-0.99987096,0.0035538392,0.9999436,-0.010009565,0.99957836,-0.019813018,0.021223068,0.020283788,-0.046461813,-0.998714,0.020773603,0.99872357,-0.046040345,0.007171631,9.897629,-0.06463623,0.034851074,9.806046,-0.09815979,-0.006378174,0.022354126,0.004257202,-0.35858154,-32.421875,-19.04602,0,0.0,0.0,0.0,0.0
0.812988281,0.9999133,-0.0036194262,-0.012664161,-0.01269957,-0.009933348,-0.99987,0.0034931581,0.9999441,-0.009978451,0.9995933,-0.01952856,0.02078095,0.019875139,-0.045488343,-0.99876714,0.020449776,0.998774,-0.04508171,0.04069519,9.844955,-0.08857727,0.03425598,9.806046,-0.097854614,-0.015960693,0.014907837,0.004257202,-0.35858154,-32.421875,-19.04602,0,0.0,0.0,0.0,0.0
0.817382813,0.9998817,-0.0033291588,0.015014968,0.014981284,-0.009922149,-0.99983853,0.0034776025,0.9999453,-0.0098711,0.99961406,-0.019171232,0.020105839,0.019230604,-0.044794556,-0.9988111,0.020049073,0.99881226,-0.044408593,0.03590393,9.82579,-0.007171631,0.034103394,9.806046,-0.09680176,-0.004257202,0.039398193,-0.012786865,0.18005371,-32.600403,-19.218445,0,0.0,0.0,0.0,0.0
0.821777344,0.9998825,-0.0033016447,0.014968303,0.014935258,-0.009815768,-0.9998402,0.0034480423,0.9999463,-0.009765305,0.99962324,-0.018799111,0.019997925,0.019152552,-0.04412174,-0.9988426,0.019659696,0.9988493,-0.043745063,0.05027771,9.859314,-0.04069519,0.033813477,9.806046,-0.09576416,-0.013824463,0.04260254,-0.0063934326,0.18005371,-32.600403,-19.218445,0,0.0,0.0,0.0,0.0
0.826171875,0.99988204,-0.0033176367,0.014995428,0.014962385,-0.009769421,-0.99984026,0.0034636038,0.9999467,-0.0097186295,0.99962324,-0.018799111,0.019997925,0.019152552,-0.04412174,-0.9988426,0.019659696,0.9988493,-0.043745063,0.05027771,9.859314,-0.04069519,0.033966064,9.806046,-0.0953064,-0.013824463,0.04260254,-0.0063934326,0.18005371,-32.600403,-19.218445,0,0.0,0.0,0.0,0.0
0.830566406,0.99471456,-0.0024895198,0.10264826,0.10261847,-0.010058377,-0.9946699,0.0035087254,0.9999463,-0.009749744,0.99962866,-0.018124187,0.020345986,0.01955688,-0.04270292,-0.99889636,0.01897302,0.9989234,-0.042332612,0.11251831,9.753967,-0.10293579,0.03440857,9.806046,-0.09561157,-0.006378174,0.034072876,0.0021362305,1.9729614,-32.600403,-19.909668,0,0.0,0.0,0.0,0.0
0.834960938,0.9947216,-0.0024484976,0.102581784,0.10255252,-0.010022633,-0.99467707,0.0034636038,0.9999467,-0.0097186295,0.9996014,-0.017709194,0.021988511,0.021227062,-0.04209628,-0.998888,0.018615136,0.9989566,-0.04170358,0.007171631,9.864105,-0.14125061,0.033966064,9.806046,-0.0953064,0.0063934326,0.026626587,0.0021362305,1.9729614,-32.600403,-19.909668,0,0.0,0.0,0.0,0.0
0.839355469,0.99472404,-0.0024346812,0.1025594,0.102530345,-0.010007056,-0.99467975,0.0034480449,0.999947,-0.009704628,0.9995718,-0.017303487,0.023596734,0.022861898,-0.04149967,-0.9988769,0.01826331,0.9989887,-0.04108631,0.002380371,9.816223,-0.03590393,0.033813477,9.806046,-0.09516907,-0.0084991455,0.024490356,-0.007461548,1.9729614,-32.600403,-19.909668,0,0.0,0.0,0.0,0.0
0.84375,0.9953651,-0.0024668977,0.09613711,0.09610803,-0.0100020785,-0.9953206,0.003416925,0.9999469,-0.00971863,0.99954003,-0.016908793,0.025172561,0.024463415,-0.040912803,-0.99886316,0.017919453,0.9990196,-0.04048034,-0.07899475,9.830582,-0.12210083,0.0335083,9.806046,-0.0953064,-0.0010528564,0.020233154,-0.004257202,1.7944336,-31.704712,-19.392395,0,0.0,0.0,0.0,0.0
0.848144531,0.9953736,-0.0024131958,0.096050106,0.09602177,-0.009935643,-0.9953296,0.0033562444,0.99994767,-0.009657956,0.9994992,-0.01663599,0.026917905,0.026231915,-0.040164072,-0.9988487,0.017697971,0.9990546,-0.039707564,-0.09336853,9.835373,0.05984497,0.032913208,9.806046,-0.0947113,-0.010635376,0.020233154,0.0063934326,1.7944336,-31.704712,-19.392395,0,0.0,0.0,0.0,0.0
0.852539063,0.99538106,-0.0023660546,0.09597373,0.095945776,-0.0099621015,-0.9953367,0.003311121,0.9999476,-0.009689074,0.9994673,-0.016259417,0.028296858,0.02763465,-0.039600383,-0.9988334,0.017361013,0.9990833,-0.039129965,-0.11251831,9.864105,-0.19392395,0.032470703,9.806046,-0.09501648,0.0010681152,0.018096924,-0.0063934326,1.7944336,-31.704712,-19.392395,0,0.0,0.0,0.0,0.0
0.856933594,0.9999038,-0.0034099186,-0.013444352,-0.013476635,-0.009628488,-0.9998628,0.0032800017,0.9999478,-0.009673515,0.9994341,-0.015890209,0.029647112,0.029007971,-0.03904839,-0.9988162,0.01702907,0.999111,-0.03856535,-0.026321411,9.916779,-0.04069519,0.032165527,9.806046,-0.09486389,-0.0074310303,0.012771606,-0.0021362305,-0.35858154,-32.780457,-18.354797,0,0.0,0.0,0.0,0.0
0.861328125,0.9999035,-0.0033942105,-0.0134724,-0.013504431,-0.009597491,-0.9998628,0.0032644435,0.9999482,-0.009642401,0.9994638,-0.015613841,0.028781623,0.028163314,-0.038470827,-0.99886274,0.016703337,0.99913776,-0.03801046,-0.03590393,9.768341,-0.011962891,0.03201294,9.806046,-0.094558716,-0.006378174,0.02130127,0.008514404,-0.35858154,-32.780457,-18.354797,0,0.0,0.0,0.0,0.0
0.865722656,0.99990416,-0.0034250095,-0.013417409,-0.013449788,-0.009612814,-0.9998633,0.003295562,0.9999479,-0.009657958,0.99948114,-0.015412414,0.02828309,0.027682066,-0.037905995,-0.99889785,0.016467525,0.99916244,-0.03745968,0.12689209,9.797058,-0.13645935,0.032318115,9.806046,-0.0947113,0.0,0.02130127,0.004257202,-0.35858154,-32.780457,-18.354797,0,0.0,0.0,0.0,0.0
0.870117188,0.99990374,-0.0034093012,-0.013445452,-0.013477577,-0.009581814,-0.9998632,0.0032800036,0.99994826,-0.009626841,0.9995085,-0.015148486,0.027445674,0.026864022,-0.037350845,-0.99894106,0.016157564,0.9991874,-0.036925536,0.002380371,9.897629,-0.04548645,0.032165527,9.806046,-0.09440613,0.007461548,0.008529663,-0.0053253174,-0.35858154,-32.780457,-18.354797,0,0.0,0.0,0.0,0.0
0.874511719,0.99990445,-0.003440101,-0.013390461,-0.013422936,-0.00959714,-0.99986386,0.0033111223,0.999948,-0.009642399,0.9995346,-0.014889928,0.026624769,0.026061773,-0.03680516,-0.9989826,0.015854707,0.99921155,-0.03639997,0.08378601,9.878464,-0.09815979,0.032470703,9.806046,-0.094558716,-0.004257202,-0.004257202,0.0095825195,-0.35858154,-32.780457,-18.354797,0,0.0,0.0,0.0,0.0
0.87890625,0.9999044,-0.0034405102,-0.013389728,-0.013422309,-0.009628256,-0.99986345,0.0033111211,0.99994767,-0.009673515,0.9995589,-0.014521314,0.025906593,0.025367916,-0.036126412,-0.99902517,0.01544307,0.9992417,-0.035742104,0.04069519,9.859314,-0.20350647,0.032470703,9.806046,-0.09486389,-0.0084991455,0.0053253174,-0.007461548,-0.35858154,-32.780457,-18.354797,0,0.0,0.0,0.0,0.0
0.883300781,0.99879825,-0.0028495,0.048927475,0.048897453,-0.0097935,-0.99875575,0.003325126,0.99994797,-0.009642398,0.9995825,-0.014279636,0.025117666,0.024595946,-0.03560538,-0.99906313,0.015160582,0.9992639,-0.035239294,0.05505371,9.883255,-0.007171631,0.032608032,9.806046,-0.094558716,0.019180298,0.0032043457,-0.0053253174,0.8972168,-33.317566,-20.256042,0,0.0,0.0,0.0,0.0
0.887695313,0.99879724,-0.0028617973,0.04894766,0.04891731,-0.009856477,-0.99875414,0.0033406834,0.9999473,-0.009704631,0.9995744,-0.014001315,0.02559042,0.025085688,-0.035111,-0.9990685,0.01488678,0.99928534,-0.034744825,0.09815979,9.92157,-0.24659729,0.03276062,9.806046,-0.09516907,-0.004257202,0.004272461,-0.008529663,0.8972168,-33.317566,-20.256042,0,0.0,0.0,0.0,0.0
0.892089844,0.9987959,-0.0028770913,0.048972756,0.048942253,-0.00985731,-0.99875295,0.0033562433,0.9999473,-0.009704631,0.99956626,-0.013730313,0.026054353,0.025565892,-0.034626234,-0.99907327,0.014619752,0.999306,-0.034260187,0.05984497,9.888046,-0.10772705,0.032913208,9.806046,-0.09516907,0.007461548,-0.0010528564,0.0053253174,0.8972168,-33.317566,-20.256042,0,0.0,0.0,0.0,0.0
0.896484375,0.9994266,-0.0030432988,0.033721603,0.033690345,-0.009797219,-0.9993843,0.0033718033,0.99994737,-0.009689072,0.9995592,-0.013396406,0.026492983,0.02602163,-0.03421644,-0.99907565,0.014290518,0.9993247,-0.033852763,0.07899475,9.844955,-0.06942749,0.033065796,9.806046,-0.09501648,0.004272461,-0.0010528564,-0.004257202,0.53863525,-32.24182,-18.873596,0,0.0,0.0,0.0,0.0
0.900878906,0.9994266,-0.0030427827,0.03372072,0.03368941,-0.009812765,-0.9993841,0.0033718026,0.9999472,-0.00970463,0.9995587,-0.013154567,0.026634574,0.026177943,-0.033741776,-0.9990877,0.014041263,0.999344,-0.033382524,0.03590393,9.801849,-0.12689209,0.033065796,9.806046,-0.09516907,-0.0021209717,0.0010681152,-0.01171875,0.53863525,-32.24182,-18.873596,0,0.0,0.0,0.0,0.0
0.905273438,0.99942863,-0.0030106981,0.033665966,0.033634823,-0.009856647,-0.99938565,0.003340682,0.9999469,-0.009749751,0.99955803,-0.0129190935,0.026773512,0.026331097,-0.033277452,-0.99909925,0.01379841,0.99936265,-0.03292257,-0.05027771,9.859314,-0.20828247,0.03276062,9.806046,-0.09561157,-0.0053253174,0.009597778,-0.0021362305,0.53863525,-32.24182,-18.873596,0,0.0,0.0,0.0,0.0
0.909667969,0.99955016,-0.0036273734,-0.029772202,-0.029805733,-0.009569704,-0.9995099,0.0033406846,0.9999476,-0.009673514,0.9995574,-0.012686904,0.026908636,0.02648002,-0.032823008,-0.9991103,0.013558839,0.99938065,-0.03247253,0.002380371,9.883255,0.10293579,0.03276062,9.806046,-0.09486389,0.012786865,0.018096924,0.0,-0.7171631,-32.780457,-20.083618,0,0.0,0.0,0.0,0.0
0.9140625,0.9995522,-0.003674226,-0.029695798,-0.029729886,-0.009599694,-0.99951184,0.0033873622,0.9999472,-0.00970463,0.99958456,-0.012396645,0.026019663,0.025605679,-0.032460645,-0.9991449,0.013230661,0.99939615,-0.032129735,0.17477417,9.840164,-0.18434143,0.033218384,9.806046,-0.09516907,0.0063934326,0.014907837,-0.0063934326,-0.7171631,-32.780457,-20.083618,0,0.0,0.0,0.0,0.0
0.918457031,0.9995541,-0.0037181817,-0.029624123,-0.029658584,-0.009583065,-0.99951404,0.0034324857,0.9999472,-0.00968907,0.99961513,-0.012222468,0.024903536,0.024501532,-0.032003142,-0.9991874,0.013009527,0.999413,-0.031691357,0.13166809,9.844955,-0.026321411,0.03366089,9.806046,-0.09501648,0.0032043457,0.004272461,-0.0010681152,-0.7171631,-32.780457,-20.083618,0,0.0,0.0,0.0,0.0
0.922851563,0.9982008,-0.0028133006,0.05989465,0.059864137,-0.009904871,-0.9981575,0.0034013656,0.999947,-0.009718632,0.99964374,-0.012054972,0.0238114,0.02342096,-0.031554554,-0.99922764,0.012797019,0.99942935,-0.031260975,-0.04069519,9.844955,-0.17477417,0.033355713,9.806046,-0.0953064,0.017044067,-0.004257202,-0.004257202,1.0772705,-30.628967,-19.392395,0,0.0,0.0,0.0,0.0
0.927246094,0.9982008,-0.0028133006,0.05989465,0.059864137,-0.009904871,-0.9981575,0.0034013656,0.999947,-0.009718632,0.999629,-0.01183234,0.024530977,0.024152458,-0.031136403,-0.99922323,0.012586956,0.9994451,-0.030839073,0.02154541,9.849731,-0.09815979,0.033355713,9.806046,-0.0953064,0.004272461,-0.007446289,-0.018112183,1.0772705,-30.628967,-19.392395,0,0.0,0.0,0.0,0.0
0.931640625,0.998202,-0.0027995359,0.059872977,0.059842594,-0.00990397,-0.99815863,0.0033873618,0.999947,-0.009718632,0.99962103,-0.011424764,0.025044292,0.02468279,-0.03075562,-0.9992221,0.01218613,0.99946165,-0.03046197,-0.002380371,9.902405,-0.10293579,0.033218384,9.806046,-0.0953064,0.0021362305,-0.01171875,-0.01171875,1.0772705,-30.628967,-19.392395,0,0.0,0.0,0.0,0.0
0.936035156,0.99954605,-0.0030938014,0.029968597,0.029936837,-0.009846837,-0.99950325,0.0033873608,0.9999467,-0.009749749,0.9996057,-0.0112191895,0.025739133,0.02538845,-0.03035125,-0.99921685,0.011991617,0.9994763,-0.030054443,0.026321411,9.859314,-0.19392395,0.033218384,9.806046,-0.09561157,0.0053253174,0.017028809,-0.0010681152,0.53863525,-32.24182,-21.29364,0,0.0,0.0,0.0,0.0
0.940429688,0.9995461,-0.003093342,0.029967902,0.029936094,-0.009862387,-0.99950314,0.0033873601,0.99994653,-0.0097653065,0.99960566,-0.011036855,0.025821835,0.025481403,-0.029949391,-0.9992266,0.0118016675,0.9994905,-0.029656347,0.03590393,9.792282,-0.11730957,0.033218384,9.806046,-0.09576416,-0.0053253174,-0.0021209717,-0.0032043457,0.53863525,-32.24182,-21.29364,0,0.0,0.0,0.0,0.0
0.944824219,0.9995468,-0.0030784765,0.029945415,0.029913807,-0.009846302,-0.999504,0.0033718012,0.99994683,-0.00974975,0.9996055,-0.010858423,0.025902897,0.02557233,-0.029554691,-0.99923605,0.01161568,0.9995042,-0.029265357,-0.002380371,9.753967,-0.05027771,0.033065796,9.806046,-0.09561157,-0.009567261,0.004272461,0.0053253174,0.53863525,-32.24182,-21.29364,0,0.0,0.0,0.0,0.0
0.94921875,0.9971457,-0.0025812588,0.07545667,0.07542756,-0.009957312,-0.9971016,0.0033251229,0.99994713,-0.009734193,0.99960625,-0.010684577,0.025946736,0.025626034,-0.029133018,-0.99924695,0.011432438,0.99951845,-0.028847745,-0.10293579,9.830582,-0.05505371,0.032608032,9.806046,-0.095458984,-0.0021209717,-0.0021209717,0.0,1.435852,-32.421875,-20.083618,0,0.0,0.0,0.0,0.0
0.953613281,0.99714607,-0.002578948,0.07545297,0.07542378,-0.009988329,-0.99710166,0.003325122,0.99994683,-0.009765309,0.9995822,-0.010485314,0.026936024,0.026624858,-0.028763745,-0.9992316,0.011252037,0.99953127,-0.028472556,0.05984497,9.797058,-0.16998291,0.032608032,9.806046,-0.09576416,-0.0084991455,0.012771606,0.007461548,1.435852,-32.421875,-20.083618,0,0.0,0.0,0.0,0.0
0.958007813,0.9971479,-0.0025640493,0.075429045,0.07539995,-0.010002727,-0.9971033,0.0033111179,0.9999467,-0.009780868,0.99955755,-0.010290974,0.027905643,0.027603656,-0.028401548,-0.99921536,0.011075462,0.9995436,-0.028104914,-0.01675415,9.911987,-0.15083313,0.032470703,9.806046,-0.09591675,-0.006378174,0.007461548,-0.0021362305,1.435852,-32.421875,-20.083618,0,0.0,0.0,0.0,0.0
0.962402344,0.9999789,-0.0032704698,0.0056072436,0.005575008,-0.009783749,-0.9999366,0.003325122,0.99994683,-0.009765309,0.9995325,-0.01010142,0.028855175,0.028562069,-0.028047632,-0.99919844,0.010902642,0.9995555,-0.027746005,0.07421875,9.835373,-0.05984497,0.032608032,9.806046,-0.09576416,-0.003189087,0.013839722,-0.008529663,0.0,-32.063293,-18.701172,0,0.0,0.0,0.0,0.0
0.966796875,0.999979,-0.0032708046,0.005607818,0.0055757808,-0.009723075,-0.99993724,0.003325124,0.99994737,-0.009704632,0.9995392,-0.009978736,0.028667003,0.028383344,-0.02749419,-0.9992188,0.010759118,0.99957216,-0.027198292,0.03111267,9.945511,0.04548645,0.032608032,9.806046,-0.09516907,-0.011703491,0.017028809,0.0010681152,0.0,-32.063293,-18.701172,0,0.0,0.0,0.0,0.0
0.971191406,0.99997944,-0.0032267584,0.0055323006,0.0055008996,-0.009660346,-0.9999381,0.0032800029,0.999948,-0.009642399,0.9995538,-0.0098363375,0.028204829,0.027928889,-0.02714187,-0.99924135,0.010594407,0.9995832,-0.026855042,-0.02154541,9.94072,-0.14125061,0.032165527,9.806046,-0.094558716,-0.011703491,0.018096924,-0.0010681152,0.0,-32.063293,-18.701172,0,0.0,0.0,0.0,0.0
0.975585938,0.9981291,-0.0026877886,0.06108163,0.061052695,-0.009779674,-0.99808663,0.0032800045,0.99994856,-0.009597281,0.99956787,-0.009695656,0.027750134,0.027481765,-0.026796013,-0.9992631,0.010432105,0.9995939,-0.026517982,0.12210083,9.806641,-0.20350647,0.032165527,9.806046,-0.09411621,-0.01914978,0.031951904,-0.007461548,1.0772705,-32.780457,-19.04602,0,0.0,0.0,0.0,0.0
0.979980469,0.99813366,-0.0026462933,0.06101047,0.060982093,-0.009730144,-0.9980915,0.0032348828,0.99994916,-0.009550607,0.99954104,-0.0093981195,0.028797686,0.028543502,-0.026146693,-0.99925053,0.010144041,0.99961394,-0.02586644,-0.03590393,9.840164,-0.05505371,0.031723022,9.806046,-0.09365845,-0.01914978,0.023422241,-0.008529663,1.0772705,-32.780457,-19.04602,0,0.0,0.0,0.0,0.0
0.984375,0.99813807,-0.002605035,0.060939714,0.06091199,-0.009651021,-0.9980965,0.0031882063,0.99995005,-0.0094743725,0.9995238,-0.009237304,0.02944097,0.029193908,-0.025828248,-0.99924004,0.009990692,0.9996237,-0.025546275,-0.05984497,9.883255,-0.16040039,0.03126526,9.806046,-0.09291077,-0.006378174,0.029815674,-0.0053253174,1.0772705,-32.780457,-19.04602,0,0.0,0.0,0.0,0.0
0.988769531,0.99617606,-0.0022827531,0.08733967,0.087313496,-0.009773296,-0.99613297,0.0031275216,0.9999496,-0.009536607,0.9995066,-0.009079158,0.030069977,0.02982992,-0.025514467,-0.9992293,0.009839381,0.99963325,-0.025231045,-0.06942749,9.816223,-0.22744751,0.030670166,9.806046,-0.09352112,-0.023422241,0.045791626,-0.004257202,1.6143799,-30.807495,-19.218445,0,0.0,0.0,0.0,0.0
0.993164063,0.9961818,-0.0022423135,0.087275326,0.087249756,-0.009707082,-0.9961393,0.0030808446,0.9999504,-0.009474375,0.9994729,-0.008907918,0.031215549,0.030982375,-0.025212565,-0.9992019,0.0096878335,0.99964243,-0.02492329,0.05984497,10.007751,0.04069519,0.030212402,9.806046,-0.09291077,0.0021362305,0.036209106,-0.0053253174,1.6143799,-30.807495,-19.218445,0,0.0,0.0,0.0,0.0
0.997558594,0.9961768,-0.0022767226,0.08733006,0.08730429,-0.009664972,-0.99613476,0.0031119653,0.9999507,-0.009429255,0.9994285,-0.008550056,0.032703876,0.032482207,-0.024891285,-0.99916226,0.009356935,0.9996536,-0.024599334,0.05505371,9.854523,-0.04548645,0.030517578,9.806046,-0.09246826,-0.0010528564,0.022354126,-0.01171875,1.6143799,-30.807495,-19.218445,0,0.0,0.0,0.0,0.0
1.001953125,0.9976755,-0.0023866356,0.06810163,0.06807578,-0.0096140755,-0.99763376,0.0030357228,0.9999509,-0.009429256,0.9993935,-0.0083948765,0.03379661,0.033581167,-0.024598781,-0.9991333,0.009218955,0.99966216,-0.024301952,-0.026321411,9.92157,-0.15560913,0.029769897,9.806046,-0.09246826,-0.004257202,0.030883789,0.0021362305,1.2557983,-33.317566,-19.56482,0,0.0,0.0,0.0,0.0
1.006347656,0.99767524,-0.0023887209,0.06810516,0.06807939,-0.00958304,-0.9976339,0.003035724,0.99995124,-0.009398141,0.9993713,-0.008249335,0.034482032,0.03427255,-0.024308307,-0.9991168,0.009080248,0.99967045,-0.024010297,-0.02154541,9.830582,-0.03111267,0.029769897,9.806046,-0.092163086,-0.004257202,0.04473877,-0.010650635,1.2557983,-33.317566,-19.56482,0,0.0,0.0,0.0,0.0
1.010742188,0.99767685,-0.002375426,0.06808263,0.068057075,-0.009552436,-0.99763566,0.003020165,0.99995154,-0.00936858,0.999349,-0.008108347,0.035153687,0.034950018,-0.024023632,-0.99910027,0.008945571,0.9996785,-0.023724606,-0.04548645,9.844955,-0.21786499,0.02961731,9.806046,-0.09187317,-0.0010528564,0.043670654,0.003189087,1.2557983,-33.317566,-19.56482,0,0.0,0.0,0.0,0.0
1.015136719,0.9955666,-0.0020979282,0.0940355,0.09401134,-0.00959278,-0.9955249,0.0029906018,0.9999518,-0.009353022,0.9993026,-0.007997928,0.0364739,0.036277592,-0.023448108,-0.9990666,0.0088457065,0.99969304,-0.02314161,-0.05505371,9.787491,-0.14604187,0.029327393,9.806046,-0.09172058,-0.018081665,0.04046631,0.0010681152,1.7944336,-33.139038,-19.737244,0,0.0,0.0,0.0,0.0
1.01953125,0.9955666,-0.0020979282,0.0940355,0.09401134,-0.00959278,-0.9955249,0.0029906018,0.9999518,-0.009353022,0.999261,-0.007849184,0.03762567,0.037434876,-0.023183988,-0.99903005,0.008713883,0.9997004,-0.022873024,0.02154541,9.892838,-0.07421875,0.029327393,9.806046,-0.09172058,-0.006378174,0.025558472,0.0021362305,1.7944336,-33.139038,-19.737244,0,0.0,0.0,0.0,0.0
1.023925781,0.99556535,-0.0021064265,0.09404965,0.094025694,-0.009501422,-0.9955246,0.0029906046,0.9999527,-0.009261227,0.99921906,-0.007703932,0.038754642,0.038569182,-0.022922581,-0.998993,0.008584531,0.9997076,-0.022607546,0.007171631,9.8736725,0.13166809,0.029327393,9.806046,-0.09082031,-0.011703491,0.009597778,0.0021362305,1.7944336,-33.139038,-19.737244,0,0.0,0.0,0.0,0.0
1.028320313,0.9911504,-0.0017527571,0.13273278,0.13271034,-0.009548778,-0.99110883,0.003004609,0.9999528,-0.009231664,0.99917656,-0.0075635463,0.039861083,0.03968069,-0.022663942,-0.99895537,0.008459054,0.99971455,-0.022345154,0.06463623,9.859314,-0.002380371,0.029464722,9.806046,-0.090530396,-0.0053253174,0.0021362305,-0.007461548,2.331543,-32.24182,-17.835999,0,0.0,0.0,0.0,0.0
1.032714844,0.9911504,-0.0017527571,0.13273278,0.13271034,-0.009548778,-0.99110883,0.003004609,0.9999528,-0.009231664,0.9991044,-0.0074398573,0.041654736,0.04147762,-0.022556689,-0.9988848,0.008371153,0.9997179,-0.022227898,0.03590393,9.730026,-0.10772705,0.029464722,9.806046,-0.090530396,0.008529663,-0.004257202,0.0021362305,2.331543,-32.24182,-17.835999,0,0.0,0.0,0.0,0.0
1.037109375,0.9911517,-0.0017468686,0.13272232,0.13269979,-0.009593479,-0.9911098,0.0030046077,0.99995244,-0.009276785,0.99902767,-0.007290708,0.04348129,0.043309122,-0.02230988,-0.9988126,0.008252114,0.9997245,-0.021972433,0.04069519,9.835373,-0.19392395,0.029464722,9.806046,-0.0909729,-0.0084991455,-0.003189087,0.003189087,2.331543,-32.24182,-17.835999,0,0.0,0.0,0.0,0.0
1.041503906,0.995549,-0.002117274,0.09422024,0.09419612,-0.009518589,-0.9955081,0.0030046077,0.99995244,-0.009276785,0.99894917,-0.007145754,0.04527068,0.045103252,-0.022069039,-0.9987385,0.008135821,0.9997309,-0.021723552,-0.002380371,9.854523,-0.10293579,0.029464722,9.806046,-0.0909729,0.0063934326,-0.008514404,0.0010681152,1.7944336,-34.573364,-19.737244,0,0.0,0.0,0.0,0.0
1.045898438,0.9955558,-0.0020772624,0.094150774,0.09412717,-0.009469276,-0.9955152,0.0029594859,0.99995303,-0.009231666,0.9989052,-0.007022163,0.046249986,0.046086967,-0.02182766,-0.99869895,0.008022555,0.9997371,-0.021480134,-0.08857727,9.821014,0.04548645,0.029022217,9.806046,-0.090530396,0.007461548,0.004272461,-0.0095825195,1.7944336,-34.573364,-19.737244,0,0.0,0.0,0.0,0.0
1.050292969,0.9955585,-0.0020607258,0.094122045,0.09409857,-0.009481693,-0.9955178,0.0029439258,0.999953,-0.0092456695,0.99887407,-0.0069433204,0.046929836,0.046768904,-0.02176419,-0.9986686,0.0079554655,0.99973905,-0.021414954,0.002380371,9.902405,-0.12689209,0.028869629,9.806046,-0.090667725,0.010665894,-0.017044067,0.003189087,1.7944336,-34.573364,-19.737244,0,0.0,0.0,0.0,0.0
1.0546875,0.99817234,-0.002333423,0.06038631,0.06036181,-0.009434881,-0.9981319,0.0028988016,0.99995273,-0.009276788,0.9988301,-0.006822213,0.047874093,0.047717422,-0.021525446,-0.99862885,0.007843371,0.999745,-0.021174725,-0.03590393,9.797058,-0.08378601,0.028427124,9.806046,-0.0909729,0.0053253174,-0.02130127,-0.004257202,1.0772705,-32.063293,-19.04602,0,0.0,0.0,0.0,0.0
1.059082031,0.99817705,-0.0022884777,0.060310908,0.060286883,-0.009416361,-0.9981367,0.0028521228,0.99995303,-0.00926123,0.99881876,-0.006717281,0.048123926,0.04797128,-0.021289637,-0.9986218,0.0077325646,0.9997508,-0.020942252,-0.002380371,9.849731,0.09336853,0.02796936,9.806046,-0.09082031,0.009597778,-0.029815674,-0.004257202,1.0772705,-32.063293,-19.04602,0,0.0,0.0,0.0,0.0
1.063476563,0.99818146,-0.0022458893,0.060239464,0.06021592,-0.009383974,-0.9981412,0.0028070002,0.9999534,-0.00923167,0.99884564,-0.0064632995,0.04759878,0.047451645,-0.021275211,-0.998647,0.0074672285,0.99975276,-0.020943956,-0.08378601,9.821014,-0.007171631,0.027526855,9.806046,-0.090530396,0.0138549805,-0.04685974,-0.008529663,1.0772705,-32.063293,-19.04602,0,0.0,0.0,0.0,0.0
1.067871094,0.9999066,-0.0026669065,0.0134095205,0.01338415,-0.009313356,-0.9998671,0.0027914394,0.99995303,-0.009276791,0.99883425,-0.006364982,0.047851115,0.047707736,-0.02104237,-0.99863964,0.0073632244,0.9997583,-0.020714179,-0.06942749,9.892838,-0.03111267,0.027374268,9.806046,-0.0909729,-0.0010528564,-0.022369385,0.0010681152,0.18005371,-32.600403,-19.909668,0,0.0,0.0,0.0,0.0
1.072265625,0.9999076,-0.00262187,0.013335788,0.0133107165,-0.009357674,-0.99986756,0.002746315,0.99995273,-0.009321911,0.99886745,-0.00628789,0.047162324,0.047022313,-0.02080981,-0.9986771,0.00726101,0.99976367,-0.02049057,-0.05984497,9.859314,-0.002380371,0.026931763,9.806046,-0.091415405,0.0138549805,-0.06604004,0.004257202,0.18005371,-32.600403,-19.909668,0,0.0,0.0,0.0,0.0
1.076660156,0.9999065,-0.0026664953,0.013408846,0.013383392,-0.009344466,-0.99986666,0.0027914385,0.99995273,-0.009307907,0.99886745,-0.00628789,0.047162324,0.047022313,-0.02080981,-0.9986771,0.00726101,0.99976367,-0.02049057,-0.05984497,9.859314,-0.002380371,0.027374268,9.806046,-0.091278076,0.0138549805,-0.06604004,0.004257202,0.18005371,-32.600403,-19.909668,0,0.0,0.0,0.0,0.0
1.081054688,0.99990654,-0.0026656943,0.013407535,0.013381921,-0.009405136,-0.9998662,0.002791437,0.9999522,-0.009368585,0.99899733,-0.006445267,0.044304192,0.044163942,-0.020479405,-0.9988144,0.0073449486,0.9997695,-0.020174222,-0.06942749,9.864105,-0.20828247,0.027374268,9.806046,-0.09187317,0.0063934326,-0.092666626,0.019165039,0.18005371,-32.600403,-19.909668,0,0.0,0.0,0.0,0.0
1.085449219,0.9999066,-0.0026646876,0.013405887,0.01338007,-0.009481362,-0.99986553,0.002791435,0.9999515,-0.009444823,0.99902505,-0.006363291,0.043685973,0.04354912,-0.02025956,-0.9988458,0.0072410055,0.9997745,-0.019962693,0.03111267,9.777908,-0.18434143,0.027374268,9.806046,-0.09262085,0.0021362305,-0.113983154,0.007461548,0.18005371,-32.600403,-19.909668,0,0.0,0.0,0.0,0.0
1.08984375,0.9999051,-0.002723033,0.01350141,0.013474733,-0.009588219,-0.99986315,0.002852115,0.9999503,-0.009550618,0.99905187,-0.0062827324,0.04308024,0.042946637,-0.020045629,-0.9988763,0.0071392427,0.99977934,-0.019756801,0.011962891,9.806641,-0.3950348,0.02796936,9.806046,-0.09365845,0.009597778,-0.12782288,-0.0010681152,0.18005371,-32.600403,-19.909668,0,0.0,0.0,0.0,0.0
1.094238281,0.9997625,-0.0026734257,0.021631882,0.02160492,-0.009733601,-0.99971926,0.0028832313,0.9999491,-0.009673528,0.9990777,-0.0062057516,0.042488575,0.04235804,-0.019837564,-0.9989054,0.00704183,0.99978393,-0.019556403,0.08857727,9.835373,-0.29927063,0.028274536,9.806046,-0.09486389,-0.003189087,-0.11930847,0.015960693,0.36010742,-30.628967,-20.428467,0,0.0,0.0,0.0,0.0
1.098632813,0.99976254,-0.0026708387,0.021628004,0.021600716,-0.0098549165,-0.9997181,0.0028832278,0.9999479,-0.009794883,0.99918723,-0.006173256,0.03983262,0.03970331,-0.019815246,-0.99901503,0.0069564683,0.9997846,-0.019554043,0.03111267,9.864105,-0.29447937,0.028274536,9.806046,-0.09605408,0.010665894,-0.13635254,0.003189087,0.36010742,-30.628967,-20.428467,0,0.0,0.0,0.0,0.0
1.103027344,0.99976414,-0.0026250582,0.021559391,0.021532381,-0.0099159805,-0.99971896,0.002838103,0.99994737,-0.009857117,0.9992022,-0.006096029,0.039468437,0.039342076,-0.019618968,-0.9990332,0.006864466,0.99978894,-0.019363487,-0.06463623,9.897629,-0.375885,0.027832031,9.806046,-0.09666443,0.010665894,-0.14379883,0.0021362305,0.36010742,-30.628967,-20.428467,0,0.0,0.0,0.0,0.0
1.107421875,0.9999231,-0.0029561662,-0.012040838,-0.01206921,-0.009775515,-0.9998793,0.002838104,0.9999478,-0.009810442,0.9992168,-0.0060185976,0.039109826,0.038986295,-0.019427981,-0.99905086,0.00677271,0.9997932,-0.019178122,-0.05027771,9.840164,-0.14125061,0.027832031,9.806046,-0.096206665,-0.010635376,-0.14274597,-0.0021362305,-0.35858154,-33.8562,-21.466064,0,0.0,0.0,0.0,0.0
1.111816406,0.9999233,-0.0029690543,-0.012020514,-0.012048798,-0.009699176,-0.9998803,0.0028521102,0.99994856,-0.009734207,0.9992567,-0.005955688,0.03808707,0.03796622,-0.019234106,-0.99909395,0.0066828625,0.9997973,-0.018993694,0.04548645,9.859314,-0.17955017,0.02796936,9.806046,-0.095458984,-0.012756348,-0.15872192,0.0095825195,-0.35858154,-33.8562,-21.466064,0,0.0,0.0,0.0,0.0
1.116210938,0.9999226,-0.0029235187,-0.012092319,-0.012119899,-0.009607723,-0.9998803,0.0028069895,0.9999495,-0.009642413,0.9993982,-0.0059255892,0.034177363,0.03406158,-0.018640466,-0.9992459,0.0065582027,0.99980867,-0.018427415,-0.026321411,9.82579,-0.09336853,0.027526855,9.806046,-0.094558716,-0.024475098,-0.1768341,0.0010681152,-0.35858154,-33.8562,-21.466064,0,0.0,0.0,0.0,0.0
1.120605469,0.9997422,-0.0026245147,0.022551592,0.022525707,-0.00950639,-0.999701,0.0028381143,0.99995136,-0.009444821,0.9994298,-0.005863745,0.03325221,0.0331389,-0.018461773,-0.9992802,0.0064734193,0.99981236,-0.018256929,0.05984497,9.92157,-0.05505371,0.027832031,9.806046,-0.09262085,-0.023422241,-0.19067383,-0.0021362305,0.36010742,-32.421875,-19.737244,0,0.0,0.0,0.0,0.0
1.125,0.9997426,-0.0026159654,0.022537556,0.022512617,-0.009201136,-0.9997043,0.0028225626,0.9999543,-0.009139875,0.9994374,-0.0057923486,0.03303805,0.032927215,-0.018285358,-0.99929047,0.0063923514,0.99981606,-0.018084344,-0.09336853,9.821014,0.15560913,0.027679443,9.806046,-0.08963013,-0.04046631,-0.19281006,0.0063934326,0.36010742,-32.421875,-19.737244,0,0.0,0.0,0.0,0.0
1.129394531,0.99973834,-0.0027246312,0.022715978,0.022690613,-0.009004902,-0.99970204,0.002928374,0.9999557,-0.008940721,0.9994446,-0.005723047,0.032827437,0.032719076,-0.018104017,-0.9993006,0.0063133533,0.99981976,-0.01790671,0.09336853,9.911987,-0.05984497,0.028717041,9.806046,-0.087677,-0.047912598,-0.18321228,0.0053253174,0.36010742,-32.421875,-19.737244,0,0.0,0.0,0.0,0.0
1.133789063,0.9992665,-0.0033077095,-0.0381516,-0.038178977,-0.008652749,-0.9992335,0.0029750578,0.9999571,-0.008772686,0.9995486,-0.006009154,0.029435068,0.029327512,-0.01727018,-0.99942064,0.006514022,0.9998328,-0.01708615,0.12210083,9.844955,-0.04069519,0.029174805,9.806046,-0.08602905,-0.04046631,-0.19387817,0.020217896,-0.8956909,-32.958984,-20.602417,0,0.0,0.0,0.0,0.0
1.138183594,0.99926347,-0.0032558981,-0.038234353,-0.038260836,-0.008501766,-0.99923164,0.0029283368,0.9999586,-0.008620078,0.99958783,-0.0059601325,0.028083116,0.027977675,-0.017095916,-0.99946237,0.006437035,0.9998361,-0.016922118,-0.07421875,9.835373,-0.01675415,0.028717041,9.806198,-0.08453369,-0.035125732,-0.1768341,0.0053253174,-0.8956909,-32.958984,-20.602417,0,0.0,0.0,0.0,0.0
1.142578125,0.9992641,-0.003267777,-0.038215376,-0.03824169,-0.008409503,-0.999233,0.0029438986,0.99995923,-0.008528281,0.9996245,-0.005911138,0.026756644,0.02665329,-0.016922394,-0.9995014,0.006360978,0.9998393,-0.016758487,-0.03590393,9.864105,-0.08857727,0.028869629,9.806198,-0.08363342,-0.028747559,-0.1800232,0.0,-0.8956909,-32.958984,-20.602417,0,0.0,0.0,0.0,0.0
1.146972656,0.9997471,-0.0031456463,-0.02226201,-0.022287525,-0.008323359,-0.9997168,0.0029594616,0.9999604,-0.008391365,0.9996587,-0.0058645504,0.025457084,0.025355697,-0.016751809,-0.9995381,0.0062882933,0.99984246,-0.016597392,-0.01675415,9.854523,-0.04069519,0.029022217,9.806198,-0.08229065,-0.020217896,-0.16616821,0.008514404,-0.5371094,-32.24182,-19.56482,0,0.0,0.0,0.0,0.0
1.151367188,0.9997491,-0.0032021608,-0.022168932,-0.022194462,-0.008169869,-0.9997203,0.003020148,0.9999615,-0.008238889,0.9997401,-0.005980658,0.02199632,0.021897465,-0.016115865,-0.9996302,0.006332936,0.99985224,-0.015980717,0.02154541,9.897629,0.10293579,0.02961731,9.806198,-0.08079529,-0.028747559,-0.15232849,0.0095825195,-0.5371094,-32.24182,-19.56482,0,0.0,0.0,0.0,0.0
1.155761719,0.99974954,-0.0032158443,-0.022146394,-0.022171805,-0.008093377,-0.9997214,0.0030357095,0.9999621,-0.008162651,0.9997595,-0.005927996,0.02111271,0.021015823,-0.015956147,-0.99965185,0.0062628095,0.9998551,-0.015827728,0.10772705,9.883255,-0.05505371,0.029769897,9.806198,-0.08004761,-0.017028809,-0.14060974,0.014892578,-0.5371094,-32.24182,-19.56482,0,0.0,0.0,0.0,0.0
1.16015625,0.9991617,-0.0027462335,0.040843587,0.040819712,-0.008250548,-0.9991324,0.003080833,0.99996215,-0.008131532,0.99977773,-0.0058775716,0.020247579,0.020152569,-0.015798647,-0.99967206,0.0061955284,0.9998579,-0.015676687,0.06942749,9.835373,-0.06942749,0.030212402,9.806198,-0.07974243,-0.017028809,-0.10971069,-0.004257202,0.71868896,-32.063293,-19.737244,0,0.0,0.0,0.0,0.0
1.164550781,0.9991596,-0.002778738,0.04089631,0.040872306,-0.0082068825,-0.9991307,0.0031119534,0.99996245,-0.008086411,0.99979734,-0.0059325397,0.019240767,0.019146234,-0.01560096,-0.999695,0.0062309047,0.9998607,-0.015484212,0.14125061,9.811432,0.05984497,0.030517578,9.806198,-0.07929993,-0.003189087,-0.08627319,0.007461548,0.71868896,-32.063293,-19.737244,1,0.0,0.0,0.0,0.0
1.168945313,0.99915624,-0.0028256855,0.04097246,0.040948253,-0.008148312,-0.999128,0.0031570776,0.99996275,-0.00802573,0.9997893,-0.00586394,0.019673705,0.01958108,-0.01545489,-0.9996888,0.00616617,0.9998634,-0.015336811,0.11730957,9.768341,0.07421875,0.030960083,9.806198,-0.078704834,-0.0010528564,-0.02130127,0.003189087,0.71868896,-32.063293,-19.737244,1,0.0,0.0,0.0,0.0
1.173339844,0.9974947,-0.0025325671,0.07069701,0.070673876,-0.008286158,-0.99746513,0.0031119534,0.99996245,-0.008086411,0.9997812,-0.0057987478,0.020099431,0.020008653,-0.015309687,-0.99968266,0.0061046234,0.999866,-0.015190312,0.05505371,9.849731,-0.05984497,0.030517578,9.806198,-0.07929993,0.012786865,0.012771606,0.0063934326,1.2557983,-32.24182,-18.873596,1,0.0,0.0,0.0,0.0
1.177734375,0.99750304,-0.0024644295,0.07058116,0.07055823,-0.008402638,-0.9974724,0.0030512682,0.99996173,-0.008207771,0.99976075,-0.005723798,0.021111965,0.021023065,-0.015171729,-0.9996639,0.006042179,0.9998685,-0.015047767,0.002380371,9.7444,-0.09336853,0.029922485,9.806198,-0.08049011,0.017044067,0.036209106,-0.01171875,1.2557983,-32.24182,-18.873596,1,0.0,0.0,0.0,0.0
1.182128906,0.9975071,-0.0024305792,0.07052361,0.07050083,-0.008446862,-0.997476,0.0030201478,0.99996144,-0.008254448,0.9997154,-0.005447878,0.02322501,0.023138195,-0.015489205,-0.9996123,0.005805503,0.9998652,-0.015358743,-0.06942749,9.835373,-0.01675415,0.02961731,9.806198,-0.080947876,0.027709961,0.06816101,-0.01171875,1.2557983,-32.24182,-18.873596,1,0.0,0.0,0.0,0.0
1.186523438,0.99829715,-0.0035011396,-0.0582297,-0.058256626,-0.008156169,-0.99826837,0.0030201452,0.9999606,-0.008346244,0.9996934,-0.0053798016,0.024171561,0.024086535,-0.015352545,-0.999592,0.0057487017,0.9998677,-0.015218257,0.03111267,9.830582,-0.08378601,0.02961731,9.806198,-0.081848145,0.015991211,0.06071472,0.0,-1.2542725,-32.24182,-19.56482,1,0.0,0.0,0.0,0.0
1.190917969,0.9982905,-0.003429526,-0.05834729,-0.0583738,-0.008220783,-0.9982609,0.0029439018,0.9999603,-0.008406924,0.999732,-0.00535158,0.022523254,0.022439629,-0.015205302,-0.99963254,0.005692087,0.99987006,-0.01508114,-0.02154541,9.979019,0.011962891,0.028869629,9.806198,-0.08244324,0.021316528,0.07136536,-0.0021362305,-1.2542725,-32.24182,-19.56482,1,0.0,0.0,0.0,0.0
1.1953125,0.9982948,-0.0034755054,-0.058271788,-0.05829868,-0.00821832,-0.9982653,0.0029905802,0.9999601,-0.008406922,0.99976724,-0.0053210137,0.020905614,0.02082339,-0.015063785,-0.99966973,0.0056341738,0.9998724,-0.014949478,0.05505371,9.739609,-0.13166809,0.029327393,9.806198,-0.08244324,0.022369385,0.09480286,-0.0138549805,-1.2542725,-32.24182,-19.56482,1,0.0,0.0,0.0,0.0
1.200134277,0.9997519,-0.0032065278,-0.022044277,-0.022070585,-0.008414478,-0.99972105,0.0030201417,0.99995947,-0.008483159,0.99976176,-0.005432304,0.021142334,0.021059602,-0.014857991,-0.9996678,0.005744632,0.99987483,-0.014740049,0.16998291,9.907196,-0.17477417,0.02961731,9.806198,-0.08319092,-0.004257202,0.11077881,0.008514404,-0.5371094,-32.958984,-19.56482,1,0.0,0.0,0.0,0.0
1.204956055,0.9997514,-0.0031921705,-0.022068447,-0.02209477,-0.008459853,-0.9997201,0.003004581,0.9999591,-0.00852828,0.9997798,-0.0053900504,0.020278543,0.020197272,-0.014730029,-0.99968743,0.0056870696,0.999877,-0.014617922,-0.03590393,9.902405,-0.05984497,0.029464722,9.806198,-0.08363342,0.010665894,0.09587097,-0.0063934326,-0.5371094,-32.958984,-19.56482,1,0.0,0.0,0.0,0.0
1.20980835,0.999752,-0.0032098412,-0.022038696,-0.022065496,-0.008566933,-0.9997199,0.003020138,0.9999582,-0.008635635,0.99979687,-0.0053474316,0.019431472,0.019351602,-0.014604485,-0.99970603,0.0056296466,0.99987906,-0.014498036,0.05505371,9.897629,-0.35194397,0.02961731,9.806198,-0.08468628,0.014923096,0.116104126,0.0,-0.5371094,-32.958984,-19.56482,1,0.0,0.0,0.0,0.0
1.214630127,0.99804896,-0.0024112614,0.062389415,0.06236581,-0.008864123,-0.998014,0.0029594998,0.9999578,-0.008696449,0.99981284,-0.0053052194,0.018602043,0.018523544,-0.014482471,-0.9997235,0.005573156,0.999881,-0.014381489,0.011962891,9.907196,-0.25616455,0.029022217,9.806046,-0.08528137,0.0,0.09799194,0.0,1.2557983,-31.166077,-21.29364,1,0.0,0.0,0.0,0.0
1.219482422,0.99806046,-0.0022878512,0.06220947,0.062186792,-0.008918258,-0.99802464,0.002838132,0.9999576,-0.008758687,0.99976873,-0.0050104414,0.020914197,0.020840257,-0.014384142,-0.9996793,0.0053096684,0.999884,-0.0142763965,-0.13166809,9.8688965,-0.17477417,0.027832031,9.806046,-0.08589172,0.0010681152,0.08734131,-0.0138549805,1.2557983,-31.166077,-21.29364,1,0.0,0.0,0.0,0.0
1.224304199,0.9980659,-0.0022293571,0.062124178,0.062102158,-0.008867474,-0.99803036,0.0027758507,0.9999582,-0.008711876,0.99975145,-0.004946372,0.021740586,0.021668077,-0.0142774405,-0.99966335,0.005255107,0.99988586,-0.014166713,-0.04548645,9.806641,-0.14125061,0.02722168,9.806198,-0.08543396,0.0053253174,0.07136536,-0.0138549805,1.2557983,-31.166077,-21.29364,1,0.0,0.0,0.0,0.0
1.229156494,0.998252,-0.002134473,0.05906214,0.059041046,-0.008868962,-0.99821603,0.0026544854,0.99995834,-0.008727438,0.9997338,-0.004882175,0.022548646,0.022477508,-0.014171996,-0.9996469,0.0052000107,0.99988765,-0.014058486,-0.11730957,9.959869,-0.15083313,0.026031494,9.806198,-0.08558655,-0.012756348,0.06604004,-0.0095825195,1.0772705,-32.780457,-19.392395,1,0.0,0.0,0.0,0.0
1.233978271,0.9982517,-0.0021380049,0.059068095,0.059047136,-0.008808402,-0.9982163,0.0026544868,0.9999589,-0.008666759,0.99969935,-0.004592226,0.024084091,0.024017721,-0.013993481,-0.9996135,0.0049274717,0.9998915,-0.01387898,0.011962891,9.830582,-0.06942749,0.026031494,9.806198,-0.084991455,-0.004257202,0.04899597,-0.0138549805,1.0772705,-32.780457,-19.392395,1,0.0,0.0,0.0,0.0
1.238830566,0.998255,-0.0021056747,0.059013635,0.058992896,-0.008835962,-0.99821943,0.0026233671,0.9999588,-0.008696322,0.99968255,-0.004535423,0.02478391,0.024718791,-0.01389443,-0.9995979,0.0048779584,0.9998932,-0.01377791,0.026321411,9.969452,-0.25616455,0.025726318,9.806198,-0.08528137,-0.011703491,0.022354126,0.0,1.0772705,-32.780457,-19.392395,1,0.0,0.0,0.0,0.0
1.243652344,0.99576294,-0.0017804925,0.09193925,0.0919199,-0.008928933,-0.9957263,0.0025938032,0.9999586,-0.00872744,0.9996655,-0.004478375,0.025469035,0.025405139,-0.013795922,-0.99958205,0.004827872,0.9998948,-0.013677534,-0.026321411,9.8688965,-0.27053833,0.025436401,9.806198,-0.08558655,-0.0074310303,0.027694702,-0.007461548,1.7944336,-33.49762,-20.083618,1,0.0,0.0,0.0,0.0
1.248504639,0.9957632,-0.001779083,0.091936916,0.09191753,-0.008944421,-0.9957263,0.0025938025,0.99995834,-0.008742997,0.99961656,-0.0043636295,0.027342528,0.027281016,-0.013579456,-0.99953556,0.0047329,0.99989825,-0.013455206,0.01675415,9.955078,-0.11251831,0.025436401,9.806198,-0.085739136,-0.0074310303,0.03302002,-0.0032043457,1.7944336,-33.49762,-20.083618,1,0.0,0.0,0.0,0.0
1.25302124,0.99576294,-0.0017804925,0.09193925,0.0919199,-0.008928933,-0.9957263,0.0025938032,0.9999586,-0.00872744,0.9995806,-0.0043016905,0.028636009,0.028575659,-0.013492776,-0.9995006,0.004685921,0.99989974,-0.013364193,0.007171631,9.878464,-0.06942749,0.025436401,9.806198,-0.08558655,-0.0010528564,0.0021362305,0.0021362305,1.7944336,-33.49762,-20.083618,1,0.0,0.0,0.0,0.0
1.257446289,0.9988111,-0.0029999504,-0.04865665,-0.048680816,-0.008591615,-0.9987775,0.0025782434,0.9999586,-0.00872744,0.9995438,-0.0042403373,0.029903978,0.02984476,-0.013403829,-0.99946463,0.004638895,0.9999012,-0.013271162,-0.011962891,9.878464,-0.07421875,0.025283813,9.806198,-0.08558655,-0.012756348,0.0053253174,0.007461548,-1.0757446,-32.421875,-20.083618,1,0.0,0.0,0.0,0.0
1.26184082,0.99881107,-0.003000697,-0.048655443,-0.048679657,-0.008607158,-0.9987774,0.0025782431,0.9999585,-0.008742998,0.9995897,-0.0042182542,0.02833271,0.028274298,-0.013306672,-0.9995116,0.004593208,0.99990255,-0.0131819425,0.026321411,9.8688965,-0.12689209,0.025283813,9.806198,-0.085739136,0.0,0.008529663,-0.0095825195,-1.0757446,-32.421875,-20.083618,1,0.0,0.0,0.0,0.0
1.266235352,0.99880975,-0.0029823792,-0.048684943,-0.048708845,-0.008545668,-0.99877656,0.002562685,0.9999591,-0.008680765,0.9996268,-0.004358239,0.026967019,0.026908427,-0.012987678,-0.99955356,0.004706532,0.9999062,-0.012865558,0.007171631,9.854523,0.07421875,0.025131226,9.806198,-0.085128784,-0.013824463,0.010650635,0.0095825195,-1.0757446,-32.421875,-20.083618,1,0.0,0.0,0.0,0.0
1.270629883,0.9999099,-0.0024803344,0.0131934,0.013171561,-0.008623972,-0.9998761,0.0025938062,0.99995977,-0.008590524,0.99966663,-0.0043311534,0.025454164,0.025396466,-0.012896685,-0.9995943,0.004657671,0.99990743,-0.012782389,0.07421875,9.773117,0.12689209,0.025436401,9.806198,-0.084243774,-0.009567261,0.0032043457,-0.010650635,0.18005371,-33.317566,-19.909668,1,0.0,0.0,0.0,0.0
1.275024414,0.99991024,-0.0024651987,0.013168073,0.013146407,-0.0086081475,-0.99987656,0.002578247,0.99995995,-0.008574966,0.999673,-0.0042908257,0.025208741,0.025151938,-0.012813905,-0.9996015,0.0046121385,0.9999087,-0.012701793,-0.01675415,9.768341,-0.026321411,0.025283813,9.806198,-0.08409119,-0.0084991455,0.004272461,0.010650635,0.18005371,-33.317566,-19.909668,1,0.0,0.0,0.0,0.0
1.279418945,0.9999099,-0.002480739,0.013194077,0.013172315,-0.00859286,-0.9998763,0.002593807,0.99996,-0.008559408,0.9996792,-0.004250728,0.024968058,0.024912179,-0.01273154,-0.9996085,0.0045669465,0.99990994,-0.012621562,0.05984497,9.821014,-0.03111267,0.025436401,9.806198,-0.0839386,0.0032043457,0.008529663,0.0,0.18005371,-33.317566,-19.909668,1,0.0,0.0,0.0,0.0
1.283813477,0.99951583,-0.0028869004,-0.030979577,-0.031003004,-0.008458439,-0.9994834,0.0026233704,0.99996,-0.008543847,0.99967694,-0.004213314,0.025064468,0.02500987,-0.012541937,-0.9996085,0.004526022,0.99991244,-0.012432511,0.026321411,9.854523,0.03111267,0.025726318,9.806198,-0.08378601,-0.006378174,0.020233154,0.0,-0.7171631,-32.780457,-20.083618,1,0.0,0.0,0.0,0.0
1.288208008,0.9995137,-0.0028433644,-0.031050557,-0.031073695,-0.00849074,-0.99948096,0.002578247,0.99995995,-0.008574966,0.99970454,-0.004187905,0.023943692,0.02388987,-0.012462324,-0.99963695,0.0044847787,0.9999136,-0.012358594,0.05027771,9.892838,-0.21307373,0.025283813,9.806198,-0.08409119,0.008529663,0.023422241,0.0063934326,-0.7171631,-32.780457,-20.083618,1,0.0,0.0,0.0,0.0
1.292602539,0.99951154,-0.0027973442,-0.031125596,-0.031148339,-0.008491983,-0.99947864,0.002531568,0.99996,-0.008574967,0.9997304,-0.0041608773,0.022843808,0.02279073,-0.012382754,-0.99966353,0.0044423463,0.99991465,-0.012284586,0.01675415,9.854523,0.02154541,0.02482605,9.806198,-0.08409119,-0.004257202,0.03727722,-0.012786865,-0.7171631,-32.780457,-20.083618,1,0.0,0.0,0.0,0.0
1.29699707,0.99950796,-0.002722178,-0.031248152,-0.03127025,-0.008494026,-0.9994749,0.0024553258,0.99996024,-0.008574969,0.9997546,-0.004133858,0.021764696,0.021712363,-0.012307203,-0.9996885,0.0044004326,0.9999157,-0.012214427,-0.07899475,9.8736725,-0.08378601,0.02407837,9.806198,-0.08409119,0.009597778,0.045791626,-0.010650635,-0.7171631,-32.780457,-20.083618,1,0.0,0.0,0.0,0.0
1.301391602,0.9995074,-0.0027102435,-0.031267613,-0.03128976,-0.00855506,-0.9994738,0.0024413208,0.99995977,-0.008635648,0.99975884,-0.0039816373,0.021597326,0.02154699,-0.012281251,-0.99969244,0.0042456547,0.9999167,-0.012192497,-0.01675415,9.897629,-0.14125061,0.02394104,9.806198,-0.08468628,0.0032043457,0.05432129,-0.007461548,-0.7171631,-32.780457,-20.083618,1,0.0,0.0,0.0,0.0
1.305786133,0.9995074,-0.0027116349,-0.031265344,-0.031287614,-0.008600163,-0.9994734,0.00244132,0.99995935,-0.008680767,0.9997812,-0.003955292,0.020540327,0.020490736,-0.012205585,-0.9997155,0.004204874,0.9999177,-0.012121868,0.01675415,9.911987,-0.13166809,0.02394104,9.806198,-0.085128784,0.009597778,0.05644226,0.0,-0.7171631,-32.780457,-20.083618,1,0.0,0.0,0.0,0.0
1.310180664,0.99991477,-0.0022820798,0.012861677,0.012841196,-0.008773056,-0.9998791,0.0023946397,0.9999589,-0.008743002,0.99980205,-0.0039298483,0.0195041,0.019455105,-0.0121336365,-0.9997371,0.0041654706,0.99991864,-0.01205478,-0.03111267,9.931137,-0.12689209,0.023483276,9.806198,-0.085739136,0.0063934326,0.07029724,-0.0032043457,0.18005371,-33.317566,-19.909668,1,0.0,0.0,0.0,0.0
1.314575195,0.99991614,-0.0022222777,0.012761614,0.0127416635,-0.008772056,-0.99988043,0.0023339572,0.9999591,-0.008743004,0.99980474,-0.0038934886,0.019371241,0.019323021,-0.012069725,-0.9997404,0.004126284,0.9999196,-0.011992135,-0.02154541,10.007751,-0.10293579,0.022888184,9.806198,-0.085739136,0.010665894,0.07029724,-0.0053253174,0.18005371,-33.317566,-19.909668,1,0.0,0.0,0.0,0.0
1.318969727,0.9999171,-0.0021753225,0.012683047,0.0126633365,-0.00884752,-0.99988055,0.0022872768,0.9999585,-0.008819241,0.9997849,-0.0036814902,0.020412236,0.020366758,-0.012000977,-0.9997205,0.0039254283,0.9999212,-0.011923416,-0.05027771,9.94072,-0.08378601,0.02243042,9.806198,-0.08648682,0.0,0.07136536,-0.010650635,0.18005371,-33.317566,-19.909668,1,0.0,0.0,0.0,0.0
1.323364258,0.9995868,-0.0019542514,0.028677756,0.0286591,-0.008984759,-0.9995488,0.0022110324,0.9999577,-0.00892504,0.99978817,-0.003647919,0.020257503,0.02021262,-0.0119397,-0.9997244,0.0038887819,0.99992204,-0.011863437,0.011962891,9.7827,-0.15560913,0.02168274,9.806198,-0.087524414,0.015991211,0.07136536,-0.004257202,0.53863525,-31.88324,-20.947266,1,0.0,0.0,0.0,0.0
1.327758789,0.99958813,-0.001923369,0.028630784,0.028612273,-0.00904617,-0.9995495,0.0021815018,0.9999572,-0.008987414,0.9997848,-0.00360982,0.020425886,0.020381719,-0.011885014,-0.9997217,0.0038515774,0.9999229,-0.011808883,0.04069519,9.854523,-0.2753296,0.021392822,9.806046,-0.088134766,0.020248413,0.06283569,-0.017044067,0.53863525,-31.88324,-20.947266,1,0.0,0.0,0.0,0.0
1.33215332,0.9995883,-0.0019216555,0.028628182,0.028609551,-0.0091068195,-0.9995491,0.0021815007,0.9999566,-0.009048092,0.9997848,-0.00360982,0.020425886,0.020381719,-0.011885014,-0.9997217,0.0038515774,0.9999229,-0.011808883,0.04069519,9.854523,-0.2753296,0.021392822,9.806046,-0.08872986,0.020248413,0.06283569,-0.017044067,0.53863525,-31.88324,-20.947266,1,0.0,0.0,0.0,0.0
1.336547852,0.99969834,-0.002341876,-0.024449022,-0.024469187,-0.009009066,-0.9996599,0.0021208168,0.9999566,-0.009063653,0.9997612,-0.0034827492,0.021574408,0.02153197,-0.011797767,-0.9996986,0.0037362291,0.99992436,-0.011719959,-0.03590393,9.8736725,-0.10772705,0.02079773,9.806046,-0.08888245,-0.0010528564,0.04685974,-0.0021362305,-0.5371094,-32.24182,-18.873596,1,0.0,0.0,0.0,0.0
1.340942383,0.9996965,-0.0022959157,-0.024527485,-0.024547236,-0.00901003,-0.9996581,0.0020741376,0.99995685,-0.009063655,0.9997612,-0.0034827492,0.021574408,0.02153197,-0.011797767,-0.9996986,0.0037362291,0.99992436,-0.011719959,-0.03590393,9.8736725,-0.10772705,0.020339966,9.806046,-0.08888245,-0.0010528564,0.04685974,-0.0021362305,-0.5371094,-32.24182,-18.873596,1,0.0,0.0,0.0,0.0
1.345336914,0.9996978,-0.0023276438,-0.02447332,-0.024493452,-0.009054497,-0.99965894,0.0021052563,0.99995625,-0.0091087725,0.9997991,-0.0034316292,0.019748718,0.019707382,-0.011688558,-0.99973744,0.0036615625,0.9999258,-0.011618582,0.13166809,9.883255,-0.27053833,0.020645142,9.806046,-0.08932495,-0.0021209717,0.027694702,-0.007461548,-0.5371094,-32.24182,-18.873596,1,0.0,0.0,0.0,0.0
1.349731445,0.9993017,-0.001763898,0.037322838,0.03730514,-0.009180985,-0.9992617,0.0021052563,0.99995625,-0.0091087725,0.9998059,-0.003374796,0.019406885,0.019366592,-0.011586699,-0.9997453,0.0035987978,0.99992716,-0.011519091,0.11251831,9.8736725,-0.06463623,0.020645142,9.806046,-0.08932495,-0.003189087,0.03302002,-0.0021362305,0.71868896,-32.421875,-20.774841,1,0.0,0.0,0.0,0.0
1.354125977,0.99930006,-0.0017896433,0.03736296,0.037344825,-0.009273891,-0.9992593,0.0021348181,0.99995536,-0.009200568,0.9997991,-0.003338358,0.019765347,0.019725591,-0.011542041,-0.9997389,0.0035656183,0.9999278,-0.011473871,0.02154541,9.725235,-0.16040039,0.020935059,9.806046,-0.09022522,0.0032043457,0.043670654,-0.0095825195,0.71868896,-32.421875,-20.774841,1,0.0,0.0,0.0,0.0
1.358520508,0.9993036,-0.0017310076,0.03727157,0.037254047,-0.009240372,-0.9992629,0.0020741352,0.9999557,-0.009169452,0.9997922,-0.0033031465,0.020117402,0.020078212,-0.011498599,-0.9997323,0.003533584,0.9999284,-0.011429888,-0.03111267,9.777908,-0.07899475,0.020339966,9.806046,-0.089920044,0.0138549805,0.04685974,0.0053253174,0.71868896,-32.421875,-20.774841,1,0.0,0.0,0.0,0.0
1.362915039,0.9985877,-0.0015376183,0.053104926,0.05308842,-0.009295327,-0.9985465,0.0020290113,0.9999556,-0.00920057,0.9997853,-0.0032677965,0.020460427,0.020421743,-0.011457138,-0.9997258,0.0035013182,0.999929,-0.011387944,0.01675415,9.964661,-0.20350647,0.019897461,9.806046,-0.09022522,-0.003189087,0.03514099,-0.010650635,0.8972168,-33.317566,-17.835999,1,0.0,0.0,0.0,0.0
1.36730957,0.99859345,-0.0014812123,0.05299985,0.052983996,-0.009231358,-0.9985527,0.001968329,0.99995625,-0.009139893,0.9997554,-0.0030901053,0.021901041,0.021864682,-0.011343706,-0.9996966,0.0033376068,0.99993086,-0.011273367,-0.04548645,9.950287,-0.06463623,0.019302368,9.806046,-0.08963013,-0.004257202,0.047927856,-0.008529663,0.8972168,-33.317566,-17.835999,1,0.0,0.0,0.0,0.0
1.371704102,0.99859804,-0.0014353854,0.052914478,0.052899044,-0.009228762,-0.99855715,0.0019216493,0.9999563,-0.009139894,0.9997417,-0.0030538875,0.022523403,0.022487551,-0.01130598,-0.99968314,0.003307569,0.9999314,-0.011234386,-0.007171631,9.835373,-0.15560913,0.018844604,9.806046,-0.08963013,-0.010635376,0.029815674,-0.008529663,0.8972168,-33.317566,-17.835999,1,0.0,0.0,0.0,0.0
1.376098633,0.99780846,-0.0012668754,0.06615685,0.06614236,-0.009257981,-0.99776727,0.0018765256,0.9999563,-0.009153897,0.9997279,-0.0030174616,0.0231314,0.023096025,-0.011269118,-0.99966973,0.0032771358,0.99993193,-0.01119636,-0.03590393,9.816223,-0.13645935,0.0184021,9.806046,-0.089767456,-0.003189087,0.034072876,-0.0095825195,1.2557983,-32.600403,-19.56482,1,0.0,0.0,0.0,0.0
1.380493164,0.9978116,-0.0012392313,0.06611098,0.06609684,-0.009210846,-0.99777085,0.0018454067,0.99995685,-0.009108778,0.99970776,-0.0029776248,0.023992538,0.023957685,-0.0112332245,-0.9996499,0.0032460957,0.99993247,-0.011158604,-0.011962891,9.816223,-0.09815979,0.018096924,9.806046,-0.08932495,0.0,0.03727722,-0.0053253174,1.2557983,-32.600403,-19.56482,1,0.0,0.0,0.0,0.0
1.384887695,0.99781257,-0.0012298966,0.0660955,0.06608162,-0.0091180615,-0.99777263,0.00182982,0.9999577,-0.009016843,0.9996703,-0.0028373618,0.025517568,0.02548489,-0.011017679,-0.9996145,0.0031174126,0.99993527,-0.010941738,-0.02154541,9.749176,-0.07421875,0.017944336,9.806198,-0.08842468,-0.010635376,0.041534424,-0.0063934326,1.2557983,-32.600403,-19.56482,1,0.0,0.0,0.0,0.0
1.389282227,0.99922067,-0.0014133004,0.039446615,0.039432257,-0.009050065,-0.9991813,0.0017691378,0.99995804,-0.008987282,0.99964935,-0.0028007815,0.026330069,0.026297808,-0.010982877,-0.9995938,0.003088824,0.99993575,-0.010905371,-0.04069519,9.801849,-0.06463623,0.017349243,9.806198,-0.088134766,-0.01914978,0.038345337,0.0,0.71868896,-33.139038,-19.392395,1,0.0,0.0,0.0,0.0
1.393676758,0.9992247,-0.0013547911,0.039346777,0.039333012,-0.009016445,-0.9991856,0.0017084557,0.9999585,-0.008956167,0.99964255,-0.0027696656,0.026592493,0.02656068,-0.010947489,-0.99958724,0.0030596436,0.9999362,-0.0108700115,-0.05027771,9.821014,-0.10772705,0.01675415,9.806198,-0.08782959,-0.006378174,0.059646606,-0.008529663,0.71868896,-33.139038,-19.392395,1,0.0,0.0,0.0,0.0
1.398071289,0.99922454,-0.0013571429,0.03935079,0.0393371,-0.008955819,-0.99918586,0.0017084564,0.99995893,-0.0088954875,0.99963576,-0.00273779,0.026847556,0.026816174,-0.010912005,-0.9995808,0.0030296028,0.9999367,-0.010834613,0.02154541,9.758759,-0.09815979,0.01675415,9.806198,-0.0872345,-0.0074310303,0.06283569,-0.0095825195,0.71868896,-33.139038,-19.392395,1,0.0,0.0,0.0,0.0
1.40246582,0.999164,-0.0020839358,-0.04082757,-0.040844347,-0.008771027,-0.999127,0.001724017,0.99995935,-0.008848812,0.99959874,-0.0026768162,0.028200105,0.028170064,-0.010661969,-0.99954635,0.0029762702,0.99993956,-0.010582284,0.02154541,9.811432,-0.07899475,0.016906738,9.806198,-0.08677673,-0.012756348,0.067108154,-0.0021362305,-0.8956909,-32.600403,-20.256042,1,0.0,0.0,0.0,0.0
