Time,Rot1,Rot2,Rot3,Rot4,Rot5,Rot6,Rot7,Rot8,Rot9,FRot1,FRot2,FRot3,FRot4,FRot5,FRot6,FRot7,FRot8,FRot9,AccX,AccY,AccZ,GravX,GravY,GravZ,GyroX,GyroY,GyroZ,MagX,MagY,MagZ,Imid
0.0,0.0,0.0,0.0,0.0,0.0,0.0,0.0,0.0,0.0,1.0,0.0,0.0,0.0,1.0,0.0,0.0,0.0,1.0,0.002380371,9.897629,0.0143585205,0.038742065,9.806351,-0.0055236816,0.0,0.0,0.0,0.0,0.0,0.0,0,0.0,0.0,0.0,0.0
0.004425048,0.0,0.0,0.0,0.0,0.0,0.0,0.0,0.0,0.0,1.0,0.0,0.0,0.0,1.0,0.0,0.0,0.0,1.0,0.06942749,9.7827,-0.05265808,0.03829956,9.806351,-0.006134033,-0.006378174,-0.024505615,-0.008514404,0.0,0.0,0.0,0,0.0,0.0,0.0,0.0
0.00881958,0.97098064,-0.003896818,-0.23912647,-0.23912756,1.9048474E-4,-0.97098815,0.003829314,0.9999924,-7.4687955E-4,1.0,0.0,0.0,0.0,1.0,0.0,0.0,0.0,1.0,0.04548645,9.777908,-0.12449646,0.03755188,9.806351,-0.0073242188,0.009597778,-0.022369385,-0.013839722,-5.9936523,-31.626892,-23.822021,0,0.0,0.0,0.0,0.0
0.013244628,0.97097063,-0.0038637882,-0.23916781,-0.23916908,1.3604428E-4,-0.970978,0.0037841904,0.99999255,-7.9200364E-4,0.9989488,-0.03041939,-0.034291737,0.029311096,0.999046,-0.0323718,0.035243757,0.03133264,0.9988875,0.11730957,9.749176,-0.10055542,0.037109375,9.806351,-0.0077667236,0.015991211,-0.030899048,-0.019165039,-5.9936523,-31.626892,-23.822021,0,0.0,0.0,0.0,0.0
0.01763916,0.9709581,-0.0038228794,-0.23921897,-0.23922077,-1.6453385E-5,-0.9709652,0.003707947,0.99999267,-9.3048776E-4,0.99595535,-0.06007713,-0.06681064,0.055662952,0.99626076,-0.06607729,0.07053055,0.062091157,0.99557525,0.01675415,9.7827,-0.2681427,0.036361694,9.806351,-0.009124756,0.004272461,-0.038345337,-0.019165039,-5.9936523,-31.626892,-23.822021,0,0.0,0.0,0.0,0.0
0.022064209,0.98203284,-0.0036626998,-0.18867464,-0.18867673,-2.2795785E-4,-0.9820392,0.003553905,0.99999326,-9.1492827E-4,0.99123085,-0.090019256,-0.0967369,0.08022775,0.99167264,-0.100741535,0.10500001,0.092097126,0.99019855,-0.14125061,9.725235,-0.22505188,0.034851074,9.806351,-0.008972168,0.007461548,-0.03302002,-0.014907837,-4.559326,-30.909729,-23.130798,0,0.0,0.0,0.0,0.0
0.026489257,0.9820309,-0.0036548218,-0.18868478,-0.18868697,-2.611233E-4,-0.98203725,0.003539901,0.99999326,-9.460483E-4,0.9849841,-0.12018185,-0.12394561,0.1030755,0.985298,-0.13624698,0.13849778,0.12142537,0.9828907,-0.011962891,9.854523,-0.10055542,0.034713745,9.806351,-0.009277344,-0.022354126,-0.017044067,-0.02130127,-4.559326,-30.909729,-23.130798,0,0.0,0.0,0.0,0.0
0.030883789,0.98198617,-0.0034716453,-0.18892075,-0.18892285,-2.7965347E-4,-0.9819919,0.0033562954,0.999994,-9.30489E-4,0.9775298,-0.14949597,-0.14861439,0.12327397,0.9773083,-0.17225558,0.17099361,0.1500647,0.97377706,-0.16040039,9.7827,-0.03829956,0.032913208,9.806351,-0.009124756,-0.0021209717,-0.015975952,-0.015975952,-4.559326,-30.909729,-23.130798,0,0.0,0.0,0.0,0.0
0.035308837,0.9907107,-0.0033349015,-0.13594528,-0.13594736,-4.0463285E-4,-0.990716,0.0032489325,0.9999944,-8.542452E-4,0.96918035,-0.17748876,-0.17084268,0.14051232,0.9678919,-0.2084265,0.2023506,0.17799737,0.96300113,-0.07421875,9.797058,-0.02394104,0.03186035,9.806351,-0.008377075,-0.0053253174,0.0,-0.024490356,-3.3035278,-31.448364,-23.303223,0,0.0,0.0,0.0,0.0
0.039703369,0.9906993,-0.003270584,-0.13603047,-0.13603242,-3.817707E-4,-0.99070436,0.0031882492,0.9999946,-8.2312536E-4,0.96001554,-0.2055196,-0.19008382,0.15638626,0.95688736,-0.24476498,0.2321928,0.20525168,0.95076716,-0.04548645,9.92157,-0.19631958,0.03126526,9.806351,-0.008071899,-0.018081665,0.006378174,-0.014907837,-3.3035278,-31.448364,-23.303223,0,0.0,0.0,0.0,0.0
0.044128418,0.9906965,-0.0032551764,-0.13605087,-0.13605282,-3.8382033E-4,-0.9907015,0.0031726894,0.99999464,-8.231254E-4,0.9504137,-0.2322425,-0.20682651,0.16971478,0.9446313,-0.28083566,0.26059675,0.23180854,0.93720555,-0.03111267,9.801849,0.0143585205,0.03111267,9.806351,-0.008071899,-0.022354126,0.012771606,-0.007446289,-3.3035278,-31.448364,-23.303223,0,0.0,0.0,0.0,0.0
0.048553466,0.9915466,-0.0032157844,-0.12971179,-0.12971395,-4.706562E-4,-0.99155146,0.0031275656,0.99999475,-8.838096E-4,0.94058836,-0.2575943,-0.22122076,0.18065503,0.93129563,-0.31631032,0.28750166,0.2575532,0.92250156,-0.06942749,9.749176,-0.16279602,0.030670166,9.806351,-0.008666992,-0.0095825195,0.007446289,-0.007446289,-3.125,-30.551147,-23.130798,0,0.0,0.0,0.0,0.0
0.052947998,0.9915375,-0.003161657,-0.12978205,-0.12978399,-4.1631618E-4,-0.9915421,0.0030808856,0.9999948,-8.2312553E-4,0.93040067,-0.2823421,-0.23374653,0.1898608,0.9167068,-0.35157007,0.31354007,0.28272176,0.90651035,-0.07421875,9.715668,0.15322876,0.030212402,9.806351,-0.008071899,-0.007446289,0.010635376,-0.006378174,-3.125,-30.551147,-23.130798,0,0.0,0.0,0.0,0.0
0.067077636,0.9915317,-0.0031268327,-0.12982726,-0.12982944,-4.97629E-4,-0.9915363,0.0030357623,0.99999505,-8.993698E-4,0.920375,-0.3055232,-0.24406019,0.1968306,0.9012678,-0.38597146,0.33788684,0.30719998,0.88964075,-0.04548645,9.840164,-0.11012268,0.029769897,9.806351,-0.00881958,-0.014892578,0.003189087,-0.011703491,-3.125,-30.551147,-23.130798,0,0.0,0.0,0.0,0.0
0.070159912,0.9685681,-0.0031300012,-0.24872912,-0.24873069,-1.0868645E-4,-0.96857285,0.0030046005,0.9999952,-8.8379753E-4,0.9104005,-0.32759282,-0.25269303,0.20192315,0.88491005,-0.4197157,0.36110646,0.33108482,0.87177116,-0.03590393,9.844955,-0.15800476,0.029464722,9.806488,-0.008666992,-0.0010528564,0.0053100586,-0.019165039,-6.173706,-31.089783,-23.649597,0,0.0,0.0,0.0,0.0
0.073242187,0.96855795,-0.0030979135,-0.24876866,-0.24877034,-1.6499578E-4,-0.96856254,0.0029594772,0.99999523,-9.3047705E-4,0.9104005,-0.32759282,-0.25269303,0.20192315,0.88491005,-0.4197157,0.36110646,0.33108482,0.87177116,-0.03590393,9.844955,-0.15800476,0.029022217,9.806488,-0.009124756,-0.0010528564,0.0053100586,-0.019165039,-6.173706,-31.089783,-23.649597,0,0.0,0.0,0.0,0.0
0.076324462,0.96851397,-0.0029576183,-0.24894162,-0.24894336,-2.3103604E-4,-0.96851796,0.002806992,0.9999956,-9.6004107E-4,0.9104005,-0.32759282,-0.25269303,0.20192315,0.88491005,-0.4197157,0.36110646,0.33108482,0.87177116,-0.03590393,9.844955,-0.15800476,0.027526855,9.806488,-0.009414673,-0.0010528564,0.0053100586,-0.019165039,-6.173706,-31.089783,-23.649597,0,0.0,0.0,0.0,0.0
0.079406738,0.9685141,-0.002958042,-0.24894108,-0.248943,-2.9519072E-4,-0.9685181,0.0027914322,0.9999956,-0.0010222803,0.9104005,-0.32759282,-0.25269303,0.20192315,0.88491005,-0.4197157,0.36110646,0.33108482,0.87177116,-0.03590393,9.844955,-0.15800476,0.027374268,9.806488,-0.010025024,-0.0010528564,0.0053100586,-0.019165039,-6.173706,-31.089783,-23.649597,0,0.0,0.0,0.0,0.0
0.083374023,0.96449614,-0.0029509936,-0.2640804,-0.2640823,-2.6643864E-4,-0.96450007,0.0027758724,0.9999956,-0.0010362843,0.8732022,-0.40038848,-0.27786136,0.20030954,0.81460553,-0.54432887,0.44429037,0.41965088,0.791517,-0.007171631,9.835373,-0.0622406,0.02722168,9.806488,-0.0101623535,0.008529663,-0.0010681152,0.004272461,-6.7108154,-30.551147,-24.168396,0,0.0,0.0,0.0,0.0
0.088165283,0.9644849,-0.0029157037,-0.26412186,-0.26412383,-3.0824443E-4,-0.96448874,0.0027307493,0.9999957,-0.001067404,0.8651517,-0.41537276,-0.28103,0.19624545,0.79607856,-0.5724915,0.46151936,0.44014123,0.7702438,-0.06942749,9.821014,-0.08618164,0.026779175,9.806488,-0.010467529,0.005340576,0.020233154,0.008529663,-6.7108154,-30.551147,-24.168396,0,0.0,0.0,0.0,0.0
0.09298706,0.98003453,-0.002870014,-0.19880669,-0.19880907,-5.688601E-4,-0.98003805,0.0026996296,0.9999957,-0.0011280873,0.85754,-0.42944008,-0.2832073,0.19117989,0.77716076,-0.5995593,0.4775724,0.4600026,0.7485467,-0.05505371,9.82579,-0.16279602,0.026473999,9.806488,-0.011062622,-0.003189087,0.0,0.012786865,-5.0979614,-30.731201,-24.687195,0,0.0,0.0,0.0,0.0
0.09777832,0.980029,-0.0028472438,-0.19883388,-0.19883633,-6.051568E-4,-0.9800324,0.002670066,0.9999957,-0.001159207,0.8500743,-0.44373578,-0.28367627,0.1863892,0.7572462,-0.62596905,0.49257764,0.47924605,0.7264231,-0.06942749,9.777908,-0.08139038,0.026184082,9.806488,-0.011367798,0.005340576,0.023422241,-0.0010528564,-5.0979614,-30.731201,-24.687195,0,0.0,0.0,0.0,0.0
0.102600097,0.98001593,-0.0027921698,-0.19889975,-0.19890225,-6.463182E-4,-0.98001915,0.002607827,0.9999959,-0.0011887709,0.84327865,-0.45686984,-0.28310943,0.18056774,0.73693895,-0.6513956,0.5062374,0.49818766,0.70394087,-0.13645935,9.787491,-0.08139038,0.02557373,9.806488,-0.011657715,0.014923096,0.003189087,-0.015975952,-5.0979614,-30.731201,-24.687195,0,0.0,0.0,0.0,0.0
0.107391357,0.9838629,-0.002734035,-0.17890312,-0.17890565,-7.111118E-4,-0.983866,0.002562704,0.999996,-0.001188771,0.8368622,-0.46923545,-0.2819215,0.17416024,0.71647143,-0.6755271,0.51897,0.5162236,0.68131,-0.06463623,9.907196,-0.0143585205,0.025131226,9.806488,-0.011657715,0.0010681152,0.014892578,-0.003189087,-4.3807983,-28.938293,-23.649597,0,0.0,0.0,0.0,0.0
0.112213134,0.98386467,-0.0027423787,-0.17889324,-0.17889589,-7.5706554E-4,-0.98386765,0.0025627036,0.9999959,-0.0012354503,0.8310089,-0.48081246,-0.2797205,0.16739172,0.6957046,-0.69855225,0.53047544,0.5336802,0.6586207,0.026321411,9.801849,-0.13406372,0.025131226,9.806488,-0.0121154785,-0.004257202,-0.0138549805,0.010665894,-4.3807983,-28.938293,-23.649597,0,0.0,0.0,0.0,0.0
0.117004394,0.98385936,-0.002717074,-0.17892322,-0.17892595,-7.916369E-4,-0.9838623,0.0025315844,0.999996,-0.0012650142,0.8255876,-0.49149626,-0.27719402,0.15992808,0.67490816,-0.7203624,0.54113597,0.55039114,0.6357998,-0.06463623,9.8736725,-0.09576416,0.02482605,9.806488,-0.0124053955,-0.010650635,-0.015975952,0.007461548,-4.3807983,-28.938293,-23.649597,0,0.0,0.0,0.0,0.0
0.121826171,0.9631759,-0.0027583726,-0.26885796,-0.26886046,-5.7571667E-4,-0.96317893,0.0025020207,0.999996,-0.0012961339,0.82087827,-0.50118595,-0.27380937,0.15205237,0.6539313,-0.74111664,0.5504898,0.5667332,0.6130045,-0.05505371,9.816223,-0.06703186,0.024536133,9.806488,-0.012710571,0.004272461,-0.01171875,-0.0053253174,-6.352234,-30.909729,-22.439575,0,0.0,0.0,0.0,0.0
0.126617431,0.9631623,-0.0027200605,-0.26890686,-0.26890928,-5.5397174E-4,-0.96316534,0.0024709012,0.9999962,-0.0012650143,0.81700325,-0.5087952,-0.2713544,0.14223564,0.6338615,-0.7602557,0.55881554,0.582535,0.59023565,-0.05027771,9.768341,0.03829956,0.024230957,9.806488,-0.0124053955,-0.007446289,-0.0138549805,0.007461548,-6.352234,-30.909729,-22.439575,0,0.0,0.0,0.0,0.0
0.131408691,0.9631623,-0.0027200605,-0.26890686,-0.26890928,-5.5397174E-4,-0.96316534,0.0024709012,0.9999962,-0.0012650143,0.8138076,-0.5153774,-0.26852036,0.1320863,0.61400974,-0.77816784,0.5659242,0.5978111,0.56776017,0.03111267,9.730026,0.004776001,0.024230957,9.806488,-0.0124053955,0.0032043457,-0.014907837,0.0021362305,-6.352234,-30.909729,-22.439575,0,0.0,0.0,0.0,0.0
0.136230468,0.9719007,-0.002740466,-0.23537496,-0.23537761,-6.8592303E-4,-0.9719037,0.0025020207,0.999996,-0.0013116937,0.81123626,-0.52093154,-0.26556757,0.12142885,0.59437,-0.79497135,0.571971,0.61266196,0.5454306,0.07899475,9.864105,-0.1197052,0.024536133,9.806488,-0.012863159,0.0010681152,-0.0138549805,-0.008514404,-5.8151245,-31.089783,-23.649597,0,0.0,0.0,0.0,0.0
0.141021728,0.9718983,-0.00273231,-0.2353851,-0.23538783,-7.1829E-4,-0.97190124,0.0024864608,0.999996,-0.0013412574,0.8090879,-0.5262314,-0.26164344,0.111431,0.57449996,-0.810884,0.5770268,0.6269213,0.52345943,-0.011962891,9.787491,-0.09576416,0.024383545,9.806488,-0.013153076,-0.0095825195,-0.0138549805,-0.0053253174,-5.8151245,-31.089783,-23.649597,0,0.0,0.0,0.0,0.0
0.145812988,0.9718918,-0.002710087,-0.2354127,-0.23541565,-8.180577E-4,-0.97189456,0.0024413373,0.999996,-0.0014330603,0.8074312,-0.530785,-0.2575307,0.10130435,0.5547771,-0.82580864,0.58119893,0.6406947,0.5017152,-0.09336853,9.897629,-0.24899292,0.02394104,9.806488,-0.014053345,-0.006378174,-0.008514404,0.005340576,-5.8151245,-31.089783,-23.649597,0,0.0,0.0,0.0,0.0
0.150207519,0.9770048,-0.0027040069,-0.21320008,-0.21320324,-9.4042154E-4,-0.97700745,0.0024413369,0.9999959,-0.0014952994,0.80604744,-0.5349163,-0.25328273,0.09105757,0.53493744,-0.83997047,0.5848043,0.6539928,0.4798931,0.02154541,9.888046,-0.17237854,0.02394104,9.806488,-0.014663696,0.0021362305,-0.003189087,0.0021362305,-5.0979614,-31.806946,-22.958374,0,0.0,0.0,0.0,0.0
0.15460205,0.9769973,-0.0026776788,-0.21323486,-0.21323822,-0.00103845,-0.97699976,0.0023946573,0.9999959,-0.0015855464,0.8050802,-0.5386019,-0.2485033,0.08115029,0.5150152,-0.8533311,0.58758867,0.6668339,0.45833623,-0.09336853,9.854523,-0.2394104,0.023483276,9.806488,-0.015548706,-0.007446289,-0.017044067,-0.0021209717,-5.0979614,-31.806946,-22.958374,0,0.0,0.0,0.0,0.0
0.158996582,0.9769804,-0.0026184758,-0.21331313,-0.21331644,-0.0010511805,-0.97698265,0.0023339745,0.999996,-0.0015855466,0.8044236,-0.5418053,-0.24361783,0.071201056,0.49507064,-0.86593044,0.5897738,0.67922896,0.4368236,-0.13645935,9.8736725,-0.27293396,0.022888184,9.806488,-0.015548706,0.0021362305,-0.008514404,0.017044067,-5.0979614,-31.806946,-22.958374,0,0.0,0.0,0.0,0.0
0.163391113,0.9749756,-0.0026553648,-0.2222961,-0.22229971,-0.0011468821,-0.97497773,0.002333974,0.9999958,-0.0017084689,0.8042174,-0.5443015,-0.23868445,0.061267823,0.47538406,-0.8776424,0.5911689,0.6911916,0.4156603,0.03111267,9.773117,-0.3256073,0.022888184,9.806488,-0.01675415,-0.02128601,0.011703491,-0.0021209717,-5.2764893,-29.833984,-22.78595,0,0.0,0.0,0.0,0.0
0.167785644,0.9749769,-0.0026601516,-0.22229014,-0.22229365,-0.0010979283,-0.9749791,0.0023495338,0.9999958,-0.0016617895,0.8041425,-0.5464414,-0.23400155,0.051232457,0.45589828,-0.8885561,0.5922247,0.70253724,0.39460272,0.011962891,9.801849,-0.1771698,0.023040771,9.806488,-0.016296387,-0.006378174,-0.0063934326,0.015991211,-5.2764893,-29.833984,-22.78595,0,0.0,0.0,0.0,0.0
0.172180175,0.9749613,-0.0026046853,-0.22235914,-0.22236246,-0.0010641263,-0.9749634,0.0023028548,0.999996,-0.0016166663,0.8048021,-0.54748726,-0.22924045,0.041302264,0.4369449,-0.8985395,0.59210443,0.7136784,0.37426665,-0.04069519,9.844955,-0.1197052,0.022583008,9.806488,-0.015853882,-0.022354126,-0.02130127,0.0032043457,-5.2764893,-29.833984,-22.78595,0,0.0,0.0,0.0,0.0
0.176574707,0.97880995,-0.0025685758,-0.20475493,-0.20475842,-0.001176339,-0.97881186,0.0022732911,0.999996,-0.0016773497,0.8059056,-0.54780215,-0.22456405,0.031528085,0.41847447,-0.90768117,0.591204,0.72442526,0.35452205,-0.03111267,9.964661,-0.16758728,0.02229309,9.806488,-0.016448975,-0.01914978,-0.031951904,-0.0053253174,-4.9179077,-30.192566,-23.130798,0,0.0,0.0,0.0,0.0
0.180969238,0.9787934,-0.0025045653,-0.20483495,-0.20483834,-0.0011736484,-0.9787952,0.0022110522,0.9999962,-0.0016617901,0.8072722,-0.5477972,-0.21961334,0.022175312,0.40000412,-0.9162451,0.5897627,0.7347891,0.33505973,-0.02154541,9.840164,-0.27293396,0.02168274,9.806488,-0.016296387,-0.010650635,-0.010650635,0.0,-4.9179077,-30.192566,-23.130798,0,0.0,0.0,0.0,0.0
0.185363769,0.97878176,-0.0024600741,-0.20489056,-0.20489372,-0.0011049382,-0.97878355,0.002181489,0.99999636,-0.0015855472,0.8090171,-0.5469738,-0.21519962,0.012713641,0.38231778,-0.92394346,0.58764756,0.7447501,0.31625566,-0.10293579,9.773117,-0.04309082,0.021392822,9.806488,-0.015548706,-0.026611328,-0.0138549805,-0.011703491,-4.9179077,-30.192566,-23.130798,0,0.0,0.0,0.0,0.0
0.1897583,0.9849119,-0.0024226545,-0.17303959,-0.1730426,-0.0010925627,-0.98491377,0.0021970489,0.9999965,-0.0014953003,0.81111544,-0.5456775,-0.21054181,0.0038000643,0.36487964,-0.93104696,0.58487374,0.7543865,0.29803312,0.007171631,9.835373,-0.06703186,0.02154541,9.806488,-0.014663696,-0.01914978,-0.029830933,0.0021362305,-4.2007446,-30.909729,-23.477173,0,0.0,0.0,0.0,0.0
0.194152832,0.98491466,-0.002435311,-0.1730234,-0.17302601,-9.039587E-4,-0.9849168,0.0022421728,0.9999966,-0.0013116944,0.8136367,-0.5438346,-0.20552194,-0.0042687654,0.34791297,-0.93751717,0.581358,0.76367563,0.28075325,0.04548645,9.7827,0.0909729,0.021987915,9.806488,-0.012863159,-0.024475098,-0.041549683,0.005340576,-4.2007446,-30.909729,-23.477173,0,0.0,0.0,0.0,0.0
0.198547363,0.9849095,-0.0024119355,-0.17305325,-0.17305575,-8.6060265E-4,-0.9849117,0.0022266132,0.9999968,-0.0012650151,0.81667006,-0.54102033,-0.20086557,-0.011914164,0.33217743,-0.94314164,0.57698184,0.7726287,0.26483357,0.05505371,9.730026,0.14364624,0.021835327,9.806488,-0.0124053955,-0.031936646,-0.020233154,0.0063934326,-4.2007446,-30.909729,-23.477173,0,0.0,0.0,0.0,0.0
0.202941894,0.9849138,-0.0024315044,-0.17302829,-0.17303045,-7.024008E-4,-0.9849162,0.0022732927,0.9999968,-0.0011125286,0.81667006,-0.54102033,-0.20086557,-0.011914164,0.33217743,-0.94314164,0.57698184,0.7726287,0.26483357,0.05505371,9.730026,0.14364624,0.02229309,9.806488,-0.010910034,-0.031936646,-0.020233154,0.0063934326,-4.2007446,-30.909729,-23.477173,0,0.0,0.0,0.0,0.0
0.207336425,0.9806249,-0.0024435562,-0.19587979,-0.19588149,-4.7662575E-4,-0.9806275,0.0023028569,0.9999969,-9.4603846E-4,0.8237068,-0.5332547,-0.19273466,-0.026155233,0.3038151,-0.95237195,0.5664125,0.7895162,0.23630716,0.07421875,9.777908,-0.02394104,0.022583008,9.806488,-0.009277344,-0.02128601,-0.008514404,0.008529663,-4.559326,-30.909729,-22.439575,0,0.0,0.0,0.0,0.0
0.211730957,0.98062235,-0.0024340954,-0.19589232,-0.19589408,-5.0863344E-4,-0.98062485,0.002287297,0.9999969,-9.756022E-4,0.8275978,-0.52836776,-0.18949747,-0.033031583,0.29116485,-0.9561025,0.56034875,0.79752773,0.22351457,-0.03590393,9.821014,-0.08139038,0.02243042,9.806488,-0.009567261,-0.039398193,-0.0010681152,0.0021362305,-4.559326,-30.909729,-22.439575,0,0.0,0.0,0.0,0.0
0.216125488,0.9581093,-0.002449009,-0.2863923,-0.28639376,-2.5535462E-4,-0.95811194,0.0022732932,0.99999696,-9.460385E-4,0.8315347,-0.5232367,-0.18647614,-0.03971955,0.27883878,-0.95951617,0.55405086,0.80527776,0.21108142,-0.002380371,9.964661,0.04788208,0.02229309,9.806488,-0.009277344,-0.004257202,-0.0010681152,-0.0053253174,-7.2494507,-30.014038,-23.995972,0,0.0,0.0,0.0,0.0
0.220520019,0.9581051,-0.002436577,-0.2864066,-0.2864082,-3.2237213E-4,-0.95810765,0.0022421735,0.99999696,-0.001006722,0.8353989,-0.5174262,-0.18541522,-0.04763925,0.26790515,-0.9622668,0.5475758,0.8127096,0.19915788,-0.07899475,9.773117,-0.13885498,0.021987915,9.806488,-0.0098724365,-0.011703491,-0.015975952,0.005340576,-7.2494507,-30.014038,-23.995972,0,0.0,0.0,0.0,0.0
0.22491455,0.95810086,-0.002424147,-0.28642085,-0.28642258,-3.8939004E-4,-0.9581033,0.0022110539,0.99999696,-0.0010674053,0.8391838,-0.5116143,-0.18444866,-0.055355877,0.25703925,-0.96481425,0.5410234,0.81986684,0.18738231,-0.05984497,9.907196,-0.18673706,0.02168274,9.806488,-0.010467529,-0.011703491,-0.0063934326,0.009597778,-7.2494507,-30.014038,-23.995972,0,0.0,0.0,0.0,0.0
0.229309082,0.9838213,-0.0023068006,-0.17913836,-0.17914031,-6.6492235E-4,-0.9838235,0.002150371,0.9999972,-0.0010674056,0.8428934,-0.50579756,-0.18357408,-0.062871635,0.24624948,-0.9671651,0.53439474,0.82675874,0.17576176,-0.13645935,10.017334,0.009567261,0.021087646,9.806488,-0.010467529,0.012786865,-0.003189087,0.0,-4.3807983,-31.806946,-23.649597,0,0.0,0.0,0.0,0.0
0.233703613,0.9838223,-0.0023112341,-0.1791326,-0.17913441,-6.024469E-4,-0.98382455,0.0021659308,0.9999972,-0.0010067222,0.84672576,-0.50044465,-0.18058415,-0.06827712,0.23440619,-0.96973807,0.52763027,0.83343196,0.16430885,-0.08378601,9.787491,-0.09576416,0.021240234,9.806488,-0.0098724365,0.012786865,0.0,0.0,-4.3807983,-31.806946,-23.649597,0,0.0,0.0,0.0,0.0
0.238098144,0.9838094,-0.0022568745,-0.17920333,-0.17920518,-6.422405E-4,-0.9838115,0.0021052477,0.99999726,-0.001036286,0.8506191,-0.49475282,-0.17795172,-0.07337883,0.22343151,-0.97195363,0.52063686,0.8398202,0.15375072,-0.11251831,9.888046,-0.11491394,0.020645142,9.806488,-0.0101623535,-0.02128601,-0.0234375,0.01171875,-4.3807983,-31.806946,-23.649597,0,0.0,0.0,0.0,0.0
0.242492675,0.9820923,-0.002272488,-0.18838671,-0.18838848,-5.891622E-4,-0.98209447,0.0021208075,0.99999726,-0.0010067222,0.85445595,-0.48900318,-0.17544523,-0.07830317,0.21262735,-0.97399086,0.5135891,0.84597015,0.14339018,-0.03111267,9.883255,0.06703186,0.02079773,9.806488,-0.0098724365,-0.013824463,-0.014907837,0.008529663,-4.73938,-30.37262,-24.34082,0,0.0,0.0,0.0,0.0
0.246887207,0.98209286,-0.0022748075,-0.18838392,-0.18838555,-5.269338E-4,-0.982095,0.0021348114,0.99999726,-9.460388E-4,0.85828644,-0.48301277,-0.17332938,-0.08312656,0.20244074,-0.97576004,0.50639355,0.8518899,0.13360095,0.02154541,9.777908,-0.07661438,0.020935059,9.806488,-0.009277344,-0.0010528564,-0.030899048,0.007461548,-4.73938,-30.37262,-24.34082,0,0.0,0.0,0.0,0.0
0.251281738,0.9820908,-0.0022657127,-0.18839486,-0.18839672,-6.363903E-4,-0.98209286,0.0021052477,0.99999726,-0.0010518458,0.8620105,-0.47680512,-0.17203167,-0.08817436,0.19316393,-0.97719646,0.4991626,0.85752237,0.12446736,-0.05505371,9.787491,-0.27293396,0.020645142,9.806488,-0.010314941,-0.018081665,-0.031951904,0.0032043457,-4.73938,-30.37262,-24.34082,0,0.0,0.0,0.0,0.0
0.255676269,0.982731,-0.0022788087,-0.18502639,-0.18502827,-6.412761E-4,-0.9827331,0.0021208073,0.9999972,-0.0010518457,0.86573464,-0.47068396,-0.17017679,-0.09260471,0.18350312,-0.97864753,0.49186164,0.86300826,0.115277454,-0.03111267,9.730026,-0.20111084,0.02079773,9.806488,-0.010314941,-0.011703491,-0.019180298,0.0021362305,-4.559326,-31.985474,-23.822021,0,0.0,0.0,0.0,0.0
0.2600708,0.9827245,-0.0022523096,-0.18506072,-0.18506245,-5.844409E-4,-0.9827266,0.0021052477,0.99999726,-9.911624E-4,0.86942816,-0.4644688,-0.16841453,-0.09676033,0.1742007,-0.9799447,0.48449168,0.8682873,0.106512845,-0.07421875,9.82579,0.0622406,0.020645142,9.806488,-0.009719849,-0.017028809,-0.03515625,0.004272461,-4.559326,-31.985474,-23.822021,0,0.0,0.0,0.0,0.0
0.264465332,0.9827245,-0.0022523096,-0.18506072,-0.18506245,-5.844409E-4,-0.9827266,0.0021052477,0.99999726,-9.911624E-4,0.8730999,-0.4581041,-0.16684449,-0.1006728,0.16543926,-0.9810682,0.477034,0.8733673,0.0983264,-0.05984497,9.811432,-0.10533142,0.020645142,9.806488,-0.009719849,-0.0053253174,-0.046875,0.0063934326,-4.559326,-31.985474,-23.822021,0,0.0,0.0,0.0,0.0
0.268859863,0.9827443,-0.0023341198,-0.18495467,-0.18495636,-5.233594E-4,-0.98274666,0.0021970505,0.9999972,-9.4603875E-4,0.8765495,-0.45173588,-0.16611983,-0.10510552,0.15715736,-0.9819646,0.46969557,0.8782006,0.09027627,0.026321411,9.830582,-0.10533142,0.02154541,9.806488,-0.009277344,-0.008514404,-0.04473877,0.005340576,-4.559326,-31.985474,-23.822021,0,0.0,0.0,0.0,0.0
0.273254394,0.9827385,-0.0023102097,-0.18498565,-0.18498722,-4.802905E-4,-0.9827409,0.0021814909,0.99999726,-8.993593E-4,0.8801387,-0.44516632,-0.16487214,-0.10856457,0.14934982,-0.9828064,0.4621359,0.8829052,0.08311927,-0.07421875,9.821014,0.01914978,0.021392822,9.806488,-0.00881958,-0.018081665,-0.059646606,0.020233154,-4.559326,-31.985474,-23.822021,0,0.0,0.0,0.0,0.0
0.277648925,0.9827452,-0.0023375587,-0.18495022,-0.1849516,-3.818091E-4,-0.9827477,0.0022266144,0.99999726,-8.0755615E-4,0.8836691,-0.43852755,-0.16377564,-0.111824274,0.14198202,-0.9835326,0.45455936,0.8874315,0.07642709,0.10293579,9.787491,0.19152832,0.021835327,9.806488,-0.0079193115,-0.008514404,-0.050064087,0.004272461,-4.559326,-31.985474,-23.822021,0,0.0,0.0,0.0,0.0
0.282043457,0.9744948,-0.0023358813,-0.22439775,-0.22439903,-2.908036E-4,-0.9744973,0.0022110546,0.99999726,-8.0755615E-4,0.8871603,-0.43176278,-0.16287276,-0.11484049,0.13527359,-0.98413044,0.44694328,0.8917858,0.0704255,-0.05984497,9.883255,0.004776001,0.02168274,9.806488,-0.0079193115,-0.004257202,-0.050064087,0.0032043457,-5.635071,-29.116821,-24.168396,0,0.0,0.0,0.0,0.0
0.286437988,0.97448564,-0.002300449,-0.22443831,-0.22443949,-2.6853237E-4,-0.97448796,0.0021814909,0.99999726,-7.779925E-4,0.89033383,-0.42496723,-0.16342755,-0.11908156,0.12910344,-0.9844551,0.43946022,0.8959549,0.06433939,-0.07421875,9.8736725,0.06703186,0.021392822,9.806488,-0.0076293945,0.0032043457,-0.040481567,0.0032043457,-5.635071,-29.116821,-24.168396,0,0.0,0.0,0.0,0.0
0.290832519,0.9744852,-0.0022989067,-0.22444008,-0.2244414,-3.311555E-4,-0.97448754,0.002165931,0.99999726,-8.386759E-4,0.89355433,-0.41812685,-0.1634951,-0.12250033,0.12327918,-0.98478216,0.43191943,0.89998454,0.05893596,-0.08378601,9.725235,-0.11012268,0.021240234,9.806488,-0.008224487,-0.0010528564,-0.022369385,0.0021362305,-5.635071,-29.116821,-24.168396,0,0.0,0.0,0.0,0.0
0.29522705,0.9804935,-0.00228519,-0.19653857,-0.19654009,-4.5918504E-4,-0.9804957,0.0021503712,0.99999726,-8.993593E-4,0.8966603,-0.4113878,-0.16358584,-0.12582608,0.117458366,-0.9850743,0.42446205,0.9038604,0.05355695,-0.002380371,9.758759,-0.16279602,0.021087646,9.806488,-0.00881958,0.004272461,-0.027694702,0.005340576,-4.73938,-29.296875,-23.303223,0,0.0,0.0,0.0,0.0
0.299621582,0.9804948,-0.00229103,-0.1965315,-0.19653328,-5.675282E-4,-0.980497,0.0021348114,0.99999726,-0.0010067222,0.8997313,-0.4048081,-0.16313791,-0.12854579,0.11141933,-0.9854247,0.41708457,0.90758806,0.048211087,-0.03590393,9.787491,-0.10533142,0.020935059,9.806488,-0.0098724365,-0.006378174,-0.014907837,0.0021362305,-4.73938,-29.296875,-23.303223,0,0.0,0.0,0.0,0.0
0.304016113,0.98049444,-0.0022892272,-0.19653368,-0.19653557,-6.297752E-4,-0.9804965,0.0021208073,0.9999972,-0.0010674056,0.9026177,-0.39842454,-0.16290826,-0.13156717,0.10498614,-0.9857322,0.409843,0.91117275,0.04234276,-0.026321411,9.830582,-0.1484375,0.02079773,9.806488,-0.010467529,0.018112183,-0.022369385,0.0021362305,-4.73938,-29.296875,-23.303223,0,0.0,0.0,0.0,0.0
0.308410644,0.9817896,-0.0023169362,-0.18995784,-0.1899598,-6.5476424E-4,-0.98179173,0.0021503707,0.9999971,-0.0010829653,0.90548587,-0.3920308,-0.16250281,-0.1341353,0.098902,-0.98601526,0.40262023,0.9146203,0.03696919,0.06942749,9.76355,-0.05265808,0.021087646,9.806488,-0.010620117,-0.006378174,-0.020233154,-0.004257202,-4.3807983,-30.731201,-22.26715,0,0.0,0.0,0.0,0.0
0.312805175,0.9817835,-0.0022935483,-0.18998893,-0.18999092,-6.893327E-4,-0.98178554,0.002120807,0.9999971,-0.001112529,0.908295,-0.38567102,-0.16204311,-0.13645609,0.09302154,-0.98626906,0.3954489,0.9179351,0.03186385,-0.026321411,9.854523,-0.07661438,0.02079773,9.806488,-0.010910034,0.0032043457,-0.0138549805,0.0021362305,-4.3807983,-30.731201,-22.26715,0,0.0,0.0,0.0,0.0
0.317199707,0.9817885,-0.0023131904,-0.1899628,-0.1899649,-7.172865E-4,-0.9817906,0.002134811,0.9999971,-0.0011436486,0.91090935,-0.37952414,-0.16188139,-0.1389808,0.08718531,-0.9864497,0.38849515,0.9210647,0.026671344,0.05984497,9.76355,-0.08139038,0.020935059,9.806488,-0.01121521,0.0063934326,-0.019180298,0.009597778,-4.3807983,-30.731201,-22.26715,0,0.0,0.0,0.0,0.0
0.321594238,0.9761981,-0.0023418115,-0.21686776,-0.2168699,-6.9750554E-4,-0.9762002,0.002134811,0.9999971,-0.0011887723,0.91355884,-0.37325436,-0.16152844,-0.141101,0.08161714,-0.9866251,0.38144562,0.92413193,0.021895494,-0.002380371,9.801849,-0.12927246,0.020935059,9.806488,-0.011657715,-0.004257202,-0.003189087,0.010665894,-5.0979614,-31.089783,-22.612,0,0.0,0.0,0.0,0.0
0.325988769,0.976201,-0.0023519248,-0.21685453,-0.21685678,-7.431058E-4,-0.976203,0.0021348107,0.99999696,-0.0012354517,0.91604865,-0.36699778,-0.16176403,-0.14363813,0.0763754,-0.9866788,0.37446368,0.9270811,0.017248701,0.04069519,9.797058,-0.13885498,0.020935059,9.806488,-0.0121154785,0.0063934326,0.006378174,0.012786865,-5.0979614,-31.089783,-22.612,0,0.0,0.0,0.0,0.0
0.3303833,0.97619617,-0.002334897,-0.21687686,-0.21687905,-7.3089986E-4,-0.97619814,0.0021208068,0.99999696,-0.0012198918,0.91845834,-0.3608042,-0.16203251,-0.14608416,0.0712458,-0.9867033,0.36755085,0.9299163,0.012728514,-0.02154541,9.830582,0.004776001,0.02079773,9.806488,-0.011962891,0.0,0.0021362305,-0.003189087,-5.0979614,-31.089783,-22.612,0,0.0,0.0,0.0,0.0
0.334777832,0.9833073,-0.0022906277,-0.18193798,-0.18194039,-8.943055E-4,-0.9833091,0.0020896872,0.99999696,-0.001296135,0.92079747,-0.3546541,-0.16233444,-0.14845192,0.06620916,-0.9867008,0.36068547,0.93265045,0.0083161425,-0.05984497,9.964661,-0.19152832,0.020492554,9.806488,-0.012710571,0.009597778,-0.0021362305,-0.0010528564,-4.3807983,-29.655457,-23.303223,0,0.0,0.0,0.0,0.0
0.339172363,0.983312,-0.0023115654,-0.18191223,-0.18191473,-9.221354E-4,-0.98331386,0.0021052468,0.9999969,-0.0013272547,0.92316264,-0.3486235,-0.16196412,-0.15006289,0.06107404,-0.9867883,0.3539094,0.93527085,0.0040658186,0.03590393,9.76355,-0.07182312,0.020645142,9.806488,-0.013015747,-0.020217896,-0.0021362305,0.0021362305,-4.3807983,-29.655457,-23.303223,0,0.0,0.0,0.0,0.0
0.343566894,0.98331577,-0.0023282443,-0.18189171,-0.18189444,-0.0010124547,-0.9833175,0.0021052465,0.9999968,-0.0014190575,0.92545694,-0.34263653,-0.16164663,-0.15158966,0.05612673,-0.9868487,0.3472031,0.93779,2.7165524E-6,0.05027771,9.739609,-0.25856018,0.020645142,9.806488,-0.013916016,0.012786865,-0.0095825195,-0.003189087,-4.3807983,-29.655457,-23.303223,0,0.0,0.0,0.0,0.0
0.347961425,0.9782071,-0.0023601349,-0.20761813,-0.20762087,-9.799642E-4,-0.9782089,0.0021052465,0.9999968,-0.0014486212,0.9276773,-0.3367203,-0.1613512,-0.15306371,0.051205553,-0.9868887,0.34056756,0.94021136,-0.0040374314,0.01675415,9.8688965,-0.08139038,0.020645142,9.806488,-0.014205933,0.0,0.007446289,0.0063934326,-5.2764893,-30.551147,-24.513245,0,0.0,0.0,0.0,0.0
0.352355957,0.9781947,-0.0023105284,-0.20767729,-0.20768008,-0.0010380859,-0.97819626,0.0020445632,0.9999968,-0.0014953007,0.92977715,-0.33073986,-0.16163418,-0.15491895,0.046755046,-0.9868202,0.33393797,0.94256306,-0.007766104,-0.13645935,9.749176,-0.13406372,0.020050049,9.806488,-0.014663696,-0.008514404,0.0021362305,-0.004257202,-5.2764893,-30.551147,-24.513245,0,0.0,0.0,0.0,0.0
0.356750488,0.97819626,-0.00231666,-0.20766999,-0.20767285,-0.0010670223,-0.9781978,0.0020445632,0.9999968,-0.0015248645,0.93177855,-0.32491824,-0.1619162,-0.15674795,0.04220819,-0.98673636,0.32744282,0.9447998,-0.011601582,0.01675415,9.859314,-0.12449646,0.020050049,9.806488,-0.014953613,-0.003189087,0.0,-0.0021209717,-5.2764893,-30.551147,-24.513245,0,0.0,0.0,0.0,0.0
0.361145019,0.9799772,-0.0022432064,-0.19909741,-0.19910002,-0.0010065942,-0.9799787,0.0019978841,0.99999696,-0.0014330617,0.93371594,-0.3191478,-0.1622317,-0.15849791,0.037823748,-0.9866346,0.3210185,0.94694984,-0.015267622,-0.01675415,9.7827,0.004776001,0.019592285,9.806488,-0.014053345,-0.004257202,-0.018112183,-0.0021209717,-4.559326,-30.909729,-22.0932,0,0.0,0.0,0.0,0.0
0.36553955,0.9799755,-0.0022372603,-0.19910538,-0.19910808,-0.0010554186,-0.9799769,0.001982324,0.9999969,-0.0014797411,0.93562037,-0.31341624,-0.1624338,-0.15997988,0.0337178,-0.9865443,0.31467593,0.94901705,-0.01859323,0.002380371,9.806641,-0.15800476,0.019439697,9.806488,-0.014511108,-0.02128601,-0.01171875,-0.0095825195,-4.559326,-30.909729,-22.0932,0,0.0,0.0,0.0,0.0
0.369934082,0.9799577,-0.00217175,-0.19919337,-0.1991958,-9.5899525E-4,-0.9799592,0.001937201,0.9999972,-0.0013723786,0.93744975,-0.3077523,-0.16271588,-0.16143912,0.029787738,-0.986433,0.30842397,0.9510001,-0.021758758,-0.06463623,9.768341,0.0,0.018997192,9.806488,-0.013458252,-0.0053253174,-0.0021362305,0.0010681152,-4.559326,-30.909729,-22.0932,0,0.0,0.0,0.0,0.0
0.374328613,0.9687343,-0.0021908276,-0.24809083,-0.24809319,-8.716623E-4,-0.9687358,0.0019060816,0.99999726,-0.0013879385,0.9392299,-0.30212367,-0.1629987,-0.16276824,0.02612124,-0.9863185,0.30224788,0.9529108,-0.024642289,-0.05027771,9.844955,-0.0622406,0.018692017,9.806488,-0.01361084,-0.024475098,-0.017044067,-0.004257202,-5.9936523,-30.909729,-23.130798,0,0.0,0.0,0.0,0.0
0.378723144,0.9687288,-0.0021734035,-0.24811266,-0.24811509,-9.226607E-4,-0.96873015,0.0018765178,0.99999726,-0.0014330621,0.94078356,-0.29653785,-0.16429079,-0.16498604,0.022862568,-0.9860309,0.29615158,0.9547474,-0.027415881,-0.05984497,9.811432,-0.12927246,0.0184021,9.806488,-0.014053345,0.008529663,-0.0063934326,-0.017044067,-5.9936523,-30.909729,-23.130798,0,0.0,0.0,0.0,0.0
0.383117675,0.9687347,-0.0021923142,-0.24808893,-0.2480914,-9.339268E-4,-0.9687361,0.0018920775,0.9999972,-0.0014486219,0.94227797,-0.29102916,-0.1655727,-0.16714358,0.01963862,-0.98573697,0.2901298,0.95651263,-0.030138617,-0.04548645,9.7348175,-0.30166626,0.018554688,9.806488,-0.014205933,-0.008514404,-0.015975952,-0.008514404,-5.9936523,-30.909729,-23.130798,0,0.0,0.0,0.0,0.0
0.387512207,0.97808194,-0.0021308553,-0.20820953,-0.20821199,-9.972462E-4,-0.97808325,0.0018765178,0.99999726,-0.0014190582,0.94363195,-0.28566605,-0.16719277,-0.16946438,0.016936546,-0.9853907,0.28432435,0.95817953,-0.03242835,-0.026321411,9.811432,-0.12449646,0.0184021,9.806488,-0.013916016,-0.02128601,-0.014907837,0.008529663,-4.9179077,-30.909729,-22.78595,0,0.0,0.0,0.0,0.0
0.391906738,0.97809213,-0.00216805,-0.20816128,-0.20816398,-0.0010976011,-0.9780934,0.0018920773,0.9999971,-0.0015248649,0.94515234,-0.2803054,-0.1676776,-0.17068738,0.0138245765,-0.9852282,0.27848285,0.95981133,-0.03477826,0.002380371,9.677353,-0.28729248,0.018554688,9.806488,-0.014953613,-0.014892578,-0.03515625,0.0,-4.9179077,-30.909729,-22.78595,0,0.0,0.0,0.0,0.0
0.396301269,0.9780738,-0.0021011163,-0.20824814,-0.20825072,-0.0010814548,-0.97807497,0.0018298383,0.99999726,-0.0014953015,0.946619,-0.27501893,-0.16815796,-0.17187533,0.010709506,-0.98506045,0.27271116,0.9613792,-0.037131146,-0.12689209,9.76355,-0.16758728,0.017944336,9.806488,-0.014663696,0.0,-0.027694702,0.0021362305,-4.9179077,-30.909729,-22.78595,0,0.0,0.0,0.0,0.0
0.4006958,0.98483217,-0.0020170815,-0.17349768,-0.17350021,-0.0011629772,-0.98483306,0.0017847146,0.99999726,-0.0014953015,0.9479797,-0.2697218,-0.16907008,-0.17334276,0.008080869,-0.98482835,0.26699594,0.9629044,-0.039093826,-0.11730957,9.955078,-0.028717041,0.017501831,9.806488,-0.014663696,-0.022354126,-0.020233154,-0.0010528564,-4.2007446,-31.626892,-23.477173,0,0.0,0.0,0.0,0.0
0.405090332,0.98482275,-0.001975696,-0.17355174,-0.17355414,-0.0011069728,-0.98482376,0.0017535954,0.9999975,-0.0014330624,0.94946456,-0.2645748,-0.16887043,-0.17375784,0.004998912,-0.9847758,0.261391,0.9643522,-0.04122566,-0.06942749,9.749176,-0.07661438,0.017196655,9.806488,-0.014053345,-0.008514404,-0.019180298,0.0063934326,-4.2007446,-31.626892,-23.477173,0,0.0,0.0,0.0,0.0
0.409484863,0.9848198,-0.0019630915,-0.17356819,-0.1735706,-0.0011249643,-0.9848208,0.0017380355,0.9999975,-0.0014486223,0.95089585,-0.25948724,-0.1687116,-0.1741253,0.0021537375,-0.9847211,0.25588593,0.96574414,-0.043135315,-0.07421875,9.801849,-0.11491394,0.017044067,9.806488,-0.014205933,-0.018081665,-0.028762817,0.0,-4.2007446,-31.626892,-23.477173,0,0.0,0.0,0.0,0.0
0.413879394,0.97866625,-0.0019455814,-0.2054471,-0.20544945,-0.0011035665,-0.9786671,0.0016773521,0.9999975,-0.001479742,0.9522763,-0.25446507,-0.16857465,-0.17446256,-5.785839E-4,-0.98466367,0.25046498,0.9670818,-0.044945598,-0.05027771,9.82579,-0.20111084,0.016448975,9.806488,-0.014511108,-0.004257202,-0.04473877,0.0063934326,-4.9179077,-31.26831,-23.130798,0,0.0,0.0,0.0,0.0
0.418273925,0.978672,-0.0019668515,-0.20541957,-0.20542201,-0.001129358,-0.9786729,0.001692912,0.9999975,-0.0015093057,0.9534,-0.24935064,-0.1698604,-0.17616065,-0.0030011532,-0.9843569,0.24494022,0.96840864,-0.046787072,-0.03111267,9.801849,-0.1197052,0.016601563,9.806488,-0.014801025,-0.0095825195,-0.046875,-0.008514404,-4.9179077,-31.26831,-23.130798,0,0.0,0.0,0.0,0.0
0.422668457,0.97867036,-0.0019607872,-0.20542741,-0.20542979,-0.0011004091,-0.97867125,0.001692912,0.9999975,-0.001479742,0.9545738,-0.24446714,-0.17036596,-0.17704265,-0.005432735,-0.9841882,0.2396761,0.96964234,-0.048467055,-0.05027771,9.792282,-0.08618164,0.016601563,9.806488,-0.014511108,-0.003189087,-0.051132202,0.005340576,-4.9179077,-31.26831,-23.130798,0,0.0,0.0,0.0,0.0
0.427062988,0.96953046,-0.0020112186,-0.24496247,-0.24496497,-0.0011127724,-0.96953124,0.0016773519,0.9999973,-0.0015715449,0.95570004,-0.23965473,-0.17088875,-0.17787707,-0.007672254,-0.9840228,0.23451462,0.9708279,-0.049961455,-0.007171631,9.753967,-0.1771698,0.016448975,9.806488,-0.015411377,-0.010650635,-0.05432129,0.005340576,-5.9936523,-29.833984,-23.477173,0,0.0,0.0,0.0,0.0
0.431457519,0.969536,-0.002029709,-0.24494037,-0.24494292,-0.0011225841,-0.9695368,0.0016929116,0.99999726,-0.0015855486,0.9566407,-0.23491618,-0.17220037,-0.17946763,-0.009747556,-0.9837156,0.22941217,0.97196674,-0.051484756,0.07421875,9.821014,-0.3543396,0.016601563,9.806488,-0.015548706,0.0063934326,-0.050064087,-0.0010528564,-5.9936523,-29.833984,-23.477173,0,0.0,0.0,0.0,0.0
0.43585205,0.969506,-0.0019295719,-0.24505998,-0.24506246,-0.00116373,-0.9695066,0.001585549,0.9999975,-0.0016011088,0.95742714,-0.23014522,-0.17425959,-0.18167822,-0.011277036,-0.9832933,0.22433513,0.97309095,-0.052609313,-0.17477417,9.816223,-0.25378418,0.015548706,9.806488,-0.015701294,-0.026611328,-0.041549683,-0.0021209717,-5.9936523,-29.833984,-23.477173,0,0.0,0.0,0.0,0.0
0.440246582,0.96731323,-0.0019508371,-0.25357684,-0.25357932,-0.0011277184,-0.9673139,0.0016011088,0.9999975,-0.001585549,0.9582904,-0.22554648,-0.1755234,-0.18317446,-0.013285403,-0.9829907,0.21937817,0.97414184,-0.05404563,-0.02154541,9.945511,-0.08618164,0.015701294,9.806488,-0.015548706,-0.018081665,-0.04899597,-0.007446289,-6.173706,-32.165527,-23.303223,0,0.0,0.0,0.0,0.0
0.444641113,0.96732193,-0.0019766216,-0.25354356,-0.2535459,-0.0010421984,-0.96732277,0.0016477883,0.9999975,-0.0015093057,0.9590799,-0.22102433,-0.1769575,-0.18478501,-0.015084205,-0.9826632,0.21452321,0.97515166,-0.05530894,0.01675415,9.7444,-0.07182312,0.016159058,9.806488,-0.014801025,-0.0095825195,-0.041549683,0.004272461,-6.173706,-32.165527,-23.303223,0,0.0,0.0,0.0,0.0
0.449035644,0.9673181,-0.0019651959,-0.2535583,-0.25356057,-9.985196E-4,-0.96731895,0.0016477884,0.99999756,-0.0014641823,0.9598252,-0.21658804,-0.17839602,-0.1863274,-0.016597614,-0.9823475,0.20980377,0.97612196,-0.056287095,-0.03590393,9.830582,-0.13885498,0.016159058,9.806488,-0.0143585205,-0.02128601,-0.03515625,0.010665894,-6.173706,-32.165527,-23.303223,0,0.0,0.0,0.0,0.0
0.453430175,0.9774139,-0.0018952513,-0.21132591,-0.21132809,-0.0010420756,-0.97741467,0.0016322287,0.9999976,-0.0014190588,0.9604153,-0.2122286,-0.18044792,-0.18838775,-0.017632503,-0.9819364,0.20521323,0.977061,-0.056915794,-0.03111267,9.816223,-0.04309082,0.01600647,9.806488,-0.013916016,-0.01914978,-0.03515625,0.0032043457,-5.0979614,-30.731201,-23.303223,0,0.0,0.0,0.0,0.0
0.457824707,0.97740936,-0.0018788307,-0.2113466,-0.21134865,-9.6599374E-4,-0.97741026,0.001632229,0.9999978,-0.0013412597,0.96124977,-0.2079374,-0.18099952,-0.18898585,-0.019035224,-0.98179525,0.2007066,0.9779569,-0.057594836,0.05027771,9.816223,-0.02394104,0.01600647,9.806488,-0.013153076,-0.013824463,-0.031951904,0.0010681152,-5.0979614,-30.731201,-23.303223,0,0.0,0.0,0.0,0.0
0.462219238,0.9773988,-0.0018398333,-0.21139571,-0.21139777,-0.0010061837,-0.9773996,0.0015855494,0.9999978,-0.0013723794,0.9620443,-0.20373012,-0.18156195,-0.18954802,-0.020227395,-0.98166305,0.19632182,0.9788181,-0.058076292,-0.08857727,9.816223,-0.0909729,0.015548706,9.806488,-0.013458252,-0.018081665,-0.0234375,-0.004257202,-5.0979614,-30.731201,-23.303223,0,0.0,0.0,0.0,0.0
0.466613769,0.96640456,-0.0018694173,-0.257019,-0.2570209,-8.601126E-4,-0.96640545,0.0015855496,0.99999785,-0.001311696,0.96280825,-0.19958693,-0.18211353,-0.1900985,-0.021435782,-0.98153096,0.191997,0.9796456,-0.058579724,-0.05027771,9.911987,-0.05265808,0.015548706,9.806488,-0.012863159,0.0063934326,-0.0095825195,0.018096924,-6.5322876,-30.37262,-24.34082,0,0.0,0.0,0.0,0.0
0.4710083,0.96640915,-0.0018844386,-0.2570015,-0.2570034,-8.561475E-4,-0.9664101,0.0016011094,0.99999785,-0.001311696,0.96329397,-0.19554904,-0.18391684,-0.19180039,-0.022006262,-0.9811873,0.18782291,0.980447,-0.05870488,0.05505371,9.773117,-0.02394104,0.015701294,9.806488,-0.012863159,-0.017028809,-0.017044067,0.0032043457,-6.5322876,-30.37262,-24.34082,0,0.0,0.0,0.0,0.0
0.475402832,0.9663911,-0.0018258552,-0.25706974,-0.25707158,-8.7161444E-4,-0.96639186,0.001540426,0.9999979,-0.0013116961,0.9638117,-0.19158877,-0.18536657,-0.19318137,-0.022781355,-0.9808985,0.18370625,0.9812109,-0.05896832,-0.13645935,9.859314,-0.028717041,0.015106201,9.806488,-0.012863159,-0.004257202,-0.0053253174,0.019165039,-6.5322876,-30.37262,-24.34082,0,0.0,0.0,0.0,0.0
0.479797363,0.96639466,-0.0018374423,-0.25705624,-0.25705817,-9.1524713E-4,-0.9663954,0.0015404259,0.99999785,-0.0013568196,0.96430343,-0.18769349,-0.18678898,-0.19453466,-0.023564136,-0.9806126,0.17965306,0.981945,-0.05923586,0.026321411,9.806641,-0.12927246,0.015106201,9.806488,-0.013305664,0.005340576,-0.0010681152,0.008529663,-6.5322876,-30.37262,-24.34082,0,0.0,0.0,0.0,0.0
0.484191894,0.9663862,-0.0018098669,-0.2570884,-0.2570904,-9.869342E-4,-0.9663868,0.0014953024,0.99999785,-0.0014190591,0.9647013,-0.18399698,-0.18840542,-0.1960685,-0.02421436,-0.9802911,0.1758085,0.9826285,-0.059435636,-0.09336853,9.758759,-0.16758728,0.014663696,9.806488,-0.013916016,-0.006378174,-0.012786865,0.009597778,-6.5322876,-30.37262,-24.34082,0,0.0,0.0,0.0,0.0
0.488586425,0.9663939,-0.0018349697,-0.2570591,-0.2570612,-0.0010269962,-0.9663945,0.0015093061,0.9999978,-0.0014641825,0.96514827,-0.18021904,-0.18976285,-0.19736587,-0.025069289,-0.9800093,0.17185912,0.983307,-0.059764665,0.05505371,9.840164,-0.1197052,0.014801025,9.806488,-0.0143585205,-0.015960693,-0.0053253174,-0.0010528564,-6.5322876,-30.37262,-24.34082,0,0.0,0.0,0.0,0.0
0.492980957,0.98560244,-0.0017504652,-0.1690703,-0.1690725,-0.0011852924,-0.985603,0.001524866,0.9999978,-0.0014641825,0.9655711,-0.17650689,-0.19109605,-0.19863191,-0.025893029,-0.9797321,0.16798142,0.9839588,-0.060061466,0.03111267,9.686935,-0.01914978,0.014953613,9.806488,-0.0143585205,0.009597778,-0.008514404,-0.010650635,-4.2007446,-30.909729,-24.168396,0,0.0,0.0,0.0,0.0
0.497375488,0.985593,-0.0017060582,-0.16912545,-0.1691276,-0.0011928261,-0.98559344,0.0014797425,0.99999785,-0.0014641826,0.966327,-0.1728193,-0.19064498,-0.19812267,-0.026941467,-0.9798069,0.16419329,0.984585,-0.06027369,-0.10293579,9.897629,0.009567261,0.014511108,9.806488,-0.0143585205,-0.007446289,-0.0063934326,0.0063934326,-4.2007446,-30.909729,-24.168396,0,0.0,0.0,0.0,0.0
0.501770019,0.9855877,-0.0016806894,-0.16915698,-0.16915914,-0.0012287071,-0.9855881,0.0014486228,0.99999785,-0.0014953024,0.967043,-0.16904032,-0.19040285,-0.19777168,-0.027723217,-0.979856,0.1603566,0.9852192,-0.06024093,-0.05984497,9.844955,-0.10533142,0.014205933,9.806488,-0.014663696,-0.015960693,-0.0095825195,-0.006378174,-4.2007446,-30.909729,-24.168396,0,0.0,0.0,0.0,0.0
0.50616455,0.9803738,-0.0017238756,-0.19714034,-0.19714256,-0.0012246112,-0.98037416,0.0014486227,0.9999978,-0.0015404258,0.9677455,-0.1654701,-0.18996908,-0.19727328,-0.02873309,-0.97992736,0.15669028,0.98579615,-0.06044915,0.02154541,9.892838,-0.13406372,0.014205933,9.806488,-0.015106201,-0.0053253174,0.0,0.017044067,-4.73938,-30.37262,-23.303223,0,0.0,0.0,0.0,0.0
0.510559082,0.98037,-0.0017086449,-0.19715941,-0.19716161,-0.0012276454,-0.9803703,0.0014330628,0.9999978,-0.0015404258,0.9683103,-0.16197452,-0.1901041,-0.19733138,-0.029615922,-0.97988945,0.15308702,0.9863504,-0.060640056,-0.01675415,9.797058,-0.0143585205,0.014053345,9.806488,-0.015106201,0.0021362305,-0.0095825195,-0.006378174,-4.73938,-30.37262,-23.303223,0,0.0,0.0,0.0,0.0
0.514953613,0.9803722,-0.0017175269,-0.19714828,-0.19715053,-0.0012719026,-0.9803723,0.0014330626,0.9999976,-0.0015855492,0.9688513,-0.15854159,-0.19024096,-0.19738245,-0.03043958,-0.97985387,0.14955673,0.986883,-0.060784753,-0.011962891,9.835373,-0.12449646,0.014053345,9.806488,-0.015548706,-0.0021209717,0.02128601,0.009597778,-4.73938,-30.37262,-23.303223,0,0.0,0.0,0.0,0.0
0.519348144,0.9736125,-0.0017015452,-0.22820152,-0.22820374,-0.0012456808,-0.97361267,0.0013723794,0.9999978,-0.0016011093,0.9694303,-0.15516286,-0.19007725,-0.19713603,-0.03130564,-0.97987616,0.1460899,0.9873927,-0.060936827,-0.12210083,9.835373,-0.05744934,0.013458252,9.806488,-0.015701294,0.004272461,0.018096924,-0.0010528564,-5.635071,-29.475403,-23.822021,0,0.0,0.0,0.0,0.0
0.523742675,0.97360927,-0.0016899641,-0.2282151,-0.22821732,-0.0012643574,-0.9736094,0.0013568195,0.9999978,-0.0016166691,0.9698045,-0.15185443,-0.1908388,-0.19780184,-0.032008674,-0.97971934,0.1426662,0.98788446,-0.061079238,-0.05505371,9.878464,-0.0622406,0.013305664,9.806488,-0.015853882,0.018112183,-0.0095825195,-0.006378174,-5.635071,-29.475403,-23.822021,0,0.0,0.0,0.0,0.0
0.528137207,0.9735947,-0.0016365352,-0.22827776,-0.2282797,-0.001104192,-0.9735951,0.00134126,0.9999981,-0.0014486231,0.97016037,-0.14860336,-0.19158797,-0.19845039,-0.03267489,-0.97956616,0.13930671,0.9883569,-0.061190277,-0.04548645,9.787491,-0.028717041,0.013153076,9.806488,-0.014205933,-0.007446289,-0.0021362305,0.0063934326,-5.635071,-29.475403,-23.822021,0,0.0,0.0,0.0,0.0
0.532531738,0.97799176,-0.0015228192,-0.20863762,-0.20863925,-0.0010004346,-0.9779922,0.001280577,0.9999984,-0.0012961369,0.97049063,-0.14544582,-0.19233659,-0.1990727,-0.033132587,-0.9794244,0.1360806,0.98881125,-0.061109155,-0.11730957,9.82579,-0.1197052,0.012557983,9.806488,-0.012710571,-0.039398193,-0.0138549805,0.0032043457,-5.2764893,-30.192566,-24.513245,0,0.0,0.0,0.0,0.0
0.536926269,0.9779604,-0.0013970798,-0.20878574,-0.20878711,-9.172988E-4,-0.97796077,0.0011747702,0.9999986,-0.0011887741,0.970793,-0.14218667,-0.19324626,-0.19974561,-0.032815643,-0.9792981,0.13290164,0.9892958,-0.060258355,-0.17477417,9.777908,-0.11491394,0.011520386,9.806488,-0.011657715,-0.043655396,-0.028762817,-0.0021209717,-5.2764893,-30.192566,-24.513245,0,0.0,0.0,0.0,0.0
0.5413208,0.9779612,-0.0014003247,-0.20878191,-0.20878331,-9.3252107E-4,-0.97796154,0.0011747702,0.9999986,-0.001204334,0.9711645,-0.13916302,-0.19357991,-0.1999422,-0.033157762,-0.97924644,0.12985623,0.9897142,-0.060026206,0.011962891,9.811432,-0.05744934,0.011520386,9.806488,-0.011810303,-0.03300476,-0.030899048,-0.010650635,-5.2764893,-30.192566,-24.513245,0,0.0,0.0,0.0,0.0
0.545715332,0.98311687,-0.0013503998,-0.18297403,-0.18297544,-0.0010053371,-0.98311704,0.0011436505,0.9999986,-0.0012354538,0.97151953,-0.13619694,-0.19390771,-0.2001323,-0.033470627,-0.979197,0.12687343,0.99011624,-0.059774775,-0.07899475,9.797058,-0.07661438,0.01121521,9.806488,-0.0121154785,-0.0021209717,-0.003189087,-0.0021209717,-4.3807983,-31.806946,-23.303223,0,0.0,0.0,0.0,0.0
0.550109863,0.98310053,-0.0012836262,-0.18306209,-0.1830633,-8.92631E-4,-0.9831007,0.001098527,0.99999875,-0.0011125308,0.9719663,-0.13325602,-0.19371165,-0.19980773,-0.033877663,-0.97924924,0.12392835,0.9905025,-0.059553534,-0.05027771,9.811432,-0.009567261,0.010772705,9.806488,-0.010910034,-0.014892578,0.011703491,0.0010681152,-4.3807983,-31.806946,-23.303223,0,0.0,0.0,0.0,0.0
0.554504394,0.9831018,-0.0012891266,-0.18305482,-0.18305597,-8.4571587E-4,-0.983102,0.0011125309,0.9999988,-0.0010674073,0.97236466,-0.13022394,-0.19377457,-0.19966993,-0.033725962,-0.9792826,0.12099081,0.9909108,-0.058795743,0.026321411,9.859314,-0.13406372,0.010910034,9.806488,-0.010467529,-0.027679443,-0.01171875,-0.0053253174,-4.3807983,-31.806946,-23.303223,0,0.0,0.0,0.0,0.0
0.558898925,0.9796963,-0.0012840243,-0.20048338,-0.20048456,-8.728254E-4,-0.9796964,0.001082967,0.99999875,-0.0011125308,0.97276896,-0.1274453,-0.19359304,-0.19934247,-0.03389777,-0.9793434,0.11825035,0.9912662,-0.058379956,-0.05505371,9.82579,-0.11012268,0.010620117,9.806488,-0.010910034,-0.01914978,-0.019180298,0.0032043457,-4.73938,-31.448364,-22.958374,0,0.0,0.0,0.0,0.0
0.563293457,0.9796987,-0.0012933713,-0.20047109,-0.20047234,-9.185734E-4,-0.97969884,0.001082967,0.99999875,-0.0011592105,0.9730897,-0.12471424,-0.19375946,-0.1993693,-0.034073155,-0.9793319,0.11553463,0.9916075,-0.058020428,-0.007171631,9.830582,-0.15800476,0.010620117,9.806488,-0.011367798,0.0021362305,-0.012786865,-0.006378174,-4.73938,-31.448364,-22.958374,0,0.0,0.0,0.0,0.0
0.567687988,0.97970444,-0.0013145151,-0.2004433,-0.20044461,-9.4445504E-4,-0.9797046,0.001098527,0.99999875,-0.0011887742,0.97339827,-0.12202627,-0.19392087,-0.19939552,-0.03426072,-0.97931993,0.1128589,0.9919354,-0.057680823,0.03111267,9.821014,-0.05744934,0.010772705,9.806488,-0.011657715,-0.004257202,0.0042419434,-0.0053253174,-4.73938,-31.448364,-22.958374,0,0.0,0.0,0.0,0.0
0.572082519,0.9899863,-0.00121571,-0.14115778,-0.1411591,-0.001074606,-0.9899863,0.0010518474,0.99999875,-0.0012354539,0.97367686,-0.11932635,-0.19420242,-0.19955261,-0.034539953,-0.9792782,0.11014596,0.9922541,-0.05744264,-0.10293579,9.835373,-0.1484375,0.010314941,9.806488,-0.0121154785,0.0063934326,-0.008514404,-0.0053253174,-3.4835815,-30.551147,-24.168396,0,0.0,0.0,0.0,0.0
0.57647705,0.98999286,-0.0012528358,-0.14111178,-0.14111318,-0.001114943,-0.98999274,0.0010829668,0.9999985,-0.0012805772,0.9742024,-0.11667823,-0.1931729,-0.19840243,-0.03489445,-0.9794993,0.10754558,0.9925566,-0.057143506,0.09815979,9.859314,-0.11491394,0.010620117,9.806488,-0.012557983,-0.006378174,0.009567261,-0.003189087,-3.4835815,-30.551147,-24.168396,0,0.0,0.0,0.0,0.0
0.580871582,0.9899876,-0.0012225395,-0.14114933,-0.14115058,-0.0010123443,-0.9899877,0.0010674072,0.99999875,-0.0011747703,0.97470903,-0.11408581,-0.1921635,-0.19727162,-0.035207387,-0.9797165,0.10500617,0.99284685,-0.05682285,0.026321411,9.840164,-0.16758728,0.010467529,9.806488,-0.011520386,-0.015960693,0.0,0.0010681152,-3.4835815,-30.551147,-24.168396,0,0.0,0.0,0.0,0.0
0.585266113,0.98022604,-0.0011625666,-0.19787766,-0.19787881,-9.780672E-4,-0.9802259,9.4604027E-4,0.9999988,-0.0011887742,0.9751616,-0.11135845,-0.19146588,-0.19637808,-0.03485393,-0.97990865,0.10244776,0.9931689,-0.055856567,-0.03590393,9.76355,-0.1484375,0.009277344,9.806488,-0.011657715,-0.035125732,-0.0138549805,-0.006378174,-4.73938,-29.655457,-23.303223,0,0.0,0.0,0.0,0.0
0.589660644,0.98018533,-9.966762E-4,-0.19808048,-0.19808139,-9.3360746E-4,-0.98018515,7.919977E-4,0.99999905,-0.0011125312,0.9754098,-0.10889645,-0.19161731,-0.19640973,-0.035032894,-0.9798959,0.09999427,0.99343556,-0.05555975,-0.19871521,9.801849,-0.0622406,0.0077667236,9.806488,-0.010910034,-0.010650635,-0.008514404,-0.023422241,-4.73938,-29.655457,-23.303223,0,0.0,0.0,0.0,0.0
0.594055175,0.9801508,-8.5676886E-4,-0.19825152,-0.19825229,-9.3160284E-4,-0.9801506,6.5507094E-4,0.9999992,-0.0010829676,0.97565097,-0.10644677,-0.19176647,-0.19644725,-0.035284966,-0.97987926,0.097538516,0.99369216,-0.05533699,-0.07899475,9.840164,-0.0143585205,0.00642395,9.806488,-0.010620117,-0.01914978,0.0021362305,-0.018096924,-4.73938,-29.655457,-23.303223,0,0.0,0.0,0.0,0.0
0.598449707,0.9811507,-7.3044637E-4,-0.19324271,-0.19324332,-8.663405E-4,-0.9811505,5.4926384E-4,0.9999994,-9.911645E-4,0.975887,-0.10399363,-0.19191143,-0.19649085,-0.03564647,-0.97985744,0.09505797,0.993939,-0.05522072,-0.13166809,9.892838,0.0,0.0053863525,9.806488,-0.009719849,-0.0095825195,-0.020233154,-0.02130127,-4.9179077,-29.116821,-24.85962,0,0.0,0.0,0.0,0.0
0.602844238,0.98115116,-7.3245773E-4,-0.19324045,-0.19324102,-8.0409634E-4,-0.981151,5.6326773E-4,0.9999994,-9.3048095E-4,0.9761125,-0.10130154,-0.19220394,-0.1966502,-0.035808966,-0.97981954,0.09237461,0.9942111,-0.054874547,0.02154541,9.821014,0.13885498,0.0055236816,9.806488,-0.009124756,-0.017028809,-0.0138549805,-0.012771606,-4.9179077,-29.116821,-24.85962,0,0.0,0.0,0.0,0.0
0.607238769,0.9811537,-7.4417266E-4,-0.19322725,-0.19322786,-8.6364604E-4,-0.98115355,5.6326773E-4,0.9999994,-9.911645E-4,0.97634554,-0.09895354,-0.19224364,-0.19658494,-0.036078673,-0.97982275,0.090021044,0.9944378,-0.05467803,0.026321411,9.801849,-0.16279602,0.0055236816,9.806488,-0.009719849,-0.012756348,-0.007461548,-0.013839722,-4.9179077,-29.116821,-24.85962,0,0.0,0.0,0.0,0.0
0.6116333,0.9665211,-8.4038515E-4,-0.25658557,-0.25658625,-8.490831E-4,-0.9665209,5.943875E-4,0.99999934,-0.0010362881,0.9765701,-0.09663609,-0.19228187,-0.1965203,-0.03635452,-0.97982556,0.08769619,0.9946556,-0.054493688,0.05027771,9.816223,-0.12927246,0.0058288574,9.806488,-0.0101623535,0.0,-0.004257202,-0.015975952,-6.352234,-32.344055,-23.822021,0,0.0,0.0,0.0,0.0
0.616027832,0.9665123,-8.143295E-4,-0.2566186,-0.25661927,-8.7207905E-4,-0.96651214,5.632677E-4,0.99999934,-0.0010518479,0.9765273,-0.09442098,-0.19359529,-0.197725,-0.036452737,-0.9795795,0.08543577,0.99486476,-0.05426648,-0.04069519,9.859314,-0.03829956,0.0055236816,9.806488,-0.010314941,-0.010650635,-0.003189087,0.0021362305,-6.352234,-32.344055,-23.822021,0,0.0,0.0,0.0,0.0
0.620422363,0.9664848,-7.3220575E-4,-0.25672275,-0.2567233,-7.9884386E-4,-0.96648455,5.025842E-4,0.9999994,-9.6004474E-4,0.9764762,-0.09210022,-0.19496611,-0.19898659,-0.036609888,-0.97931814,0.08305773,0.99507654,-0.05407539,-0.04069519,9.720444,-0.18673706,0.004928589,9.806488,-0.009414673,0.0010681152,-0.0053253174,-0.008514404,-6.352234,-32.344055,-23.822021,0,0.0,0.0,0.0,0.0
0.624816894,0.9801558,-5.505432E-4,-0.19822767,-0.19822803,-7.284401E-4,-0.98015565,3.9522108E-4,0.9999996,-8.2311797E-4,0.9764232,-0.08995713,-0.19622827,-0.20014313,-0.036700085,-0.9790791,0.08087355,0.99526924,-0.053839114,-0.05984497,9.749176,-0.10055542,0.0038757324,9.806488,-0.008071899,-0.036193848,-0.022369385,-0.012771606,-4.3807983,-30.731201,-21.575928,0,0.0,0.0,0.0,0.0
0.629211425,0.98015296,-5.397765E-4,-0.19824246,-0.19824286,-8.24274E-4,-0.98015267,3.656573E-4,0.9999995,-9.149212E-4,0.9766084,-0.087789275,-0.19628796,-0.20010325,-0.03691877,-0.979079,0.07870593,0.99545467,-0.053622104,-0.09336853,9.768341,-0.26335144,0.0035858154,9.806488,-0.008972168,-0.039398193,-0.017044067,-0.018096924,-4.3807983,-30.731201,-21.575928,0,0.0,0.0,0.0,0.0
0.633605957,0.9801272,-4.46944E-4,-0.19836943,-0.19836971,-7.493495E-4,-0.9801269,2.8941387E-4,0.9999996,-8.2311797E-4,0.9767895,-0.08562153,-0.19634455,-0.20006561,-0.037208125,-0.9790757,0.07652435,0.9956327,-0.05347443,-0.07421875,9.7444,-0.01914978,0.0028381348,9.806488,-0.008071899,-0.003189087,-0.007461548,-0.0053253174,-4.3807983,-30.731201,-21.575928,0,0.0,0.0,0.0,0.0
0.638000488,0.9602428,-4.691239E-4,-0.27916563,-0.27916586,-6.884037E-4,-0.9602425,2.582941E-4,0.9999996,-7.919982E-4,0.9769136,-0.08326686,-0.19673955,-0.2003349,-0.03720311,-0.97902083,0.07420067,0.9958326,-0.053025484,-0.05984497,9.888046,-0.10055542,0.002532959,9.806488,-0.0077667236,-0.02128601,-0.019180298,-0.008514404,-6.890869,-31.448364,-23.649597,0,0.0,0.0,0.0,0.0
0.642395019,0.9602444,-4.7346382E-4,-0.2791603,-0.27916056,-7.033477E-4,-0.9602441,2.582941E-4,0.9999996,-8.0755807E-4,0.97674674,-0.0812146,-0.19841862,-0.20192027,-0.037368,-0.97868884,0.07206932,0.9959959,-0.05289795,-0.01675415,9.888046,-0.0622406,0.002532959,9.806488,-0.0079193115,-0.017028809,-0.018112183,-0.0021209717,-6.890869,-31.448364,-23.649597,0,0.0,0.0,0.0,0.0
0.64678955,0.9602305,-4.3451408E-4,-0.27920806,-0.2792083,-7.308641E-4,-0.96023023,2.1317042E-4,0.9999996,-8.2311797E-4,0.976576,-0.07920566,-0.20006493,-0.20347226,-0.037499137,-0.9783623,0.06998957,0.99615276,-0.05273691,-0.09336853,9.859314,-0.05744934,0.002090454,9.806488,-0.008071899,0.0,-0.014907837,-0.0053253174,-6.890869,-31.448364,-23.649597,0,0.0,0.0,0.0,0.0
0.651184082,0.97505766,-3.5504546E-4,-0.22195114,-0.22195137,-8.0963277E-4,-0.9750573,1.6649078E-4,0.9999996,-8.682416E-4,0.97640467,-0.077200904,-0.20167783,-0.20499408,-0.03767577,-0.97803783,0.067907035,0.99630344,-0.05261253,-0.12689209,9.849731,-0.09576416,0.0016326904,9.806488,-0.008514404,-0.0021209717,-0.008514404,0.0063934326,-5.2764893,-30.909729,-23.130798,0,0.0,0.0,0.0,0.0
0.655578613,0.9750524,-3.366004E-4,-0.22197458,-0.2219748,-8.617019E-4,-0.97505206,1.3692699E-4,0.9999996,-9.149213E-4,0.97647023,-0.075279854,-0.20208612,-0.20531884,-0.037934236,-0.97795963,0.065954685,0.99644065,-0.052498028,-0.08857727,9.844955,-0.12449646,0.0013427734,9.806488,-0.008972168,-0.0021209717,0.0010681152,0.008529663,-5.2764893,-30.909729,-23.130798,0,0.0,0.0,0.0,0.0
0.659973144,0.9750333,-2.7059557E-4,-0.22205843,-0.22205858,-8.448054E-4,-0.97503287,7.6243436E-5,0.9999996,-8.838015E-4,0.97653925,-0.073241815,-0.20250142,-0.20564866,-0.03826117,-0.9778777,0.0638736,0.99658,-0.05242561,-0.15083313,9.821014,0.04788208,7.4768066E-4,9.806488,-0.008666992,-0.003189087,-0.004257202,-0.006378174,-5.2764893,-30.909729,-23.130798,0,0.0,0.0,0.0,0.0
0.664367675,0.96538985,-3.000518E-4,-0.26081112,-0.26081127,-8.1830646E-4,-0.96538943,7.6243436E-5,0.9999996,-8.682416E-4,0.9766052,-0.071203135,-0.20290995,-0.205973,-0.03862072,-0.97779524,0.06178556,0.9967139,-0.052383117,0.011962891,9.806641,0.02394104,7.4768066E-4,9.806488,-0.008514404,-0.007446289,-0.0138549805,0.0,-6.352234,-30.909729,-23.477173,0,0.0,0.0,0.0,0.0
0.668762207,0.9653915,-3.0531542E-4,-0.26080465,-0.26080483,-8.974734E-4,-0.9653911,6.0683553E-5,0.9999996,-9.46041E-4,0.976472,-0.069305226,-0.20420375,-0.2071752,-0.03872863,-0.9775369,0.059839886,0.99684346,-0.052175745,-0.04548645,9.830582,-0.16758728,5.950928E-4,9.806488,-0.009277344,-0.007446289,-0.0063934326,0.005340576,-6.352234,-30.909729,-23.477173,0,0.0,0.0,0.0,0.0
0.673156738,0.9653977,-3.239676E-4,-0.26078176,-0.26078194,-9.069422E-4,-0.96539724,7.6243436E-5,0.9999995,-9.6004485E-4,0.9763645,-0.06737385,-0.20536098,-0.208246,-0.038956806,-0.97730035,0.057844277,0.99696696,-0.052066375,-0.02154541,9.821014,0.10533142,7.4768066E-4,9.806488,-0.009414673,-0.013824463,-0.008514404,0.01171875,-6.352234,-30.909729,-23.477173,0,0.0,0.0,0.0,0.0
0.677551269,0.9653938,-3.1221303E-4,-0.2607962,-0.26079637,-8.633754E-4,-0.96539336,7.6243436E-5,0.9999996,-9.149213E-4,0.9763645,-0.06737385,-0.20536098,-0.208246,-0.038956806,-0.97730035,0.057844277,0.99696696,-0.052066375,-0.02154541,9.821014,0.10533142,7.4768066E-4,9.806488,-0.008972168,-0.013824463,-0.008514404,0.01171875,-6.352234,-30.909729,-23.477173,0,0.0,0.0,0.0,0.0
0.6819458,0.9744821,-2.8632695E-4,-0.2244649,-0.22446506,-8.409914E-4,-0.9744817,9.024733E-5,0.9999996,-8.838015E-4,0.976137,-0.063680366,-0.20760888,-0.21031794,-0.039214004,-0.9768462,0.05406475,0.9971996,-0.051671363,0.03111267,9.830582,0.05265808,8.8500977E-4,9.806488,-0.008666992,-0.006378174,-0.020233154,0.004272461,-5.456543,-30.731201,-23.649597,0,0.0,0.0,0.0,0.0
0.686340332,0.974496,-3.352557E-4,-0.22440451,-0.22440472,-8.4569707E-4,-0.97449565,1.3692699E-4,0.9999996,-8.993614E-4,0.9761467,-0.06202625,-0.20806351,-0.21068215,-0.039114386,-0.9767718,0.052447215,0.9973078,-0.0512492,-0.05505371,9.911987,-0.04788208,0.0013427734,9.806488,-0.00881958,-0.0095825195,-0.0053253174,0.010665894,-5.456543,-30.731201,-23.649597,0,0.0,0.0,0.0,0.0
0.690734863,0.9744979,-3.4223136E-4,-0.2243959,-0.22439612,-8.7602605E-4,-0.97449756,1.3692699E-4,0.9999996,-9.304811E-4,0.97617924,-0.06031482,-0.20841342,-0.2109442,-0.03910717,-0.97671545,0.05075996,0.99741304,-0.05089867,-0.007171631,9.7348175,-0.10055542,0.0013427734,9.806488,-0.009124756,0.0,-0.019180298,0.014923096,-5.456543,-30.731201,-23.649597,0,0.0,0.0,0.0,0.0
0.695129394,0.974487,-3.034211E-4,-0.2244438,-0.22444399,-9.152958E-4,-0.97448653,9.0247326E-5,0.9999995,-9.6004485E-4,0.97620785,-0.058643408,-0.20875633,-0.21120045,-0.03907006,-0.97666156,0.04911864,0.9975141,-0.05052601,-0.08378601,9.76355,-0.06703186,8.8500977E-4,9.806488,-0.009414673,0.0032043457,-0.0021362305,0.0032043457,-5.456543,-30.731201,-23.649597,0,0.0,0.0,0.0,0.0
0.699523925,0.9744765,-2.6647802E-4,-0.22448938,-0.22448954,-9.5573685E-4,-0.97447604,4.5123663E-5,0.9999995,-9.911646E-4,0.97623456,-0.05697596,-0.20909306,-0.21145257,-0.039059777,-0.9766075,0.04747602,0.99761117,-0.050179217,-0.14604187,9.8736725,-0.07661438,4.4250488E-4,9.806488,-0.009719849,-0.018081665,0.0053100586,-0.008514404,-5.456543,-30.731201,-23.649597,0,0.0,0.0,0.0,0.0
0.703918457,0.9781566,-2.2911033E-4,-0.20786902,-0.20786914,-0.0010107411,-0.97815603,1.4003894E-5,0.9999994,-0.0010362881,0.9761909,-0.0553808,-0.20972428,-0.21199557,-0.03887753,-0.97649705,0.045925625,0.99770814,-0.049692377,-0.07421875,9.821014,-0.13885498,1.373291E-4,9.806488,-0.0101623535,-0.010650635,-0.018112183,0.0063934326,-4.73938,-31.448364,-22.26715,0,0.0,0.0,0.0,0.0
0.708312988,0.97815245,-2.1467348E-4,-0.20788851,-0.20788863,-0.0010774387,-0.97815186,-1.4003894E-5,0.9999994,-0.0010985277,0.9762866,-0.053725783,-0.20970935,-0.2118999,-0.0389084,-0.97651654,0.04430466,0.9977974,-0.049370237,-0.06463623,9.7827,-0.1771698,-1.373291E-4,9.806488,-0.010772705,-0.011703491,0.0053100586,0.007461548,-4.73938,-31.448364,-22.26715,0,0.0,0.0,0.0,0.0
0.712707519,0.97815245,-2.1467348E-4,-0.20788851,-0.20788863,-0.0010774387,-0.97815186,-1.4003894E-5,0.9999994,-0.0010985277,0.9763781,-0.05209427,-0.20969516,-0.21180609,-0.038926963,-0.9765362,0.042709142,0.9978832,-0.049041312,-0.011962891,9.844955,-0.009567261,-1.373291E-4,9.806488,-0.010772705,0.005340576,-0.012786865,-0.0010528564,-4.73938,-31.448364,-22.26715,0,0.0,0.0,0.0,0.0
0.71710205,0.9690048,-2.7280368E-4,-0.24704155,-0.2470417,-0.0011267407,-0.96900415,-1.4003893E-5,0.99999934,-0.0011592112,0.9764644,-0.05050681,-0.20968142,-0.21171373,-0.038906503,-0.976557,0.041164808,0.9979656,-0.048683804,0.01675415,9.797058,-0.16279602,-1.373291E-4,9.806488,-0.011367798,-0.004257202,-0.007461548,0.012786865,-5.9936523,-29.475403,-23.477173,0,0.0,0.0,0.0,0.0
0.721496582,0.9690036,-2.6887906E-4,-0.24704617,-0.24704634,-0.0011743085,-0.96900296,-2.9563773E-5,0.99999934,-0.0012043348,0.97636485,-0.049092308,-0.21047994,-0.2124311,-0.038597714,-0.9764135,0.03981035,0.9980482,-0.04811418,-0.05027771,9.753967,-0.11491394,-2.89917E-4,9.806488,-0.011810303,-0.011703491,-0.0010681152,0.008529663,-5.9936523,-29.475403,-23.477173,0,0.0,0.0,0.0,0.0
0.725891113,0.9689935,-2.3492808E-4,-0.24708621,-0.24708633,-0.0011669092,-0.9689928,-6.0683535E-5,0.99999934,-0.001188775,0.97627497,-0.047610942,-0.21123528,-0.21311119,-0.03849127,-0.9762694,0.038350392,0.99812406,-0.047724493,-0.06463623,9.768341,0.028717041,-5.950928E-4,9.806488,-0.011657715,0.004272461,-0.0021362305,0.005340576,-5.9936523,-29.475403,-23.477173,0,0.0,0.0,0.0,0.0
0.730285644,0.9735079,-1.8396112E-4,-0.22865342,-0.22865349,-0.0011779171,-0.9735072,-9.024731E-5,0.99999934,-0.001188775,0.9761845,-0.04615055,-0.21197635,-0.21377847,-0.03837921,-0.976128,0.036913358,0.99819696,-0.047331188,-0.07899475,9.854523,-0.01914978,-8.8500977E-4,9.806488,-0.011657715,0.0021362305,-0.0053253174,0.008529663,-5.2764893,-31.626892,-22.439575,0,0.0,0.0,0.0,0.0
0.734680175,0.97352755,-2.4649373E-4,-0.22856992,-0.22857007,-0.0011792105,-0.9735269,-2.9563773E-5,0.99999934,-0.0012043348,0.9761748,-0.04469788,-0.21233177,-0.21406159,-0.038276557,-0.9760699,0.03550093,0.998267,-0.046932712,0.12689209,9.854523,-0.03829956,-2.89917E-4,9.806488,-0.011810303,-0.010650635,0.0053100586,0.010665894,-5.2764893,-31.626892,-22.439575,0,0.0,0.0,0.0,0.0
0.739074707,0.9735176,-2.149742E-4,-0.22861199,-0.22861208,-0.0012489477,-0.9735168,-7.6243414E-5,0.9999992,-0.0012650182,0.97613525,-0.0434432,-0.21277389,-0.21444342,-0.038235083,-0.97598773,0.0342646,0.998324,-0.04663872,-0.12689209,9.806641,-0.17237854,-7.4768066E-4,9.806488,-0.0124053955,0.009597778,-0.0063934326,0.005340576,-5.2764893,-31.626892,-22.439575,0,0.0,0.0,0.0,0.0
0.743469238,0.972451,-2.2799648E-4,-0.23310734,-0.23310746,-0.0012782036,-0.9724502,-7.6243414E-5,0.9999992,-0.001296138,0.9761211,-0.04208123,-0.21311215,-0.21471241,-0.038062267,-0.9759354,0.03295703,0.99838895,-0.046188746,0.002380371,9.864105,-0.11012268,-7.4768066E-4,9.806488,-0.012710571,-0.010650635,0.0010681152,0.0032043457,-5.635071,-31.26831,-23.477173,0,0.0,0.0,0.0,0.0
0.747863769,0.97244483,-2.0761159E-4,-0.233133,-0.2331331,-0.0011262852,-0.97244424,-6.068354E-5,0.9999994,-0.0011436513,0.9760849,-0.040763147,-0.21353361,-0.21506661,-0.037858672,-0.97586524,0.03169524,0.99845135,-0.04572007,0.06942749,9.92157,0.06703186,-5.950928E-4,9.806488,-0.01121521,-0.013824463,0.0010681152,0.012786865,-5.635071,-31.26831,-23.477173,0,0.0,0.0,0.0,0.0
0.7522583,0.9724373,-1.825273E-4,-0.23316462,-0.23316468,-0.0011483027,-0.97243667,-9.024731E-5,0.99999934,-0.0011592112,0.97604704,-0.039486215,-0.21394673,-0.21541423,-0.037625544,-0.9757977,0.030480694,0.9985115,-0.045230195,-0.08378601,9.739609,-0.0622406,-8.8500977E-4,9.806488,-0.011367798,-0.029800415,-0.003189087,-0.003189087,-5.635071,-31.26831,-23.477173,0,0.0,0.0,0.0,0.0
0.756652832,0.9805338,-1.11662455E-4,-0.19635051,-0.19635051,-0.001175733,-0.9805331,-1.2136707E-4,0.99999934,-0.001174771,0.9760092,-0.038282994,-0.21433717,-0.21574098,-0.03730984,-0.97573745,0.02935727,0.99857014,-0.04467396,-0.05984497,9.835373,-0.0335083,-0.0011901855,9.806488,-0.011520386,-0.004257202,0.0010681152,0.004272461,-4.73938,-31.448364,-23.649597,0,0.0,0.0,0.0,0.0
0.761047363,0.9805345,-1.1440786E-4,-0.196347,-0.196347,-0.0011894649,-0.98053384,-1.2136707E-4,0.99999934,-0.001188775,0.9761324,-0.037016287,-0.2139982,-0.21533987,-0.037105143,-0.975834,0.028181318,0.9986256,-0.04419062,-0.002380371,9.797058,-0.0622406,-0.0011901855,9.806488,-0.011657715,-0.0095825195,0.009567261,0.007461548,-4.73938,-31.448364,-23.649597,0,0.0,0.0,0.0,0.0
0.765441894,0.9805298,-9.6144315E-5,-0.19637036,-0.19637033,-0.0012566007,-0.980529,-1.5248683E-4,0.9999992,-0.0012510143,0.9762511,-0.03578822,-0.21366543,-0.21494684,-0.036875717,-0.97592926,0.027047703,0.9986788,-0.043692525,-0.07421875,9.8736725,-0.19152832,-0.0014953613,9.806488,-0.012268066,-0.008514404,0.0010681152,-0.0021209717,-4.73938,-31.448364,-23.649597,0,0.0,0.0,0.0,0.0
0.769836425,0.963978,-2.1275495E-4,-0.265982,-0.26598206,-0.0012858686,-0.9639772,-1.3692694E-4,0.9999992,-0.001296138,0.97641456,-0.03433218,-0.21315727,-0.2143665,-0.03653018,-0.97607,0.025723936,0.99874264,-0.04302827,0.02154541,9.830582,-0.10055542,-0.0013427734,9.806488,-0.012710571,-0.0095825195,0.011703491,-0.013839722,-6.5322876,-31.089783,-23.649597,0,0.0,0.0,0.0,0.0
0.774230957,0.9639898,-2.4797325E-4,-0.26593897,-0.26593903,-0.0013552377,-0.96398884,-1.2136703E-4,0.99999905,-0.0013723811,0.97621596,-0.033237696,-0.21423757,-0.21539155,-0.03621315,-0.9758561,0.024676988,0.9987912,-0.04251097,0.05027771,9.787491,-0.2106781,-0.0011901855,9.806488,-0.013458252,-0.003189087,0.010635376,0.0,-6.5322876,-31.089783,-23.649597,0,0.0,0.0,0.0,0.0
0.778625488,0.9640072,-2.9965804E-4,-0.26587582,-0.26587597,-0.0013732562,-0.9640063,-7.624339E-5,0.99999905,-0.0014035008,0.9760184,-0.032190997,-0.21529448,-0.21639559,-0.03587338,-0.97564644,0.023683693,0.99883777,-0.041979067,0.10293579,9.801849,-0.10055542,-7.4768066E-4,9.806488,-0.013763428,0.0010681152,0.0021362305,-0.0095825195,-6.5322876,-31.089783,-23.649597,0,0.0,0.0,0.0,0.0
0.783020019,0.97752565,-1.17922E-4,-0.21081637,-0.21081634,-0.0014103373,-0.9775247,-1.8205056E-4,0.99999905,-0.0014035008,0.9758221,-0.03120071,-0.21632808,-0.2173788,-0.035500813,-0.97544146,0.022754647,0.9988825,-0.041424852,-0.06463623,9.8688965,-0.296875,-0.0017852783,9.806488,-0.013763428,0.005340576,-0.0021362305,0.0032043457,-4.9179077,-31.626892,-22.78595,0,0.0,0.0,0.0,0.0
0.78741455,0.9775199,-9.791938E-5,-0.2108429,-0.2108428,-0.0015388146,-0.97751874,-2.2873013E-4,0.9999988,-0.0015248676,0.9757855,-0.029793827,-0.21669117,-0.21766996,-0.0348631,-0.9753996,0.02150636,0.9989479,-0.040504124,-0.10293579,9.758759,-0.24420166,-0.002243042,9.806488,-0.014953613,-0.024475098,-0.027694702,-0.017044067,-4.9179077,-31.626892,-22.78595,0,0.0,0.0,0.0,0.0
0.791809082,0.97749317,-4.2200477E-6,-0.21096717,-0.21096694,-0.00146515,-0.9774921,-3.0497357E-4,0.9999989,-0.0014330645,0.9758384,-0.028775483,-0.2165901,-0.21752164,-0.034562536,-0.97544336,0.02058295,0.9989882,-0.03998674,-0.09815979,9.7827,-0.13885498,-0.0029907227,9.806488,-0.014053345,0.0063934326,-0.040481567,-0.0053253174,-4.9179077,-31.626892,-22.78595,0,0.0,0.0,0.0,0.0
0.796203613,0.9787108,8.258598E-5,-0.20524459,-0.20524429,-0.001387756,-0.9787099,-3.656571E-4,0.99999905,-0.0013412613,0.9758896,-0.02774741,-0.2164936,-0.21737865,-0.034280825,-0.9754852,0.019645605,0.99902695,-0.039485995,-0.11730957,9.816223,-0.03829956,-0.0035858154,9.806488,-0.013153076,-0.03086853,-0.05859375,-0.007446289,-4.73938,-30.37262,-22.612,0,0.0,0.0,0.0,0.0
0.800598144,0.97869045,1.5749567E-4,-0.20534094,-0.20534056,-0.0013256061,-0.9786896,-4.2634064E-4,0.9999991,-0.001265018,0.97596484,-0.026710114,-0.21628484,-0.21712416,-0.034016516,-0.97555107,0.018699823,0.99906427,-0.038998336,-0.08857727,9.8736725,-0.07661438,-0.004180908,9.806488,-0.0124053955,-0.020217896,-0.06071472,-0.006378174,-4.73938,-30.37262,-22.612,0,0.0,0.0,0.0,0.0
0.804992675,0.97866726,2.4362886E-4,-0.20545177,-0.20545138,-0.0011418199,-0.9786667,-4.7302037E-4,0.99999934,-0.0010674078,0.9758616,-0.02550191,-0.216896,-0.21767724,-0.033406116,-0.97544897,0.01763016,0.9991165,-0.038150933,-0.13645935,9.835373,0.03829956,-0.004638672,9.806488,-0.010467529,-0.023406982,-0.050064087,-0.0053253174,-4.73938,-30.37262,-22.612,0,0.0,0.0,0.0,0.0
0.809387207,0.98657465,2.7699964E-4,-0.16331103,-0.16331063,-0.0011277858,-0.9865741,-4.574605E-4,0.99999934,-0.0010674078,0.97593594,-0.024437066,-0.2166836,-0.2174207,-0.03318232,-0.9755138,0.016648632,0.9991505,-0.037696943,-0.02154541,9.974243,-0.0143585205,-0.004486084,9.806488,-0.010467529,-0.039398193,-0.041549683,0.0,-4.020691,-30.37262,-24.34082,0,0.0,0.0,0.0,0.0
0.813781738,0.9865571,3.6371918E-4,-0.16341637,-0.16341582,-0.0012510257,-0.98655653,-5.632677E-4,0.9999992,-0.0011747709,0.97619325,-0.023388756,-0.21563789,-0.21633247,-0.03295215,-0.9757635,0.015716163,0.99918324,-0.037227415,-0.12689209,9.7444,-0.55545044,-0.0055236816,9.806488,-0.011520386,-0.0021209717,-0.027694702,0.005340576,-4.020691,-30.37262,-24.34082,0,0.0,0.0,0.0,0.0
0.818176269,0.9865409,4.4390146E-4,-0.16351373,-0.1635131,-0.0012328275,-0.98654044,-6.3951104E-4,0.9999992,-0.0011436512,0.97644305,-0.022349998,-0.21461472,-0.21526784,-0.03272117,-0.9760067,0.014791302,0.9992146,-0.036761593,-0.06942749,9.830582,-0.19631958,-0.0062713623,9.806488,-0.01121521,-0.02128601,-0.10119629,-0.015975952,-4.020691,-30.37262,-24.34082,0,0.0,0.0,0.0,0.0
0.8225708,0.9730438,3.448975E-4,-0.23061986,-0.2306193,-0.0012570771,-0.97304326,-6.2550715E-4,0.9999992,-0.0011436512,0.9762046,-0.021042477,-0.21582845,-0.21642545,-0.032155823,-0.97576946,0.013592465,0.9992613,-0.03594479,-0.03590393,9.797058,-0.08139038,-0.006134033,9.806488,-0.01121521,-0.023406982,-0.13742065,-0.011703491,-5.635071,-30.909729,-23.822021,0,0.0,0.0,0.0,0.0
0.826965332,0.9730131,4.5013538E-4,-0.23074916,-0.2307485,-0.0012037614,-0.9730126,-7.1575446E-4,0.9999992,-0.0010674078,0.97615576,-0.020098442,-0.21613881,-0.21669823,-0.031879354,-0.97571796,0.012720045,0.99928963,-0.035474513,-0.05984497,9.720444,0.0143585205,-0.007019043,9.806488,-0.010467529,-0.003189087,-0.14381409,0.007461548,-5.635071,-30.909729,-23.822021,0,0.0,0.0,0.0,0.0
0.831359863,0.9730015,4.899938E-4,-0.23079813,-0.23079747,-0.0011029108,-0.97300106,-7.3131436E-4,0.9999992,-9.6004456E-4,0.9761071,-0.019131063,-0.21644601,-0.216968,-0.031620417,-0.9756664,0.011821423,0.9993169,-0.035015743,-0.13645935,9.811432,0.11012268,-0.007171631,9.806488,-0.009414673,-0.015960693,-0.12889099,-0.017044067,-5.635071,-30.909729,-23.822021,0,0.0,0.0,0.0,0.0
0.835754394,0.98263246,6.3327403E-4,-0.18556127,-0.18556052,-0.001082349,-0.9826322,-8.231176E-4,0.9999992,-9.460407E-4,0.97605866,-0.018160893,-0.21674785,-0.21723306,-0.031364128,-0.97561574,0.010919946,0.99934304,-0.03455838,-0.06942749,9.787491,-0.06703186,-0.008071899,9.806488,-0.009277344,-0.014892578,-0.08947754,0.007461548,-4.3807983,-30.731201,-23.303223,0,0.0,0.0,0.0,0.0
0.840148925,0.98262024,6.8371155E-4,-0.18562551,-0.18562482,-9.826699E-4,-0.9826202,-8.5423747E-4,0.99999934,-8.386776E-4,0.9758812,-0.016900187,-0.21764714,-0.21808569,-0.031070769,-0.97543484,0.009722568,0.9993743,-0.03400707,-0.09336853,9.821014,0.03829956,-0.008377075,9.806488,-0.008224487,-0.006378174,-0.09373474,-0.014907837,-4.3807983,-30.731201,-23.303223,0,0.0,0.0,0.0,0.0
0.844543457,0.98260987,7.2686316E-4,-0.18568045,-0.18567978,-9.1327995E-4,-0.98260987,-8.8380126E-4,0.99999934,-7.6243415E-4,0.9760369,-0.015895573,-0.2170238,-0.21742646,-0.030829493,-0.97558975,0.008816825,0.99939823,-0.03354684,-0.09815979,9.82579,0.08139038,-0.008666992,9.806488,-0.0074768066,-0.020217896,-0.052200317,-0.003189087,-4.3807983,-30.731201,-23.303223,0,0.0,0.0,0.0,0.0
0.848937988,0.982968,7.43927E-4,-0.18377547,-0.18377478,-9.1472885E-4,-0.982968,-8.993611E-4,0.99999934,-7.6243415E-4,0.9761882,-0.014890183,-0.21641387,-0.21678124,-0.030584052,-0.975741,0.00791015,0.9994213,-0.033083703,-0.05027771,9.7444,-0.01914978,-0.00881958,9.806488,-0.0074768066,-0.0095825195,-0.03302002,0.0021362305,-4.559326,-31.26831,-24.513245,0,0.0,0.0,0.0,0.0
0.853332519,0.98296416,7.6048437E-4,-0.18379588,-0.1837951,-9.954085E-4,-0.9829641,-9.3048083E-4,0.9999992,-8.386775E-4,0.9763224,-0.013809387,-0.21587954,-0.2162102,-0.030390456,-0.97587377,0.006915541,0.9994427,-0.032656614,-0.09815979,9.854523,-0.18673706,-0.009124756,9.806488,-0.008224487,0.0032043457,-0.0063934326,-0.007446289,-4.559326,-31.26831,-24.513245,0,0.0,0.0,0.0,0.0
0.85772705,0.982958,7.866513E-4,-0.18382812,-0.1838273,-0.0010161627,-0.982958,-9.6004456E-4,0.9999992,-8.542374E-4,0.97647303,-0.012897419,-0.21525346,-0.21555291,-0.030090977,-0.9760285,0.006111061,0.999464,-0.032163106,-0.08857727,9.854523,-0.05744934,-0.009414673,9.806488,-0.008377075,0.0,0.0021362305,-0.003189087,-4.559326,-31.26831,-24.513245,0,0.0,0.0,0.0,0.0
0.862121582,0.9824901,7.840794E-4,-0.18631296,-0.18631214,-0.0010181486,-0.9824901,-9.6004456E-4,0.9999992,-8.542374E-4,0.97661924,-0.01201843,-0.21464008,-0.21490991,-0.029773949,-0.97617996,0.005341467,0.9994844,-0.03166069,-0.011962891,9.854523,-0.009567261,-0.009414673,9.806488,-0.008377075,-0.0095825195,0.0,0.008529663,-4.559326,-29.833984,-24.168396,0,0.0,0.0,0.0,0.0
0.866516113,0.9825002,7.398001E-4,-0.18626021,-0.18625943,-0.0010097018,-0.9825001,-9.1492094E-4,0.9999992,-8.542374E-4,0.9767505,-0.011177399,-0.2140876,-0.21432963,-0.02944,-0.9763176,0.0046099527,0.999504,-0.031151183,0.10293579,9.773117,-0.009567261,-0.008972168,9.806488,-0.008377075,-0.0095825195,-0.007461548,0.0010681152,-4.559326,-29.833984,-24.168396,0,0.0,0.0,0.0,0.0
0.870910644,0.9824945,7.6483696E-4,-0.18629003,-0.1862892,-0.0010445677,-0.9824944,-9.460407E-4,0.9999992,-8.838012E-4,0.9768626,-0.010502836,-0.21360996,-0.21383071,-0.02931664,-0.9764308,0.0039929654,0.999515,-0.030884156,-0.07421875,9.840164,-0.07182312,-0.009277344,9.806488,-0.008666992,0.014923096,-0.004257202,0.004272461,-4.559326,-29.833984,-24.168396,0,0.0,0.0,0.0,0.0
0.875305175,0.9785839,6.981728E-4,-0.20584717,-0.2058464,-0.0010500045,-0.97858375,-8.9936104E-4,0.9999992,-8.838012E-4,0.976987,-0.009737975,-0.21307626,-0.21327251,-0.028949354,-0.9765637,0.0033413323,0.9995334,-0.030359985,-0.07899475,9.835373,-0.19631958,-0.00881958,9.806488,-0.008666992,-0.007446289,-0.015975952,0.005340576,-5.0979614,-31.089783,-24.34082,0,0.0,0.0,0.0,0.0
0.879699707,0.9785785,7.1898854E-4,-0.20587264,-0.20587179,-0.0011021089,-0.97857827,-9.3048066E-4,0.9999991,-9.3048066E-4,0.9770231,-0.00903241,-0.21294194,-0.21311581,-0.028564306,-0.97660935,0.0027385969,0.9995512,-0.029832935,-0.06463623,9.830582,-0.12927246,-0.009124756,9.806488,-0.009124756,-0.013824463,-0.017044067,0.014923096,-5.0979614,-31.089783,-24.34082,0,0.0,0.0,0.0,0.0
0.884094238,0.9785866,6.876447E-4,-0.20583431,-0.20583335,-0.0012513021,-0.9785862,-9.3048054E-4,0.9999989,-0.0010829673,0.9770578,-0.00836272,-0.21281016,-0.2129633,-0.028170135,-0.97665405,0.0021725935,0.99956816,-0.0293048,-0.03111267,9.801849,-0.004776001,-0.009124756,9.806488,-0.010620117,0.0021362305,-0.017044067,0.0032043457,-5.0979614,-31.089783,-24.34082,0,0.0,0.0,0.0,0.0
0.888488769,0.9766254,6.91147E-4,-0.21494725,-0.21494628,-0.0012610022,-0.97662497,-9.4604044E-4,0.9999989,-0.0010829673,0.9770314,-0.007907155,-0.2129486,-0.2130886,-0.028285673,-0.9766233,0.0016989174,0.9995686,-0.029320916,-0.08857727,9.844955,-0.028717041,-0.009277344,9.806488,-0.010620117,0.03303528,-0.017044067,0.0021362305,-4.9179077,-29.475403,-22.439575,0,0.0,0.0,0.0,0.0
0.8928833,0.9766269,6.859925E-4,-0.21494082,-0.21493989,-0.0012120648,-0.9766266,-9.304806E-4,0.99999905,-0.0010362878,0.97702545,-0.0073266975,-0.21299657,-0.21311909,-0.027865803,-0.97662866,0.0012201422,0.9995848,-0.02878706,-0.002380371,9.792282,-0.03829956,-0.009124756,9.806488,-0.0101623535,-0.006378174,-0.019180298,0.0010681152,-4.9179077,-29.475403,-22.439575,0,0.0,0.0,0.0,0.0
0.897277832,0.9766209,7.0751033E-4,-0.21496777,-0.21496685,-0.001186556,-0.9766206,-9.460405E-4,0.99999905,-0.001006724,0.9770193,-0.006764482,-0.21304329,-0.2131493,-0.027443988,-0.97663414,7.596662E-4,0.99960047,-0.028255153,-0.01675415,9.840164,-0.11491394,-0.009277344,9.806488,-0.0098724365,-0.012756348,0.022354126,0.004272461,-4.9179077,-29.475403,-22.439575,0,0.0,0.0,0.0,0.0
0.901672363,0.9766139,7.3299865E-4,-0.21499972,-0.21499877,-0.0012081313,-0.97661364,-9.756042E-4,0.99999905,-0.0010222839,0.977013,-0.00621529,-0.21308927,-0.21317966,-0.027021643,-0.9766393,3.1207484E-4,0.99961555,-0.027725467,-0.06942749,9.883255,-0.05744934,-0.009567261,9.806488,-0.010025024,-0.014892578,0.036209106,-0.004257202,-4.9179077,-29.475403,-22.439575,0,0.0,0.0,0.0,0.0
0.906066894,0.97662723,6.848029E-4,-0.21493933,-0.21493834,-0.0012898694,-0.9766268,-9.4604044E-4,0.9999989,-0.001112531,0.9769692,-0.00560558,-0.21330677,-0.21338035,-0.026453681,-0.97661096,-1.6827862E-4,0.9996343,-0.027040552,0.007171631,9.94072,-0.01914978,-0.009277344,9.806488,-0.010910034,-0.0095825195,-0.010650635,-0.003189087,-4.9179077,-29.475403,-22.439575,0,0.0,0.0,0.0,0.0
0.910461425,0.97661567,7.266525E-4,-0.21499178,-0.2149908,-0.0012369977,-0.9766153,-9.7560417E-4,0.9999989,-0.0010518476,0.9769633,-0.0051372848,-0.21334589,-0.21340705,-0.026027339,-0.9766166,-5.3566764E-4,0.99964803,-0.026524086,-0.07899475,9.768341,0.1484375,-0.009567261,9.806488,-0.010314941,0.019180298,-0.0234375,0.0021362305,-4.9179077,-29.475403,-22.439575,0,0.0,0.0,0.0,0.0
0.914855957,0.98199624,7.264991E-4,-0.18889907,-0.18889819,-0.0011490865,-0.981996,-9.3048066E-4,0.9999991,-9.911642E-4,0.976957,-0.0046689115,-0.21338496,-0.21343412,-0.025605975,-0.97662175,-9.041696E-4,0.9996612,-0.026012443,-0.08378601,9.8688965,-0.06703186,-0.009124756,9.806488,-0.009719849,0.0,-0.007461548,0.0063934326,-4.559326,-31.26831,-23.822021,0,0.0,0.0,0.0,0.0
0.919250488,0.9819975,7.2150625E-4,-0.18889277,-0.18889177,-0.0012574511,-0.9819971,-9.4604044E-4,0.9999989,-0.0010985272,0.9770644,-0.0042060143,-0.21290243,-0.21294028,-0.025185764,-0.9767406,-0.0012539257,0.99967396,-0.025503745,-0.09336853,9.76355,-0.11491394,-0.009277344,9.806488,-0.010772705,-0.018081665,-0.007461548,0.015991211,-4.559326,-31.26831,-23.822021,0,0.0,0.0,0.0,0.0
0.923645019,0.9819852,7.71616E-4,-0.18895619,-0.18895516,-0.0012354648,-0.9819849,-9.91164E-4,0.9999989,-0.0010674074,0.9770834,-0.0038865819,-0.2128215,-0.21285154,-0.024995614,-0.97676474,-0.0015233279,0.99968,-0.025250062,-0.13166809,9.835373,0.0622406,-0.009719849,9.806488,-0.010467529,0.014923096,-0.024505615,0.0032043457,-4.559326,-31.26831,-23.822021,0,0.0,0.0,0.0,0.0
0.92803955,0.9748964,7.25152E-4,-0.22265774,-0.22265671,-0.0012764713,-0.974896,-9.91164E-4,0.9999989,-0.0010829673,0.9771873,-0.0034636275,-0.21235082,-0.21237113,-0.024577498,-0.9768799,-0.0018355035,0.9996919,-0.024752395,0.01675415,9.8688965,-0.03829956,-0.009719849,9.806488,-0.010620117,0.005340576,-0.022369385,0.0032043457,-5.456543,-32.165527,-23.995972,1,0.0,0.0,0.0,0.0
0.932434082,0.9749009,7.1000797E-4,-0.22263846,-0.22263744,-0.0012729928,-0.97490054,-9.7560417E-4,0.9999989,-0.0010829673,0.97714275,-0.0030815976,-0.21256179,-0.21257351,-0.024158524,-0.9768464,-0.0021249317,0.9997034,-0.024261393,0.03111267,9.892838,-0.004776001,-0.009567261,9.806488,-0.010620117,0.005340576,-0.019180298,0.0010681152,-5.456543,-32.165527,-23.995972,1,0.0,0.0,0.0,0.0
0.936828613,0.9749014,7.082057E-4,-0.22263616,-0.22263508,-0.0013507849,-0.97490096,-9.911639E-4,0.9999988,-0.0011592106,0.977099,-0.0027220116,-0.21276785,-0.21277182,-0.023740266,-0.97681344,-0.0023922676,0.99971443,-0.023775756,-0.05027771,9.773117,-0.2106781,-0.009719849,9.806488,-0.011367798,0.0010681152,-0.0138549805,0.0010681152,-5.456543,-32.165527,-23.995972,1,0.0,0.0,0.0,0.0
0.941223144,0.9644704,6.579185E-4,-0.26419014,-0.2641891,-0.0013498662,-0.96447,-9.91164E-4,0.9999989,-0.001128091,0.9770261,-0.002382444,-0.21310633,-0.21310338,-0.02327664,-0.9767524,-0.0026333416,0.99972624,-0.02324959,-0.02154541,9.8736725,0.07661438,-0.009719849,9.806488,-0.011062622,-0.003189087,-0.008514404,0.0,-6.173706,-29.655457,-22.612,1,0.0,0.0,0.0,0.0
0.945617675,0.9644657,6.7187566E-4,-0.26420715,-0.26420602,-0.0014166266,-0.9644652,-0.0010222836,0.99999875,-0.0011887742,0.9768012,-0.0020838478,-0.21413791,-0.21412894,-0.022864433,-0.97653776,-0.002861186,0.9997364,-0.02278022,-0.07899475,9.821014,-0.20111084,-0.010025024,9.806488,-0.011657715,-0.017028809,0.010635376,0.0032043457,-6.173706,-29.655457,-22.612,1,0.0,0.0,0.0,0.0
0.950012207,0.96447116,6.554621E-4,-0.26418713,-0.26418597,-0.0014766408,-0.9644706,-0.0010222836,0.99999875,-0.0012510137,0.9765797,-0.0018053268,-0.21514839,-0.21513408,-0.022458307,-0.9763262,-0.0030692809,0.99974614,-0.022320714,-0.02154541,9.902405,-0.15322876,-0.010025024,9.806488,-0.012268066,-0.008514404,-0.0010681152,0.0032043457,-6.173706,-29.655457,-22.612,1,0.0,0.0,0.0,0.0
0.954406738,0.977286,7.339446E-4,-0.21192394,-0.21192275,-0.0014392445,-0.9772855,-0.0010222836,0.99999875,-0.0012510137,0.9763273,-0.0016939532,-0.21629165,-0.2162758,-0.022062872,-0.976083,-0.003118576,0.99975514,-0.021906946,0.007171631,9.777908,-0.10055542,-0.010025024,9.806488,-0.012268066,0.0021362305,-0.0095825195,0.008529663,-4.9179077,-30.909729,-22.78595,1,0.0,0.0,0.0,0.0
0.958801269,0.9772928,7.0922374E-4,-0.21189186,-0.21189065,-0.0014800221,-0.9772922,-0.0010067236,0.9999986,-0.0012961372,0.9763273,-0.0016939532,-0.21629165,-0.2162758,-0.022062872,-0.976083,-0.003118576,0.99975514,-0.021906946,0.007171631,9.777908,-0.10055542,-0.0098724365,9.806488,-0.012710571,0.0021362305,-0.0095825195,0.008529663,-4.9179077,-30.909729,-22.78595,1,0.0,0.0,0.0,0.0
0.9631958,0.9772928,7.0922374E-4,-0.21189186,-0.21189065,-0.0014800221,-0.9772922,-0.0010067236,0.9999986,-0.0012961372,0.9763654,-0.001190922,-0.2161231,-0.21609905,-0.021283127,-0.9761395,-0.0034372695,0.9997728,-0.021037465,0.02154541,9.92157,-0.296875,-0.0098724365,9.806488,-0.012710571,0.007461548,-0.003189087,0.012786865,-4.9179077,-30.909729,-22.78595,1,0.0,0.0,0.0,0.0
0.967590332,0.9708955,6.155324E-4,-0.23950227,-0.2395012,-0.0014547787,-0.97089493,-9.460402E-4,0.99999875,-0.0012650175,0.97638386,-9.5882243E-4,-0.21604101,-0.21601348,-0.020900898,-0.97616667,-0.0035794806,0.9997811,-0.020614417,-0.05027771,9.7348175,-0.16279602,-0.009277344,9.806488,-0.0124053955,-0.022354126,-0.007461548,-0.0021209717,-5.8151245,-29.655457,-23.649597,1,0.0,0.0,0.0,0.0
0.971984863,0.9708839,6.5554405E-4,-0.23954959,-0.23954846,-0.001480725,-0.97088337,-9.911639E-4,0.99999875,-0.0012805775,0.9762639,-9.795531E-4,-0.2165821,-0.2165575,-0.020155737,-0.97606176,-0.003409268,0.9997964,-0.01988945,-0.12689209,9.821014,-0.028717041,-0.009719849,9.806488,-0.012557983,-0.01914978,-0.004257202,0.018096924,-5.8151245,-29.655457,-23.649597,1,0.0,0.0,0.0,0.0
0.976379394,0.97088176,6.6318206E-4,-0.23955862,-0.23955743,-0.0015146721,-0.9708811,-0.0010067236,0.9999986,-0.0013116971,0.97616136,-7.773046E-4,-0.21704489,-0.21701747,-0.019791577,-0.97596705,-0.003537037,0.99980384,-0.01948846,-0.05984497,9.787491,-0.07661438,-0.0098724365,9.806488,-0.012863159,-0.004257202,-0.007461548,0.005340576,-5.8151245,-29.655457,-23.649597,1,0.0,0.0,0.0,0.0
0.980773925,0.97975034,7.206138E-4,-0.20022179,-0.20022064,-0.0014241338,-0.9797498,-9.911639E-4,0.99999875,-0.0012510137,0.9760605,-5.8739126E-4,-0.21749835,-0.21746844,-0.019434202,-0.9758739,-0.0036536872,0.999811,-0.019096697,-0.11251831,9.739609,-0.07182312,-0.009719849,9.806488,-0.012268066,0.0032043457,-0.0138549805,-0.0021209717,-4.73938,-31.089783,-23.303223,1,0.0,0.0,0.0,0.0
0.985168457,0.9797567,6.963807E-4,-0.20019074,-0.20018958,-0.0014652062,-0.9797561,-9.7560394E-4,0.99999875,-0.0012961373,0.976137,-3.8629028E-4,-0.21715546,-0.21712312,-0.019080652,-0.9759577,-0.0037664643,0.99981785,-0.018709201,-0.002380371,9.835373,-0.13885498,-0.009567261,9.806488,-0.012710571,-0.017028809,-0.018112183,0.012786865,-4.73938,-31.089783,-23.303223,1,0.0,0.0,0.0,0.0
0.989562988,0.9797495,7.237024E-4,-0.20022573,-0.2002245,-0.0014867065,-0.97974885,-0.0010067236,0.9999986,-0.0013116971,0.97625357,-1.0601551E-4,-0.2166307,-0.21659516,-0.018597377,-0.97608423,-0.003925283,0.999827,-0.018178718,-0.07899475,9.840164,-0.04788208,-0.0098724365,9.806488,-0.012863159,-0.0095825195,0.011703491,-0.004257202,-4.73938,-31.089783,-23.303223,1,0.0,0.0,0.0,0.0
0.993957519,0.97793615,7.2571164E-4,-0.20890293,-0.20890169,-0.001496314,-0.97793555,-0.0010222835,0.9999986,-0.0013116971,0.97632587,6.343311E-5,-0.21630466,-0.21626747,-0.018259788,-0.9761633,-0.0040115984,0.9998333,-0.017813785,-0.05505371,9.753967,-0.0143585205,-0.010025024,9.806488,-0.012863159,-0.006378174,0.0,0.008529663,-4.9179077,-31.26831,-23.130798,1,0.0,0.0,0.0,0.0
0.99835205,0.977926,7.625491E-4,-0.20895056,-0.20894915,-0.0016140221,-0.97792536,-0.0010829668,0.99999845,-0.0014190599,0.9763583,2.2293426E-4,-0.21615824,-0.2161196,-0.017925853,-0.9762023,-0.0040924493,0.9998393,-0.017453875,-0.16040039,9.902405,-0.26335144,-0.010620117,9.806488,-0.013916016,-0.007446289,-0.010650635,0.0010681152,-4.9179077,-31.26831,-23.130798,1,0.0,0.0,0.0,0.0
1.002746582,0.977925,7.6579343E-4,-0.20895474,-0.20895334,-0.0015988087,-0.97792435,-0.0010829668,0.99999845,-0.0014035,0.9763898,3.69897E-4,-0.21601558,-0.21597579,-0.017599512,-0.9762401,-0.004162877,0.999845,-0.017104095,0.007171631,9.730026,-0.004776001,-0.010620117,9.806488,-0.013763428,0.005340576,0.011703491,-0.004257202,-4.9179077,-31.26831,-23.130798,1,0.0,0.0,0.0,0.0
1.007141113,0.97796774,7.5994903E-4,-0.20875457,-0.20875314,-0.0016275643,-0.977967,-0.0010829667,0.9999984,-0.0014330636,0.97645473,4.005114E-4,-0.21572196,-0.21568362,-0.017129699,-0.97631305,-0.0040862765,0.9998532,-0.01663999,-0.011962891,9.811432,-0.07182312,-0.010620117,9.806488,-0.014053345,-0.007446289,0.009567261,0.008529663,-5.0979614,-31.089783,-23.995972,1,0.0,0.0,0.0,0.0
1.011535644,0.9779727,7.4152224E-4,-0.20873174,-0.20873034,-0.001639516,-0.977972,-0.0010674068,0.99999845,-0.0014486236,0.97648525,5.324433E-4,-0.21558376,-0.21554455,-0.016819274,-0.9763492,-0.0041458127,0.9998584,-0.016309006,-0.002380371,9.696503,-0.05265808,-0.010467529,9.806488,-0.014205933,-0.012756348,0.010635376,0.005340576,-5.0979614,-31.089783,-23.995972,1,0.0,0.0,0.0,0.0
1.015930175,0.9779569,8.0074504E-4,-0.20880511,-0.20880361,-0.0016522424,-0.97795624,-0.0011280903,0.9999984,-0.0014486235,0.9765152,6.5281504E-4,-0.21544772,-0.21540785,-0.016514912,-0.9763845,-0.004195499,0.9998634,-0.01598644,-0.13645935,9.7444,-0.009567261,-0.011062622,9.806488,-0.014205933,-0.01914978,0.0,0.007461548,-5.0979614,-31.089783,-23.995972,1,0.0,0.0,0.0,0.0
1.020324707,0.99256206,9.39563E-4,-0.12173611,-0.1217345,-0.0016060661,-0.99256134,-0.0011280901,0.9999982,-0.001479743,0.9765441,7.747883E-4,-0.21531612,-0.21527559,-0.016215738,-0.9764187,-0.004248027,0.9998682,-0.015668591,-0.03590393,9.835373,-0.10533142,-0.011062622,9.806488,-0.014511108,-0.007446289,-0.014907837,0.010665894,-2.7664185,-29.833984,-22.78595,1,0.0,0.0,0.0,0.0
1.024719238,0.99255717,9.703868E-4,-0.12177587,-0.12177422,-0.0016098934,-0.9925565,-0.0011592099,0.9999982,-0.001479743,0.9769285,0.0010001372,-0.21356432,-0.2135225,-0.015760325,-0.97681105,-0.0043427884,0.9998753,-0.015183158,-0.07421875,9.768341,0.0,-0.011367798,9.806488,-0.014511108,-0.010650635,-0.0063934326,-0.003189087,-2.7664185,-29.833984,-22.78595,1,0.0,0.0,0.0,0.0
1.029113769,0.99255955,9.5497485E-4,-0.12175599,-0.121754356,-0.0016079793,-0.99255884,-0.00114365,0.9999982,-0.001479743,0.97732425,0.0011307895,-0.2117452,-0.21170294,-0.015472203,-0.9772116,-0.004381186,0.99987966,-0.014881968,0.02154541,9.835373,0.0,-0.01121521,9.806488,-0.014511108,0.0021362305,-0.019180298,0.0010681152,-2.7664185,-29.833984,-22.78595,1,0.0,0.0,0.0,0.0
1.0335083,0.97487813,8.05614E-4,-0.22273737,-0.22273573,-0.0017482241,-0.9748773,-0.0011747696,0.99999815,-0.0015248666,0.97770894,0.0012516363,-0.20996097,-0.20991832,-0.015189627,-0.97760093,-0.0044128294,0.99988383,-0.014588294,-0.07899475,9.82579,-0.16758728,-0.011520386,9.806488,-0.014953613,0.0,0.006378174,0.0138549805,-5.456543,-31.448364,-23.995972,1,0.0,0.0,0.0,0.0
1.037902832,0.9748772,8.0907217E-4,-0.22274168,-0.22274004,-0.0017330588,-0.97487634,-0.0011747696,0.99999815,-0.0015093067,0.97765017,0.0013106631,-0.21023408,-0.21019205,-0.014856691,-0.9775472,-0.004404618,0.9998888,-0.014249156,-0.011962891,9.835373,0.03829956,-0.011520386,9.806488,-0.014801025,-0.003189087,-0.0010681152,0.0021362305,-5.456543,-31.448364,-23.995972,1,0.0,0.0,0.0,0.0
1.042297363,0.9749046,7.128577E-4,-0.22262181,-0.22262031,-0.0017428609,-0.97490364,-0.0010829666,0.9999982,-0.0015404265,0.977596,0.0013896025,-0.21048528,-0.21044326,-0.014588273,-0.97749716,-0.004428949,0.9998926,-0.013969005,-0.02154541,9.758759,0.009567261,-0.010620117,9.806488,-0.015106201,-0.011703491,0.003189087,0.012786865,-5.456543,-31.448364,-23.995972,1,0.0,0.0,0.0,0.0
1.046691894,0.97602135,7.065028E-4,-0.21767356,-0.21767208,-0.0017358355,-0.9760204,-0.0010674066,0.9999982,-0.0015404265,0.9775434,0.0014496496,-0.21072882,-0.21068712,-0.014327865,-0.9774485,-0.004436252,0.9998963,-0.013700688,0.01675415,9.840164,0.004776001,-0.010467529,9.806488,-0.015106201,0.010665894,0.007446289,0.02130127,-5.0979614,-30.731201,-22.958374,1,0.0,0.0,0.0,0.0
1.051086425,0.9760108,7.436843E-4,-0.21772097,-0.2177194,-0.0017760672,-0.97600985,-0.0011125302,0.99999815,-0.0015715462,0.9775134,0.0015049755,-0.21086815,-0.21082681,-0.014071401,-0.9774222,-0.004438207,0.99989986,-0.013437694,-0.13166809,9.8736725,-0.08139038,-0.010910034,9.806488,-0.015411377,-0.014892578,-0.008514404,0.01171875,-5.0979614,-30.731201,-22.958374,1,0.0,0.0,0.0,0.0
1.055480957,0.9760136,7.338833E-4,-0.21770848,-0.21770687,-0.0018200987,-0.9760126,-0.0011125301,0.9999981,-0.0016166696,0.977469,0.0014919722,-0.21107382,-0.21103421,-0.013714096,-0.97738254,-0.004352914,0.9999049,-0.013090246,0.002380371,9.888046,-0.1484375,-0.010910034,9.806488,-0.015853882,-0.0053253174,-0.004257202,0.005340576,-5.0979614,-30.731201,-22.958374,1,0.0,0.0,0.0,0.0
1.059875488,0.9734572,7.129976E-4,-0.22886819,-0.2288666,-0.0018283814,-0.97345614,-0.0011125301,0.9999981,-0.0016166696,0.9774401,0.001540222,-0.21120724,-0.21116802,-0.013468478,-0.977357,-0.0043499866,0.9999081,-0.012839384,-0.01675415,9.844955,-0.01914978,-0.010910034,9.806488,-0.015853882,-0.013824463,-0.008514404,0.007461548,-5.456543,-30.37262,-23.303223,1,0.0,0.0,0.0,0.0
1.064270019,0.9734558,7.178055E-4,-0.22887413,-0.22887246,-0.0018758726,-0.9734546,-0.0011280898,0.9999979,-0.001661793,0.9773634,0.0015822995,-0.21156153,-0.21152282,-0.013231335,-0.9772834,-0.004345597,0.9999112,-0.012597131,-0.07899475,9.840164,-0.1197052,-0.011062622,9.806488,-0.016296387,0.0010681152,-0.003189087,-0.0010528564,-5.456543,-30.37262,-23.303223,1,0.0,0.0,0.0,0.0
1.06866455,0.9734513,7.3291635E-4,-0.22889277,-0.22889107,-0.0018794477,-0.9734501,-0.0011436497,0.9999979,-0.001661793,0.97728807,0.0016197861,-0.21190879,-0.21187055,-0.013001001,-0.97721124,-0.0043379,0.99991417,-0.01236254,-0.05027771,9.773117,-0.01914978,-0.01121521,9.806488,-0.016296387,-0.014892578,-0.008514404,0.005340576,-5.456543,-30.37262,-23.303223,1,0.0,0.0,0.0,0.0
1.073059082,0.96591645,6.356314E-4,-0.25885335,-0.25885186,-0.0018118384,-0.9659154,-0.0010829665,0.99999815,-0.00158555,0.9771771,0.0015136406,-0.21242076,-0.21238476,-0.012777831,-0.9771026,-0.004193259,0.9999172,-0.0121647315,-0.09815979,9.92157,-0.08618164,-0.010620117,9.806488,-0.015548706,0.0021362305,-0.010650635,0.008529663,-5.9936523,-30.192566,-22.439575,1,0.0,0.0,0.0,0.0
1.077453613,0.9659095,6.560828E-4,-0.25887898,-0.2588774,-0.0018495672,-0.96590835,-0.0011125301,0.9999981,-0.0016166696,0.9769736,0.0015430803,-0.21335469,-0.21331924,-0.012554321,-0.97690195,-0.0041859616,0.99992,-0.011936072,-0.07421875,9.849731,-0.1197052,-0.010910034,9.806488,-0.015853882,-0.024475098,-0.008514404,0.022369385,-5.9936523,-30.192566,-22.439575,1,0.0,0.0,0.0,0.0
1.081848144,0.9659178,6.3161325E-4,-0.2588483,-0.25884682,-0.0018268646,-0.9659167,-0.0010829665,0.99999815,-0.0016011099,0.97677314,0.0015708247,-0.21427049,-0.21423554,-0.012334497,-0.9767042,-0.0041771494,0.9999227,-0.011711478,-0.09815979,9.806641,-0.009567261,-0.010620117,9.806488,-0.015701294,-0.017028809,0.0,0.0063934326,-5.9936523,-30.192566,-22.439575,1,0.0,0.0,0.0,0.0
1.086242675,0.97916394,7.410216E-4,-0.20307031,-0.2030687,-0.001836534,-0.97916293,-0.0010985262,0.9999981,-0.0016477894,0.97657603,0.0015942568,-0.21516669,-0.21513233,-0.01211944,-0.97650975,-0.004164507,0.9999253,-0.011492578,-0.03590393,9.849731,-0.1484375,-0.010772705,9.806488,-0.016159058,-0.004257202,-0.024505615,0.012786865,-4.9179077,-29.833984,-23.822021,1,0.0,0.0,0.0,0.0
1.090637207,0.97916114,7.518653E-4,-0.2030833,-0.20308164,-0.0018530994,-0.97915995,-0.0011125299,0.9999979,-0.001661793,0.97661036,0.0015890289,-0.21501054,-0.2149781,-0.011662054,-0.97654915,-0.0040592295,0.99993074,-0.011047676,-0.05027771,9.7444,-0.03829956,-0.010910034,9.806488,-0.016296387,-0.013824463,-0.0053253174,0.005340576,-4.9179077,-29.833984,-23.822021,1,0.0,0.0,0.0,0.0
1.095031738,0.97915894,7.6076033E-4,-0.20309402,-0.20309232,-0.0018867388,-0.97915775,-0.0011280898,0.9999979,-0.0016929127,0.9766628,0.0016200289,-0.21477233,-0.21474038,-0.011460869,-0.9766039,-0.0040436042,0.999933,-0.01084552,-0.05027771,9.706085,-0.11491394,-0.011062622,9.806488,-0.016601563,-0.013824463,0.0010681152,-0.004257202,-4.9179077,-29.833984,-23.822021,1,0.0,0.0,0.0,0.0
1.099426269,0.982735,7.8704895E-4,-0.18501686,-0.18501508,-0.0019167445,-0.9827338,-0.0011280897,0.99999785,-0.0017380362,0.97671396,0.0016481511,-0.21453921,-0.21450776,-0.011264741,-0.9766573,-0.004026408,0.9999352,-0.0106488895,-0.011962891,9.821014,-0.13406372,-0.011062622,9.806488,-0.017044067,-0.012756348,-0.014907837,-0.0021209717,-4.2007446,-29.833984,-22.439575,1,0.0,0.0,0.0,0.0
1.1038208,0.9827313,8.0230186E-4,-0.18503644,-0.18503463,-0.0019196394,-0.9827301,-0.0011436496,0.99999785,-0.0017380362,0.97684294,0.0016750937,-0.21395096,-0.21392001,-0.011070924,-0.9767884,-0.004004847,0.9999373,-0.010456217,-0.06463623,9.830582,-0.009567261,-0.01121521,9.806488,-0.017044067,-0.02128601,-0.0063934326,0.0021362305,-4.2007446,-29.833984,-22.439575,1,0.0,0.0,0.0,0.0
1.108215332,0.9827313,8.0230186E-4,-0.18503644,-0.18503463,-0.0019196394,-0.9827301,-0.0011436496,0.99999785,-0.0017380362,0.9769356,0.0015608675,-0.21352829,-0.21350001,-0.010708043,-0.97688437,-0.0038112577,0.99994147,-0.010127824,-0.026321411,9.830582,-0.01914978,-0.01121521,9.806488,-0.017044067,-0.008514404,-0.0095825195,0.010665894,-4.2007446,-29.833984,-22.439575,1,0.0,0.0,0.0,0.0
1.112609863,0.9827317,8.0112147E-4,-0.18503496,-0.18503325,-0.0018418327,-0.98273057,-0.0011280898,0.9999979,-0.001661793,0.97705954,0.0015882521,-0.21296042,-0.21293256,-0.010525271,-0.97701025,-0.0037932047,0.9999434,-0.009945625,-0.15083313,9.854523,-0.16758728,-0.011062622,9.806488,-0.016296387,0.0021362305,-0.0021362305,0.01171875,-4.2007446,-29.833984,-22.439575,1,0.0,0.0,0.0,0.0
1.117004394,0.9827263,8.230123E-4,-0.18506303,-0.18506123,-0.0018934875,-0.98272514,-0.0011592094,0.99999785,-0.0017084724,0.97718066,0.0016160943,-0.21240366,-0.2123762,-0.010344197,-0.9771332,-0.0037762844,0.99994516,-0.009764929,-0.08378601,9.739609,-0.14364624,-0.011367798,9.806488,-0.01675415,-0.031936646,-0.0053253174,0.014923096,-4.2007446,-29.833984,-22.439575,1,0.0,0.0,0.0,0.0
1.121398925,0.98273295,7.953773E-4,-0.18502757,-0.18502584,-0.0018724087,-0.9827318,-0.0011280898,0.9999979,-0.0016929127,0.97729903,0.001642482,-0.21185842,-0.2118314,-0.010172598,-0.97725326,-0.0037602715,0.9999469,-0.009593741,0.06463623,9.821014,0.028717041,-0.011062622,9.806488,-0.016601563,0.0138549805,-0.0021362305,0.010665894,-4.2007446,-29.833984,-22.439575,1,0.0,0.0,0.0,0.0
1.125793457,0.98668444,8.976036E-4,-0.16264418,-0.16264232,-0.0018637175,-0.98668337,-0.0011887732,0.99999785,-0.0016929125,0.9774261,0.0014296095,-0.21127248,-0.21124779,-0.0101079075,-0.97738034,-0.003532795,0.9999479,-0.009577732,-0.14604187,9.773117,-0.0335083,-0.011657715,9.806488,-0.016601563,0.009597778,0.003189087,0.012786865,-3.842163,-30.551147,-23.477173,1,0.0,0.0,0.0,0.0
1.130187988,0.9866878,8.8129466E-4,-0.1626235,-0.16262165,-0.0018767739,-0.98668665,-0.0011747692,0.99999785,-0.0017084724,0.9776347,0.0014679409,-0.21030508,-0.21028069,-0.009936637,-0.9775907,-0.0035247705,0.9999496,-0.009405722,0.026321411,9.959869,-0.05744934,-0.011520386,9.806488,-0.01675415,0.0063934326,-0.003189087,0.010665894,-3.842163,-30.551147,-23.477173,1,0.0,0.0,0.0,0.0
1.134582519,0.9867163,7.4541837E-4,-0.16245134,-0.16244966,-0.0019472351,-0.9867149,-0.0010518464,0.99999785,-0.0018002756,0.97783834,0.0015014756,-0.20935592,-0.20933183,-0.009768238,-0.97779584,-0.0035131748,0.9999512,-0.0092374515,0.007171631,9.792282,-0.18673706,-0.010314941,9.806488,-0.017654419,-0.008514404,0.003189087,0.0138549805,-3.842163,-30.551147,-23.477173,1,0.0,0.0,0.0,0.0
1.13897705,0.97977686,5.925289E-4,-0.2000926,-0.20009103,-0.0020521393,-0.9797753,-9.911628E-4,0.9999978,-0.0018920787,0.9780456,0.0011263107,-0.20838791,-0.2083678,-0.00962933,-0.9780032,-0.0031081715,0.99995303,-0.009183237,-0.06463623,9.797058,-0.05265808,-0.009719849,9.806488,-0.018554688,0.0063934326,0.0021362305,0.023422241,-4.9179077,-29.475403,-24.168396,1,0.0,0.0,0.0,0.0
1.143371582,0.9797717,6.13949E-4,-0.20011766,-0.20011607,-0.002024778,-0.9797701,-0.0010067228,0.9999978,-0.0018609589,0.97808087,0.001139533,-0.20822233,-0.20820257,-0.00947195,-0.9780398,-0.0030867804,0.99995446,-0.00902708,-0.05027771,9.883255,0.07661438,-0.0098724365,9.806488,-0.018249512,0.018112183,-0.0053253174,0.019165039,-4.9179077,-29.475403,-24.168396,1,0.0,0.0,0.0,0.0
1.147766113,0.97976553,6.3973793E-4,-0.20014787,-0.20014618,-0.0020459585,-0.97976387,-0.0010362864,0.9999976,-0.0018765185,0.97811526,0.0011546976,-0.2080605,-0.20804107,-0.009323231,-0.9780757,-0.0030691775,0.9999559,-0.00887897,-0.08857727,9.844955,-0.05265808,-0.0101623535,9.806488,-0.0184021,0.007461548,0.0053100586,0.0138549805,-4.9179077,-29.475403,-24.168396,1,0.0,0.0,0.0,0.0
1.152160644,0.9747702,6.2161946E-4,-0.22320995,-0.22320825,-0.00206743,-0.9747685,-0.001067406,0.9999976,-0.0018765185,0.97814894,0.001169707,-0.20790231,-0.20788324,-0.0091738105,-0.9781107,-0.0030513594,0.99995726,-0.00873019,-0.09336853,9.730026,-0.01914978,-0.010467529,9.806488,-0.0184021,0.008529663,0.013839722,0.010665894,-5.2764893,-31.626892,-23.130798,1,0.0,0.0,0.0,0.0
1.156555175,0.9747721,6.150389E-4,-0.2232014,-0.22319968,-0.0020962423,-0.9747704,-0.001067406,0.9999976,-0.0019060823,0.97811645,0.0011368813,-0.20805511,-0.20803659,-0.009070783,-0.978079,-0.0029991826,0.9999582,-0.00863577,0.002380371,9.758759,-0.11012268,-0.010467529,9.806488,-0.018692017,0.0032043457,0.009567261,0.0021362305,-5.2764893,-31.626892,-23.130798,1,0.0,0.0,0.0,0.0
1.160949707,0.97478276,5.7948445E-4,-0.2231552,-0.22315349,-0.0021822287,-0.9747809,-0.0010518461,0.9999975,-0.001997885,0.9780519,0.0011482255,-0.2083585,-0.20834029,-0.008928634,-0.9780156,-0.0029833394,0.99995947,-0.008493446,-0.002380371,9.816223,-0.22984314,-0.010314941,9.806488,-0.019592285,0.012786865,0.013839722,0.004272461,-5.2764893,-31.626892,-23.130798,1,0.0,0.0,0.0,0.0
1.165344238,0.9753374,5.932432E-4,-0.22071859,-0.22071679,-0.00221456,-0.9753354,-0.0010674057,0.9999973,-0.0020290045,0.97798866,0.0011542783,-0.20865479,-0.20863694,-0.008792615,-0.97795355,-0.0029634521,0.99996066,-0.008358253,0.011962891,9.849731,-0.15322876,-0.010467529,9.806488,-0.019897461,-0.007446289,0.0021362305,0.005340576,-5.0979614,-31.448364,-22.612,1,0.0,0.0,0.0,0.0
1.169738769,0.9753459,5.6476094E-4,-0.2206809,-0.22067912,-0.0022702906,-0.9753438,-0.0010518458,0.99999726,-0.0020896876,0.97798866,0.0011542783,-0.20865479,-0.20863694,-0.008792615,-0.97795355,-0.0029634521,0.99996066,-0.008358253,0.011962891,9.849731,-0.15322876,-0.010314941,9.806488,-0.020492554,-0.007446289,0.0021362305,0.005340576,-5.0979614,-31.448364,-22.612,1,0.0,0.0,0.0,0.0
1.1741333,0.97534996,5.5141136E-4,-0.22066325,-0.22066145,-0.002329468,-0.9753478,-0.0010518457,0.9999972,-0.002150371,0.97782093,0.0012172911,-0.20943946,-0.20942187,-0.008513379,-0.9777884,-0.0029732904,0.99996305,-0.008069632,-0.002380371,9.840164,-0.17237854,-0.010314941,9.806488,-0.021087646,-0.0021209717,-0.019180298,-0.003189087,-5.0979614,-31.448364,-22.612,1,0.0,0.0,0.0,0.0
1.178527832,0.97617465,5.6018715E-4,-0.21698561,-0.2169838,-0.002327373,-0.9761725,-0.0010518457,0.9999972,-0.002150371,0.9777727,0.0012143832,-0.20966405,-0.20964687,-0.008384814,-0.97774124,-0.0029453465,0.9999641,-0.00794385,-0.002380371,9.801849,-0.028717041,-0.010314941,9.806488,-0.021087646,-0.003189087,-0.007461548,0.005340576,-5.1467896,-32.24182,-23.23761,1,0.0,0.0,0.0,0.0
1.182922363,0.9761785,5.470621E-4,-0.21696825,-0.21696639,-0.0023866005,-0.97617614,-0.0010518455,0.99999696,-0.0022110539,0.97774124,0.0012119949,-0.20981063,-0.20979382,-0.008260721,-0.9777107,-0.0029181675,0.99996513,-0.00782258,-0.011962891,9.835373,-0.1819458,-0.010314941,9.806488,-0.02168274,-0.0010528564,-0.022369385,0.0063934326,-5.1467896,-32.24182,-23.23761,1,0.0,0.0,0.0,0.0
1.187316894,0.97617257,5.672459E-4,-0.21699494,-0.21699299,-0.0024389352,-0.9761701,-0.001082965,0.9999969,-0.0022577334,0.9777105,0.0012081318,-0.20995414,-0.20993769,-0.008144049,-0.9776808,-0.0028910444,0.9999661,-0.00770889,-0.10772705,9.787491,-0.12449646,-0.010620117,9.806488,-0.022140503,0.004272461,-0.004257202,0.0021362305,-5.1467896,-32.24182,-23.23761,1,0.0,0.0,0.0,0.0
1.191711425,0.9810141,6.275686E-4,-0.19393559,-0.19393359,-0.002409629,-0.9810117,-0.001082965,0.9999969,-0.0022421735,0.9776802,0.0011771868,-0.21009496,-0.21007922,-0.007984743,-0.9776518,-0.0028284332,0.99996746,-0.007559223,0.002380371,9.821014,0.004776001,-0.010620117,9.806488,-0.021987915,-0.0021209717,0.0,0.0021362305,-4.6081543,-31.344604,-23.41156,1,0.0,0.0,0.0,0.0
1.196105957,0.9810155,6.220299E-4,-0.19392848,-0.19392636,-0.002517966,-0.9810128,-0.0010985247,0.9999966,-0.0023495357,0.9777496,0.0011774895,-0.20977229,-0.20975688,-0.007868524,-0.9777219,-0.0028018556,0.99996835,-0.007446459,-0.05984497,9.76355,-0.31602478,-0.010772705,9.806488,-0.023040771,0.012786865,-0.015975952,0.0010681152,-4.6081543,-31.344604,-23.41156,1,0.0,0.0,0.0,0.0
1.200500488,0.98102707,5.7638687E-4,-0.19386965,-0.19386765,-0.0025088792,-0.9810244,-0.0010518451,0.99999666,-0.002349536,0.9778174,0.0011761844,-0.20945589,-0.20944078,-0.007760467,-0.9777905,-0.0027755373,0.9999692,-0.0073419786,0.01675415,9.777908,-0.15322876,-0.010314941,9.806488,-0.023040771,-0.003189087,-0.0063934326,-0.003189087,-4.6081543,-31.344604,-23.41156,1,0.0,0.0,0.0,0.0
1.204895019,0.9690065,4.5014895E-4,-0.2470351,-0.24703315,-0.0026181254,-0.96900356,-0.0010829646,0.9999965,-0.0024257784,0.97788405,0.0011721742,-0.20914455,-0.20912981,-0.0076560513,-0.97785795,-0.0027474414,0.99997,-0.0072415937,-0.07421875,9.911987,-0.21546936,-0.010620117,9.806488,-0.023788452,-0.011703491,-0.022369385,0.0063934326,-6.0424805,-29.910278,-23.756409,1,0.0,0.0,0.0,0.0
1.20928955,0.9690177,4.1281054E-4,-0.24699095,-0.24698904,-0.002639066,-0.9690146,-0.0010518449,0.99999636,-0.002455342,0.9777064,9.571014E-4,-0.20997447,-0.20996098,-0.0077618146,-0.97767895,-0.0025655208,0.9999694,-0.0073878216,0.09815979,9.854523,-0.04309082,-0.010314941,9.806488,-0.02407837,0.014923096,-0.004257202,0.009597778,-6.0424805,-29.910278,-23.756409,1,0.0,0.0,0.0,0.0
1.213684082,0.9690052,4.5406667E-4,-0.24703972,-0.24703771,-0.0026656962,-0.9690022,-0.0010985244,0.99999636,-0.002470902,0.97754645,9.4948773E-4,-0.21071771,-0.2107045,-0.0076590986,-0.97751975,-0.0025420508,0.9999702,-0.0072870636,-0.10772705,9.888046,-0.08139038,-0.010772705,9.806488,-0.024230957,0.005340576,0.036209106,-0.004257202,-6.0424805,-29.910278,-23.756409,1,0.0,0.0,0.0,0.0
1.218078613,0.98591655,6.594348E-4,-0.16723627,-0.16723405,-0.0025880667,-0.9859137,-0.0010829646,0.99999636,-0.0024413383,0.9773889,9.443088E-4,-0.21144731,-0.21143436,-0.00756112,-0.9773629,-0.002521711,0.999971,-0.007190496,-0.14125061,9.758759,-0.04309082,-0.010620117,9.806488,-0.02394104,0.014923096,0.0021362305,0.0021362305,-3.8909912,-32.061768,-23.065186,1,0.0,0.0,0.0,0.0
1.222473144,0.98591363,6.723874E-4,-0.16725378,-0.16725151,-0.0026044878,-0.9859108,-0.0010985244,0.99999636,-0.002455342,0.97748685,7.933858E-4,-0.21099508,-0.21098387,-0.007283649,-0.9774624,-0.0023123187,0.9999732,-0.0069522792,-0.04548645,9.82579,-0.05265808,-0.010772705,9.806488,-0.02407837,-0.008514404,-0.026626587,0.01171875,-3.8909912,-32.061768,-23.065186,1,0.0,0.0,0.0,0.0
1.226867675,0.9859111,6.835514E-4,-0.16726887,-0.16726658,-0.0026221806,-0.9859082,-0.0011125281,0.9999963,-0.0024709017,0.9776744,8.038207E-4,-0.21012405,-0.21011302,-0.007186913,-0.9776507,-0.0022959989,0.99997383,-0.0068575675,-0.04548645,9.821014,-0.04788208,-0.010910034,9.806488,-0.024230957,-0.004257202,-0.0095825195,-0.0010528564,-3.8909912,-32.061768,-23.065186,1,0.0,0.0,0.0,0.0
1.231262207,0.9630557,4.3462214E-4,-0.26930204,-0.2692999,-0.002750234,-0.9630524,-0.0011592074,0.9999961,-0.0025315846,0.9778574,8.144319E-4,-0.20927061,-0.20925978,-0.007097174,-0.97783434,-0.0022816095,0.9999745,-0.006769596,-0.10772705,9.830582,-0.19152832,-0.011367798,9.806488,-0.02482605,-0.007446289,-0.0010681152,-0.006378174,-6.5811157,-30.448914,-23.583984,1,0.0,0.0,0.0,0.0
1.235656738,0.9630516,4.4673326E-4,-0.26931655,-0.26931444,-0.002706784,-0.96304846,-0.0011592074,0.9999962,-0.002486461,0.97759783,8.10343E-4,-0.21047992,-0.21046925,-0.0070089684,-0.9775753,-0.0022674184,0.9999751,-0.0066814004,-0.10293579,9.749176,-0.13406372,-0.011367798,9.806488,-0.024383545,-0.010650635,-0.0063934326,-0.014907837,-6.5811157,-30.448914,-23.583984,1,0.0,0.0,0.0,0.0
1.240051269,0.96305704,4.304462E-4,-0.26929703,-0.2692949,-0.0027652166,-0.96305376,-0.0011592074,0.9999961,-0.0025471444,0.9772641,7.709557E-4,-0.21202445,-0.21201494,-0.0065975958,-0.9772442,-0.0021522634,0.99997795,-0.006284139,-0.007171631,9.773117,-0.16758728,-0.011367798,9.806488,-0.024978638,-0.01914978,-0.022369385,0.0063934326,-6.5811157,-30.448914,-23.583984,1,0.0,0.0,0.0,0.0
1.2444458,0.956617,3.7134567E-4,-0.29134843,-0.29134634,-0.00275949,-0.9566137,-0.0011592074,0.9999961,-0.0025315846,0.97701305,7.66818E-4,-0.21317804,-0.21316871,-0.0065191053,-0.9769937,-0.0021389066,0.9999785,-0.0062057897,-0.011962891,9.907196,-0.004776001,-0.011367798,9.806488,-0.02482605,0.0032043457,-0.01171875,-0.013839722,-7.118225,-30.986023,-23.41156,1,0.0,0.0,0.0,0.0
1.248840332,0.95660436,4.0532445E-4,-0.29138955,-0.29138735,-0.0028024232,-0.956601,-0.0012043308,0.999996,-0.002562704,0.9766673,7.596651E-4,-0.21475658,-0.2147474,-0.0064397673,-0.9766483,-0.0021249081,0.99997896,-0.006126374,-0.13166809,9.8736725,-0.10533142,-0.011810303,9.806488,-0.025131226,-0.008514404,-0.007461548,0.0032043457,-7.118225,-30.986023,-23.41156,1,0.0,0.0,0.0,0.0
1.253234863,0.95659995,4.1736756E-4,-0.29140416,-0.29140183,-0.0028695469,-0.9565965,-0.0012354503,0.9999958,-0.0026233867,0.9763258,7.5472455E-4,-0.21630381,-0.21629483,-0.00636917,-0.9763073,-0.0021145188,0.99997944,-0.006055142,-0.08378601,9.888046,-0.16758728,-0.0121154785,9.806488,-0.025726318,-0.0021209717,-0.014907837,-0.003189087,-7.118225,-30.986023,-23.41156,1,0.0,0.0,0.0,0.0
1.257629394,0.9667087,5.972454E-4,-0.25587848,-0.25587592,-0.0028090407,-0.9667055,-0.0012961336,0.9999959,-0.0025627036,0.97601545,5.5499387E-4,-0.21770051,-0.21769315,-0.0061231554,-0.97599804,-0.001874687,0.9999811,-0.005855476,-0.05505371,9.964661,-0.1484375,-0.012710571,9.806488,-0.025131226,-0.007446289,0.007446289,0.0138549805,-6.222534,-32.24182,-23.583984,1,0.0,0.0,0.0,0.0
1.262023925,0.9666997,6.237365E-4,-0.25591233,-0.2559097,-0.0027694225,-0.96669656,-0.0013116935,0.9999959,-0.00251758,0.9758441,5.634157E-4,-0.21846768,-0.21846038,-0.0060555846,-0.97582704,-0.0018727457,0.9999815,-0.005786222,-0.08378601,9.821014,0.08618164,-0.012863159,9.806488,-0.02468872,-0.025543213,-0.0010681152,-0.010650635,-6.222534,-32.24182,-23.583984,1,0.0,0.0,0.0,0.0
1.266418457,0.96668094,6.7910313E-4,-0.25598305,-0.25598037,-0.002735895,-0.96667796,-0.0013568172,0.999996,-0.002470901,0.9756753,5.7263963E-4,-0.21922004,-0.2192128,-0.005987542,-0.9756587,-0.00187129,0.99998194,-0.005716367,-0.08378601,9.878464,-0.22026062,-0.013305664,9.806488,-0.024230957,-0.017028809,0.0042419434,-0.006378174,-6.222534,-32.24182,-23.583984,1,0.0,0.0,0.0,0.0
1.270812988,0.96371186,7.1038073E-4,-0.26694366,-0.266941,-0.0026347758,-0.9637093,-0.0013879372,0.9999963,-0.002349535,0.97550905,5.836151E-4,-0.21995856,-0.21995136,-0.00591749,-0.9754929,-0.001870915,0.9999823,-0.005644198,-0.13166809,9.854523,-0.04788208,-0.01361084,9.806488,-0.023040771,-0.026611328,-0.01171875,-0.0021209717,-6.222534,-30.807495,-22.546387,1,0.0,0.0,0.0,0.0
1.275207519,0.9637081,7.2118454E-4,-0.26695737,-0.26695466,-0.0026539345,-0.9637054,-0.0014034968,0.9999962,-0.0023650944,0.9753302,6.682661E-4,-0.22075,-0.22074336,-0.005373618,-0.9753172,-0.0018379976,0.99998534,-0.005093537,-0.06942749,9.892838,-0.05265808,-0.013763428,9.806488,-0.02319336,-0.029800415,0.009567261,0.0021362305,-6.222534,-30.807495,-22.546387,1,0.0,0.0,0.0,0.0
1.27960205,0.9636998,7.44407E-4,-0.26698682,-0.2669841,-0.0026281208,-0.9636973,-0.0014190569,0.9999963,-0.0023339752,0.9751194,6.7681685E-4,-0.22167936,-0.2216728,-0.005319318,-0.97510666,-0.0018391515,0.99998564,-0.0050369375,-0.05505371,9.864105,0.03829956,-0.013916016,9.806488,-0.022888184,-0.018081665,-0.004257202,0.005340576,-6.222534,-30.807495,-22.546387,1,0.0,0.0,0.0,0.0
1.283996582,0.9579266,6.9842325E-4,-0.28701264,-0.2870099,-0.0026619881,-0.95792395,-0.0014330605,0.9999962,-0.0023495345,0.9749117,6.855835E-4,-0.22259083,-0.22258428,-0.00526254,-0.9748993,-0.001839768,0.99998593,-0.0049779117,-0.05984497,9.950287,-0.07182312,-0.014053345,9.806488,-0.023040771,-0.0010528564,0.011703491,0.01171875,-6.9396973,-31.166077,-23.23761,1,0.0,0.0,0.0,0.0
1.288391113,0.95791984,7.167253E-4,-0.28703517,-0.28703222,-0.0027633423,-0.957917,-0.0014797396,0.9999959,-0.0024413369,0.97461414,6.9187046E-4,-0.22389022,-0.22388372,-0.005207487,-0.97460204,-0.0018402035,0.99998623,-0.004920392,-0.13645935,9.806641,-0.24420166,-0.014511108,9.806488,-0.02394104,-0.006378174,0.0021362305,-0.006378174,-6.9396973,-31.166077,-23.23761,1,0.0,0.0,0.0,0.0
1.292785644,0.957911,7.404793E-4,-0.2870644,-0.28706148,-0.0027380213,-0.95790833,-0.0014952996,0.999996,-0.0024102177,0.974305,8.8972866E-4,-0.22523108,-0.22522415,-0.0049275206,-0.97429454,-0.0019766884,0.9999875,-0.0046005193,-0.026321411,9.82579,0.07182312,-0.014663696,9.806488,-0.023635864,-0.015960693,-0.004257202,-0.008514404,-6.9396973,-31.166077,-23.23761,1,0.0,0.0,0.0,0.0
1.297180175,0.97855103,9.772185E-4,-0.20600231,-0.20599909,-0.0026846665,-0.97854847,-0.0015093032,0.9999959,-0.002425777,0.97401595,8.8966306E-4,-0.22647758,-0.22647074,-0.004879434,-0.97400576,-0.0019716192,0.9999877,-0.004551164,-0.06942749,9.82579,-0.06703186,-0.014801025,9.806488,-0.023788452,-0.020217896,0.0053100586,-0.0010528564,-4.788208,-31.166077,-22.892761,1,0.0,0.0,0.0,0.0
1.301574707,0.97855735,9.543027E-4,-0.20597243,-0.20596921,-0.0027259083,-0.9785547,-0.0014952993,0.9999958,-0.0024709005,0.97411084,8.9769706E-4,-0.2260693,-0.22606254,-0.0048310473,-0.9741008,-0.001966599,0.9999879,-0.0045030396,0.011962891,9.82579,-0.16279602,-0.014663696,9.806488,-0.024230957,-0.006378174,0.018096924,-0.007446289,-4.788208,-31.166077,-22.892761,1,0.0,0.0,0.0,0.0
1.305969238,0.9785461,9.951043E-4,-0.20602565,-0.20602229,-0.0027504824,-0.97854346,-0.0015404227,0.9999957,-0.0024864601,0.97420377,9.059482E-4,-0.22566848,-0.22566171,-0.0047937226,-0.97419393,-0.0019643612,0.9999881,-0.004465624,-0.11251831,9.806641,-0.0335083,-0.015106201,9.806488,-0.024383545,-0.010650635,0.010635376,0.015991211,-4.788208,-31.166077,-22.892761,1,0.0,0.0,0.0,0.0
1.310363769,0.9661038,8.818871E-4,-0.25815222,-0.25814885,-0.0028415548,-0.9661009,-0.0015855458,0.9999955,-0.0025175791,0.97432196,0.0010116416,-0.22515702,-0.22515047,-0.0044983653,-0.9743136,-0.0019984948,0.9999894,-0.0041550845,-0.14125061,9.758759,-0.11491394,-0.015548706,9.806488,-0.02468872,-0.017028809,0.007446289,-0.0021209717,-6.0424805,-31.344604,-22.720337,1,0.0,0.0,0.0,0.0
1.3147583,0.96611625,8.45831E-4,-0.25810578,-0.25810248,-0.002862444,-0.96611327,-0.0015559822,0.9999955,-0.0025471428,0.97416866,0.0010107254,-0.22581945,-0.22581293,-0.0044610547,-0.97416043,-0.0019920017,0.9999895,-0.004117585,0.06463623,9.811432,-0.0909729,-0.015258789,9.806488,-0.024978638,-0.0021209717,0.015960693,0.0063934326,-6.0424805,-31.344604,-22.720337,1,0.0,0.0,0.0,0.0
1.319152832,0.96609885,8.962308E-4,-0.2581707,-0.25816715,-0.0029082315,-0.96609575,-0.0016166652,0.9999953,-0.002578262,0.9740181,0.0010108106,-0.22646788,-0.22646137,-0.0044348743,-0.97401005,-0.0019888962,0.9999896,-0.004090738,-0.16040039,9.768341,-0.1197052,-0.015853882,9.806488,-0.025283813,-0.0010528564,-0.0021362305,0.004272461,-6.0424805,-31.344604,-22.720337,1,0.0,0.0,0.0,0.0
1.323547363,0.9660896,9.232114E-4,-0.25820544,-0.25820196,-0.0028671853,-0.96608675,-0.0016322252,0.99999547,-0.0025315827,0.9739056,0.0010116091,-0.22695115,-0.22694531,-0.004110167,-0.9738988,-0.001918012,0.99999106,-0.0037733347,-0.05984497,9.888046,-0.1819458,-0.01600647,9.806488,-0.02482605,-0.018081665,0.009567261,0.004272461,-6.0424805,-31.344604,-22.720337,1,0.0,0.0,0.0,0.0
1.327941894,0.96608573,9.3418366E-4,-0.25821957,-0.25821602,-0.0028862485,-0.96608293,-0.001647785,0.99999547,-0.0025471426,0.97375923,0.0010105014,-0.2275785,-0.22757271,-0.0040809717,-0.9737525,-0.0019127198,0.9999912,-0.0037439212,-0.07899475,9.730026,-0.05265808,-0.016159058,9.806488,-0.024978638,-0.022354126,0.030883789,-0.0010528564,-6.0424805,-31.344604,-22.720337,1,0.0,0.0,0.0,0.0
1.332336425,0.96606046,0.0010075571,-0.25831407,-0.2583103,-0.0029060342,-0.96605766,-0.0017240279,0.9999953,-0.0025471423,0.97361517,0.001009553,-0.22819367,-0.22818795,-0.0040527103,-0.9736086,-0.0019077125,0.9999913,-0.003715413,-0.08857727,9.667786,-0.12449646,-0.016906738,9.806488,-0.024978638,-0.004257202,0.023422241,0.0010681152,-6.0424805,-31.344604,-22.720337,1,0.0,0.0,0.0,0.0
1.336730957,0.979112,0.0012266614,-0.203318,-0.20331399,-0.0027942222,-0.9791096,-0.0017691513,0.9999953,-0.002486459,0.97347325,0.0010103137,-0.22879831,-0.22879264,-0.0040249955,-0.9734669,-0.0019044192,0.9999914,-0.0036870737,-0.05505371,9.907196,-0.09576416,-0.017349243,9.806488,-0.024383545,-0.0095825195,0.047927856,-0.010650635,-4.6081543,-30.26886,-22.373962,1,0.0,0.0,0.0,0.0
1.341125488,0.97911644,0.0012103771,-0.20329688,-0.20329316,-0.0026509566,-0.97911435,-0.0017240286,0.9999957,-0.0023495336,0.9738598,0.0011822054,-0.22714695,-0.22714129,-0.003721128,-0.9738547,-0.0019965393,0.9999924,-0.0033553294,0.002380371,9.830582,-0.06703186,-0.016906738,9.806488,-0.023040771,-0.018081665,0.07136536,-0.006378174,-4.6081543,-30.26886,-22.373962,1,0.0,0.0,0.0,0.0
1.345520019,0.9791303,0.0011591035,-0.20323038,-0.20322688,-0.002592521,-0.9791282,-0.0016617896,0.9999959,-0.0023028546,0.97397065,0.0011857657,-0.22667119,-0.22666556,-0.003701348,-0.97396564,-0.001993884,0.99999243,-0.0033362322,-0.011962891,9.710876,-0.1197052,-0.016296387,9.806488,-0.022583008,-0.036193848,0.08201599,0.0063934326,-4.6081543,-30.26886,-22.373962,1,0.0,0.0,0.0,0.0
1.34991455,0.9754655,0.0011525222,-0.22014953,-0.22014616,-0.0025124126,-0.9754637,-0.0016773499,0.9999962,-0.0021970484,0.97407925,0.0011889916,-0.22620371,-0.22619805,-0.003683406,-0.97407424,-0.0019913665,0.9999925,-0.0033189817,-0.05505371,9.859314,-0.028717041,-0.016448975,9.806488,-0.02154541,-0.017028809,0.060699463,0.01171875,-5.3253174,-30.627441,-23.756409,1,0.0,0.0,0.0,0.0
1.354309082,0.9754725,0.0011271886,-0.22011843,-0.22011515,-0.0024906907,-0.9754708,-0.0016477865,0.9999963,-0.0021814888,0.9741074,0.0011923215,-0.22608271,-0.22607705,-0.0036641564,-0.9741025,-0.0019898457,0.99999255,-0.0032997252,-0.06942749,9.768341,-0.1819458,-0.016159058,9.806488,-0.021392822,-0.025543213,0.031936646,0.0010681152,-5.3253174,-30.627441,-23.756409,1,0.0,0.0,0.0,0.0
1.358703613,0.9754805,0.0010987441,-0.22008356,-0.22008027,-0.0025464213,-0.9754786,-0.0016322264,0.9999962,-0.002242172,0.9742379,0.0010673455,-0.22552004,-0.22551551,-0.0033210698,-0.97423387,-0.0017888119,0.9999939,-0.002994809,-0.002380371,9.816223,-0.18673706,-0.01600647,9.806488,-0.021987915,-0.017028809,0.027679443,0.01171875,-5.3253174,-30.627441,-23.756409,1,0.0,0.0,0.0,0.0
1.363098144,0.9809095,0.0012062928,-0.19446081,-0.19445732,-0.002540809,-0.98090774,-0.0016773498,0.9999961,-0.0022577315,0.9742631,0.0010689017,-0.2254116,-0.22540703,-0.0033040345,-0.9742591,-0.0017861548,0.999994,-0.0029780606,-0.10772705,9.76355,-0.05265808,-0.016448975,9.806488,-0.022140503,-0.013824463,-0.007461548,0.0032043457,-4.4296265,-32.600403,-22.546387,1,0.0,0.0,0.0,0.0
1.367492675,0.9809045,0.0012245161,-0.19448617,-0.19448267,-0.0025286037,-0.9809028,-0.0016929096,0.9999961,-0.0022421717,0.9744055,0.0010723721,-0.2247946,-0.22479007,-0.003285484,-0.97440165,-0.0017834802,0.99999404,-0.0029603352,-0.06463623,9.7827,0.01914978,-0.016601563,9.806488,-0.021987915,0.0010681152,-0.004257202,0.007461548,-4.4296265,-32.600403,-22.546387,1,0.0,0.0,0.0,0.0
1.371887207,0.9809095,0.0012062928,-0.19446081,-0.19445732,-0.002540809,-0.98090774,-0.0016773498,0.9999961,-0.0022577315,0.97454476,0.0010759745,-0.22419077,-0.22418627,-0.0032664882,-0.9745409,-0.0017808976,0.9999941,-0.0029421202,0.007171631,9.840164,-0.05265808,-0.016448975,9.806488,-0.022140503,-0.003189087,-0.01171875,0.0063934326,-4.4296265,-32.600403,-22.546387,1,0.0,0.0,0.0,0.0
1.376281738,0.9706151,0.0010659292,-0.24063493,-0.24063155,-0.0026063754,-0.970613,-0.0016617898,0.999996,-0.0022732911,0.9746574,9.815044E-4,-0.22370052,-0.22369656,-0.0031145776,-0.97465384,-0.0016533597,0.9999947,-0.002816087,0.03111267,9.830582,-0.06703186,-0.016296387,9.806488,-0.02229309,-0.006378174,-0.0063934326,0.007461548,-5.683899,-31.344604,-23.065186,1,0.0,0.0,0.0,0.0
1.380676269,0.9706198,0.0010513779,-0.2406163,-0.24061286,-0.0026652552,-0.97061753,-0.0016617896,0.9999959,-0.0023339742,0.97457945,9.815186E-4,-0.22403973,-0.22403577,-0.0030966953,-0.97457594,-0.0016503474,0.9999947,-0.0027980807,-0.011962891,9.811432,-0.16279602,-0.016296387,9.806488,-0.022888184,-0.010650635,-0.008514404,0.015991211,-5.683899,-31.344604,-23.065186,1,0.0,0.0,0.0,0.0
1.3850708,0.9706232,0.001040559,-0.24060245,-0.24059898,-0.0027090379,-0.9706209,-0.0016617895,0.9999958,-0.0023790975,0.9745031,9.86068E-4,-0.22437176,-0.22436783,-0.0030962508,-0.9744996,-0.001655634,0.9999947,-0.002796064,-0.02154541,9.82579,-0.17237854,-0.016296387,9.806488,-0.023330688,-0.008514404,-0.010650635,0.017044067,-5.683899,-31.344604,-23.065186,1,0.0,0.0,0.0,0.0
1.389465332,0.9742093,0.0011398108,-0.22564328,-0.2256398,-0.0025814965,-0.97420734,-0.0016929095,0.999996,-0.0022577313,0.9744282,9.897933E-4,-0.22469702,-0.22469306,-0.0030954373,-0.9744246,-0.0016600146,0.9999947,-0.0027938816,-0.026321411,9.835373,-0.009567261,-0.016601563,9.806488,-0.022140503,0.0021362305,-0.003189087,-0.004257202,-5.505371,-31.88324,-23.930359,1,0.0,0.0,0.0,0.0
