Time,Rot1,Rot2,Rot3,Rot4,Rot5,Rot6,Rot7,Rot8,Rot9,FRot1,FRot2,FRot3,FRot4,FRot5,FRot6,FRot7,FRot8,FRot9,AccX,AccY,AccZ,GravX,GravY,GravZ,GyroX,GyroY,GyroZ,MagX,MagY,MagZ,Imid
0.0,0.0,0.0,0.0,0.0,0.0,0.0,0.0,0.0,0.0,0.0,0.0,0.0,0.0,0.0,0.0,0.0,0.0,0.0,-0.12689209,0.11491394,9.821014,-0.23536682,-0.05177307,9.80365,0.0,0.0,0.0,0.0,0.0,0.0,0,0.0,0.0,0.0,0.0
0.004394531,0.0,0.0,0.0,0.0,0.0,0.0,0.0,0.0,0.0,1.0,0.0,0.0,0.0,1.0,0.0,0.0,0.0,1.0,-0.18434143,-0.04309082,9.619888,-0.23551941,-0.052963257,9.80365,0.0,0.0,0.0,0.0,0.0,0.0,0,0.0,0.0,0.0,0.0
0.008789062,0.0,0.0,0.0,0.0,0.0,0.0,0.0,0.0,0.0,1.0,0.0,0.0,0.0,1.0,0.0,0.0,0.0,1.0,-0.25138855,-0.07661438,9.696503,-0.23657227,-0.054016113,9.803497,-0.028747559,0.009597778,0.004257202,0.0,0.0,0.0,0,0.0,0.0,0.0,0.0
0.013214111,0.9139972,-0.40523386,0.019866753,0.4049991,0.9141963,0.014861936,-0.024184672,-0.0055377497,0.9996922,0.99999994,5.2619118E-5,3.5023797E-4,-5.274784E-5,0.99999994,3.6753013E-4,-3.502186E-4,-3.6754858E-4,0.9999999,-0.14125061,-0.11491394,9.7348175,-0.23716736,-0.05430603,9.803497,-0.022354126,0.02130127,-0.0032043457,12.013245,25.848389,-25.440979,0,0.0,0.0,0.0,0.0
0.017608643,0.9139942,-0.405241,0.019858092,0.40500674,0.91419315,0.014842993,-0.024169121,-0.005523748,0.99969256,0.99996525,-0.008293157,8.2302757E-4,0.008292766,0.9999655,4.7779476E-4,-8.269616E-4,-4.7095303E-4,0.9999995,-0.16998291,-0.028717041,9.797058,-0.23701477,-0.0541687,9.803497,0.0,0.024490356,0.0063934326,12.013245,25.848389,-25.440979,0,0.0,0.0,0.0,0.0
0.022003174,0.91398996,-0.405251,0.01984595,0.40501618,0.91418856,0.01487023,-0.02416912,-0.005553311,0.9996925,0.9998635,-0.016471617,0.0012842611,0.016470868,0.99986416,5.932433E-4,-0.0012938584,-5.7200936E-4,0.999999,-0.25616455,-0.10533142,9.691727,-0.23701477,-0.05445862,9.803497,0.0053253174,0.013839722,0.0010681152,12.013245,25.848389,-25.440979,0,0.0,0.0,0.0,0.0
0.026428223,0.91418064,-0.4048214,0.019832416,0.40458652,0.9143787,0.014868833,-0.024153562,-0.005568872,0.9996927,0.99969864,-0.02448566,0.0017344467,0.024484454,0.99969995,7.1431807E-4,-0.0017514168,-6.7163585E-4,0.9999982,-0.21786499,-0.10055542,9.92157,-0.23686218,-0.054611206,9.803497,-0.0021209717,0.017028809,-0.0032043457,12.013245,25.848389,-26.133728,0,0.0,0.0,0.0,0.0
0.030822754,0.91420037,-0.40477392,0.019888448,0.40453902,0.9143999,0.014858229,-0.024200222,-0.0055377474,0.9996918,0.99947417,-0.032345563,0.0022700552,0.032344364,0.9994766,5.6303653E-4,-0.0022870789,-4.89317E-4,0.99999726,-0.3184204,-0.004776001,9.859314,-0.23731995,-0.05430603,9.803497,0.017044067,0.0053253174,0.0010681152,12.013245,25.848389,-26.133728,0,0.0,0.0,0.0,0.0
0.035247803,0.91421515,-0.40473855,0.019930266,0.40450302,0.91441566,0.014875703,-0.02424532,-0.005537742,0.9996908,0.9991949,-0.040028244,0.0026995826,0.040026493,0.9991984,6.9890363E-4,-0.0027253944,-5.9028604E-4,0.9999961,-0.3663025,-0.028717041,9.658203,-0.23776245,-0.05430603,9.803497,0.0032043457,-0.0010528564,-0.007461548,12.013245,25.848389,-26.133728,0,0.0,0.0,0.0,0.0
0.039642334,0.9110281,-0.41187397,0.019691376,0.4116372,0.9112236,0.015044209,-0.024139564,-0.005599993,0.99969286,0.99886376,-0.047554202,0.0031194997,0.047551803,0.9988684,8.385262E-4,-0.0031558452,-6.892356E-4,0.99999475,-0.21307373,-0.02394104,9.629471,-0.23672485,-0.05491638,9.803497,0.0032043457,-0.004257202,0.0053253174,11.834717,24.952698,-25.61493,0,0.0,0.0,0.0,0.0
0.044036865,0.91102755,-0.41187513,0.019690001,0.4116392,0.9112233,0.015009483,-0.024124019,-0.0055688764,0.99969345,0.99847555,-0.055083126,0.0035267684,0.055079978,0.99848145,9.832045E-4,-0.0035755709,-7.874512E-4,0.9999933,-0.21307373,0.01914978,9.730026,-0.23657227,-0.054611206,9.803497,-0.017028809,-0.022369385,-0.0010681152,11.834717,24.952698,-25.61493,0,0.0,0.0,0.0,0.0
0.048461914,0.9110199,-0.41189292,0.019669127,0.41165692,0.9112151,0.015017641,-0.024108466,-0.005584438,0.99969375,0.99803114,-0.062598795,0.0038954252,0.06259415,0.99803823,0.0013038411,-0.003969402,-0.0010574431,0.9999916,-0.19392395,-0.06703186,9.811432,-0.23641968,-0.054763794,9.803497,-0.010635376,-0.0010528564,0.008514404,11.834717,24.952698,-25.61493,0,0.0,0.0,0.0,0.0
0.052856445,0.9142088,-0.4047613,0.019759668,0.40452653,0.9144051,0.01488425,-0.02409291,-0.005614003,0.999694,0.99755037,-0.069820836,0.004281413,0.06981521,0.9975589,0.0014504443,-0.0043722326,-0.0011479835,0.9999898,-0.21307373,-0.13406372,9.773117,-0.23626709,-0.05505371,9.803497,0.0053253174,-0.004257202,0.0063934326,11.117554,23.876953,-25.268555,0,0.0,0.0,0.0,0.0
0.057250977,0.9142217,-0.4047307,0.01979428,0.40449575,0.91441876,0.0148833655,-0.024124013,-0.005599995,0.9996933,0.99704033,-0.076739095,0.004657693,0.076732405,0.9970504,0.0015994341,-0.0047666943,-0.0012373043,0.99998784,-0.31362915,-0.0335083,9.7827,-0.23657227,-0.05491638,9.803497,0.0,0.013839722,-0.0010681152,11.117554,23.876953,-25.268555,0,0.0,0.0,0.0,0.0
0.061676025,0.9142241,-0.40472504,0.019800667,0.40449038,0.91442144,0.014869019,-0.024124017,-0.005584436,0.9996934,0.99649113,-0.08354869,0.0050095436,0.08354205,0.9965031,0.0015204379,-0.005119056,-0.0010965954,0.9999863,-0.18913269,0.09576416,9.801849,-0.23657227,-0.054763794,9.803497,0.0138549805,-0.0021209717,0.0021362305,11.117554,23.876953,-25.268555,0,0.0,0.0,0.0,0.0
0.066070557,0.9142259,-0.40472084,0.0198054,0.4044873,0.9144236,0.014819965,-0.024108471,-0.0055377595,0.999694,0.99649113,-0.08354869,0.0050095436,0.08354205,0.9965031,0.0015204379,-0.005119056,-0.0010965954,0.9999863,-0.18913269,0.09576416,9.801849,-0.23641968,-0.05430603,9.803497,0.0138549805,-0.0021209717,0.0021362305,11.117554,23.876953,-25.268555,0,0.0,0.0,0.0,0.0
0.070495605,0.9247345,-0.38007677,0.020195339,0.3798486,0.9249383,0.014284027,-0.024108471,-0.0055377595,0.999694,0.99529874,-0.09668303,0.0057206047,0.09667401,0.99531436,0.0018341229,-0.0058711288,-0.0012724664,0.99998194,-0.24659729,-0.05265808,9.888046,-0.23641968,-0.05430603,9.803497,0.0032043457,0.0063934326,0.007461548,11.117554,25.66986,-25.959778,0,0.0,0.0,0.0,0.0
0.074890137,0.92473036,-0.3800873,0.02018324,0.3798605,0.92493427,0.014230495,-0.024077,-0.005492556,0.999695,0.99471307,-0.102514885,0.006063883,0.10250457,0.9947306,0.001989869,-0.0062359213,-0.0013577726,0.9999797,-0.31362915,-0.0909729,9.82579,-0.2361145,-0.053863525,9.80365,-0.0021209717,-0.004257202,0.0,11.117554,25.66986,-25.959778,0,0.0,0.0,0.0,0.0
0.079284668,0.9247382,-0.38006687,0.020206725,0.3798393,0.9249425,0.014256473,-0.024108475,-0.0055081965,0.9996941,0.99471307,-0.102514885,0.006063883,0.10250457,0.9947306,0.001989869,-0.0062359213,-0.0013577726,0.9999797,-0.31362915,-0.0909729,9.82579,-0.23641968,-0.054016113,9.803497,-0.0021209717,-0.004257202,0.0,11.117554,25.66986,-25.959778,0,0.0,0.0,0.0,0.0
0.083709717,0.9036732,-0.42778155,0.019435823,0.42754364,0.9038653,0.015290771,-0.024108475,-0.0055081965,0.9996941,0.99348086,-0.113802426,0.0066899946,0.11379035,0.99350244,0.002160142,-0.0068923556,-0.0013848029,0.99997526,-0.23222351,-0.04309082,9.615112,-0.23641968,-0.054016113,9.803497,-0.0010528564,-0.0010528564,-0.0053253174,12.193298,24.594116,-25.61493,0,0.0,0.0,0.0,0.0
0.088104248,0.9036783,-0.42777005,0.019449325,0.4275328,0.903871,0.015262402,-0.024108479,-0.0054770783,0.99969435,0.99271077,-0.12031718,0.0070076236,0.120303616,0.99273443,0.0023272778,-0.0072367205,-0.0014672711,0.99997276,-0.21786499,0.0,9.682144,-0.23641968,-0.053710938,9.803497,0.0053253174,-0.0063934326,-0.0063934326,12.193298,24.594116,-25.61493,0,0.0,0.0,0.0,0.0
0.092498779,0.91642964,-0.39970103,0.019894224,0.3994709,0.9166294,0.01461437,-0.024077008,-0.005445879,0.9996953,0.9919146,-0.12669636,0.007317116,0.12668125,0.9919403,0.002494579,-0.007574197,-0.0015474678,0.99997014,-0.16040039,0.028717041,9.691727,-0.2361145,-0.05340576,9.80365,-0.0074310303,-0.013839722,0.003189087,11.654663,25.489807,-24.749756,0,0.0,0.0,0.0,0.0
0.096923828,0.91642725,-0.39970705,0.019886894,0.3994774,0.916627,0.014596077,-0.024063015,-0.0054318774,0.9996957,0.9911866,-0.13224626,0.0077506653,0.13222766,0.99121517,0.0028686607,-0.008061947,-0.0018185257,0.99996585,-0.20350647,-0.004776001,9.701294,-0.23597717,-0.053268433,9.80365,-0.011703491,0.009597778,-0.0053253174,11.654663,25.489807,-24.749756,0,0.0,0.0,0.0,0.0
0.101318359,0.91643584,-0.39968613,0.019912492,0.3994569,0.9166363,0.014572695,-0.024077013,-0.005400757,0.99969554,0.99043214,-0.13776658,0.008041617,0.1377463,0.9904629,0.0030274629,-0.0083820075,-0.0018907931,0.9999631,-0.2753296,0.0335083,9.777908,-0.2361145,-0.052963257,9.80365,-0.009567261,0.015975952,0.0010681152,11.654663,25.489807,-24.749756,0,0.0,0.0,0.0,0.0
0.105743408,0.90966773,-0.41486812,0.01972867,0.41463578,0.9098659,0.014879985,-0.02412367,-0.005355629,0.99969465,0.9896629,-0.1431719,0.008325625,0.14314988,0.9896959,0.0031857367,-0.008695945,-0.0019609928,0.9999603,-0.3471527,0.05744934,9.701294,-0.23657227,-0.052520752,9.80365,-0.0053253174,0.0,-0.02130127,12.013245,25.131226,-25.440979,0,0.0,0.0,0.0,0.0
0.110137939,0.90966207,-0.41488123,0.019713063,0.41464996,0.9098601,0.014839066,-0.024092574,-0.005324515,0.9996956,0.98883086,-0.14879374,0.008602442,0.14876996,0.9888661,0.0033460432,-0.009004535,-0.0020288858,0.9999574,-0.16040039,0.0335083,9.8736725,-0.23626709,-0.052215576,9.80365,0.0010681152,-0.003189087,0.003189087,12.013245,25.131226,-25.440979,0,0.0,0.0,0.0,0.0
0.114532471,0.9096668,-0.4148702,0.019726148,0.41463953,0.9098652,0.014810519,-0.024092577,-0.0052933963,0.9996957,0.9879843,-0.15430146,0.0088404585,0.154273,0.9880209,0.003819376,-0.009323893,-0.0024096393,0.9999536,-0.22744751,-0.004776001,9.854523,-0.23626709,-0.0519104,9.80365,-0.01914978,0.0010681152,0.0,12.013245,25.131226,-25.440979,0,0.0,0.0,0.0,0.0
0.11895752,0.9205701,-0.39005864,0.020120293,0.38983345,0.9207747,0.01427046,-0.024092577,-0.0052933963,0.9996957,0.98712504,-0.15969144,0.009101893,0.15966111,0.9871639,0.003971668,-0.009619302,-0.0024673147,0.9999507,-0.23701477,-0.01914978,9.76355,-0.23626709,-0.0519104,9.80365,-0.006378174,0.013839722,0.010650635,11.117554,24.952698,-24.923706,0,0.0,0.0,0.0,0.0
0.123352051,0.92056537,-0.390071,0.020105785,0.38984603,0.9207697,0.014264669,-0.024077028,-0.005293398,0.9996961,0.9863436,-0.16443431,0.009358967,0.1644021,0.98638487,0.0041187173,-0.009908801,-0.0025238364,0.9999477,-0.18434143,-0.08618164,9.715668,-0.2361145,-0.0519104,9.80365,-0.0021209717,0.012771606,0.0,11.117554,24.952698,-24.923706,0,0.0,0.0,0.0,0.0
0.127746582,0.9205691,-0.39006102,0.020117464,0.38983664,0.9207738,0.014237234,-0.02407703,-0.005263835,0.9996962,0.98555577,-0.1690789,0.009609417,0.16904478,0.98559916,0.0042652586,-0.010192198,-0.002579228,0.99994475,-0.24659729,0.05265808,9.811432,-0.2361145,-0.051620483,9.80365,-0.018081665,-0.007446289,-0.004257202,11.117554,24.952698,-24.923706,0,0.0,0.0,0.0,0.0
0.132171631,0.9121678,-0.40933874,0.019794472,0.40910995,0.91236717,0.014665626,-0.024063032,-0.0052793967,0.99969643,0.98476154,-0.17364404,0.00961244,0.17360905,0.984805,0.0043681134,-0.010224875,-0.0026327437,0.99994427,-0.19871521,-0.09576416,9.8688965,-0.23597717,-0.05177307,9.80365,0.0,-0.014907837,0.0010681152,12.013245,25.489807,-26.478577,0,0.0,0.0,0.0,0.0
0.136566162,0.9121749,-0.4093219,0.019813878,0.40909323,0.91237485,0.014656793,-0.02407703,-0.005263835,0.9996962,0.98388857,-0.17851084,0.009853629,0.17847392,0.9839342,0.0045170686,-0.010501669,-0.0026856768,0.99994123,-0.29927063,-0.0143585205,9.878464,-0.2361145,-0.051620483,9.80365,-0.006378174,0.013839722,0.0,12.013245,25.489807,-26.478577,0,0.0,0.0,0.0,0.0
0.140991211,0.9121701,-0.40933314,0.019800927,0.40910473,0.91236985,0.014651313,-0.024063036,-0.0052638375,0.9996966,0.98300976,-0.18327574,0.010089122,0.18323681,0.98305774,0.0046652015,-0.010773207,-0.0027372402,0.9999382,-0.19871521,-0.0622406,9.7827,-0.23597717,-0.051620483,9.80365,-0.015960693,-0.004257202,0.003189087,12.013245,25.489807,-26.478577,0,0.0,0.0,0.0,0.0
0.145385742,0.9242743,-0.38119105,0.02025934,0.38096896,0.9244815,0.014028797,-0.024077034,-0.005248277,0.9996964,0.98212606,-0.1879414,0.0103184525,0.18790047,0.9821763,0.0048126355,-0.011039033,-0.0027877723,0.9999352,-0.24180603,-0.02394104,9.677353,-0.2361145,-0.051467896,9.80365,-0.0074310303,-0.004257202,0.0010681152,10.9375,25.131226,-26.133728,0,0.0,0.0,0.0,0.0
0.149780273,0.9242627,-0.38122103,0.020225637,0.38099906,0.924469,0.014032578,-0.024047485,-0.00526384,0.99969697,0.98134273,-0.19197734,0.010538725,0.19193403,0.9813951,0.004986861,-0.011300018,-0.0028710798,0.99993205,-0.16998291,-0.08139038,9.749176,-0.23582458,-0.051620483,9.80365,-0.0021209717,0.0,0.004257202,10.9375,25.131226,-26.133728,0,0.0,0.0,0.0,0.0
0.154205322,0.9242677,-0.38120803,0.02024021,0.38098583,0.9244743,0.014038218,-0.024063036,-0.0052638375,0.9996966,0.98057264,-0.19586104,0.01075957,0.19581573,0.9806273,0.005125401,-0.011554995,-0.0029189351,0.999929,-0.2896881,-0.05265808,9.835373,-0.23597717,-0.051620483,9.80365,0.007461548,0.004272461,-0.008529663,10.9375,25.131226,-26.133728,0,0.0,0.0,0.0,0.0
0.158599854,0.9192557,-0.39314908,0.020069571,0.39292398,0.91945964,0.014304672,-0.02407703,-0.005263835,0.9996962,0.979803,-0.1996638,0.010975396,0.19961646,0.97985995,0.005263,-0.011805182,-0.0029658333,0.9999259,-0.25616455,-0.04788208,9.792282,-0.2361145,-0.051620483,9.80365,-0.01914978,0.007461548,0.0053253174,11.296082,25.131226,-25.09613,0,0.0,0.0,0.0,0.0
0.162994385,0.9192505,-0.3931619,0.020054433,0.3929379,0.9194544,0.014264738,-0.02404749,-0.0052327216,0.9996972,0.9790091,-0.20350315,0.011302123,0.20345396,0.9790699,0.0053550857,-0.012155345,-0.0029432157,0.9999218,-0.17955017,0.0335083,9.797058,-0.23582458,-0.051315308,9.80365,0.004272461,0.0063934326,-0.008529663,11.296082,25.131226,-25.09613,0,0.0,0.0,0.0,0.0
0.167419434,0.91924846,-0.39316717,0.020048238,0.39294282,0.919452,0.014279156,-0.024047486,-0.0052482802,0.999697,0.97818846,-0.20740089,0.011503909,0.20734964,0.9782515,0.0054941745,-0.012393213,-0.002989006,0.99991876,-0.20828247,-0.11012268,9.945511,-0.23582458,-0.051467896,9.80365,-0.017028809,0.007461548,-0.0032043457,11.296082,25.131226,-25.09613,0,0.0,0.0,0.0,0.0
0.171813965,0.9252685,-0.378771,0.020266015,0.3785507,0.92547566,0.013929879,-0.024031939,-0.005217164,0.99969757,0.97736907,-0.2112176,0.011700689,0.21116428,0.9774344,0.0056324266,-0.012626323,-0.0030341917,0.9999157,-0.19392395,0.009567261,9.648621,-0.235672,-0.05116272,9.80365,0.017044067,0.010650635,-0.007461548,10.041809,23.15979,-25.61493,0,0.0,0.0,0.0,0.0
0.176239014,0.92526513,-0.37877974,0.020256791,0.37855995,0.92547226,0.013911227,-0.024016391,-0.005203163,0.99969804,0.97736907,-0.2112176,0.011700689,0.21116428,0.9774344,0.0056324266,-0.012626323,-0.0030341917,0.9999157,-0.19392395,0.009567261,9.648621,-0.23551941,-0.05102539,9.80365,0.017044067,0.010650635,-0.007461548,10.041809,23.15979,-25.61493,0,0.0,0.0,0.0,0.0
0.180633545,0.9252748,-0.37875456,0.020283349,0.3785352,0.9254827,0.01388777,-0.024031946,-0.005172042,0.99969786,0.97589517,-0.21791002,0.0119953705,0.21785197,0.9759636,0.005966005,-0.013007098,-0.0032089802,0.9999103,-0.29927063,0.028717041,9.801849,-0.235672,-0.050720215,9.80365,-0.0053253174,-0.004257202,-0.0063934326,10.041809,23.15979,-25.61493,0,0.0,0.0,0.0,0.0
0.185028076,0.8974427,-0.44070694,0.019341387,0.44047275,0.8976362,0.015273342,-0.024092592,-0.005187594,0.9996963,0.9751516,-0.22120322,0.012181541,0.22114314,0.9752223,0.0060935197,-0.013227616,-0.0032482415,0.9999072,-0.37109375,-0.0909729,9.816223,-0.23626709,-0.050872803,9.80365,0.0010681152,0.008529663,-0.0063934326,13.447571,26.20697,-26.824951,0,0.0,0.0,0.0,0.0
0.189453125,0.8974427,-0.44070694,0.019341387,0.44047275,0.8976362,0.015273342,-0.024092592,-0.005187594,0.9996963,0.97410643,-0.225752,0.012355931,0.22568977,0.9741792,0.0062371376,-0.013444939,-0.0032870288,0.9999042,-0.24180603,-0.06703186,9.629471,-0.23626709,-0.050872803,9.80365,-0.004257202,-0.004257202,0.010650635,13.447571,26.20697,-26.824951,0,0.0,0.0,0.0,0.0
0.193847656,0.8974323,-0.4407291,0.019314481,0.44049537,0.8976251,0.015260803,-0.024063045,-0.005187597,0.99969697,0.9730615,-0.23020501,0.012525786,0.23014063,0.9731364,0.0063795885,-0.013657913,-0.00332504,0.9999012,-0.16519165,-0.0335083,9.907196,-0.23597717,-0.050872803,9.80365,-0.0084991455,-0.004257202,0.004257202,13.447571,26.20697,-26.824951,0,0.0,0.0,0.0,0.0
0.198242187,0.92355955,-0.38291928,0.020261237,0.3826992,0.9237675,0.0139621515,-0.024063053,-0.0051409197,0.99969727,0.97198683,-0.23468317,0.012860503,0.2346165,0.97206634,0.0064894427,-0.014024225,-0.0032903664,0.9998962,-0.24180603,0.04309082,9.667786,-0.23597717,-0.05041504,9.80365,0.004272461,0.009597778,0.007461548,10.758972,24.594116,-25.61493,0,0.0,0.0,0.0,0.0
0.202667236,0.9235277,-0.38300112,0.020169282,0.38278195,0.9237336,0.013943197,-0.0239713,-0.0051564905,0.99969935,0.9712473,-0.23771614,0.013026431,0.23764741,0.971329,0.0066132233,-0.01422502,-0.0033273776,0.99989325,-0.27053833,0.04309082,9.840164,-0.2350769,-0.050567627,9.80365,-0.0053253174,0.0010681152,0.008514404,10.758972,24.594116,-25.61493,0,0.0,0.0,0.0,0.0
0.207061768,0.9234443,-0.3832148,0.019929076,0.3830003,0.9236451,0.013800772,-0.023696052,-0.0051114014,0.9997061,0.970513,-0.2406879,0.013186542,0.24061716,0.97059673,0.0067354776,-0.014419963,-0.00336396,0.9998904,-0.4668579,-0.08618164,9.543274,-0.2323761,-0.050125122,9.80365,-0.010635376,-0.025558472,0.01171875,10.758972,24.594116,-25.61493,0,0.0,0.0,0.0,0.0
0.211486816,0.9232611,-0.3836827,0.01940289,0.38347965,0.92345166,0.013430143,-0.023070546,-0.004958915,0.9997216,0.9697834,-0.24360253,0.013337689,0.24352981,0.9698692,0.006854142,-0.0146055,-0.003398909,0.9998875,-0.4093933,0.07182312,9.677353,-0.22624207,-0.04862976,9.8038025,0.0138549805,-0.08201599,-0.004257202,10.758972,24.594116,-25.61493,0,0.0,0.0,0.0,0.0
0.215881348,0.9230766,-0.38415274,0.018874079,0.3839597,0.9232568,0.01310664,-0.022460574,-0.0048515466,0.99973595,0.9690934,-0.24644443,0.011099523,0.24639152,0.9691522,0.0059279487,-0.012218039,-0.0030099074,0.99992085,-0.14604187,-0.07661438,9.878464,-0.22026062,-0.047576904,9.803955,0.02557373,-0.15551758,-0.0010681152,10.758972,24.594116,-25.61493,0,0.0,0.0,0.0,0.0
0.220275879,0.9229544,-0.38446346,0.018524425,0.38428187,0.923129,0.012670973,-0.021971958,-0.0045761294,0.9997482,0.96837115,-0.2492594,0.011271479,0.24920467,0.96843195,0.0060469024,-0.012422907,-0.0030467405,0.99991816,-0.16040039,0.0335083,9.595947,-0.21546936,-0.0448761,9.804092,0.024505615,-0.13208008,0.01171875,10.758972,24.594116,-25.61493,0,0.0,0.0,0.0,0.0
0.224700928,0.93528485,-0.3534017,0.018691344,0.3532327,0.93546116,0.011788925,-0.021651255,-0.004423609,0.9997558,0.9676538,-0.25202256,0.011431299,0.25196615,0.9677165,0.006156777,-0.012613904,-0.0030773284,0.9999157,-0.08378601,0.0143585205,9.672562,-0.21232605,-0.043380737,9.804245,0.05645752,-0.104385376,0.0063934326,9.683228,24.235535,-26.306152,0,0.0,0.0,0.0,0.0
0.229095459,0.93528163,-0.35341096,0.018681627,0.35324243,0.9354578,0.0117705185,-0.021635704,-0.0044096066,0.9997562,0.96711326,-0.254082,0.011586158,0.254024,0.9671777,0.006253059,-0.012794664,-0.0031042541,0.99991333,-0.15560913,-0.004776001,9.682144,-0.21217346,-0.04324341,9.804245,0.030899048,-0.06071472,0.0053253174,9.683228,24.235535,-26.306152,0,0.0,0.0,0.0,0.0
0.23348999,0.9352984,-0.35336405,0.018730974,0.35319242,0.93547493,0.011901133,-0.021727787,-0.0045154714,0.99975365,0.966535,-0.25626674,0.011727076,0.25620937,0.9666015,0.006181796,-0.012919599,-0.0029703353,0.99991214,-0.13166809,0.0622406,9.730026,-0.21307373,-0.044281006,9.804092,0.009597778,-0.003189087,0.010650635,9.683228,24.235535,-26.306152,0,0.0,0.0,0.0,0.0
0.237915039,0.92149585,-0.3879527,0.018390276,0.38776976,0.9216676,0.0127891265,-0.021911295,-0.004653933,0.9997491,0.96600825,-0.25823826,0.011876666,0.2581793,0.9660766,0.0062810513,-0.013095776,-0.0030012382,0.9999097,-0.15083313,-0.05265808,9.662994,-0.21487427,-0.045639038,9.804092,-0.031936646,0.030883789,-0.0095825195,11.476135,26.028442,-25.959778,0,0.0,0.0,0.0,0.0
0.24230957,0.9215065,-0.38792562,0.018422123,0.387739,0.9216782,0.012950338,-0.022003038,-0.0047908463,0.9997464,0.96529406,-0.26088846,0.012020983,0.2608278,0.9653642,0.0063915215,-0.013272101,-0.003034292,0.9999073,-0.14125061,-0.01914978,9.768341,-0.21577454,-0.04698181,9.804092,-0.031936646,0.04685974,0.0010681152,11.476135,26.028442,-25.959778,0,0.0,0.0,0.0,0.0
0.246734619,0.92150706,-0.38792437,0.018423578,0.387737,0.9216786,0.012982983,-0.022017032,-0.0048204074,0.99974597,0.96457714,-0.26350626,0.012468451,0.26343453,0.9646511,0.0071132598,-0.013902093,-0.003576667,0.999897,-0.27053833,-0.15322876,9.701294,-0.21591187,-0.04727173,9.804092,-0.03086853,0.027694702,0.0010681152,11.476135,26.028442,-25.959778,0,0.0,0.0,0.0,0.0
0.25112915,0.90320915,-0.42883083,0.017810723,0.42863616,0.9033719,0.013789416,-0.022003034,-0.0048204088,0.99974626,0.9638778,-0.2660467,0.012599516,0.2659733,0.9639534,0.0072132344,-0.014064403,-0.003601542,0.9998946,-0.16040039,-0.04309082,9.720444,-0.21577454,-0.04727173,9.804092,-0.015960693,0.007461548,0.004257202,11.834717,23.876953,-25.268555,0,0.0,0.0,0.0,0.0
0.255523682,0.9032116,-0.4288256,0.017816808,0.42863116,0.90337443,0.013776664,-0.022003034,-0.004806405,0.99974626,0.9629449,-0.26939797,0.012720701,0.2693228,0.9630221,0.0073232586,-0.014223188,-0.0036259193,0.9998923,-0.21786499,0.0143585205,9.691727,-0.21577454,-0.0471344,9.804092,-0.0053253174,-0.0010528564,0.0,11.834717,23.876953,-25.268555,0,0.0,0.0,0.0,0.0
0.25994873,0.9032116,-0.4288256,0.017816808,0.42863116,0.90337443,0.013776664,-0.022003034,-0.004806405,0.99974626,0.96201944,-0.27267894,0.012838943,0.27260208,0.9620981,0.007431713,-0.014378795,-0.003649529,0.99988997,-0.19871521,-0.07182312,9.691727,-0.21577454,-0.0471344,9.804092,0.0010681152,-0.0010528564,0.0053253174,11.834717,23.876953,-25.268555,0,0.0,0.0,0.0,0.0
0.264343262,0.9208878,-0.38939467,0.018372802,0.38920814,0.9210586,0.012967588,-0.021971934,-0.004790849,0.99974704,0.9611027,-0.27588895,0.012918475,0.2758133,0.96118313,0.0073461533,-0.014443743,-0.0034973207,0.99988955,-0.13166809,0.0,9.677353,-0.21546936,-0.04698181,9.804092,0.010665894,-0.0053253174,0.0,10.758972,24.235535,-25.61493,0,0.0,0.0,0.0,0.0
0.268737793,0.9208795,-0.38941517,0.018349916,0.3892294,0.92104995,0.012941563,-0.021940831,-0.004775293,0.9997479,0.9604336,-0.27820387,0.013038177,0.2781266,0.9605156,0.007443987,-0.014594318,-0.0035231914,0.9998873,-0.14125061,0.004776001,9.7444,-0.21516418,-0.046829224,9.804092,-0.0021209717,-0.01171875,-0.0053253174,10.758972,24.235535,-25.61493,0,0.0,0.0,0.0,0.0
0.273162842,0.92087704,-0.3894214,0.018342996,0.38923603,0.9210474,0.01292191,-0.021926835,-0.0047597354,0.99974823,0.9597722,-0.28047132,0.013154586,0.28039238,0.9598558,0.007539997,-0.01474126,-0.0035482335,0.999885,-0.16519165,-0.0335083,9.739609,-0.21502686,-0.046676636,9.804092,0.0063934326,-0.008514404,-0.0095825195,10.758972,24.235535,-25.61493,0,0.0,0.0,0.0,0.0
0.277557373,0.93312305,-0.35906622,0.018785374,0.35888723,0.93330026,0.012277526,-0.021940837,-0.0047146115,0.9997482,0.9591189,-0.2826921,0.013268115,0.28261155,0.959204,0.007634284,-0.014884981,-0.0035724635,0.9998828,-0.28012085,0.08618164,9.907196,-0.21516418,-0.04623413,9.804092,0.0021362305,-0.019165039,-0.0063934326,10.400391,25.66986,-25.959778,0,0.0,0.0,0.0,0.0
0.281982422,0.9331141,-0.35909083,0.018757468,0.35891223,0.9332907,0.012267416,-0.021911288,-0.0047146147,0.9997488,0.95865583,-0.28425702,0.013297598,0.2841746,0.9587411,0.007764906,-0.014956183,-0.0036650335,0.9998814,-0.10772705,-0.028717041,9.768341,-0.21487427,-0.04623413,9.804092,-0.004257202,-0.004257202,0.0010681152,10.400391,25.66986,-25.959778,0,0.0,0.0,0.0,0.0
0.286376953,0.9331524,-0.358985,0.018877458,0.35880697,0.93333185,0.012212547,-0.022003055,-0.004622804,0.99974716,0.95820355,-0.28577268,0.013412619,0.28568873,0.95829034,0.0078457855,-0.015095294,-0.003686025,0.99987924,-0.19392395,0.04788208,9.653412,-0.21577454,-0.045333862,9.804092,0.0053253174,0.0053253174,-0.008529663,10.400391,25.66986,-25.959778,0,0.0,0.0,0.0,0.0
0.290771484,0.9086691,-0.41712558,0.01807601,0.41693616,0.9088371,0.013398612,-0.02201705,-0.0046383627,0.99974686,0.95775855,-0.28725517,0.013527426,0.28716972,0.95784694,0.007924156,-0.015233459,-0.0037047607,0.9998771,-0.25138855,-0.09576416,9.557648,-0.21591187,-0.04548645,9.804092,0.012786865,0.024490356,-0.008529663,12.371826,25.848389,-25.440979,0,0.0,0.0,0.0,0.0
0.295196533,0.90867144,-0.41712022,0.018082578,0.41693103,0.9088395,0.0133843655,-0.02201705,-0.0046228026,0.99974686,0.9569552,-0.28991535,0.013629802,0.28982833,0.9570451,0.008018907,-0.015369139,-0.0037234325,0.99987495,-0.23222351,0.0143585205,9.62468,-0.21591187,-0.045333862,9.804092,0.0010681152,-0.0010528564,-0.0053253174,12.371826,25.848389,-25.440979,0,0.0,0.0,0.0,0.0
0.299591064,0.90866685,-0.4171307,0.018069701,0.4169417,0.90883464,0.013378738,-0.022003055,-0.004622804,0.99974716,0.9561601,-0.29252216,0.013734171,0.292431,0.9562508,0.008277902,-0.015554782,-0.0038987023,0.9998714,-0.16998291,-0.04788208,9.854523,-0.21577454,-0.045333862,9.804092,-0.009567261,0.0032043457,0.0,12.371826,25.848389,-25.440979,0,0.0,0.0,0.0,0.0
0.303985596,0.92510575,-0.37925267,0.018619606,0.3790706,0.9252815,0.012626606,-0.02201705,-0.0046228026,0.99974686,0.95537466,-0.29507285,0.013830996,0.29498017,0.9554668,0.008366408,-0.015683757,-0.003913184,0.99986935,-0.25138855,-0.05265808,9.768341,-0.21591187,-0.045333862,9.804092,0.0032043457,-0.013839722,0.003189087,10.758972,24.952698,-26.306152,0,0.0,0.0,0.0,0.0
0.308410645,0.92511094,-0.37923953,0.018634178,0.3790573,0.925287,0.01263224,-0.022032605,-0.0046228017,0.99974656,0.95484364,-0.2967818,0.0139327645,0.2966877,0.9549373,0.008442279,-0.015810432,-0.003927376,0.9998673,-0.24180603,-0.06703186,9.801849,-0.21606445,-0.045333862,9.804092,0.0010681152,-0.0063934326,0.015960693,10.758972,24.952698,-26.306152,0,0.0,0.0,0.0,0.0
0.312805176,0.92510784,-0.37924728,0.01862558,0.3790655,0.92528385,0.012612104,-0.022017054,-0.004607244,0.999747,0.9543204,-0.29845545,0.014032575,0.29835996,0.95441544,0.0085171005,-0.015934883,-0.0039412845,0.9998653,-0.20350647,0.02394104,9.878464,-0.21591187,-0.045181274,9.804092,0.0032043457,0.0010681152,0.0063934326,10.758972,24.952698,-26.306152,0,0.0,0.0,0.0,0.0
0.317230225,0.9458834,-0.32392973,0.019344445,0.32376,0.94607025,0.011427965,-0.022003064,-0.004546563,0.9997476,0.95384103,-0.2999776,0.014168749,0.29988062,0.9539381,0.0085841715,-0.016091168,-0.003939002,0.9998628,-0.16040039,0.07661438,9.830582,-0.21577454,-0.04458618,9.804092,0.0010681152,0.0021362305,-0.007461548,9.683228,26.745605,-25.61493,0,0.0,0.0,0.0,0.0
0.321624756,0.9458898,-0.3239095,0.019368012,0.32374018,0.94607717,0.011402646,-0.022017062,-0.004515443,0.99974734,0.9536881,-0.30045858,0.014273551,0.30036038,0.9537867,0.008638425,-0.016209412,-0.0039511533,0.9998608,-0.25616455,0.05265808,9.892838,-0.21591187,-0.044281006,9.804092,0.0,0.007461548,-0.01171875,9.683228,26.745605,-25.61493,0,0.0,0.0,0.0,0.0
0.326019287,0.94589245,-0.3239011,0.019377789,0.32373133,0.9460801,0.011422227,-0.022032615,-0.0045310007,0.999747,0.95353806,-0.30092946,0.014376668,0.30083,0.95363814,0.008691181,-0.016325573,-0.003962439,0.99985886,-0.25616455,-0.07182312,9.739609,-0.21606445,-0.044433594,9.804092,0.0021362305,0.009597778,0.0,9.683228,26.745605,-25.61493,0,0.0,0.0,0.0,0.0
0.330444336,0.92352796,-0.38307855,0.018625595,0.38289857,0.9237049,0.012562731,-0.022017067,-0.0044703204,0.9997476,0.95339715,-0.30137268,0.014437534,0.3012739,0.9534985,0.008638797,-0.016369663,-0.0038865516,0.99985844,-0.19392395,0.10055542,9.701294,-0.21591187,-0.0438385,9.804092,0.0053253174,-0.004257202,-0.0010681152,10.9375,25.131226,-25.440979,0,0.0,0.0,0.0,0.0
0.334838867,0.9235349,-0.38306078,0.018646164,0.38288093,0.9237124,0.01255396,-0.022032622,-0.00445476,0.99974734,0.9528699,-0.30303124,0.014526589,0.30293113,0.95297265,0.008709251,-0.016482618,-0.0038982271,0.9998566,-0.22744751,0.0,9.643829,-0.21606445,-0.043685913,9.804092,0.0053253174,0.0,0.008514404,10.9375,25.131226,-25.440979,0,0.0,0.0,0.0,0.0
0.339233398,0.92352796,-0.38307855,0.018625595,0.38289857,0.9237049,0.012562731,-0.022017067,-0.0044703204,0.9997476,0.95235056,-0.30465537,0.014614062,0.30455396,0.9524546,0.008778416,-0.016593624,-0.003909358,0.9998547,-0.18913269,-0.07661438,9.706085,-0.21591187,-0.0438385,9.804092,-0.010635376,0.0,-0.0063934326,10.9375,25.131226,-25.440979,0,0.0,0.0,0.0,0.0
0.343658447,0.91797227,-0.39621434,0.01847113,0.39603224,0.9181473,0.012804703,-0.022032622,-0.0044392,0.99974734,0.95183873,-0.3062465,0.014699206,0.3061438,0.9519442,0.008846716,-0.016702099,-0.0039205765,0.99985284,-0.25138855,0.0335083,9.691727,-0.21606445,-0.043533325,9.804092,-0.0084991455,-0.003189087,-0.0063934326,11.654663,25.848389,-24.749756,0,0.0,0.0,0.0,0.0
0.348052979,0.9179749,-0.39620766,0.018479336,0.3960251,0.91815007,0.01282501,-0.022048173,-0.004454758,0.999747,0.95125306,-0.30805784,0.014768321,0.30795613,0.95136,0.008784808,-0.01675622,-0.0038085796,0.99985236,-0.2609558,-0.08618164,9.797058,-0.21621704,-0.043685913,9.804092,0.007461548,-0.003189087,-0.0010681152,11.654663,25.848389,-24.749756,0,0.0,0.0,0.0,0.0
0.352478027,0.9179838,-0.39618587,0.018506248,0.3960037,0.9181596,0.012802165,-0.022063728,-0.0044236374,0.9997468,0.9506694,-0.3098503,0.014848374,0.30974725,0.95077765,0.008857703,-0.016862065,-0.0038215034,0.9998505,-0.24659729,0.0335083,9.76355,-0.21636963,-0.043380737,9.804092,0.0021362305,0.007461548,0.003189087,11.654663,25.848389,-24.749756,0,0.0,0.0,0.0,0.0
0.356872559,0.9144887,-0.4041921,0.018415863,0.40400767,0.91466326,0.012990148,-0.02209483,-0.0044391938,0.99974597,0.95009434,-0.3116054,0.014927103,0.31150103,0.9502039,0.008928959,-0.016966103,-0.003833546,0.9998487,-0.29447937,-0.09576416,9.720444,-0.2166748,-0.043533325,9.804092,0.0021362305,0.0,0.008514404,11.296082,24.414063,-25.09613,0,0.0,0.0,0.0,0.0
0.36126709,0.91449094,-0.4041866,0.01842223,0.4040025,0.91466576,0.01297581,-0.022094835,-0.0044236346,0.9997461,0.94947284,-0.31349027,0.015002971,0.3133846,0.9495836,0.009002214,-0.017068682,-0.0038456589,0.99984694,-0.20350647,0.009567261,9.92157,-0.2166748,-0.043380737,9.804092,-0.0053253174,-0.008514404,-0.004257202,11.296082,24.414063,-25.09613,0,0.0,0.0,0.0,0.0
0.365692139,0.9145075,-0.40414718,0.018468052,0.4039635,0.91468346,0.012945687,-0.022124385,-0.0043785092,0.9997456,0.9488148,-0.3154716,0.015105114,0.3153612,0.94892645,0.009267589,-0.017257305,-0.004029659,0.999843,-0.29447937,0.07661438,9.749176,-0.21696472,-0.042938232,9.804092,-0.010635376,0.0053253174,0.008514404,11.296082,24.414063,-25.09613,0,0.0,0.0,0.0,0.0
0.37008667,0.91633445,-0.39998522,0.018518675,0.39980286,0.9165112,0.012841132,-0.022108838,-0.0043629515,0.9997461,0.9482119,-0.31727573,0.015177568,0.3171641,0.94832474,0.009333795,-0.01735465,-0.0040366356,0.9998412,-0.20350647,-0.028717041,9.844955,-0.21681213,-0.042785645,9.804092,0.010665894,-0.003189087,-0.0095825195,11.117554,24.235535,-26.651001,0,0.0,0.0,0.0,0.0
0.374481201,0.9163446,-0.39996082,0.018545095,0.39977878,0.916522,0.012819765,-0.022124391,-0.004333387,0.99974585,0.9476466,-0.31895655,0.015249038,0.3188437,0.9477607,0.0093971975,-0.017449737,-0.0040431623,0.99983954,-0.22265625,0.05744934,9.701294,-0.21696472,-0.042495728,9.804092,0.0021362305,0.0,-0.0032043457,11.117554,24.235535,-26.651001,0,0.0,0.0,0.0,0.0
0.37890625,0.91632855,-0.39999953,0.018503215,0.3998181,0.91650504,0.012802515,-0.022079289,-0.004333391,0.9997468,0.94708997,-0.32060227,0.015319396,0.32048824,0.9472052,0.009459136,-0.017543234,-0.004048967,0.9998379,-0.10293579,-0.0622406,9.720444,-0.21652222,-0.042495728,9.804092,0.010665894,0.009597778,-0.0010681152,11.117554,24.235535,-26.651001,0,0.0,0.0,0.0,0.0
0.383300781,0.90997624,-0.4142549,0.01833449,0.41407064,0.9101507,0.013087818,-0.022108842,-0.004317829,0.99974626,0.94656456,-0.32214814,0.015365632,0.32203388,0.94668067,0.009475337,-0.01759881,-0.0040207645,0.99983704,-0.3088379,0.028717041,9.653412,-0.21681213,-0.04234314,9.804092,0.0021362305,-0.0021209717,-0.004257202,11.654663,24.414063,-26.824951,0,0.0,0.0,0.0,0.0
0.38772583,0.90995735,-0.4142987,0.018286362,0.4141147,0.91013074,0.013084181,-0.022063738,-0.0043333927,0.99974716,0.9459229,-0.32402438,0.015430231,0.32390893,0.94604015,0.009540625,-0.017689014,-0.004026706,0.99983543,-0.09815979,-0.08618164,9.696503,-0.21636963,-0.042495728,9.804092,0.0053253174,0.008529663,-0.0021362305,11.654663,24.414063,-26.824951,0,0.0,0.0,0.0,0.0
0.392120361,0.90995157,-0.41431174,0.018272016,0.41412798,0.9101247,0.013078002,-0.022048187,-0.0043333946,0.9997476,0.9452902,-0.3258627,0.015492382,0.3257461,0.9454085,0.009604906,-0.017776512,-0.0040328396,0.9998339,-0.18434143,-0.05744934,9.8688965,-0.21621704,-0.042495728,9.804092,0.0063934326,0.0010681152,0.0,11.654663,24.414063,-26.824951,0,0.0,0.0,0.0,0.0
0.396514893,0.92961,-0.3680598,0.018903894,0.36788392,0.9297919,0.012191086,-0.022063734,-0.0043785153,0.999747,0.9446665,-0.32766336,0.0155528085,0.3275456,0.9447859,0.009668073,-0.01786195,-0.0040388503,0.9998323,-0.22265625,-0.15322876,9.648621,-0.21636963,-0.042938232,9.804092,-0.0021209717,0.0021362305,-0.019180298,10.400391,24.952698,-25.61493,0,0.0,0.0,0.0,0.0
0.400939941,0.92961,-0.3680598,0.018903894,0.36788392,0.9297919,0.012191086,-0.022063734,-0.0043785153,0.999747,0.9443593,-0.3285447,0.015615208,0.32842466,0.94447947,0.009787371,-0.017963832,-0.0041143764,0.9998302,-0.22265625,-0.0335083,9.821014,-0.21636963,-0.042938232,9.804092,-0.004257202,0.0010681152,0.004257202,10.400391,24.952698,-25.61493,0,0.0,0.0,0.0,0.0
0.405334473,0.929605,-0.36807275,0.01888926,0.36789703,0.92978656,0.012185626,-0.022048183,-0.0043785167,0.99974734,0.9440808,-0.32934096,0.01568264,0.32921994,0.9442021,0.009832524,-0.018045833,-0.0041196593,0.9998287,-0.18434143,-0.05265808,9.658203,-0.21621704,-0.042938232,9.804092,0.007461548,-0.0063934326,-0.0063934326,10.400391,24.952698,-25.61493,0,0.0,0.0,0.0,0.0
0.409729004,0.9236495,-0.38277978,0.018742593,0.38260087,0.92382926,0.012487296,-0.022094836,-0.0043629524,0.99974626,0.9438072,-0.3301213,0.015748363,0.3299993,0.9439295,0.0098767895,-0.018125882,-0.0041248365,0.9998272,-0.34236145,0.004776001,9.725235,-0.2166748,-0.042785645,9.804092,0.0032043457,-0.0095825195,-0.007461548,11.476135,26.387024,-26.651001,0,0.0,0.0,0.0,0.0
0.414154053,0.92364746,-0.38278496,0.01873657,0.3826058,0.92382705,0.0125017725,-0.022094836,-0.004378512,0.99974626,0.9434493,-0.33113888,0.015823696,0.33101168,0.94357204,0.010152198,-0.018292585,-0.0043402556,0.9998233,-0.19392395,-0.08618164,9.682144,-0.2166748,-0.042938232,9.804092,-0.012756348,0.0053253174,-0.0032043457,11.476135,26.387024,-26.651001,0,0.0,0.0,0.0,0.0
0.418548584,0.9236386,-0.38280752,0.018710425,0.3826298,0.92381793,0.012442702,-0.022048187,-0.0043333946,0.9997476,0.94308144,-0.33218226,0.015883936,0.3320541,0.94320524,0.01019567,-0.018368632,-0.0043410207,0.99982184,-0.12689209,0.05265808,9.739609,-0.21621704,-0.042495728,9.804092,-0.011703491,0.0053253174,0.003189087,11.476135,26.387024,-26.651001,0,0.0,0.0,0.0,0.0
0.422973633,0.92362976,-0.38282993,0.018684437,0.38265184,0.9238084,0.012464508,-0.02203263,-0.004362959,0.9997477,0.94271976,-0.3332048,0.015942317,0.3330758,0.9428445,0.010237261,-0.018442228,-0.004340868,0.99982053,-0.28012085,-0.028717041,9.777908,-0.21606445,-0.042785645,9.804092,-0.012756348,-0.0063934326,0.0095825195,11.476135,26.387024,-26.651001,0,0.0,0.0,0.0,0.0
0.427368164,0.9236396,-0.38280484,0.018713513,0.38262635,0.9238188,0.012475904,-0.022063736,-0.0043629557,0.99974704,0.94271976,-0.3332048,0.015942317,0.3330758,0.9428445,0.010237261,-0.018442228,-0.004340868,0.99982053,-0.28012085,-0.028717041,9.777908,-0.21636963,-0.042785645,9.804092,-0.012756348,-0.0063934326,0.0095825195,11.476135,26.387024,-26.651001,0,0.0,0.0,0.0,0.0
0.431762695,0.9236515,-0.38277453,0.018748617,0.38259596,0.9238315,0.012472819,-0.02209484,-0.0043473933,0.9997464,0.9420886,-0.334976,0.016129097,0.33484092,0.94221586,0.010531377,-0.01872485,-0.0045208083,0.99981445,-0.31362915,-0.0143585205,9.830582,-0.2166748,-0.042633057,9.804092,-0.010635376,0.008529663,-0.0138549805,11.476135,26.387024,-26.651001,0,0.0,0.0,0.0,0.0
0.436187744,0.9135593,-0.40628657,0.01845604,0.4061033,0.9137355,0.01294765,-0.022124391,-0.004333387,0.99974585,0.94174397,-0.33594096,0.016182953,0.3358051,0.94187224,0.010567265,-0.018792251,-0.00451734,0.9998132,-0.2753296,0.0,9.701294,-0.21696472,-0.042495728,9.804092,0.0032043457,0.004272461,0.01171875,11.476135,24.594116,-26.651001,0,0.0,0.0,0.0,0.0
0.440582275,0.9135482,-0.40631273,0.018427093,0.40613064,0.9137239,0.012901431,-0.022079293,-0.0043022726,0.999747,0.94123286,-0.33736813,0.0162309,0.33723143,0.94136196,0.0106107965,-0.018858897,-0.004513661,0.99981195,-0.10772705,0.04788208,9.643829,-0.21652222,-0.04219055,9.804092,-0.0074310303,0.0032043457,-0.0021362305,11.476135,24.594116,-26.651001,0,0.0,0.0,0.0,0.0
0.444976807,0.9135458,-0.40631858,0.01842069,0.40613618,0.91372126,0.012915764,-0.02207929,-0.0043178317,0.99974686,0.9407297,-0.33876655,0.016277151,0.33862907,0.9408596,0.010652741,-0.018923307,-0.004509433,0.99981076,-0.21307373,-0.0909729,9.701294,-0.21652222,-0.04234314,9.804092,0.0063934326,-0.0010528564,0.008514404,11.476135,24.594116,-26.651001,0,0.0,0.0,0.0,0.0
0.449401855,0.9173085,-0.3977456,0.018532729,0.39756536,0.9174856,0.012722269,-0.02206374,-0.004302274,0.9997473,0.94021547,-0.34018597,0.016382443,0.34004664,0.94034725,0.010734464,-0.0190569,-0.0045219148,0.99980813,-0.18434143,0.0,9.7348175,-0.21636963,-0.04219055,9.804092,-0.0010528564,0.004272461,0.003189087,10.9375,24.055481,-25.09613,0,0.0,0.0,0.0,0.0
0.453796387,0.91730326,-0.3977583,0.018518282,0.39757827,0.91748005,0.012716342,-0.022048188,-0.0043022754,0.99974763,0.93979245,-0.3413507,0.01642716,0.34121063,0.93992513,0.010771148,-0.019117039,-0.004517522,0.99980706,-0.15083313,-0.028717041,9.662994,-0.21621704,-0.04219055,9.804092,0.0,0.0010681152,0.017028809,10.9375,24.055481,-25.09613,0,0.0,0.0,0.0,0.0
0.458221436,0.91729814,-0.39777103,0.01850384,0.39759117,0.9174747,0.012710415,-0.022032637,-0.0043022768,0.999748,0.9393764,-0.3424919,0.016470622,0.3423511,0.9395099,0.010807119,-0.019175664,-0.004513217,0.9998059,-0.18913269,-0.0622406,9.653412,-0.21606445,-0.04219055,9.804092,-0.009567261,-0.0010528564,0.0053253174,10.9375,24.055481,-25.09613,0,0.0,0.0,0.0,0.0
0.462615967,0.9126242,-0.40838724,0.01835664,0.40820462,0.9127985,0.012958959,-0.022048187,-0.0043333946,0.9997476,0.9389673,-0.34361,0.016512858,0.34346852,0.9391016,0.010842387,-0.019232804,-0.0045089982,0.99980485,-0.25616455,-0.11012268,9.753967,-0.21621704,-0.042495728,9.804092,-0.0084991455,0.008529663,0.0010681152,11.834717,25.31128,-25.268555,0,0.0,0.0,0.0,0.0
0.467010498,0.9126222,-0.40839207,0.018350855,0.40820915,0.9127963,0.012971835,-0.022048185,-0.0043473975,0.99974746,0.938485,-0.34492427,0.016527604,0.34478083,0.9386194,0.010947292,-0.019289114,-0.0045754677,0.9998034,-0.22265625,-0.09576416,9.643829,-0.21621704,-0.042633057,9.804092,-0.004257202,0.0,0.0,11.834717,25.31128,-25.268555,0,0.0,0.0,0.0,0.0
0.471435547,0.9126191,-0.40839916,0.018342271,0.4082167,0.91279316,0.012952849,-0.022032633,-0.004333396,0.9997479,0.93801063,-0.34621048,0.016565932,0.34606636,0.93814576,0.010984757,-0.019344298,-0.0045709065,0.9998025,-0.16998291,-0.004776001,9.706085,-0.21606445,-0.042495728,9.804092,0.0,-0.0053253174,0.0021362305,11.834717,25.31128,-25.268555,0,0.0,0.0,0.0,0.0
0.475830078,0.89822274,-0.43917516,0.017919565,0.43898645,0.898391,0.013582197,-0.022063738,-0.0043333927,0.99974716,0.93754387,-0.3474705,0.016603231,0.34732568,0.93767977,0.011021228,-0.019398065,-0.0045661563,0.9998014,-0.3040619,-0.02394104,9.730026,-0.21636963,-0.042495728,9.804092,0.004272461,0.0032043457,0.0,11.834717,23.15979,-25.61493,0,0.0,0.0,0.0,0.0
0.48022064,0.89822614,-0.43916774,0.017927809,0.4389778,0.89839435,0.013636233,-0.022094836,-0.004378512,0.99974626,0.9368478,-0.3493416,0.01663278,0.349196,0.9369843,0.011068609,-0.01945138,-0.004561501,0.9998004,-0.2896881,-0.1484375,9.773117,-0.2166748,-0.042938232,9.804092,0.012786865,0.0,0.0010681152,11.834717,23.15979,-25.61493,0,0.0,0.0,0.0,0.0
0.484645689,0.8982374,-0.43914372,0.017954724,0.43895337,0.89840615,0.013648726,-0.022124385,-0.0043785092,0.9997456,0.9361075,-0.35132214,0.016594382,0.35117546,0.9362433,0.011146951,-0.01945255,-0.0046072043,0.99980015,-0.29927063,-0.06703186,9.701294,-0.21696472,-0.042938232,9.804092,-0.003189087,-0.003189087,0.0095825195,11.834717,23.15979,-25.61493,0,0.0,0.0,0.0,0.0
0.48904022,0.91063327,-0.41280785,0.018352134,0.41262203,0.9108076,0.013140924,-0.022139939,-0.0043940675,0.99974525,0.9354331,-0.35311276,0.016624639,0.35296535,0.9355694,0.011193266,-0.019505989,-0.0046026306,0.99979913,-0.24180603,-0.06703186,9.883255,-0.21711731,-0.04309082,9.804092,-0.004257202,0.0063934326,-0.0063934326,11.834717,24.952698,-25.959778,0,0.0,0.0,0.0,0.0
0.493465269,0.91064334,-0.41278416,0.018379483,0.4125987,0.91081834,0.013118526,-0.022155493,-0.004362947,0.999745,0.9349751,-0.354322,0.016660893,0.35417384,0.9351122,0.01122951,-0.019558668,-0.004598459,0.9997982,-0.25138855,0.028717041,9.538498,-0.2172699,-0.042785645,9.804092,0.01171875,-0.004257202,0.0,11.834717,24.952698,-25.959778,0,0.0,0.0,0.0,0.0
0.497859801,0.9106504,-0.41276786,0.018398339,0.41258326,0.910826,0.013077106,-0.022155497,-0.0043178247,0.99974525,0.9345317,-0.35549074,0.016639408,0.3553411,0.9346682,0.01131769,-0.01957566,-0.0046640737,0.9997975,-0.22265625,0.07661438,9.686935,-0.2172699,-0.04234314,9.804092,-0.004257202,-0.0021209717,-0.0010681152,11.834717,24.952698,-25.959778,0,0.0,0.0,0.0,0.0
0.502254332,0.9329298,-0.35955176,0.019089548,0.35937873,0.93311524,0.011948473,-0.022108844,-0.00428671,0.9997464,0.93408906,-0.35665044,0.016676022,0.35650024,0.9342263,0.011350261,-0.019627254,-0.004657149,0.9997965,-0.09336853,0.05265808,9.758759,-0.21681213,-0.042037964,9.804092,0.004272461,0.0063934326,0.007461548,10.220337,25.131226,-26.133728,0,0.0,0.0,0.0,0.0
0.506679381,0.9329273,-0.35955858,0.019081991,0.35938603,0.93311274,0.011929067,-0.022094848,-0.004271152,0.9997468,0.93406606,-0.35670853,0.016724328,0.35655785,0.93420416,0.011362077,-0.019676886,-0.0046497397,0.9997956,-0.18434143,-0.009567261,9.777908,-0.2166748,-0.041885376,9.804092,0.0010681152,0.0021362305,-0.004257202,10.220337,25.131226,-26.133728,0,0.0,0.0,0.0,0.0
0.511073912,0.93292546,-0.3595637,0.019076332,0.35939085,0.9331106,0.011943689,-0.022094848,-0.0042867116,0.9997467,0.9340434,-0.35676557,0.016771514,0.35661447,0.9341824,0.011373276,-0.019725246,-0.004642168,0.99979466,-0.20350647,-0.0909729,9.682144,-0.2166748,-0.042037964,9.804092,0.0138549805,-0.008514404,-0.0032043457,10.220337,25.131226,-26.133728,0,0.0,0.0,0.0,0.0
0.515468443,0.9284035,-0.37108928,0.018963102,0.37091327,0.9285872,0.012210136,-0.022139946,-0.0043022665,0.9997456,0.9340396,-0.35677353,0.016809072,0.3566206,0.934179,0.011456195,-0.019789949,-0.0047060796,0.99979305,-0.31362915,-0.07661438,9.701294,-0.21711731,-0.04219055,9.804092,-0.004257202,0.0010681152,-0.0032043457,10.578918,25.131226,-26.133728,0,0.0,0.0,0.0,0.0
0.519893492,0.9283986,-0.37110242,0.018948488,0.37092665,0.92858195,0.012204636,-0.022124395,-0.004302268,0.99974597,0.9339292,-0.3570607,0.016852336,0.35690734,0.9340694,0.011470597,-0.019836951,-0.004698003,0.9997922,-0.19392395,-0.03829956,9.816223,-0.21696472,-0.04219055,9.804092,-0.0053253174,0.0063934326,0.0021362305,10.578918,25.131226,-26.133728,0,0.0,0.0,0.0,0.0
0.524288023,0.92840064,-0.3710972,0.018954333,0.3709217,0.92858416,0.012190084,-0.022124395,-0.0042867083,0.99974597,0.93382066,-0.35734233,0.016894436,0.35718852,0.9339617,0.011484632,-0.0198827,-0.0046900883,0.99979126,-0.21786499,-0.004776001,9.634262,-0.21696472,-0.042037964,9.804092,-0.003189087,-0.003189087,-0.0032043457,10.578918,25.131226,-26.133728,0,0.0,0.0,0.0,0.0
0.528713072,0.91363394,-0.40611756,0.018477384,0.40593517,0.9138107,0.012901587,-0.022124395,-0.0042867083,0.99974597,0.9337143,-0.3576182,0.016935797,0.357464,0.9338561,0.01149812,-0.019927535,-0.0046820207,0.99979043,-0.20350647,-0.03829956,9.562439,-0.21696472,-0.042037964,9.804092,-0.0074310303,0.0021362305,-0.0010681152,11.117554,23.876953,-24.923706,0,0.0,0.0,0.0,0.0
0.533107603,0.913624,-0.40614143,0.018450044,0.40595946,0.9138002,0.012890075,-0.022094848,-0.0042867116,0.9997467,0.93337065,-0.35851777,0.01686075,0.35836285,0.93351084,0.01155822,-0.01988352,-0.0047458364,0.999791,-0.16040039,-0.04788208,9.710876,-0.2166748,-0.042037964,9.804092,-0.004257202,-0.0053253174,-0.0053253174,11.117554,23.876953,-24.923706,0,0.0,0.0,0.0,0.0
0.537502135,0.913624,-0.40614143,0.018450044,0.40595946,0.9138002,0.012890075,-0.022094848,-0.0042867116,0.9997467,0.93299985,-0.35948002,0.0168934,0.35932454,0.9331408,0.011582924,-0.01992775,-0.0047366535,0.9997902,-0.17955017,-0.03829956,9.792282,-0.2166748,-0.042037964,9.804092,0.0021362305,0.004272461,-0.0010681152,11.117554,23.876953,-24.923706,0,0.0,0.0,0.0,0.0
0.541927183,0.92257047,-0.38537386,0.018728452,0.3851964,0.92275065,0.012449223,-0.022079295,-0.0042711534,0.99974704,0.93263555,-0.3604226,0.016925361,0.3602667,0.93277717,0.011607211,-0.019971091,-0.0047276546,0.9997894,-0.20828247,-0.004776001,9.753967,-0.21652222,-0.041885376,9.804092,-0.011703491,0.004272461,-0.0063934326,10.578918,24.055481,-26.133728,0,0.0,0.0,0.0,0.0
0.546321715,0.9225724,-0.3853688,0.018733915,0.38519162,0.92275274,0.012436201,-0.022079296,-0.00425715,0.99974716,0.9324409,-0.36092424,0.016961735,0.36076793,0.9325832,0.011623016,-0.020013256,-0.0047185244,0.9997886,-0.19871521,-0.01914978,9.749176,-0.21652222,-0.041748047,9.804092,-0.0053253174,0.0021362305,0.01171875,10.578918,24.055481,-26.133728,0,0.0,0.0,0.0,0.0
0.550716246,0.9225512,-0.3854226,0.018675784,0.38524616,0.92273045,0.012413327,-0.022017088,-0.0042571556,0.9997485,0.9322924,-0.36130187,0.017082868,0.36114332,0.9324368,0.01170876,-0.020159094,-0.004746624,0.99978554,-0.05505371,-0.01914978,9.792282,-0.21591187,-0.041748047,9.804092,-0.0021209717,0.0063934326,-0.007461548,10.578918,24.055481,-26.133728,0,0.0,0.0,0.0,0.0
0.555141295,0.913135,-0.40724456,0.018340616,0.4070648,0.91330934,0.012821127,-0.02197199,-0.0042416006,0.9997496,0.9321038,-0.36178672,0.017114963,0.3616278,0.9322489,0.0117219575,-0.020196253,-0.004736834,0.9997848,-0.08857727,-0.0335083,9.777908,-0.21546936,-0.04159546,9.804092,-0.006378174,0.015975952,-0.004257202,11.476135,24.594116,-25.268555,0,0.0,0.0,0.0,0.0
0.559535826,0.91314256,-0.4072267,0.018361408,0.407047,0.9133173,0.012812892,-0.021987543,-0.0042260396,0.9997493,0.9317465,-0.3627048,0.017140098,0.36254552,0.93189216,0.01174246,-0.020231768,-0.0047269296,0.9997842,-0.2609558,0.02394104,9.7348175,-0.21562195,-0.04144287,9.804092,0.0,0.0021362305,-0.014907837,11.476135,24.594116,-25.268555,0,0.0,0.0,0.0,0.0
0.563960875,0.9131344,-0.4072459,0.01833906,0.4070669,0.91330886,0.012786407,-0.021956438,-0.004210483,0.9997501,0.93139553,-0.36360383,0.017165115,0.36344415,0.93154174,0.011762426,-0.020266883,-0.0047169114,0.99978346,-0.15560913,-0.004776001,9.677353,-0.21531677,-0.041290283,9.804092,0.0032043457,-0.008514404,0.0021362305,11.476135,24.594116,-25.268555,0,0.0,0.0,0.0,0.0
0.568355406,0.91201,-0.4097594,0.018303782,0.40957993,0.912184,0.01283686,-0.021956438,-0.004210483,0.9997501,0.93109995,-0.36435467,0.017280705,0.36419305,0.9312483,0.0118359495,-0.02040511,-0.004726939,0.99978065,-0.19871521,-0.04309082,9.677353,-0.21531677,-0.041290283,9.804092,-0.0010528564,0.0063934326,-0.008529663,11.654663,24.772644,-26.133728,0,0.0,0.0,0.0,0.0
0.572749937,0.9119967,-0.4097903,0.018268576,0.40961167,0.91217,0.012804813,-0.021911336,-0.004194927,0.99975103,0.9307401,-0.36527175,0.017301692,0.3651098,0.93088895,0.01185468,-0.020436134,-0.0047166096,0.99978,-0.11251831,-0.0143585205,9.677353,-0.21487427,-0.041137695,9.804092,0.0,-0.003189087,0.004257202,11.654663,24.772644,-26.133728,0,0.0,0.0,0.0,0.0
0.577174986,0.9119914,-0.40980294,0.018254213,0.40962452,0.91216445,0.012798697,-0.021895787,-0.004194929,0.99975145,0.9303864,-0.36617082,0.017321508,0.36600858,0.93053573,0.0118724825,-0.020465638,-0.0047061765,0.99977946,-0.15083313,-0.05265808,9.806641,-0.21472168,-0.041137695,9.804092,0.007461548,0.011703491,0.0,11.654663,24.772644,-26.133728,0,0.0,0.0,0.0,0.0
0.581569517,0.9149097,-0.40324092,0.018357584,0.40306425,0.91508436,0.01264021,-0.021895787,-0.0041653654,0.9997515,0.93003887,-0.3670518,0.01734062,0.36688924,0.93018866,0.011889866,-0.020494243,-0.0046959515,0.9997789,-0.20350647,0.04788208,9.749176,-0.21472168,-0.04084778,9.804092,-0.010635376,0.007461548,-0.0010681152,11.834717,25.66986,-25.959778,0,0.0,0.0,0.0,0.0
0.585964049,0.9149097,-0.40324092,0.018357584,0.40306425,0.91508436,0.01264021,-0.021895787,-0.0041653654,0.9997515,0.9298,-0.3676478,0.01752348,0.36748677,0.9299541,0.011779461,-0.020626726,-0.0045128954,0.9997771,-0.22744751,-0.02394104,9.773117,-0.21472168,-0.04084778,9.804092,0.010665894,0.0063934326,-0.008529663,11.834717,25.66986,-25.959778,0,0.0,0.0,0.0,0.0
0.590389097,0.91490465,-0.40325314,0.018343184,0.40307668,0.915079,0.012634188,-0.021880236,-0.004165367,0.99975187,0.9295157,-0.36836523,0.017540544,0.36820388,0.9296703,0.0117958635,-0.020652108,-0.0045059444,0.9997766,-0.19392395,-0.06703186,9.672562,-0.21456909,-0.04084778,9.804092,-0.009567261,-0.0053253174,0.007461548,11.834717,25.66986,-25.959778,0,0.0,0.0,0.0,0.0
0.594783629,0.9164455,-0.39973783,0.018370671,0.39956272,0.91662025,0.012537622,-0.021850688,-0.0041498104,0.99975264,0.9292364,-0.3690683,0.01755696,0.36890665,0.9293914,0.011811862,-0.020676672,-0.004499133,0.99977607,-0.12689209,0.01914978,9.787491,-0.21427917,-0.04069519,9.804092,-0.015960693,0.0010681152,-0.0021362305,12.193298,26.745605,-26.306152,0,0.0,0.0,0.0,0.0
0.599208677,0.9164392,-0.39975291,0.01835243,0.39957696,0.9166133,0.012579275,-0.021850683,-0.004194933,0.9997524,0.9290212,-0.369602,0.017723002,0.36944136,0.92917997,0.011734245,-0.020804858,-0.0043537514,0.9997741,-0.20350647,-0.15800476,9.773117,-0.21427917,-0.041137695,9.804092,0.008529663,0.0063934326,-0.0053253174,12.193298,26.745605,-26.306152,0,0.0,0.0,0.0,0.0
0.603603209,0.91644114,-0.3997482,0.018358089,0.39957252,0.9166154,0.012566348,-0.021850685,-0.004180929,0.99975246,0.9287792,-0.37020898,0.017735938,0.37004805,0.92893827,0.011750613,-0.020825775,-0.004350575,0.9997736,-0.19392395,-0.009567261,9.739609,-0.21427917,-0.041000366,9.804092,-0.0021209717,-0.0095825195,-0.0063934326,12.193298,26.745605,-26.306152,0,0.0,0.0,0.0,0.0
0.60799774,0.9043087,-0.42650062,0.017973607,0.42632034,0.90447766,0.01307948,-0.021835135,-0.0041653714,0.9997529,0.9285417,-0.3708036,0.017748708,0.37064236,0.9287011,0.011766413,-0.020846274,-0.0043471823,0.9997732,-0.18913269,0.0,9.634262,-0.21412659,-0.04084778,9.804092,0.007461548,0.0063934326,0.0053253174,12.013245,24.414063,-25.09613,0,0.0,0.0,0.0,0.0
0.612422789,0.9043087,-0.42650062,0.017973607,0.42632034,0.90447766,0.01307948,-0.021835135,-0.0041653714,0.9997529,0.92809033,-0.3719316,0.017754111,0.37177002,0.92824996,0.011791948,-0.020866053,-0.0043435465,0.99977285,-0.20350647,-0.0335083,9.696503,-0.21412659,-0.04084778,9.804092,-0.0010528564,-0.0021209717,-0.0063934326,12.013245,24.414063,-25.09613,0,0.0,0.0,0.0,0.0
0.61681732,0.90430325,-0.4265126,0.017959366,0.42633253,0.9044719,0.013073085,-0.02181958,-0.0041653723,0.9997532,0.92767966,-0.37296093,0.017625874,0.3727936,0.92783535,0.012102676,-0.020867733,-0.004656592,0.9997714,-0.18434143,-0.0622406,9.667786,-0.213974,-0.04084778,9.804092,-0.01914978,-0.0010528564,-0.0053253174,12.013245,24.414063,-25.09613,0,0.0,0.0,0.0,0.0
0.621211851,0.93344355,-0.3582272,0.01887648,0.3580609,0.93362516,0.01166989,-0.021804031,-0.0041342545,0.99975365,0.9272429,-0.37404507,0.017633045,0.3738775,0.92739886,0.012121275,-0.02088677,-0.0046467674,0.99977106,-0.17955017,0.0335083,9.701294,-0.21382141,-0.040542603,9.804092,0.0,0.010650635,-0.0032043457,10.578918,26.20697,-25.787354,0,0.0,0.0,0.0,0.0
0.6256369,0.93344355,-0.3582272,0.01887648,0.3580609,0.93362516,0.01166989,-0.021804031,-0.0041342545,0.99975365,0.92736953,-0.37372977,0.01765801,0.3735622,0.92752606,0.012112627,-0.020905115,-0.004636517,0.9997707,-0.21786499,-0.0143585205,9.643829,-0.21382141,-0.040542603,9.804092,-0.003189087,0.0032043457,-0.017044067,10.578918,26.20697,-25.787354,0,0.0,0.0,0.0,0.0
0.630031431,0.93345445,-0.35819715,0.018911472,0.3580308,0.9336369,0.011665896,-0.021835137,-0.004118692,0.99975306,0.9274935,-0.37342072,0.01768247,0.37325317,0.9276505,0.012104138,-0.02092309,-0.004626472,0.99977034,-0.2609558,-0.009567261,9.76355,-0.21412659,-0.040390015,9.804092,-0.0021209717,0.008529663,0.0095825195,10.578918,26.20697,-25.787354,0,0.0,0.0,0.0,0.0
0.63445648,0.93345445,-0.35819715,0.018911472,0.3580308,0.9336369,0.011665896,-0.021835137,-0.004118692,0.99975306,0.92762023,-0.3731006,0.017794913,0.3729323,0.92777956,0.012112096,-0.021028787,-0.004599127,0.9997683,-0.23222351,-0.028717041,9.777908,-0.21412659,-0.040390015,9.804092,0.0010681152,0.0053253174,-0.0010681152,10.578918,26.20697,-25.787354,0,0.0,0.0,0.0,0.0
0.638851011,0.9334487,-0.35821322,0.018892819,0.35804778,0.9336308,0.011627489,-0.021804037,-0.004089132,0.99975383,0.92773926,-0.37280345,0.017817337,0.3726352,0.927899,0.012103491,-0.021044912,-0.004589518,0.99976796,-0.13166809,0.01914978,9.82579,-0.21382141,-0.040100098,9.804092,-0.006378174,0.004272461,-0.0053253174,10.578918,26.20697,-25.787354,0,0.0,0.0,0.0,0.0
0.643245543,0.9334452,-0.35822263,0.01888183,0.35805845,0.9336274,0.011573527,-0.021774491,-0.004042456,0.9997547,0.92785573,-0.37251252,0.017838947,0.37234432,0.9280159,0.012094274,-0.021060094,-0.0045795105,0.9997677,-0.15083313,0.0909729,9.691727,-0.2135315,-0.039642334,9.804092,0.01171875,-0.0010528564,0.0095825195,10.578918,26.20697,-25.787354,0,0.0,0.0,0.0,0.0
0.647670592,0.89129156,-0.45308968,0.017578516,0.45290673,0.89145553,0.013502879,-0.021788483,-0.0040735737,0.99975425,0.92796963,-0.37222758,0.017859919,0.3720594,0.92813027,0.012084145,-0.021074383,-0.004568769,0.9997675,-0.24180603,-0.12449646,9.672562,-0.21366882,-0.03994751,9.804092,0.0053253174,0.010650635,0.0010681152,12.730408,24.055481,-25.440979,0,0.0,0.0,0.0,0.0
0.652065123,0.8912835,-0.45310634,0.017558739,0.4529233,0.891447,0.013510736,-0.021774486,-0.0040891347,0.9997545,0.9272795,-0.37394094,0.017914036,0.3737714,0.92744124,0.012154318,-0.021159213,-0.0045746947,0.99976563,-0.17477417,-0.07661438,9.787491,-0.2135315,-0.040100098,9.804092,-0.0010528564,0.004272461,0.004257202,12.730408,24.055481,-25.440979,0,0.0,0.0,0.0,0.0
0.656459654,0.8912835,-0.45310634,0.017558739,0.4529233,0.891447,0.013510736,-0.021774486,-0.0040891347,0.9997545,0.92662746,-0.375554,0.017907917,0.37538412,0.9267893,0.012181088,-0.02117152,-0.0045649833,0.9997654,-0.19392395,-0.0335083,9.768341,-0.2135315,-0.040100098,9.804092,-0.0084991455,0.0032043457,-0.007461548,12.730408,24.055481,-25.440979,0,0.0,0.0,0.0,0.0
0.660884703,0.9105525,-0.41299573,0.018134728,0.41282064,0.910724,0.012695553,-0.021758936,-0.0040735765,0.99975497,0.9259858,-0.3771337,0.017901877,0.3769636,0.92614764,0.012207338,-0.021183578,-0.004555466,0.9997652,-0.19392395,-0.01914978,9.8688965,-0.2133789,-0.03994751,9.804092,-0.0053253174,-0.0021209717,-0.0010681152,11.834717,24.952698,-25.959778,0,0.0,0.0,0.0,0.0
0.665279234,0.91055536,-0.41298893,0.018142562,0.41281337,0.91072685,0.012716006,-0.021774486,-0.0040891347,0.9997545,0.9256909,-0.37785676,0.017906636,0.3776866,0.92585295,0.012216738,-0.021195088,-0.0045458283,0.99976504,-0.22744751,-0.05265808,9.615112,-0.2135315,-0.040100098,9.804092,0.0063934326,-0.003189087,0.012786865,11.834717,24.952698,-25.959778,0,0.0,0.0,0.0,0.0
0.669704283,0.91054535,-0.413012,0.018115867,0.41283607,0.9107162,0.012736961,-0.02175893,-0.004118699,0.9997547,0.9253695,-0.37864384,0.017893141,0.37847662,0.925532,0.012086334,-0.02113709,-0.0044121896,0.9997669,-0.16998291,-0.12927246,9.7348175,-0.2133789,-0.040390015,9.804092,0.007461548,-0.004257202,0.0053253174,11.834717,24.952698,-25.959778,0,0.0,0.0,0.0,0.0
0.674098814,0.93936247,-0.34239614,0.019048586,0.3422336,0.9395466,0.01132445,-0.021774484,-0.004118698,0.9997544,0.92508566,-0.37933654,0.017897822,0.37916917,0.92524827,0.012099011,-0.021149525,-0.0044063195,0.9997666,-0.22265625,-0.0335083,9.672562,-0.2135315,-0.040390015,9.804092,-0.006378174,-0.010650635,-0.0095825195,10.041809,26.028442,-27.34375,0,0.0,0.0,0.0,0.0
0.678493345,0.93936247,-0.34239614,0.019048586,0.3422336,0.9395466,0.01132445,-0.021774484,-0.004118698,0.9997544,0.92508566,-0.37933654,0.017897822,0.37916917,0.92524827,0.012099011,-0.021149525,-0.0044063195,0.9997666,-0.22265625,-0.0335083,9.672562,-0.2135315,-0.040390015,9.804092,-0.006378174,-0.010650635,-0.0095825195,10.041809,26.028442,-27.34375,0,0.0,0.0,0.0,0.0
0.682918394,0.93936247,-0.34239614,0.019048586,0.3422336,0.9395466,0.01132445,-0.021774484,-0.004118698,0.9997544,0.925726,-0.3777714,0.017888917,0.37760448,0.9258883,0.012065951,-0.02112131,-0.0044148294,0.9997671,-0.21307373,-0.07182312,9.725235,-0.2135315,-0.040390015,9.804092,-0.0010528564,-0.003189087,-0.007461548,10.041809,26.028442,-27.34375,0,0.0,0.0,0.0,0.0
0.687312926,0.9275861,-0.37314358,0.01865099,0.37297523,0.9277644,0.011939653,-0.02175893,-0.004118699,0.9997547,0.9260119,-0.37706912,0.017912395,0.37690225,0.92617464,0.012051821,-0.021134375,-0.0044089067,0.99976695,-0.16040039,-0.0143585205,9.634262,-0.2133789,-0.040390015,9.804092,-0.006378174,0.004272461,-0.0032043457,10.9375,25.848389,-26.824951,0,0.0,0.0,0.0,0.0
0.691707457,0.9275899,-0.37313366,0.01866215,0.37296584,0.9277685,0.011912031,-0.021758933,-0.0040891357,0.9997548,0.92604357,-0.37699065,0.017927172,0.37682375,0.9262066,0.012049635,-0.021146866,-0.004403102,0.99976665,-0.19871521,0.03829956,9.849731,-0.2133789,-0.040100098,9.804092,-0.0084991455,0.004272461,0.008514404,10.9375,25.848389,-26.824951,0,0.0,0.0,0.0,0.0
0.696132506,0.9275869,-0.37314144,0.01865342,0.37297416,0.92776555,0.011891955,-0.021743383,-0.004073578,0.9997553,0.9260746,-0.37691358,0.017941881,0.37674668,0.926238,0.012046942,-0.021159107,-0.0043968232,0.99976647,-0.19871521,-0.02394104,9.648621,-0.21322632,-0.03994751,9.804092,-0.006378174,0.0053253174,-0.004257202,10.9375,25.848389,-26.824951,0,0.0,0.0,0.0,0.0
0.700527037,0.90941095,-0.41550377,0.01812009,0.41532758,0.90958226,0.012771899,-0.021788483,-0.0040891333,0.99975425,0.9261101,-0.37681842,0.018109815,0.37665394,0.92627764,0.011898406,-0.021258254,-0.0041981004,0.9997652,-0.3375702,-0.04788208,9.811432,-0.21366882,-0.040100098,9.804092,0.01171875,0.0053253174,-0.0010681152,11.654663,24.414063,-25.09613,0,0.0,0.0,0.0,0.0
0.704952086,0.909398,-0.41553354,0.01808511,0.4153582,0.9095687,0.012739608,-0.021743383,-0.004073578,0.9997553,0.9257921,-0.37759888,0.01811042,0.37743416,0.9259597,0.011915647,-0.021268856,-0.004195921,0.999765,-0.07899475,-0.009567261,9.504974,-0.21322632,-0.03994751,9.804092,0.007461548,0.0053253174,-0.0053253174,11.654663,24.414063,-25.09613,0,0.0,0.0,0.0,0.0
0.709346617,0.9093873,-0.41555816,0.018056186,0.4153832,0.9095574,0.012726979,-0.02171194,-0.0040735174,0.999756,0.9254796,-0.37836412,0.018110277,0.37819916,0.9256473,0.011931938,-0.021278346,-0.004193474,0.99976474,-0.13645935,-0.04309082,9.710876,-0.21292114,-0.03994751,9.804245,-0.0021209717,0.007461548,-0.0095825195,11.654663,24.414063,-25.09613,0,0.0,0.0,0.0,0.0
0.713741148,0.91476977,-0.40356466,0.018215667,0.4033917,0.91494197,0.012502734,-0.021711938,-0.0040890765,0.9997559,0.92517257,-0.37911433,0.018109532,0.37894917,0.92534035,0.01194768,-0.021287018,-0.004191075,0.9997646,-0.18434143,-0.07182312,9.691727,-0.21292114,-0.040100098,9.804245,-0.0053253174,0.007461548,0.0010681152,11.834717,25.66986,-25.61493,0,0.0,0.0,0.0,0.0
0.718166197,0.914772,-0.40355936,0.018222017,0.40338665,0.9149444,0.012488397,-0.02171194,-0.0040735174,0.999756,0.9249779,-0.37959138,0.018062571,0.3794247,0.9251444,0.012033077,-0.02127814,-0.0042769453,0.99976444,-0.23222351,-0.009567261,9.768341,-0.21292114,-0.03994751,9.804245,-0.0053253174,-0.0010528564,-0.0010681152,11.834717,25.66986,-25.61493,0,0.0,0.0,0.0,0.0
0.722560728,0.914772,-0.40355936,0.018222017,0.40338665,0.9149444,0.012488397,-0.02171194,-0.0040735174,0.999756,0.9247799,-0.3800733,0.018065874,0.3799065,0.9249465,0.012042021,-0.021286817,-0.004272877,0.99976426,-0.22265625,-0.028717041,9.691727,-0.21292114,-0.03994751,9.804245,0.008529663,0.008529663,-0.004257202,11.834717,25.66986,-25.61493,0,0.0,0.0,0.0,0.0
0.72695526,0.9243113,-0.38118863,0.018546872,0.38102052,0.9244884,0.012018894,-0.021727832,-0.0040424597,0.9997557,0.9245856,-0.38054553,0.018069101,0.3803786,0.92475235,0.012050793,-0.02129532,-0.00426889,0.9997641,-0.25138855,0.01914978,9.76355,-0.21307373,-0.039642334,9.804092,0.0063934326,0.0,0.01171875,10.578918,24.414063,-25.440979,0,0.0,0.0,0.0,0.0
0.731380308,0.9243113,-0.38118863,0.018546872,0.38102052,0.9244884,0.012018894,-0.021727832,-0.0040424597,0.9997557,0.92458016,-0.38055837,0.018078659,0.38039145,0.92474705,0.012050148,-0.021303972,-0.004264361,0.9997639,-0.20828247,-0.04788208,9.677353,-0.21307373,-0.039642334,9.804092,-0.0053253174,0.018096924,-0.0063934326,10.578918,24.414063,-25.440979,0,0.0,0.0,0.0,0.0
0.73577484,0.9243193,-0.38116807,0.01856997,0.38099933,0.92449695,0.012044716,-0.021758938,-0.004058017,0.999755,0.9245129,-0.38071755,0.018165255,0.3805484,0.9246813,0.012138,-0.021418221,-0.00430898,0.9997613,-0.26574707,-0.04788208,9.701294,-0.2133789,-0.039794922,9.804092,-0.003189087,0.0063934326,0.0095825195,10.578918,24.414063,-25.440979,0,0.0,0.0,0.0,0.0
0.740199888,0.9173634,-0.39762825,0.018335303,0.39745733,0.9175378,0.012333539,-0.021727497,-0.0040268376,0.9997558,0.92450905,-0.3807266,0.018173348,0.38055748,0.92467767,0.0121361315,-0.021425039,-0.0043039606,0.9997612,-0.15083313,0.028717041,9.725235,-0.21307373,-0.039489746,9.804245,0.007461548,0.007461548,0.0010681152,11.476135,25.31128,-25.268555,0,0.0,0.0,0.0,0.0
0.74459442,0.917362,-0.39763165,0.018331254,0.39745966,0.9175361,0.0123828035,-0.021743383,-0.004073578,0.9997553,0.9243692,-0.38106593,0.018176597,0.38089675,0.9245379,0.012139983,-0.021431087,-0.0042984188,0.9997611,-0.24180603,-0.15800476,9.710876,-0.21322632,-0.03994751,9.804092,0.0010681152,0.0,-0.0032043457,11.476135,25.31128,-25.268555,0,0.0,0.0,0.0,0.0
0.748988951,0.9173691,-0.39761424,0.01835195,0.39744237,0.9175437,0.012374363,-0.021758938,-0.004058017,0.999755,0.9242319,-0.38139844,0.018179717,0.38122922,0.92440075,0.012144744,-0.021437332,-0.004293922,0.9997609,-0.26574707,0.0,9.730026,-0.2133789,-0.039794922,9.804092,0.0032043457,0.0063934326,0.0,11.476135,25.31128,-25.268555,0,0.0,0.0,0.0,0.0
0.753414,0.92508745,-0.37929893,0.01858837,0.37913024,0.92526525,0.012021556,-0.021758936,-0.0040735765,0.99975497,0.9240743,-0.38177052,0.018385137,0.38160104,0.9242477,0.012118905,-0.02161906,-0.0041829813,0.9997575,-0.18434143,-0.10055542,9.773117,-0.2133789,-0.03994751,9.804092,0.0063934326,0.010650635,0.003189087,10.220337,23.6969,-25.09613,0,0.0,0.0,0.0,0.0
0.757808531,0.9250772,-0.37932536,0.018559244,0.37915707,0.92525434,0.012010292,-0.02172783,-0.0040735793,0.9997556,0.9240946,-0.3817211,0.018389203,0.38155165,0.92426807,0.012116967,-0.021621855,-0.004180793,0.99975747,-0.16040039,-0.0335083,9.801849,-0.21307373,-0.03994751,9.804092,-0.011703491,-0.0063934326,0.0,10.220337,23.6969,-25.09613,0,0.0,0.0,0.0,0.0
0.762203062,0.9250845,-0.37930673,0.01857978,0.37913853,0.92526215,0.012001421,-0.021743383,-0.0040580183,0.9997553,0.92411435,-0.38167328,0.018392608,0.38150382,0.9242879,0.0121148415,-0.021623975,-0.004178649,0.99975747,-0.24180603,-0.009567261,9.7827,-0.21322632,-0.039794922,9.804092,-0.011703491,-0.0095825195,-0.0021362305,10.220337,23.6969,-25.09613,0,0.0,0.0,0.0,0.0
0.766628111,0.917814,-0.3965871,0.018328832,0.39641628,0.9179881,0.012320847,-0.021711944,-0.0040423987,0.9997561,0.92411846,-0.38165903,0.018480185,0.38148773,0.9242936,0.012184913,-0.021731598,-0.0042103385,0.99975497,-0.13166809,0.0143585205,9.682144,-0.21292114,-0.039642334,9.804245,-0.0021209717,0.0063934326,0.0021362305,11.476135,25.31128,-26.997375,0,0.0,0.0,0.0,0.0
0.771022642,0.9178039,-0.39661178,0.018301373,0.3964413,0.9179774,0.012309624,-0.021682393,-0.004042401,0.9997567,0.9239947,-0.3819586,0.018477157,0.38178727,0.9241699,0.012187648,-0.021731207,-0.0042069796,0.999755,-0.13645935,-0.028717041,9.7348175,-0.21263123,-0.039642334,9.804245,-0.0053253174,0.0063934326,-0.0032043457,11.476135,25.31128,-26.997375,0,0.0,0.0,0.0,0.0
0.775447691,0.91780305,-0.39661416,0.01829879,0.3964444,0.9179767,0.012276373,-0.021666843,-0.0040128394,0.9997572,0.9238732,-0.38225263,0.018473633,0.38208133,0.9240483,0.012190112,-0.021730231,-0.004203688,0.999755,-0.17955017,0.02394104,9.720444,-0.21247864,-0.039352417,9.804245,0.0063934326,0.0063934326,-0.0032043457,11.476135,25.31128,-26.997375,0,0.0,0.0,0.0,0.0
0.779842222,0.91549426,-0.4019178,0.01822983,0.4017463,0.91566676,0.012415334,-0.021682393,-0.004042401,0.9997567,0.923754,-0.38254076,0.01847012,0.3823695,0.92392904,0.012191862,-0.021728965,-0.004199871,0.9997551,-0.23701477,-0.10533142,9.672562,-0.21263123,-0.039642334,9.804245,0.004272461,-0.003189087,0.0,10.9375,23.6969,-26.824951,0,0.0,0.0,0.0,0.0
0.784236754,0.91548526,-0.40193912,0.018207308,0.4017683,0.9156574,0.012389017,-0.02165129,-0.004026844,0.9997574,0.9236446,-0.38280112,0.018549066,0.38262787,0.9238211,0.012268821,-0.021832535,-0.0042346404,0.9997527,-0.14125061,-0.0143585205,9.639053,-0.21232605,-0.039489746,9.804245,-0.0021209717,0.0063934326,-0.008529663,10.9375,23.6969,-26.824951,0,0.0,0.0,0.0,0.0
0.788661802,0.9154804,-0.40195116,0.01819464,0.4017798,0.91565216,0.012417747,-0.021651288,-0.0040579634,0.99975735,0.9234853,-0.3831855,0.0185422,0.38301232,0.9236617,0.012271311,-0.021828908,-0.0042304844,0.99975276,-0.20828247,-0.11012268,9.696503,-0.21232605,-0.039794922,9.804245,-0.0074310303,-0.0053253174,-0.012786865,10.9375,23.6969,-26.824951,0,0.0,0.0,0.0,0.0
0.793056334,0.8954285,-0.44486526,0.017401421,0.44469556,0.8955896,0.012850741,-0.021301378,-0.0037685856,0.99976593,0.923329,-0.38356242,0.018535234,0.3833893,0.92350525,0.0122743305,-0.021825356,-0.0042270343,0.9997529,-0.23222351,-0.15322876,9.725235,-0.20889282,-0.036956787,9.804245,0.014923096,-0.010650635,-0.0010681152,12.55188,24.235535,-26.306152,0,0.0,0.0,0.0,0.0
0.797450865,0.8952874,-0.44516224,0.017060429,0.44500476,0.89544326,0.012331254,-0.020766057,-0.003448043,0.9997784,0.92281157,-0.38480648,0.018512532,0.3846334,0.92298764,0.012286801,-0.021814879,-0.0042178654,0.9997531,-0.17955017,-0.15322876,9.82579,-0.2036438,-0.033813477,9.804398,0.0745697,-0.080947876,0.003189087,12.55188,24.235535,-26.306152,0,0.0,0.0,0.0,0.0
0.801875914,0.89516395,-0.44542164,0.016762558,0.44527754,0.89531577,0.01172935,-0.020232292,-0.0030356995,0.9997907,0.92234176,-0.38598958,0.017253585,0.38586384,0.92249894,0.010236942,-0.019867767,-0.0027844254,0.9997987,-0.2896881,-0.0143585205,9.777908,-0.19841003,-0.029769897,9.80455,0.08628845,-0.11717224,-0.0010681152,12.55188,24.235535,-26.306152,0,0.0,0.0,0.0,0.0
0.806270445,0.9198472,-0.39190814,0.017003074,0.39178497,0.9200003,0.010193769,-0.019637855,-0.0027151618,0.9998035,0.9218365,-0.38719523,0.017244963,0.38706914,0.92199355,0.010266944,-0.019875057,-0.0027894508,0.9997986,-0.13645935,0.02394104,9.787491,-0.19258118,-0.026626587,9.804703,0.09161377,-0.13102722,0.004257202,11.117554,24.952698,-26.306152,0,0.0,0.0,0.0,0.0
0.810695494,0.9197425,-0.39216617,0.016714115,0.3920496,0.9198908,0.009893964,-0.01925524,-0.0025471374,0.99981135,0.9217969,-0.38728958,0.017240115,0.38716355,0.9219539,0.010265503,-0.019870315,-0.0027879651,0.9997987,-0.05027771,0.07182312,9.821014,-0.18882751,-0.024978638,9.804703,0.069244385,-0.12675476,0.0021362305,11.117554,24.952698,-26.306152,0,0.0,0.0,0.0,0.0
0.815090025,0.91973376,-0.3921876,0.016690081,0.39207223,0.91988176,0.009835165,-0.019210134,-0.0025020165,0.9998123,0.9217561,-0.38738722,0.017229551,0.38726136,0.9219129,0.010258123,-0.019858012,-0.0027831488,0.99979895,-0.05984497,0.07182312,9.639053,-0.18838501,-0.024536133,9.804703,0.029830933,-0.0745697,0.010650635,11.117554,24.952698,-26.306152,0,0.0,0.0,0.0,0.0
0.819484556,0.903526,-0.42822054,0.016373591,0.42809713,0.9036707,0.010594252,-0.019333009,-0.0025626933,0.9998098,0.9217729,-0.38735318,0.0170939,0.38723004,0.9219274,0.01014013,-0.019687146,-0.0027276257,0.9998025,-0.007171631,0.04788208,9.859314,-0.18959045,-0.025131226,9.804703,0.0032043457,-0.0095825195,-0.008529663,12.371826,25.131226,-25.440979,0,0.0,0.0,0.0,0.0
0.823909605,0.9035629,-0.42813876,0.016472273,0.42801294,0.9037093,0.010706189,-0.01946988,-0.002623369,0.99980706,0.921426,-0.3881784,0.017079568,0.38805526,0.92158026,0.010149642,-0.019680064,-0.0027243274,0.99980265,-0.18913269,-0.009567261,9.883255,-0.19093323,-0.025726318,9.804703,-0.018081665,0.04685974,0.0010681152,12.371826,25.131226,-25.440979,0,0.0,0.0,0.0,0.0
0.828304136,0.9035654,-0.42813322,0.016479,0.42800763,0.9037119,0.010692028,-0.01946988,-0.0026078094,0.99980706,0.92108595,-0.3889852,0.017067587,0.38886195,0.92124003,0.010161098,-0.01967586,-0.0027223083,0.9998027,-0.18434143,0.01914978,9.7348175,-0.19093323,-0.02557373,9.804703,-0.017028809,0.030883789,0.0095825195,12.371826,25.131226,-25.440979,0,0.0,0.0,0.0,0.0
0.832698668,0.92232496,-0.3860421,0.016973864,0.38592348,0.9224775,0.009914529,-0.019485435,-0.0025938048,0.99980676,0.920752,-0.3897754,0.017055964,0.38965213,0.92090595,0.0101720225,-0.019671742,-0.0027200182,0.99980277,-0.24180603,0.009567261,9.643829,-0.19108582,-0.025436401,9.804703,-0.009567261,0.011703491,0.0053253174,10.758972,24.594116,-25.268555,0,0.0,0.0,0.0,0.0
0.837123717,0.92232096,-0.38605216,0.016962346,0.385933,0.92247313,0.009941981,-0.019485433,-0.002623368,0.99980664,0.9207222,-0.38984615,0.017047592,0.38972273,0.9208759,0.010182807,-0.019668445,-0.0027317018,0.9998028,-0.20350647,-0.07661438,9.806641,-0.19108582,-0.025726318,9.804703,-0.0010528564,0.0,0.0095825195,10.758972,24.594116,-25.268555,0,0.0,0.0,0.0,0.0
0.841518248,0.9223304,-0.38602877,0.016989132,0.38590774,0.92248285,0.010035282,-0.019546088,-0.002699607,0.9998053,0.9207544,-0.38977036,0.017045902,0.38964698,0.9209081,0.010177981,-0.019664783,-0.0027295353,0.99980295,-0.11730957,0.009567261,9.773117,-0.19168091,-0.026473999,9.804703,-0.003189087,0.0,0.0021362305,10.758972,24.594116,-25.268555,0,0.0,0.0,0.0,0.0
0.845943297,0.9223571,-0.3859611,0.017066363,0.38583726,0.9225107,0.010165521,-0.019667402,-0.002791402,0.99980265,0.920786,-0.38969555,0.017044773,0.38957223,0.92093974,0.010175119,-0.019662408,-0.002728937,0.999803,-0.10772705,0.0335083,9.677353,-0.1928711,-0.027374268,9.804703,-0.02128601,0.020233154,-0.0010681152,10.758972,24.594116,-25.268555,0,0.0,0.0,0.0,0.0
0.850337828,0.9224168,-0.38581106,0.017237818,0.3856831,0.92257327,0.010350127,-0.019896343,-0.0028987946,0.9997978,0.9208483,-0.38953167,0.01742296,0.38939455,0.9210077,0.010809747,-0.020257417,-0.0031697308,0.9997898,-0.20828247,0.0909729,9.8688965,-0.19511414,-0.028427124,9.80455,-0.026611328,0.036209106,-0.0063934326,10.758972,24.594116,-25.268555,0,0.0,0.0,0.0,0.0
0.854732359,0.9224524,-0.38572133,0.017340304,0.3855876,0.9226101,0.010621856,-0.020095415,-0.00311195,0.99979323,0.92087984,-0.38945732,0.017419292,0.3893204,0.9210391,0.010800538,-0.020250197,-0.003164312,0.99978995,-0.06463623,0.03829956,9.821014,-0.19706726,-0.030517578,9.80455,-0.034072876,0.050064087,-0.0010681152,10.758972,24.594116,-25.268555,0,0.0,0.0,0.0,0.0
0.859157408,0.92562187,-0.37804028,0.017601106,0.37789953,0.9257829,0.010860633,-0.020400558,-0.0034013898,0.9997861,0.9209114,-0.38938266,0.017417721,0.3892458,0.9210707,0.010796956,-0.0202471,-0.0031632648,0.99979,-0.28012085,-0.03829956,9.62468,-0.20005798,-0.033355713,9.804398,-0.053237915,0.059646606,-0.004257202,11.117554,26.028442,-25.61493,0,0.0,0.0,0.0,0.0
0.863551939,0.925681,-0.37788698,0.017782552,0.37773973,0.9258447,0.011146075,-0.020675836,-0.0036005334,0.9997797,0.921007,-0.38915637,0.01742135,0.38901943,0.9211663,0.010798258,-0.020250171,-0.0031680271,0.99978995,-0.11730957,-0.01914978,9.811432,-0.20275879,-0.035308838,9.804398,-0.06388855,0.061782837,0.0053253174,11.117554,26.028442,-25.61493,0,0.0,0.0,0.0,0.0
0.86794647,0.92576766,-0.3776617,0.018049082,0.37750855,0.9259361,0.011380343,-0.021010216,-0.003721872,0.9997723,0.9210949,-0.3889126,0.01820026,0.38874888,0.92126626,0.01194824,-0.021414105,-0.003930132,0.99976295,-0.11251831,-0.009567261,9.797058,-0.20603943,-0.036499023,9.804398,-0.045791626,0.07029724,-0.0021362305,11.117554,26.028442,-25.61493,0,0.0,0.0,0.0,0.0
0.872371519,0.9239637,-0.382049,0.018156292,0.3818874,0.92413354,0.011796841,-0.02128581,-0.0039661936,0.9997655,0.92118967,-0.38868815,0.018197345,0.38852465,0.921361,0.0119368285,-0.021406028,-0.0039259666,0.9997632,-0.09815979,-0.11012268,9.60553,-0.20874023,-0.038894653,9.804245,-0.029800415,0.08520508,0.0053253174,11.117554,25.66986,-25.61493,0,0.0,0.0,0.0,0.0
0.876766051,0.92404485,-0.3818412,0.018399715,0.38167408,0.9242191,0.012008316,-0.021590631,-0.004073528,0.9997586,0.92124563,-0.3885556,0.018196533,0.38839212,0.92141694,0.011934016,-0.021403622,-0.0039267708,0.99976325,-0.21786499,-0.03829956,9.7444,-0.21173096,-0.03994751,9.804245,-0.047912598,0.07455444,0.0053253174,11.117554,25.66986,-25.61493,0,0.0,0.0,0.0,0.0
0.881191099,0.92407364,-0.38176706,0.018486487,0.3815963,0.924249,0.012158463,-0.021727819,-0.0041809403,0.9997551,0.921302,-0.38842145,0.018200574,0.38825792,0.9214734,0.011935525,-0.02140736,-0.003929706,0.9997631,-0.25616455,-0.17237854,9.62468,-0.21307373,-0.041000366,9.804092,-0.024475098,0.067108154,-0.0021362305,11.117554,25.66986,-25.61493,0,0.0,0.0,0.0,0.0
0.885585631,0.9199819,-0.39152947,0.018385371,0.39135647,0.92015606,0.012365647,-0.021758925,-0.0041809375,0.9997544,0.92141014,-0.3881476,0.018569695,0.38797376,0.92158777,0.012339715,-0.021903235,-0.0041653845,0.9997514,-0.28012085,-0.03829956,9.5767975,-0.2133789,-0.041000366,9.804092,-0.013824463,0.029815674,-0.0095825195,11.117554,24.952698,-24.923706,0,0.0,0.0,0.0,0.0
0.889980162,0.9199534,-0.39160052,0.01830153,0.3914304,0.9201262,0.012247211,-0.02163573,-0.0041030864,0.9997574,0.92138165,-0.3882153,0.018566007,0.3880415,0.9215592,0.012340246,-0.02190035,-0.0041656955,0.99975145,-0.26574707,-0.0335083,9.658203,-0.21217346,-0.040237427,9.804245,-0.006378174,-0.008514404,-0.0053253174,11.117554,24.952698,-24.923706,0,0.0,0.0,0.0,0.0
0.894405211,0.91990006,-0.3917329,0.018145213,0.3915649,0.9200699,0.012184074,-0.021467766,-0.004103102,0.99976116,0.9213532,-0.3882831,0.01856071,0.3881094,0.9215307,0.012338404,-0.021895058,-0.0041644434,0.9997516,-0.20828247,-0.08618164,9.816223,-0.21052551,-0.040237427,9.804245,0.017044067,-0.030883789,0.0021362305,11.117554,24.952698,-24.923706,0,0.0,0.0,0.0,0.0
0.898799742,0.9114339,-0.4110633,0.017750828,0.4108939,0.91159755,0.012488913,-0.02131535,-0.0040891115,0.99976444,0.92132425,-0.38835216,0.018552387,0.38817853,0.92150164,0.012335346,-0.021886513,-0.0041632163,0.9997518,-0.15083313,-0.03829956,9.634262,-0.20903015,-0.040100098,9.804245,0.0063934326,-0.039413452,-0.0010681152,11.654663,24.772644,-24.749756,0,0.0,0.0,0.0,0.0
0.903194273,0.91144365,-0.4110407,0.01777811,0.4108716,0.91160786,0.0124665,-0.021330904,-0.004057991,0.99976414,0.92111343,-0.38887227,0.018121202,0.38870546,0.9212825,0.012106389,-0.021402586,-0.004107547,0.9997625,-0.24659729,0.03829956,9.768341,-0.20918274,-0.039794922,9.804245,0.0032043457,-0.028762817,0.004257202,11.654663,24.772644,-24.749756,1,0.0,0.0,0.0,0.0
0.907619322,0.91142833,-0.41107643,0.01773511,0.41090867,0.91159195,0.012413909,-0.02127025,-0.004026877,0.99976563,0.92092526,-0.38931793,0.01811441,0.3891511,0.9210943,0.012113685,-0.021401154,-0.004106556,0.99976254,-0.07899475,0.028717041,9.892838,-0.20858765,-0.039489746,9.804245,-0.004257202,-0.012771606,0.01171875,11.654663,24.772644,-24.749756,1,0.0,0.0,0.0,0.0
0.912013853,0.90046513,-0.43457854,0.01743407,0.43440694,0.90062505,0.012849796,-0.021285808,-0.003997313,0.99976546,0.9207404,-0.3897553,0.018106865,0.38958845,0.92090935,0.012119798,-0.021398535,-0.004104962,0.9997626,-0.24180603,0.04788208,9.835373,-0.20874023,-0.03919983,9.804245,-0.010635376,0.008529663,-0.0053253174,12.55188,24.952698,-26.306152,1,0.0,0.0,0.0,0.0
0.916438902,0.90049267,-0.43451884,0.01750382,0.4343448,0.9006536,0.012949223,-0.02139156,-0.0040579857,0.9997629,0.9203566,-0.3906614,0.018093692,0.3904944,0.9205253,0.012134748,-0.02139628,-0.0041028094,0.99976265,-0.14604187,-0.1484375,9.749176,-0.20977783,-0.039794922,9.804245,-0.011703491,0.015975952,0.007461548,12.55188,24.952698,-26.306152,1,0.0,0.0,0.0,0.0
0.920833433,0.90050936,-0.43448237,0.01754637,0.43430772,0.9006711,0.012968779,-0.021438219,-0.004057982,0.99976194,0.9199362,-0.39162925,0.01854502,0.3914548,0.92011374,0.01240518,-0.02192176,-0.0041524367,0.99975103,-0.3040619,-0.04788208,9.686935,-0.2102356,-0.039794922,9.804245,-0.003189087,0.031951904,0.0053253174,12.55188,24.952698,-26.306152,1,0.0,0.0,0.0,0.0
0.925227965,0.90669924,-0.42140412,0.017745307,0.4212324,0.9068639,0.012685308,-0.02143822,-0.004026863,0.99976206,0.9195675,-0.39249513,0.018525181,0.39232063,0.91974473,0.012417097,-0.021912087,-0.0041505476,0.99975127,-0.22744751,-0.05744934,9.662994,-0.2102356,-0.039489746,9.804245,-0.0053253174,0.019165039,-0.0063934326,12.371826,25.489807,-26.824951,1,0.0,0.0,0.0,0.0
0.929653013,0.9067022,-0.42139748,0.01775295,0.4212253,0.906867,0.012705837,-0.021453772,-0.004042421,0.9997617,0.9195675,-0.39249513,0.018525181,0.39232063,0.91974473,0.012417097,-0.021912087,-0.0041505476,0.99975127,-0.22744751,-0.05744934,9.662994,-0.21038818,-0.039642334,9.804245,-0.0053253174,0.019165039,-0.0063934326,12.371826,25.489807,-26.824951,1,0.0,0.0,0.0,0.0
0.934047545,0.90670484,-0.42139176,0.017759588,0.42121983,0.9068698,0.012691618,-0.021453774,-0.0040268614,0.99976176,0.91902584,-0.39376068,0.01854544,0.39358473,0.9192035,0.012488919,-0.021964679,-0.004178438,0.99975,-0.22265625,-0.009567261,9.60553,-0.21038818,-0.039489746,9.804245,-0.0021209717,0.004272461,0.007461548,12.371826,25.489807,-26.824951,1,0.0,0.0,0.0,0.0
0.938442076,0.92450583,-0.38072842,0.018299436,0.38056374,0.92467815,0.011905302,-0.021453772,-0.004042421,0.9997617,0.91878766,-0.3943169,0.01852968,0.39414105,0.91896504,0.012493326,-0.021954458,-0.0041754064,0.99975026,-0.22265625,-0.08139038,9.801849,-0.21038818,-0.039642334,9.804245,-0.0021209717,-0.015975952,-0.0095825195,11.296082,26.20697,-25.440979,1,0.0,0.0,0.0,0.0
0.942867125,0.9244936,-0.38075966,0.018261809,0.38059574,0.9246652,0.011873778,-0.021407114,-0.0040268656,0.9997627,0.918904,-0.39404595,0.018525206,0.39387032,0.9190813,0.012481472,-0.021944443,-0.0041727466,0.9997505,-0.09815979,0.0,9.768341,-0.20993042,-0.039489746,9.804245,0.0053253174,-0.0053253174,0.004257202,11.296082,26.20697,-25.440979,1,0.0,0.0,0.0,0.0
0.947261656,0.9244851,-0.38078174,0.018235296,0.38061747,0.9246559,0.011897062,-0.02139156,-0.0040579857,0.9997629,0.9190177,-0.393781,0.018520072,0.39360562,0.9191948,0.01246922,-0.021933697,-0.004169829,0.99975073,-0.16519165,-0.10055542,9.710876,-0.20977783,-0.039794922,9.804245,0.0010681152,-0.014907837,-0.0021362305,11.296082,26.20697,-25.440979,1,0.0,0.0,0.0,0.0
0.951686705,0.9099808,-0.41426915,0.017775016,0.4140997,0.91014546,0.012513997,-0.021362014,-0.0040268693,0.9997637,0.91916233,-0.39344096,0.018569835,0.39326546,0.9193405,0.012462251,-0.02197516,-0.0041519576,0.9997499,-0.13166809,0.01914978,9.806641,-0.20948792,-0.039489746,9.804245,0.0010681152,0.0032043457,-0.0053253174,12.193298,25.66986,-25.959778,1,0.0,0.0,0.0,0.0
0.956081236,0.90997046,-0.41429323,0.017746374,0.41412416,0.9101346,0.012501586,-0.021330908,-0.004026872,0.9997644,0.91898334,-0.39385962,0.018553868,0.3936842,0.9191613,0.012463578,-0.021962898,-0.0041494556,0.9997502,-0.11730957,-0.04309082,9.811432,-0.20918274,-0.039489746,9.804245,-0.0021209717,0.0053253174,0.0063934326,12.193298,25.66986,-25.959778,1,0.0,0.0,0.0,0.0
0.960475767,0.9099657,-0.41430417,0.01773333,0.41413447,0.9101293,0.012530115,-0.021330904,-0.004057991,0.99976414,0.91880757,-0.3942702,0.018537648,0.39409497,0.91898525,0.01246463,-0.021950256,-0.004147004,0.9997505,-0.18913269,-0.1197052,9.7827,-0.20918274,-0.039794922,9.804245,-0.004257202,-0.0010528564,0.0063934326,12.193298,25.66986,-25.959778,1,0.0,0.0,0.0,0.0
0.964900816,0.91953266,-0.392599,0.018045971,0.39243338,0.9197009,0.012097746,-0.021346461,-0.0040424303,0.999764,0.918635,-0.39467275,0.018521504,0.3944976,0.9188124,0.012466227,-0.02193787,-0.004145224,0.99975073,-0.25616455,0.009567261,9.8688965,-0.20933533,-0.039642334,9.804245,-0.0074310303,0.013839722,-0.004257202,11.476135,25.66986,-26.306152,1,0.0,0.0,0.0,0.0
0.969295347,0.91954917,-0.39255837,0.01809283,0.3923932,0.91971844,0.012067663,-0.021377569,-0.003997305,0.9997635,0.9187094,-0.3945064,0.018381083,0.39432818,0.9188829,0.012630874,-0.021873023,-0.004355924,0.99975127,-0.3040619,0.0909729,9.82579,-0.2096405,-0.03919983,9.804245,-0.012756348,-0.003189087,-0.008529663,11.476135,25.66986,-26.306152,1,0.0,0.0,0.0,0.0
0.973689879,0.91955805,-0.3925363,0.018118208,0.39237154,0.9197279,0.012044105,-0.021391569,-0.003966185,0.99976325,0.91872615,-0.39446747,0.018375339,0.39428952,0.9188996,0.0126196,-0.021863114,-0.004348752,0.9997515,-0.23222351,0.028717041,9.753967,-0.20977783,-0.038894653,9.804245,-0.003189087,0.009597778,0.0,11.476135,25.66986,-26.306152,1,0.0,0.0,0.0,0.0
0.978114927,0.93273914,-0.3600765,0.018510338,0.35991764,0.9329143,0.011411491,-0.02137757,-0.003981746,0.99976355,0.91874284,-0.39442888,0.018370219,0.39425123,0.9189162,0.012608078,-0.021853684,-0.004341101,0.99975175,-0.19871521,-0.07661438,9.720444,-0.2096405,-0.03904724,9.804245,0.004272461,0.0063934326,0.0053253174,10.220337,25.131226,-26.133728,1,0.0,0.0,0.0,0.0
0.982509459,0.93273973,-0.36007482,0.018512217,0.35991523,0.9329148,0.01144552,-0.021391565,-0.004012863,0.99976313,0.9190352,-0.393747,0.018373644,0.39356974,0.91920865,0.012584092,-0.021844162,-0.004333914,0.999752,-0.24180603,-0.11012268,9.844955,-0.20977783,-0.039352417,9.804245,-0.0010528564,0.0032043457,0.0010681152,10.220337,25.131226,-26.133728,1,0.0,0.0,0.0,0.0
0.986934508,0.93273544,-0.36008677,0.018499011,0.35992736,0.93291026,0.01144072,-0.021377567,-0.0040128645,0.9997634,0.91933006,-0.39306396,0.018245934,0.39288676,0.91950047,0.012600476,-0.021729939,-0.0044154106,0.9997541,-0.15560913,-0.06703186,9.662994,-0.2096405,-0.039352417,9.804245,-0.0053253174,-0.0063934326,-0.0010681152,10.220337,25.131226,-26.133728,1,0.0,0.0,0.0,0.0
0.991329039,0.91817254,-0.39577043,0.018026527,0.39560354,0.91834044,0.01218654,-0.021377563,-0.004057987,0.9997632,0.91960967,-0.3924092,0.01825158,0.39223236,0.9197802,0.012577314,-0.021722894,-0.0044073598,0.9997543,-0.22744751,-0.12449646,9.787491,-0.2096405,-0.039794922,9.804245,0.0032043457,0.0010681152,0.0021362305,11.117554,24.594116,-26.306152,1,0.0,0.0,0.0,0.0
0.99572357,0.91816854,-0.39578027,0.018015686,0.3956146,0.9183365,0.012132997,-0.021346461,-0.0040128673,0.9997641,0.919581,-0.3924765,0.018247046,0.39229986,0.9197515,0.012569513,-0.021715987,-0.004400373,0.99975455,-0.12689209,0.07661438,9.667786,-0.20933533,-0.039352417,9.804245,-0.006378174,-0.0053253174,-0.0063934326,11.117554,24.594116,-26.306152,1,0.0,0.0,0.0,0.0
1.000148619,0.91816545,-0.39578766,0.018007463,0.39562246,0.91833323,0.012112701,-0.02133091,-0.0039973087,0.99976444,0.91955286,-0.39254263,0.018242385,0.3923662,0.91972333,0.012560798,-0.021708595,-0.004392623,0.99975467,-0.16040039,-0.009567261,9.82579,-0.20918274,-0.03919983,9.804245,0.0010681152,0.0021362305,0.0,11.117554,24.594116,-26.306152,1,0.0,0.0,0.0,0.0
1.00454315,0.9185779,-0.3948285,0.018032385,0.39466405,0.91874635,0.012065307,-0.021330914,-0.00396619,0.9997646,0.91951543,-0.39262405,0.01837596,0.39244556,0.91968846,0.012629699,-0.021858882,-0.0044016405,0.9997513,-0.20828247,0.04788208,9.739609,-0.20918274,-0.038894653,9.804245,-0.0010528564,0.009597778,0.0010681152,10.758972,23.876953,-25.268555,1,0.0,0.0,0.0,0.0
1.008937681,0.9185779,-0.3948285,0.018032385,0.39466405,0.91874635,0.012065307,-0.021330914,-0.00396619,0.9997646,0.9194967,-0.3926682,0.01836906,0.39248997,0.9196697,0.012618428,-0.021848325,-0.004392932,0.9997516,-0.21307373,-0.05744934,9.82579,-0.20918274,-0.038894653,9.804245,-0.009567261,0.009597778,0.0021362305,10.758972,23.876953,-25.268555,1,0.0,0.0,0.0,0.0
1.01336273,0.91857696,-0.39483085,0.018029734,0.3946671,0.91874546,0.012032058,-0.021315362,-0.003936628,0.99976504,0.9194784,-0.39271143,0.018362302,0.39253345,0.9196513,0.012607383,-0.021837978,-0.0043843975,0.9997519,-0.15083313,0.028717041,9.8736725,-0.20903015,-0.038604736,9.804245,-0.010635376,0.008529663,-0.008529663,10.758972,23.876953,-25.268555,1,0.0,0.0,0.0,0.0
1.017757261,0.90538883,-0.42421615,0.017655095,0.42404646,0.9055524,0.012632372,-0.021346468,-0.0039506294,0.9997644,0.9194604,-0.39275384,0.018355625,0.3925762,0.9196332,0.01259589,-0.021827526,-0.004375442,0.99975216,-0.3040619,-0.07661438,9.844955,-0.20933533,-0.038742065,9.804245,-0.004257202,0.0021362305,0.0,11.834717,24.235535,-24.577332,1,0.0,0.0,0.0,0.0
1.02218231,0.90539414,-0.42420432,0.017669344,0.42403442,0.905558,0.0126387365,-0.02136202,-0.003950628,0.999764,0.91919625,-0.39337066,0.0183783,0.39319393,0.9193699,0.012555419,-0.021835389,-0.0043146573,0.9997523,-0.23222351,-0.03829956,9.773117,-0.20948792,-0.038742065,9.804245,0.0032043457,0.0010681152,-0.0010681152,11.834717,24.235535,-24.577332,1,0.0,0.0,0.0,0.0
1.026576842,0.9054088,-0.42417115,0.017709104,0.4240014,0.9055735,0.012623852,-0.021391572,-0.003921062,0.9997635,0.9189304,-0.39399183,0.018363979,0.39381522,0.91910386,0.012557413,-0.02182592,-0.004307376,0.99975246,-0.28489685,0.0622406,9.844955,-0.20977783,-0.03845215,9.804245,-0.004257202,-0.0095825195,0.0063934326,11.834717,24.235535,-24.577332,1,0.0,0.0,0.0,0.0
1.030971373,0.9174598,-0.39741665,0.01809601,0.3972529,0.9176301,0.012043113,-0.021391578,-0.00386038,0.9997637,0.9186699,-0.39459974,0.018350732,0.39442328,0.9188431,0.012559034,-0.021817235,-0.0042996504,0.99975276,-0.24180603,0.11491394,9.562439,-0.20977783,-0.037857056,9.804245,0.0032043457,0.0063934326,0.0,11.476135,25.31128,-25.959778,1,0.0,0.0,0.0,0.0
1.035396422,0.917462,-0.39741126,0.018102262,0.3972478,0.9176325,0.0120287305,-0.021391578,-0.0038448204,0.9997638,0.91859436,-0.3947831,0.018187268,0.39461115,0.91876477,0.012385434,-0.021599382,-0.0042002904,0.9997579,-0.20350647,-0.004776001,9.706085,-0.20977783,-0.037704468,9.804245,0.0053253174,-0.012771606,0.008514404,11.476135,25.31128,-25.959778,1,0.0,0.0,0.0,0.0
1.039790953,0.9174545,-0.39742956,0.018081086,0.39726672,0.9176246,0.012003077,-0.021362029,-0.0038292632,0.99976444,0.9185717,-0.3948357,0.018185547,0.39466387,0.9187422,0.012378304,-0.021595227,-0.0041931816,0.999758,-0.13166809,-0.0143585205,9.830582,-0.20948792,-0.03755188,9.804245,0.0010681152,-0.004257202,-0.0032043457,11.476135,25.31128,-25.959778,1,0.0,0.0,0.0,0.0
1.044185484,0.8928519,-0.45001662,0.017333085,0.44984412,0.89301187,0.013039128,-0.021346476,-0.0038448242,0.99976474,0.9185495,-0.3948876,0.018183434,0.39471596,0.9187199,0.012370804,-0.02159056,-0.0041859034,0.9997581,-0.16998291,-0.08139038,9.739609,-0.20933533,-0.037704468,9.804245,-0.0053253174,-0.0021209717,0.0010681152,12.55188,23.876953,-26.651001,1,0.0,0.0,0.0,0.0
1.048610533,0.89285487,-0.4500104,0.017340064,0.44983742,0.89301497,0.0130598955,-0.021362027,-0.0038603826,0.9997644,0.9180686,-0.39600518,0.018166587,0.39583355,0.91823876,0.012384724,-0.021585677,-0.0041790814,0.99975824,-0.24180603,-0.07182312,9.897629,-0.20948792,-0.037857056,9.804245,-0.0084991455,0.0032043457,-0.0010681152,12.55188,23.876953,-26.651001,1,0.0,0.0,0.0,0.0
1.053005064,0.892867,-0.44998524,0.017368324,0.4498126,0.8930277,0.0130386185,-0.021377582,-0.003829262,0.99976414,0.91758645,-0.3971149,0.018299839,0.39694244,0.9177597,0.012406065,-0.021721486,-0.0041196547,0.9997556,-0.23701477,0.03829956,9.859314,-0.2096405,-0.03755188,9.804245,0.0032043457,0.008529663,0.0010681152,12.55188,23.876953,-26.651001,1,0.0,0.0,0.0,0.0
1.057399595,0.8928846,-0.44994882,0.017409248,0.4497763,0.8930462,0.0130234165,-0.021407135,-0.0037981402,0.99976355,0.9171224,-0.39818618,0.018281342,0.3980137,0.9172954,0.012419358,-0.021714607,-0.004113847,0.99975574,-0.28489685,0.0622406,9.773117,-0.20993042,-0.037246704,9.804245,0.008529663,-0.0010528564,0.0095825195,12.55188,23.876953,-26.651001,1,0.0,0.0,0.0,0.0
1.061824644,0.89289653,-0.44992432,0.017436795,0.44975218,0.89305884,0.013003537,-0.02142269,-0.003768576,0.9997634,0.9166668,-0.39923474,0.01826401,0.39906228,0.91683954,0.012432008,-0.021708455,-0.0041075326,0.99975586,-0.27053833,0.02394104,9.557648,-0.21008301,-0.036956787,9.804245,0.0010681152,-0.003189087,-0.0032043457,12.55188,23.876953,-26.651001,1,0.0,0.0,0.0,0.0
1.066219176,0.8928846,-0.44994882,0.017409248,0.4497763,0.8930462,0.0130234165,-0.021407135,-0.0037981402,0.99976355,0.9162193,-0.40026134,0.018247547,0.40008885,0.91639185,0.012443956,-0.021702738,-0.004100753,0.99975604,-0.15560913,-0.11491394,9.58638,-0.20993042,-0.037246704,9.804245,-0.0021209717,0.0,0.0095825195,12.55188,23.876953,-26.651001,1,0.0,0.0,0.0,0.0
1.070644224,0.9278395,-0.37252292,0.018457074,0.37236506,0.9280154,0.011485721,-0.021407137,-0.003784137,0.9997637,0.9157914,-0.40123618,0.018322192,0.4010612,0.91596526,0.0125533035,-0.02181933,-0.0041478863,0.99975336,-0.21307373,0.009567261,9.859314,-0.20993042,-0.037109375,9.804245,-0.003189087,0.007461548,-0.0021362305,11.117554,26.387024,-26.306152,1,0.0,0.0,0.0,0.0
1.075038756,0.927831,-0.372545,0.01843135,0.37238672,0.9280062,0.011507796,-0.02139158,-0.0038137012,0.99976385,0.9160411,-0.40066564,0.018325364,0.40049103,0.916215,0.012531922,-0.021811083,-0.0041406117,0.99975353,-0.16998291,-0.10055542,9.7827,-0.20977783,-0.037399292,9.804245,0.01171875,0.0021362305,0.0021362305,11.117554,26.387024,-26.306152,1,0.0,0.0,0.0,0.0
1.079433287,0.9278268,-0.37255633,0.018418219,0.37239823,0.92800176,0.011502808,-0.021377582,-0.0038137024,0.99976414,0.9162852,-0.40010682,0.018327927,0.3999325,0.9164592,0.012511396,-0.021802692,-0.0041340734,0.9997538,-0.16519165,-0.04309082,9.82579,-0.2096405,-0.037399292,9.804245,0.0053253174,0.0,0.0021362305,11.117554,26.387024,-26.306152,1,0.0,0.0,0.0,0.0
1.083858336,0.9346452,-0.3550914,0.018668775,0.35493687,0.934824,0.011138315,-0.021407137,-0.003784137,0.9997637,0.9165241,-0.39955923,0.018330162,0.39938524,0.9166981,0.012491176,-0.021794189,-0.0041276664,0.99975395,-0.27053833,0.03829956,9.768341,-0.20993042,-0.037109375,9.804245,0.0021362305,0.0032043457,-0.0053253174,10.400391,26.028442,-25.61493,1,0.0,0.0,0.0,0.0
1.088252867,0.9346418,-0.35510048,0.018658169,0.35494536,0.9348202,0.011166127,-0.021407135,-0.0038137,0.99976355,0.91695493,-0.39856416,0.018444102,0.3983916,0.91713166,0.012395764,-0.02185618,-0.0040183812,0.99975306,-0.21786499,-0.11012268,9.701294,-0.20993042,-0.037399292,9.804245,0.0063934326,0.004272461,-0.007461548,10.400391,26.028442,-25.61493,1,0.0,0.0,0.0,0.0
1.092647398,0.9346391,-0.35510838,0.01864906,0.35495374,0.9348175,0.011146222,-0.021391584,-0.0037981418,0.999764,0.91732866,-0.39770317,0.018449118,0.39753097,0.9175054,0.012371121,-0.0218472,-0.0040142876,0.9997533,-0.16998291,-0.02394104,9.811432,-0.20977783,-0.037246704,9.804245,-0.0053253174,0.0053253174,0.003189087,10.400391,26.028442,-25.61493,1,0.0,0.0,0.0,0.0
1.097072447,0.9274283,-0.3735482,0.018397296,0.3733904,0.92760307,0.011502255,-0.021362033,-0.0037981442,0.9997646,0.917694,-0.39685923,0.018453836,0.3966874,0.9178707,0.012346566,-0.021838086,-0.0040099644,0.9997535,-0.12689209,-0.0335083,9.730026,-0.20948792,-0.037246704,9.804245,-0.0074310303,-0.003189087,-0.007461548,10.400391,24.594116,-24.923706,1,0.0,0.0,0.0,0.0
1.101466978,0.9274235,-0.37356094,0.01838271,0.37340328,0.92759776,0.0114967,-0.02134648,-0.0037981453,0.99976486,0.9178944,-0.39639544,0.01845301,0.39622387,0.9180711,0.012329578,-0.021828564,-0.004005728,0.99975365,-0.17955017,-0.04309082,9.821014,-0.20933533,-0.037246704,9.804245,-0.01914978,-0.008514404,0.007461548,10.400391,24.594116,-24.923706,1,0.0,0.0,0.0,0.0
1.105892027,0.9274235,-0.37356094,0.01838271,0.37340328,0.92759776,0.0114967,-0.02134648,-0.0037981453,0.99976486,0.91812444,-0.39585847,0.018532714,0.39568904,0.9183033,0.012214063,-0.021853695,-0.0038808389,0.99975365,-0.20350647,-0.009567261,9.615112,-0.20933533,-0.037246704,9.804245,0.007461548,0.0021362305,-0.0053253174,10.400391,24.594116,-24.923706,1,0.0,0.0,0.0,0.0
1.110286558,0.91046923,-0.41318873,0.017911257,0.41302317,0.9106375,0.012296853,-0.021391584,-0.0037981418,0.999764,0.9183157,-0.39541474,0.01852995,0.39524552,0.91849446,0.012199579,-0.02184355,-0.003879185,0.9997539,-0.3471527,-0.06703186,9.849731,-0.20977783,-0.037246704,9.804245,-0.003189087,-0.007446289,-0.0063934326,11.834717,24.952698,-25.959778,1,0.0,0.0,0.0,0.0
1.11468109,0.9104568,-0.4132179,0.017877525,0.41305244,0.9106244,0.012299387,-0.021362033,-0.003813704,0.9997646,0.9181622,-0.3957717,0.018517544,0.39560258,0.91834074,0.012201713,-0.02183451,-0.003877564,0.9997541,-0.12689209,-0.04788208,9.816223,-0.20948792,-0.037399292,9.804245,0.0021362305,-0.0053253174,-0.0032043457,11.834717,24.952698,-25.959778,1,0.0,0.0,0.0,0.0
1.119106138,0.9104691,-0.41318923,0.017910719,0.41302437,0.9106375,0.012264165,-0.021377588,-0.0037685798,0.9997644,0.9179686,-0.3962347,0.018215455,0.3960695,0.91814107,0.012079077,-0.021510506,-0.0038736276,0.9997611,-0.23222351,0.05744934,9.710876,-0.2096405,-0.036956787,9.804245,0.0,-0.019165039,0.007461548,11.834717,24.952698,-25.959778,1,0.0,0.0,0.0,0.0
1.12350067,0.916403,-0.39985034,0.018037051,0.399689,0.9165728,0.011962244,-0.021315377,-0.003753025,0.99976575,0.91782165,-0.39657512,0.018209366,0.39640993,0.9179941,0.012082849,-0.021507848,-0.0038715266,0.99976116,-0.06463623,0.01914978,9.835373,-0.20903015,-0.0368042,9.804245,0.004272461,-0.0021209717,0.0021362305,11.296082,24.772644,-24.749756,1,0.0,0.0,0.0,0.0
1.127895201,0.9164086,-0.39983663,0.018053303,0.39967436,0.91657865,0.012002924,-0.02134648,-0.0037841417,0.999765,0.9177934,-0.3966407,0.018205909,0.39647555,0.91796577,0.012080448,-0.021503998,-0.0038691568,0.9997612,-0.29927063,-0.1197052,9.854523,-0.20933533,-0.037109375,9.804245,-0.010635376,0.007461548,0.0,11.296082,24.772644,-24.749756,1,0.0,0.0,0.0,0.0
1.13232025,0.91641355,-0.3998245,0.018067718,0.39966205,0.91658384,0.012008903,-0.021362035,-0.0037841406,0.9997647,0.9177658,-0.39670467,0.018202849,0.3965396,0.9179382,0.0120789055,-0.021500848,-0.0038674565,0.9997614,-0.22265625,-0.03829956,9.7348175,-0.20948792,-0.037109375,9.804245,-0.0021209717,0.0063934326,0.007461548,11.296082,24.772644,-24.749756,1,0.0,0.0,0.0,0.0
1.136714781,0.91644365,-0.3997553,0.018077286,0.39959243,0.9166141,0.0120265875,-0.021377586,-0.003798143,0.9997643,0.91771865,-0.39681873,0.018091783,0.39665067,0.917888,0.012240309,-0.021463415,-0.0040570428,0.9997614,-0.24659729,-0.08618164,9.811432,-0.2096405,-0.037246704,9.804245,-0.011703491,-0.0021209717,0.003189087,11.654663,25.489807,-27.1698,1,0.0,0.0,0.0,0.0
1.14113983,0.9164503,-0.39973894,0.018095536,0.39957684,0.91662127,0.011984911,-0.02137759,-0.0037530202,0.99976444,0.91769326,-0.3968775,0.018091477,0.39670956,0.9178626,0.0122360345,-0.021461697,-0.0040518646,0.99976146,-0.20828247,0.10055542,9.859314,-0.2096405,-0.0368042,9.804245,0.007461548,0.009597778,0.0010681152,11.654663,25.489807,-27.1698,1,0.0,0.0,0.0,0.0
1.145534361,0.9164396,-0.3997648,0.018066682,0.39960307,0.9166099,0.01197299,-0.021346482,-0.0037530225,0.99976504,0.91766846,-0.39693478,0.018091539,0.3967669,0.9178379,0.012231009,-0.021460013,-0.0040458874,0.9997615,-0.16040039,-0.05265808,9.945511,-0.20933533,-0.0368042,9.804245,-0.006378174,-0.008514404,-0.0021362305,11.654663,25.489807,-27.1698,1,0.0,0.0,0.0,0.0
1.149928892,0.91746247,-0.39741012,0.018103542,0.39724913,0.9176335,0.011912292,-0.021346485,-0.0037374632,0.99976516,0.91764396,-0.3969914,0.018091025,0.39682367,0.9178134,0.01222585,-0.021457743,-0.00404003,0.9997616,-0.18913269,0.009567261,9.773117,-0.20933533,-0.03665161,9.804245,0.0053253174,0.008529663,0.0095825195,11.476135,25.31128,-25.959778,1,0.0,0.0,0.0,0.0
1.154353941,0.9174791,-0.39736947,0.018150544,0.39720893,0.91765124,0.011882446,-0.021377593,-0.0036923378,0.9997647,0.9177041,-0.39685553,0.018020168,0.39668846,0.9178721,0.012207695,-0.021384902,-0.00405466,0.9997631,-0.31362915,0.07182312,9.830582,-0.2096405,-0.036209106,9.804245,-0.0010528564,-0.004257202,-0.0095825195,11.476135,25.31128,-25.959778,1,0.0,0.0,0.0,0.0
1.158748472,0.91749626,-0.3973279,0.01819866,0.39716715,0.9176694,0.011885263,-0.0214227,-0.003676775,0.9997638,0.91769964,-0.39686581,0.018022774,0.39669883,0.9178677,0.012201188,-0.021384757,-0.0040474134,0.99976313,-0.31362915,0.01914978,9.572006,-0.21008301,-0.03605652,9.804245,0.0021362305,0.004272461,-0.007461548,11.476135,25.31128,-25.959778,1,0.0,0.0,0.0,0.0
1.163143004,0.9133906,-0.40668148,0.018109487,0.40651956,0.9135629,0.0120342355,-0.021438254,-0.0036300947,0.99976355,0.9176956,-0.39687505,0.018026289,0.39670822,0.9178637,0.012194868,-0.021385515,-0.0040400005,0.99976313,-0.25138855,0.06703186,9.7827,-0.2102356,-0.035598755,9.804245,-0.0053253174,0.004272461,0.0095825195,12.013245,25.848389,-25.440979,1,0.0,0.0,0.0,0.0
1.167568052,0.91338974,-0.40668327,0.018107275,0.4065221,0.9135621,0.012000944,-0.021422703,-0.0036005327,0.999764,0.9176105,-0.39707166,0.018027898,0.39690495,0.9177788,0.012191626,-0.021386571,-0.004031803,0.9997632,-0.16519165,0.0622406,9.749176,-0.21008301,-0.035308838,9.804245,-0.0053253174,0.0021362305,0.008514404,12.013245,25.848389,-25.440979,1,0.0,0.0,0.0,0.0
1.171962584,0.9134013,-0.4066556,0.018140823,0.40649512,0.9135745,0.011964083,-0.02143826,-0.003553853,0.99976385,0.91751605,-0.39728105,0.018224353,0.397111,0.917688,0.012310145,-0.021614859,-0.004057664,0.9997581,-0.24659729,0.08618164,9.7348175,-0.2102356,-0.034851074,9.804245,-0.0021209717,0.013839722,0.0010681152,12.013245,25.848389,-25.440979,1,0.0,0.0,0.0,0.0
1.176387633,0.9337624,-0.3574033,0.018725043,0.3572536,0.9339435,0.010921754,-0.021391606,-0.0035087336,0.99976504,0.9174347,-0.39746895,0.018222595,0.3972991,0.9176067,0.0123032285,-0.021611325,-0.0040475875,0.9997583,-0.12210083,-0.1197052,9.76355,-0.20977783,-0.03440857,9.804245,0.009597778,0.0010681152,-0.0032043457,9.861755,24.414063,-25.787354,1,0.0,0.0,0.0,0.0
1.180782164,0.9337477,-0.35744405,0.01868084,0.35729384,0.93392783,0.010954146,-0.021362053,-0.003553859,0.9997655,0.9174347,-0.39746895,0.018222595,0.3972991,0.9176067,0.0123032285,-0.021611325,-0.0040475875,0.9997583,-0.12210083,-0.1197052,9.76355,-0.20948792,-0.034851074,9.804245,0.009597778,0.0010681152,-0.0032043457,9.861755,24.414063,-25.787354,1,0.0,0.0,0.0,0.0
1.185176695,0.9337483,-0.3574426,0.018682461,0.35729337,0.93392855,0.010906425,-0.0213465,-0.0035087368,0.99976593,0.91811347,-0.3958976,0.0182423,0.39572853,0.91828585,0.012250157,-0.021601453,-0.004028036,0.99975854,-0.17955017,0.04788208,9.706085,-0.20933533,-0.03440857,9.804245,0.007461548,0.008529663,-0.0032043457,9.861755,24.414063,-25.787354,1,0.0,0.0,0.0,0.0
1.189601744,0.9235339,-0.3830761,0.018380368,0.38292226,0.92371017,0.011403402,-0.021346502,-0.0034931772,0.999766,0.9184487,-0.3951198,0.018231168,0.39495015,0.9186206,0.0122716185,-0.021596285,-0.00407045,0.9997585,-0.18913269,0.0143585205,9.787491,-0.20933533,-0.03425598,9.804245,-0.003189087,0.0,-0.0010681152,10.9375,25.131226,-25.787354,1,0.0,0.0,0.0,0.0
1.193996275,0.9235318,-0.38308132,0.01837434,0.38292718,0.9237078,0.011417875,-0.0213465,-0.0035087368,0.99976593,0.918552,-0.39487958,0.018234342,0.39471024,0.91872394,0.0122542735,-0.02159129,-0.0040589045,0.99975866,-0.22265625,-0.07182312,9.76355,-0.20933533,-0.03440857,9.804245,0.0,0.0010681152,-0.0063934326,10.9375,25.131226,-25.787354,1,0.0,0.0,0.0,0.0
1.198390806,0.9235377,-0.38306645,0.018391343,0.38291144,0.92371404,0.011458233,-0.021377606,-0.003539854,0.9997653,0.918653,-0.39464423,0.018237326,0.39447522,0.9188251,0.012237563,-0.021586396,-0.004047901,0.99975884,-0.2609558,-0.0909729,9.658203,-0.2096405,-0.034713745,9.804245,-0.006378174,0.004272461,0.010650635,10.9375,25.131226,-25.787354,1,0.0,0.0,0.0,0.0
1.202815855,0.93382037,-0.35725322,0.018702611,0.35710317,0.934001,0.0109428065,-0.021377606,-0.003539854,0.9997653,0.9187518,-0.3944133,0.018256703,0.39424437,0.9189243,0.012228919,-0.021599775,-0.00403774,0.99975854,-0.21307373,-0.0335083,9.859314,-0.2096405,-0.034713745,9.804245,0.0,0.0010681152,0.0,10.758972,26.745605,-26.306152,1,0.0,0.0,0.0,0.0
1.207210386,0.9338129,-0.35727358,0.018678876,0.35712412,0.9339931,0.010917574,-0.0213465,-0.0035242965,0.99976593,0.91906774,-0.3936761,0.018266339,0.3935075,0.9192404,0.012203371,-0.02159533,-0.004027783,0.99975866,-0.14604187,-0.02394104,9.811432,-0.20933533,-0.034561157,9.804245,0.008529663,-0.0063934326,-0.0032043457,10.758972,26.745605,-26.306152,1,0.0,0.0,0.0,0.0
1.211635435,0.9338147,-0.35726878,0.01868449,0.3571196,0.933995,0.010902949,-0.0213465,-0.0035087368,0.99976593,0.9193766,-0.39295384,0.018275298,0.3927856,0.91954947,0.0121778045,-0.021590356,-0.0040177135,0.99975884,-0.21307373,0.028717041,9.557648,-0.20933533,-0.03440857,9.804245,-0.0084991455,0.009597778,-0.0063934326,10.758972,26.745605,-26.306152,1,0.0,0.0,0.0,0.0
1.216029967,0.91940945,-0.39287797,0.018249862,0.39272273,0.919584,0.011577817,-0.021330953,-0.0034776188,0.9997664,0.91967875,-0.39224565,0.018284176,0.39207783,0.9198518,0.012152455,-0.02158548,-0.0040075337,0.99975896,-0.15083313,0.04788208,9.907196,-0.20918274,-0.034103394,9.804245,-0.004257202,0.0010681152,0.0021362305,10.9375,24.414063,-25.440979,1,0.0,0.0,0.0,0.0
1.220424498,0.91940206,-0.39289615,0.018229218,0.3927408,0.9195761,0.011586375,-0.021315398,-0.0034931798,0.9997667,0.91972965,-0.3921271,0.018267222,0.39196262,0.91990286,0.012000672,-0.021509858,-0.0038773064,0.9997611,-0.16040039,-0.11012268,9.691727,-0.20903015,-0.03425598,9.804245,0.007461548,-0.004257202,-0.008529663,10.9375,24.414063,-25.440979,1,0.0,0.0,0.0,0.0
1.224849547,0.9193902,-0.3929259,0.018195556,0.39277062,0.9195636,0.011589663,-0.021285847,-0.0035087415,0.9997673,0.91972315,-0.3921425,0.018266454,0.3919782,0.9198963,0.0119923875,-0.021505969,-0.0038696239,0.9997612,-0.16040039,-0.06703186,9.749176,-0.20874023,-0.03440857,9.804245,0.0032043457,-0.004257202,0.010650635,10.9375,24.414063,-25.440979,1,0.0,0.0,0.0,0.0
1.229244078,0.9184372,-0.39514795,0.018200776,0.3949922,0.9186109,0.011631003,-0.021315398,-0.0034931798,0.9997667,0.9197164,-0.3921582,0.018265028,0.3919941,0.9198897,0.011984333,-0.021501565,-0.0038624061,0.99976134,-0.25616455,0.028717041,9.801849,-0.20903015,-0.03425598,9.804245,0.0021362305,-0.01171875,0.0,11.296082,25.131226,-24.404907,1,0.0,0.0,0.0,0.0
1.233638609,0.9184253,-0.39517727,0.018165119,0.39502227,0.9185983,0.011599475,-0.021270296,-0.0034776232,0.99976766,0.91969097,-0.39221802,0.018263718,0.39205408,0.9198642,0.011977269,-0.021497842,-0.0038550214,0.99976146,-0.11251831,-0.009567261,9.749176,-0.20858765,-0.034103394,9.804245,-0.0010528564,0.0021362305,-0.0032043457,11.296082,25.131226,-24.404907,1,0.0,0.0,0.0,0.0
1.238063658,0.91842324,-0.39518237,0.018158905,0.39502713,0.9185961,0.011613866,-0.021270296,-0.003493183,0.99976766,0.9197429,-0.39210108,0.018160626,0.39193738,0.9199138,0.011983627,-0.021405004,-0.003904028,0.99976325,-0.19871521,-0.0622406,9.777908,-0.20858765,-0.03425598,9.804245,-0.003189087,-0.0053253174,-0.01171875,11.296082,25.131226,-24.404907,1,0.0,0.0,0.0,0.0
1.242458189,0.9202712,-0.39085853,0.01817788,0.39070487,0.92044413,0.011496407,-0.021225192,-0.0034776265,0.9997686,0.9197166,-0.39216274,0.018160565,0.39199919,0.9198876,0.01197623,-0.021402309,-0.0038958113,0.99976337,-0.07421875,0.004776001,9.821014,-0.20814514,-0.034103394,9.804245,0.0010681152,0.0,-0.0053253174,11.117554,24.952698,-26.306152,1,0.0,0.0,0.0,0.0
1.246883238,0.9202747,-0.39085004,0.018187381,0.3906977,0.92044806,0.011434318,-0.021209644,-0.003416945,0.9997692,0.9197277,-0.39213666,0.01816092,0.39197332,0.91989875,0.011966634,-0.021398764,-0.0038874475,0.9997634,-0.19871521,0.09576416,9.672562,-0.20799255,-0.0335083,9.804245,0.0032043457,0.0,-0.0010681152,11.117554,24.952698,-26.306152,1,0.0,0.0,0.0,0.0
1.251277769,0.9202724,-0.39085552,0.018181233,0.39070287,0.9204456,0.011448746,-0.021209642,-0.0034325046,0.99976915,0.9197387,-0.39211094,0.018161464,0.39194784,0.9199098,0.011955988,-0.021394981,-0.0038780374,0.9997636,-0.18913269,-0.04788208,9.811432,-0.20799255,-0.03366089,9.804245,-0.006378174,0.0053253174,-0.004257202,11.117554,24.952698,-26.306152,1,0.0,0.0,0.0,0.0
1.255672301,0.93044204,-0.3659734,0.018465888,0.3658246,0.9306187,0.010997895,-0.021209639,-0.0034776276,0.9997689,0.91979295,-0.39197367,0.018373646,0.39180714,0.9199681,0.012073975,-0.021635847,-0.003906631,0.9997583,-0.22744751,-0.1771698,9.7444,-0.20799255,-0.034103394,9.804245,-0.0021209717,0.014907837,-0.007461548,10.578918,25.489807,-27.861023,1,0.0,0.0,0.0,0.0
1.260097349,0.93044776,-0.365958,0.018482186,0.36580834,0.93062466,0.011037354,-0.021239188,-0.003508745,0.99976826,0.92001307,-0.39145666,0.01837594,0.3912905,0.9201883,0.012052417,-0.021627324,-0.0038980506,0.99975854,-0.27053833,-0.11012268,9.816223,-0.20828247,-0.03440857,9.804245,-0.011703491,-0.003189087,0.003189087,10.578918,25.489807,-27.861023,1,0.0,0.0,0.0,0.0
1.264491881,0.930449,-0.36595467,0.018485708,0.365806,0.9306262,0.010990184,-0.021225195,-0.003463623,0.99976873,0.92022866,-0.39094955,0.018378476,0.3907837,0.9204039,0.01203209,-0.02161956,-0.0038902643,0.9997587,-0.17955017,0.10055542,9.811432,-0.20814514,-0.033966064,9.804245,-0.0010528564,0.012771606,-0.0010681152,10.578918,25.489807,-27.861023,1,0.0,0.0,0.0,0.0
1.268886412,0.9304439,-0.36596856,0.01847107,0.36582005,0.9306208,0.010984769,-0.02120964,-0.0034636243,0.99976903,0.9204396,-0.39045238,0.01838104,0.3902869,0.92061496,0.012011228,-0.021611674,-0.0038817313,0.9997589,-0.16998291,-0.03829956,9.739609,-0.20799255,-0.033966064,9.804245,-0.017028809,-0.0021209717,-0.008529663,10.578918,25.489807,-27.861023,1,0.0,0.0,0.0,0.0
1.273311461,0.93043566,-0.3659908,0.018447552,0.3658429,0.9306121,0.010959353,-0.021178536,-0.0034480665,0.9997697,0.92064935,-0.38994557,0.018635537,0.38978168,0.92083055,0.0118882535,-0.021795942,-0.0036811212,0.9997556,-0.12210083,0.01914978,9.701294,-0.20768738,-0.033813477,9.804245,0.01171875,0.011703491,-0.0010681152,10.578918,25.489807,-27.861023,1,0.0,0.0,0.0,0.0
1.277705992,0.9304376,-0.36598533,0.018453307,0.36583775,0.9306143,0.010944767,-0.021178536,-0.003432507,0.9997698,0.92085105,-0.38946897,0.018632125,0.3893054,0.92103225,0.011869506,-0.021783594,-0.0036764601,0.999756,-0.21307373,-0.0143585205,9.682144,-0.20768738,-0.03366089,9.804245,-0.013824463,-0.010650635,-0.010650635,10.578918,25.489807,-27.861023,1,0.0,0.0,0.0,0.0
1.282131041,0.90491045,-0.4252339,0.017695054,0.42507538,0.90507686,0.012105331,-0.021162983,-0.0034325079,0.99977005,0.92104864,-0.3890017,0.018628893,0.38883847,0.9212297,0.0118508525,-0.021771492,-0.0036715812,0.9997562,-0.16998291,-0.009567261,9.7348175,-0.20753479,-0.03366089,9.804245,0.0063934326,0.008529663,0.008514404,11.296082,22.979736,-25.440979,1,0.0,0.0,0.0,0.0
1.286525572,0.9049163,-0.425221,0.017709306,0.42506233,0.905083,0.01211169,-0.021178536,-0.003432507,0.9997698,0.9207625,-0.389684,0.01851335,0.3895221,0.9209413,0.011815536,-0.021654036,-0.0036679439,0.9997588,-0.22265625,-0.05744934,9.739609,-0.20768738,-0.03366089,9.804245,0.0,-0.0063934326,-0.0032043457,11.296082,22.979736,-25.440979,1,0.0,0.0,0.0,0.0
1.290920103,0.90491045,-0.4252339,0.017695054,0.42507538,0.90507686,0.012105331,-0.021162983,-0.0034325079,0.99977005,0.9204592,-0.3904007,0.01849723,0.39023888,0.9206377,0.011821897,-0.021644525,-0.003663235,0.999759,-0.16519165,-0.0335083,9.696503,-0.20753479,-0.03366089,9.804245,0.007461548,0.0021362305,0.0,11.296082,22.979736,-25.440979,1,0.0,0.0,0.0,0.0
1.295345152,0.9055683,-0.42383027,0.017720396,0.42367232,0.90573525,0.012063795,-0.021162987,-0.0034169485,0.9997702,0.9201613,-0.3911031,0.018481145,0.39094132,0.92033964,0.011827996,-0.021634895,-0.0036586204,0.99975926,-0.21307373,0.01914978,9.753967,-0.20753479,-0.0335083,9.804245,0.0021362305,0.0032043457,-0.0021362305,12.193298,24.952698,-26.306152,1,0.0,0.0,0.0,0.0
1.299739683,0.90555525,-0.42385948,0.017686645,0.42370164,0.9057215,0.012065934,-0.021133434,-0.0034325104,0.9997708,0.9198809,-0.39176267,0.018465871,0.39160097,0.920059,0.011833096,-0.021625457,-0.0036537868,0.99975944,-0.14125061,-0.07182312,9.562439,-0.20724487,-0.03366089,9.804245,0.004272461,-0.010650635,-0.0053253174,12.193298,24.952698,-26.306152,1,0.0,0.0,0.0,0.0
1.304134215,0.905547,-0.42387784,0.017665442,0.4237199,0.90571284,0.012073604,-0.021117553,-0.0034480176,0.9997711,0.91954833,-0.3925392,0.01854247,0.39237517,0.9197278,0.011934502,-0.021738786,-0.0036987464,0.9997568,-0.14125061,-0.09576416,9.706085,-0.20709229,-0.033813477,9.804398,-0.003189087,0.007461548,0.008514404,12.193298,24.952698,-26.306152,1,0.0,0.0,0.0,0.0
1.308559263,0.91715235,-0.39813086,0.0179814,0.39797682,0.9173219,0.011611288,-0.021117548,-0.00349314,0.9997709,0.91927886,-0.39317065,0.018524818,0.39300674,0.9194581,0.011937738,-0.021726364,-0.003693732,0.9997572,-0.19392395,-0.12927246,9.715668,-0.20709229,-0.03425598,9.804398,0.008529663,0.0010681152,0.0,11.476135,25.31128,-24.923706,1,0.0,0.0,0.0,0.0
1.312953795,0.9171496,-0.39813763,0.017973242,0.39798406,0.91731906,0.011590961,-0.021101996,-0.0034775815,0.99977124,0.91923666,-0.39327,0.018513912,0.39310625,0.91941565,0.011931264,-0.021714188,-0.00368972,0.9997574,-0.16519165,0.004776001,9.758759,-0.2069397,-0.034103394,9.804398,0.0021362305,0.0063934326,0.0021362305,11.476135,25.31128,-24.923706,1,0.0,0.0,0.0,0.0
1.317378843,0.9171439,-0.39815173,0.017956298,0.39799908,0.9173132,0.011551743,-0.021070894,-0.003448021,0.9997721,0.9191952,-0.39336744,0.018503059,0.39320397,0.9193739,0.011924511,-0.021701945,-0.0036854772,0.9997577,-0.14604187,0.0335083,9.830582,-0.20663452,-0.033813477,9.804398,-0.012756348,-0.008514404,0.0010681152,11.476135,25.31128,-24.923706,1,0.0,0.0,0.0,0.0
1.321773375,0.91522074,-0.4025554,0.017894026,0.4024023,0.9153892,0.011618028,-0.021056896,-0.0034324622,0.9997723,0.91913337,-0.39351207,0.018494504,0.39334795,0.9193119,0.011956075,-0.021707077,-0.0037144534,0.99975747,-0.15560913,-0.004776001,9.715668,-0.20649719,-0.03366089,9.804398,-0.0021209717,0.0010681152,0.003189087,11.476135,24.952698,-25.61493,1,0.0,0.0,0.0,0.0
1.326167906,0.91521883,-0.40256006,0.01788862,0.40240607,0.91538703,0.01166505,-0.021070892,-0.003477584,0.99977195,0.919056,-0.39369333,0.01848241,0.39352942,0.91923434,0.011949419,-0.021694073,-0.0037088136,0.9997578,-0.25616455,-0.14364624,9.811432,-0.20663452,-0.034103394,9.804398,0.0021362305,-0.0053253174,0.0,11.476135,24.952698,-25.61493,1,0.0,0.0,0.0,0.0
1.330592955,0.9152184,-0.40256083,0.017887693,0.40240747,0.9153867,0.011632375,-0.021056896,-0.003448022,0.9997723,0.9189801,-0.393871,0.018470464,0.3937073,0.9191582,0.011943833,-0.021681609,-0.0037041893,0.99975806,-0.15083313,0.03829956,9.792282,-0.20649719,-0.033813477,9.804398,-0.013824463,0.013839722,0.0053253174,11.476135,24.952698,-25.61493,1,0.0,0.0,0.0,0.0
1.334987486,0.90878624,-0.41688845,0.017653886,0.41673273,0.90895104,0.011906582,-0.021010235,-0.0034635847,0.9997732,0.91890574,-0.39404514,0.018458735,0.39388168,0.9190836,0.011937703,-0.021669114,-0.003699066,0.99975836,-0.10293579,-0.0622406,9.706085,-0.20603943,-0.033966064,9.804398,-0.0074310303,0.0010681152,-0.0010681152,12.371826,25.848389,-26.478577,1,0.0,0.0,0.0,0.0
1.339382017,0.9087833,-0.416895,0.017646149,0.41673973,0.90894806,0.011886088,-0.020994684,-0.0034480263,0.99977356,0.91872615,-0.39446,0.018536558,0.39429042,0.9189048,0.012206004,-0.021848114,-0.0039051871,0.99975365,-0.17955017,-0.009567261,9.572006,-0.20588684,-0.033813477,9.804398,-0.012756348,0.011703491,-0.0032043457,12.371826,25.848389,-26.478577,1,0.0,0.0,0.0,0.0
1.343807066,0.90879095,-0.41687733,0.017667001,0.41672215,0.90895605,0.011878084,-0.021010237,-0.0034324655,0.99977326,0.91853267,-0.3949111,0.01851849,0.3947418,0.91871107,0.012199965,-0.021831045,-0.003896044,0.9997541,-0.22744751,0.009567261,9.749176,-0.20603943,-0.03366089,9.804398,0.0032043457,0.013839722,0.007461548,12.371826,25.848389,-26.478577,1,0.0,0.0,0.0,0.0
1.348201597,0.917393,-0.39757937,0.017907841,0.39742747,0.91756123,0.011516431,-0.021010237,-0.0034480253,0.99977326,0.918343,-0.39535272,0.018501207,0.39518374,0.9185211,0.012193863,-0.021814628,-0.0038867726,0.9997545,-0.22265625,-0.08139038,9.725235,-0.20603943,-0.033813477,9.804398,-0.0084991455,0.012771606,0.004257202,11.476135,25.31128,-25.959778,1,0.0,0.0,0.0,0.0
1.352626646,0.91737074,-0.3976334,0.017845316,0.39748195,0.9175378,0.01150765,-0.020949582,-0.0034635896,0.9997746,0.91832405,-0.39539728,0.018489305,0.39522865,0.918502,0.012180341,-0.021798538,-0.0038779974,0.99975485,-0.04548645,-0.0622406,9.76355,-0.20544434,-0.033966064,9.804398,0.0053253174,-0.003189087,0.0021362305,11.476135,25.31128,-25.959778,1,0.0,0.0,0.0,0.0
1.357021177,0.917393,-0.39757937,0.017907841,0.39742747,0.91756123,0.011516431,-0.021010237,-0.0034480253,0.99977326,0.918315,-0.395423,0.01839411,0.39525953,0.9184916,0.011959703,-0.021623978,-0.0037123256,0.99975926,-0.3471527,-0.009567261,9.792282,-0.20603943,-0.033813477,9.804398,0.009597778,-0.0095825195,-0.0010681152,11.476135,25.31128,-25.959778,1,0.0,0.0,0.0,0.0
1.361415709,0.91984123,-0.39187884,0.017972851,0.39172772,0.9200102,0.011419414,-0.021010235,-0.0034635847,0.9997732,0.9182965,-0.39546615,0.018384365,0.3953029,0.91847306,0.011950858,-0.021611704,-0.0037070396,0.99975955,-0.19871521,-0.07182312,9.710876,-0.20603943,-0.033966064,9.804398,0.0021362305,0.009597778,-0.0053253174,11.117554,24.952698,-24.923706,1,0.0,0.0,0.0,0.0
1.365840758,0.91983634,-0.39189112,0.01795839,0.39174017,0.92000514,0.011413563,-0.020994684,-0.0034635859,0.99977356,0.91832757,-0.39539447,0.018376172,0.3952315,0.91850394,0.011940196,-0.021599675,-0.0037021704,0.99975985,-0.19392395,-0.01914978,9.916779,-0.20588684,-0.033966064,9.804398,-0.004257202,-0.0021209717,0.0021362305,11.117554,24.952698,-24.923706,1,0.0,0.0,0.0,0.0
1.370235289,0.91983837,-0.39188588,0.017964551,0.3917352,0.9200073,0.011399146,-0.020994684,-0.0034480263,0.99977356,0.9184048,-0.39520922,0.018503696,0.39504802,0.9185843,0.011835407,-0.021674663,-0.003559846,0.9997588,-0.17955017,-0.004776001,9.639053,-0.20588684,-0.033813477,9.804398,0.008529663,0.0053253174,-0.007461548,11.117554,24.952698,-24.923706,1,0.0,0.0,0.0,0.0
1.37462982,0.9039567,-0.42726544,0.017509026,0.42710832,0.9041196,0.012087169,-0.020994684,-0.0034480263,0.99977356,0.91843355,-0.3951428,0.018492939,0.3949818,0.91861284,0.01182664,-0.021661064,-0.0035576094,0.9997591,-0.20350647,-0.004776001,9.533707,-0.20588684,-0.033813477,9.804398,-0.011703491,0.0063934326,0.012786865,12.730408,25.848389,-26.478577,1,0.0,0.0,0.0,0.0
1.379054869,0.9039567,-0.42726544,0.017509026,0.42710832,0.9041196,0.012087169,-0.020994684,-0.0034480263,0.99977356,0.91815513,-0.3957902,0.018473227,0.39562923,0.9183341,0.011832386,-0.021647736,-0.0035554175,0.9997593,-0.21786499,-0.03829956,9.753967,-0.20588684,-0.033813477,9.804398,-0.013824463,0.014907837,-0.0032043457,12.730408,25.848389,-26.478577,1,0.0,0.0,0.0,0.0
1.3834494,0.9039645,-0.42724785,0.017529968,0.4270908,0.90412784,0.012079406,-0.021010237,-0.0034324655,0.99977326,0.91788185,-0.39642444,0.01845391,0.39626357,0.9180605,0.011837997,-0.021634677,-0.00355327,0.9997596,-0.25138855,-0.0143585205,9.739609,-0.20603943,-0.03366089,9.804398,-0.0010528564,0.0063934326,0.0,12.730408,25.848389,-26.478577,1,0.0,0.0,0.0,0.0
1.387874449,0.91575956,-0.4013277,0.017903341,0.4011746,0.91592807,0.011608275,-0.021056896,-0.003448022,0.9997723,0.91766816,-0.39691868,0.018458221,0.3967551,0.9178465,0.01196743,-0.02169191,-0.0036587354,0.999758,-0.29447937,-0.04788208,9.844955,-0.20649719,-0.033813477,9.804398,-0.006378174,0.004272461,-0.008529663,11.654663,25.489807,-24.749756,1,0.0,0.0,0.0,0.0
1.39226898,0.9157569,-0.40133435,0.017895257,0.4011817,0.91592526,0.011587917,-0.021041345,-0.0034324636,0.9997727,0.9176302,-0.39700696,0.018447086,0.39684358,0.9178083,0.011960297,-0.02167921,-0.0036545212,0.9997583,-0.18434143,-0.004776001,9.897629,-0.2063446,-0.03366089,9.804398,-0.0074310303,0.0053253174,-0.0032043457,11.654663,25.489807,-24.749756,1,0.0,0.0,0.0,0.0
1.396663511,0.9157582,-0.40133113,0.017899157,0.4011795,0.9159269,0.011540292,-0.021025795,-0.0033873422,0.9997732,0.917593,-0.3970936,0.01843601,0.39693046,0.91777086,0.0119528975,-0.021666452,-0.0036500802,0.9997586,-0.16519165,0.08618164,9.730026,-0.20619202,-0.033218384,9.804398,-0.0010528564,0.0021362305,-0.008529663,11.654663,25.489807,-24.749756,1,0.0,0.0,0.0,0.0
1.40108856,0.9260619,-0.37693334,0.018181501,0.37678537,0.92623407,0.011103996,-0.02102579,-0.0034324646,0.999773,0.91755646,-0.39717847,0.018425232,0.39701554,0.9177342,0.011944693,-0.02165364,-0.0036448254,0.9997589,-0.18913269,-0.1484375,9.715668,-0.20619202,-0.03366089,9.804398,-0.0010528564,0.0032043457,-0.004257202,11.117554,26.028442,-26.651001,1,0.0,0.0,0.0,0.0
1.405483092,0.9260578,-0.37694383,0.018169569,0.37679702,0.92622983,0.011050695,-0.020994687,-0.0033873443,0.9997738,0.917736,-0.39676028,0.018496301,0.39659542,0.91791487,0.012017541,-0.021746112,-0.0036933806,0.99975675,-0.13166809,0.05744934,9.672562,-0.20588684,-0.033218384,9.804398,-0.003189087,0.0063934326,-0.0010681152,11.117554,26.028442,-26.651001,1,0.0,0.0,0.0,0.0
1.409877623,0.9260517,-0.37696007,0.018151132,0.37681317,0.9262233,0.011058708,-0.02098069,-0.003401349,0.9997741,0.9179065,-0.3963657,0.01849009,0.39620122,0.9180853,0.011998015,-0.021731082,-0.00368726,0.99975705,-0.16040039,-0.07182312,9.706085,-0.20574951,-0.033355713,9.804398,-0.0053253174,0.0021362305,-0.0138549805,11.117554,26.028442,-26.651001,1,0.0,0.0,0.0,0.0
1.414302672,0.9041402,-0.42687628,0.017527508,0.42671978,0.9043036,0.012051498,-0.020994687,-0.0034169075,0.99977374,0.91807336,-0.39597932,0.01848362,0.39581522,0.918252,0.011979042,-0.021716075,-0.0036815417,0.9997574,-0.23701477,-0.0622406,9.840164,-0.20588684,-0.0335083,9.804398,-0.0053253174,0.0053253174,-0.0021362305,12.013245,24.414063,-25.09613,1,0.0,0.0,0.0,0.0
1.418697203,0.9041402,-0.42687628,0.017527508,0.42671978,0.9043036,0.012051498,-0.020994687,-0.0034169075,0.99977374,0.917805,-0.39660186,0.018464344,0.3964379,0.91798335,0.011980993,-0.021701647,-0.003676249,0.99975777,-0.23222351,-0.02394104,9.682144,-0.20588684,-0.0335083,9.804398,0.0,0.0010681152,0.0010681152,12.013245,24.414063,-25.09613,1,0.0,0.0,0.0,0.0
1.423122252,0.9041378,-0.42688137,0.01752142,0.42672533,0.9043011,0.012031553,-0.02098069,-0.003401349,0.9997741,0.9175773,-0.39713082,0.018411301,0.39696825,0.9177548,0.011929836,-0.021634765,-0.0036378452,0.9997593,-0.14604187,-0.01914978,9.600739,-0.20574951,-0.033355713,9.804398,0.0021362305,-0.003189087,-0.0053253174,12.013245,24.414063,-25.09613,1,0.0,0.0,0.0,0.0
