Time,Rot1,Rot2,Rot3,Rot4,Rot5,Rot6,Rot7,Rot8,Rot9,FRot1,FRot2,FRot3,FRot4,FRot5,FRot6,FRot7,FRot8,FRot9,AccX,AccY,AccZ,GravX,GravY,GravZ,GyroX,GyroY,GyroZ,MagX,MagY,MagZ,Imid
0.0,0.0,0.0,0.0,0.0,0.0,0.0,0.0,0.0,0.0,0.0,0.0,0.0,0.0,0.0,0.0,0.0,0.0,0.0,0.03111267,9.797058,-0.20350647,0.0368042,9.805145,-0.16235352,0.0,0.0,0.0,0.0,0.0,0.0,0,0.0,0.0,0.0,0.0
0.004394531,0.99913836,-0.003050685,0.041392744,0.04133639,-0.016664961,-0.99900633,0.0037374613,0.9998565,-0.016524496,1.0,0.0,0.0,0.0,1.0,0.0,0.0,0.0,1.0,-0.01675415,9.8688965,-0.09815979,0.03665161,9.805145,-0.16204834,0.0,0.0,0.0,0.71868896,-32.421875,-19.737244,0,0.0,0.0,0.0,0.0
0.008789062,0.9991382,-0.003052503,0.041395724,0.041339513,-0.016619898,-0.9990069,0.0037374643,0.99985725,-0.016479386,0.9959614,0.06651161,-0.06030779,-0.06824514,0.99729896,-0.027153501,0.058338877,0.031159554,0.9978104,0.03111267,9.816223,-0.03590393,0.03665161,9.805145,-0.16160583,0.0053253174,-0.0010528564,-0.008529663,0.71868896,-32.421875,-19.737244,0,0.0,0.0,0.0,0.0
0.013183593,0.9991402,-0.0030231818,0.041347634,0.041291863,-0.01663252,-0.99900866,0.0037079002,0.9998571,-0.016493388,0.98378694,0.13109599,-0.12238142,-0.13751012,0.9894553,-0.045489118,0.1151275,0.061580274,0.9914402,-0.04548645,9.821014,-0.18913269,0.036361694,9.805145,-0.16174316,0.004272461,0.0010681152,-0.0021362305,0.71868896,-32.421875,-19.737244,0,0.0,0.0,0.0,0.0
0.017578125,0.9971656,-0.0023942154,0.075198896,0.07514862,-0.016736303,-0.9970318,0.0036456606,0.99985707,-0.016508946,0.9634909,0.19346376,-0.18508667,-0.2067275,0.97684664,-0.05508585,0.17014416,0.09133721,0.9811771,-0.11251831,9.955078,-0.19392395,0.035751343,9.805145,-0.16189575,0.0010681152,-0.0053253174,-0.0095825195,1.435852,-32.780457,-20.083618,0,0.0,0.0,0.0,0.0
0.021972656,0.997163,-0.002416046,0.07523433,0.07518402,-0.01664604,-0.99703074,0.0036612258,0.9998585,-0.016417166,0.93544084,0.25260168,-0.2472708,-0.2741208,0.9600476,-0.056270927,0.2231776,0.120420195,0.967311,0.07421875,9.888046,0.04548645,0.03590393,9.805145,-0.16099548,0.010665894,-0.003189087,-0.0063934326,1.435852,-32.780457,-20.083618,0,0.0,0.0,0.0,0.0
0.026367187,0.9971632,-0.0024149066,0.07523249,0.07518214,-0.016661547,-0.9970306,0.0036612246,0.9998582,-0.016432721,0.8998955,0.30895486,-0.3077904,-0.33939287,0.9393471,-0.049391575,0.27386224,0.14890914,0.95017135,0.011962891,9.787491,-0.18913269,0.03590393,9.805145,-0.16114807,0.0063934326,0.0032043457,0.004257202,1.435852,-32.780457,-20.083618,0,0.0,0.0,0.0,0.0
0.030761718,0.9999889,-0.0037398282,-0.002857107,-0.0029182145,-0.016437544,-0.99986064,0.0036923434,0.9998579,-0.016448276,0.8572314,0.36244962,-0.36576575,-0.40170345,0.9151144,-0.034639418,0.32216245,0.17662336,0.9300621,0.12210083,9.777908,-0.18434143,0.036209106,9.805145,-0.16130066,0.009597778,0.011703491,0.008514404,-0.17852783,-33.317566,-18.873596,0,0.0,0.0,0.0,0.0
0.03515625,0.99998885,-0.0037245785,-0.0028840264,-0.0029447135,-0.016392378,-0.99986124,0.003676786,0.9998587,-0.016403165,0.8073065,0.4142459,-0.4203053,-0.4614409,0.88708955,-0.012017503,0.36787027,0.20364788,0.90730315,0.01675415,9.849731,-0.03590393,0.03605652,9.805145,-0.16085815,0.007461548,-0.0021209717,-0.0032043457,-0.17852783,-33.317566,-18.873596,0,0.0,0.0,0.0,0.0
0.039550781,0.99998885,-0.0037094106,-0.002910802,-0.0029711798,-0.016376771,-0.9998614,0.0036612274,0.999859,-0.01638761,0.7514073,0.46255365,-0.47056472,-0.5163414,0.8562115,0.017130628,0.41082677,0.23009996,0.88219917,-0.026321411,9.907196,-0.12210083,0.03590393,9.805145,-0.16070557,0.009597778,0.007461548,0.004257202,-0.17852783,-33.317566,-18.873596,0,0.0,0.0,0.0,0.0
0.043945312,0.99998903,-0.0037238698,-0.0028515938,-0.0029120452,-0.01633028,-0.99986243,0.0036767898,0.9998597,-0.016340943,0.6900867,0.5075236,-0.515946,-0.5658883,0.8228093,0.0524922,0.45116615,0.2557436,0.85501134,0.08857727,9.849731,-0.05984497,0.03605652,9.805145,-0.1602478,0.018112183,0.0010681152,0.003189087,-0.17852783,-32.958984,-19.56482,0,0.0,0.0,0.0,0.0
0.048339843,0.999989,-0.0037236584,-0.0028519502,-0.002912118,-0.016254054,-0.9998636,0.0036767945,0.99986094,-0.01626472,0.6241948,0.5490137,-0.55584604,-0.609543,0.7872677,0.09309618,0.4887107,0.2807019,0.8260559,0.007171631,9.854523,0.026321411,0.03605652,9.805145,-0.15950012,0.021316528,0.009597778,-0.0053253174,-0.17852783,-32.958984,-19.56482,0,0.0,0.0,0.0,0.0
0.052734375,0.99998903,-0.003708472,-0.0028775323,-0.0029373984,-0.016240006,-0.99986386,0.0036612358,0.99986124,-0.01625072,0.5545275,0.5869966,-0.58985955,-0.6469103,0.74994826,0.13814726,0.5234561,0.30497977,0.79560107,-0.002380371,9.82579,-0.11251831,0.03590393,9.805145,-0.1593628,0.0021362305,-0.0063934326,-0.015975952,-0.17852783,-32.958984,-19.56482,0,0.0,0.0,0.0,0.0
0.057128906,0.99911886,-0.0029593308,0.04186592,0.041811742,-0.016465187,-0.9989898,0.0036456715,0.99986005,-0.016326945,0.4818145,0.6213222,-0.6179106,-0.67759895,0.7112952,0.18686604,0.55562085,0.3286608,0.7637196,-0.002380371,9.844955,-0.34236145,0.035751343,9.805145,-0.16011047,0.009597778,-0.012771606,0.0053253174,0.71868896,-31.704712,-19.392395,0,0.0,0.0,0.0,0.0
0.061523437,0.9991223,-0.0029111165,0.041787222,0.041733474,-0.016568761,-0.99899143,0.0036005424,0.9998585,-0.016432727,0.40763968,0.6516988,-0.63962376,-0.70125705,0.6720664,0.23783457,0.5848661,0.35158986,0.7309693,-0.03111267,9.777908,-0.09336853,0.035308838,9.805145,-0.16114807,0.009597778,-0.010650635,-0.004257202,0.71868896,-31.704712,-19.392395,0,0.0,0.0,0.0,0.0
0.065917968,0.9991222,-0.0029123195,0.041789185,0.04173552,-0.016539237,-0.9989918,0.003600544,0.999859,-0.01640317,0.33210266,0.678712,-0.655025,-0.71821123,0.6321248,0.2908451,0.61145765,0.3738559,0.69738895,0.02154541,9.911987,-0.06463623,0.035308838,9.805145,-0.16085815,0.031967163,-0.015975952,-0.0032043457,0.71868896,-31.704712,-19.392395,0,0.0,0.0,0.0,0.0
0.070922851,0.9999756,-0.0035017335,0.006048634,0.005990342,-0.016424548,-0.99984723,0.003600544,0.999859,-0.01640317,0.25593132,0.7025069,-0.6640657,-0.7285495,0.5916819,0.34514958,0.6353856,0.39547014,0.6632409,0.04069519,9.777908,-0.17477417,0.035308838,9.805145,-0.16085815,0.014923096,-0.018096924,0.0,0.0,-31.704712,-18.354797,0,0.0,0.0,0.0,0.0
0.075927734,0.9999758,-0.0034866924,0.006022653,0.005964667,-0.01640881,-0.9998476,0.0035849854,0.9998593,-0.016387615,0.17916124,0.7234689,-0.6667039,-0.732483,0.5504957,0.40052852,0.6567876,0.41659006,0.6285562,0.007171631,9.82579,-0.13166809,0.03515625,9.805145,-0.16070557,0.010665894,-0.008514404,-0.0032043457,0.0,-31.704712,-18.354797,0,0.0,0.0,0.0,0.0
0.080963134,0.999976,-0.0034714693,0.0059963576,0.005938569,-0.01642418,-0.99984735,0.0035694244,0.999859,-0.01640317,0.103250116,0.74145406,-0.6630124,-0.7299859,0.5092564,0.45582736,0.6756183,0.4369254,0.5938317,-0.02154541,9.878464,-0.08857727,0.035003662,9.805145,-0.16085815,0.0010681152,-0.034088135,0.0,0.0,-31.704712,-18.354797,0,0.0,0.0,0.0,0.0
0.085968017,0.9999762,-0.0034565176,0.0059705316,0.0059131035,-0.016392892,-0.9998482,0.003553867,0.9998597,-0.016372062,0.103250116,0.74145406,-0.6630124,-0.7299859,0.5092564,0.45582736,0.6756183,0.4369254,0.5938317,-0.02154541,9.878464,-0.08857727,0.034851074,9.805145,-0.16055298,0.0010681152,-0.034088135,0.0,0.0,-31.704712,-18.354797,0,0.0,0.0,0.0,0.0
0.091003418,0.99988264,-0.0033409076,0.014952425,0.014895789,-0.016378637,-0.9997549,0.0035849889,0.9998603,-0.016326949,-0.044213712,0.768648,-0.63814217,-0.7064843,0.42757547,0.56396735,0.7063463,0.4757725,0.5241331,0.09336853,9.864105,-0.04069519,0.03515625,9.805145,-0.16011047,0.004272461,-0.02130127,0.0010681152,0.18005371,-33.676147,-19.56482,0,0.0,0.0,0.0,0.0
0.0960083,0.9998848,-0.0032663278,0.014824072,0.014768572,-0.016406639,-0.9997563,0.003508745,0.99986005,-0.01635651,-0.1143733,0.77814764,-0.61757994,-0.68638253,0.38752183,0.61539084,0.71819067,0.49428037,0.48978484,0.03111267,9.907196,-0.02154541,0.03440857,9.805145,-0.16040039,0.004272461,-0.013839722,-0.0053253174,0.18005371,-33.676147,-19.56482,0,0.0,0.0,0.0,0.0
0.101043701,0.9998848,-0.003267203,0.01482558,0.014770277,-0.016345983,-0.99975723,0.0035087483,0.999861,-0.016295841,-0.1143733,0.77814764,-0.61757994,-0.68638253,0.38752183,0.61539084,0.71819067,0.49428037,0.48978484,0.03111267,9.907196,-0.02154541,0.03440857,9.805145,-0.1598053,0.004272461,-0.013839722,-0.0053253174,0.18005371,-33.676147,-19.56482,0,0.0,0.0,0.0,0.0
0.106048584,0.9999876,-0.0036256597,-0.0034030585,-0.0034619954,-0.016375266,-0.9998598,0.0035694255,0.9998593,-0.016387615,-0.24585393,0.7897181,-0.56205094,-0.63108695,0.30970344,0.71120536,0.7357208,0.5295556,0.42223898,0.002380371,9.883255,-0.20828247,0.035003662,9.805145,-0.16070557,0.017044067,-0.0053253174,-0.008529663,-0.17852783,-31.524658,-18.873596,0,0.0,0.0,0.0,0.0
0.111083984,0.9999876,-0.0036105642,-0.0034282717,-0.0034870133,-0.016390786,-0.9998595,0.003553865,0.9998591,-0.016403172,-0.30667153,0.792174,-0.52764857,-0.5963383,0.272156,0.7551899,0.74184453,0.54625225,0.38894117,-0.026321411,9.7827,-0.03590393,0.034851074,9.805145,-0.16085815,0.015991211,-0.02130127,0.017028809,-0.17852783,-31.524658,-18.873596,0,0.0,0.0,0.0,0.0
0.11553955,0.9999876,-0.0035818855,-0.003476174,-0.0035345429,-0.016420275,-0.9998589,0.0035243,0.9998587,-0.016432729,-0.30667153,0.792174,-0.52764857,-0.5963383,0.272156,0.7551899,0.74184453,0.54625225,0.38894117,-0.026321411,9.7827,-0.03590393,0.034561157,9.805145,-0.16114807,0.015991211,-0.02130127,0.017028809,-0.17852783,-31.524658,-18.873596,0,0.0,0.0,0.0,0.0
0.119964599,0.99998754,-0.0035665855,-0.0035017296,-0.0035596855,-0.016375128,-0.9998596,0.0035087431,0.9998595,-0.01638762,-0.30667153,0.792174,-0.52764857,-0.5963383,0.272156,0.7551899,0.74184453,0.54625225,0.38894117,-0.026321411,9.7827,-0.03590393,0.03440857,9.805145,-0.16070557,0.015991211,-0.02130127,0.017028809,-0.17852783,-31.524658,-18.873596,0,0.0,0.0,0.0,0.0
0.124420166,0.99949944,-0.0029903217,0.03149657,0.03144304,-0.01651947,-0.9993691,0.0035087415,0.9998591,-0.016417176,-0.4656782,0.7877376,-0.40325338,-0.47104183,0.1651218,0.86651856,0.7491752,0.59346795,0.29416376,0.06463623,9.830582,-0.22744751,0.03440857,9.805145,-0.16099548,0.008529663,-0.017044067,-0.0010681152,0.53863525,-33.317566,-20.256042,0,0.0,0.0,0.0,0.0
0.128662109,0.99944437,-0.0029601192,0.03319839,0.033144895,-0.016586725,-0.9993128,0.0035087378,0.999858,-0.016479397,-0.50991136,0.7827097,-0.3568696,-0.42392468,0.13233879,0.8959768,0.7485174,0.60815454,0.2643289,0.02154541,9.7827,-0.31362915,0.03440857,9.805145,-0.16160583,0.0010681152,-0.015975952,-0.004257202,0.53863525,-33.676147,-19.218445,0,0.0,0.0,0.0,0.0
0.132873535,0.99944884,-0.0028880609,0.033072244,0.033020176,-0.016521651,-0.99931806,0.003432499,0.9998593,-0.01641718,-0.54984707,0.77621776,-0.30847093,-0.3746923,0.10084585,0.9216485,0.7465079,0.6223473,0.235393,-0.05027771,9.926346,-0.07421875,0.03366089,9.805145,-0.16099548,0.0032043457,-0.026626587,-0.0010681152,0.53863525,-33.676147,-19.218445,0,0.0,0.0,0.0,0.0
0.137084961,0.9994497,-0.0028738943,0.033047445,0.032995716,-0.016491527,-0.9993194,0.003416941,0.9998598,-0.016387625,-0.5854763,0.76839375,-0.25843504,-0.32370505,0.07068697,0.9435139,0.7432582,0.63606167,0.2073474,0.01675415,9.907196,-0.10293579,0.0335083,9.805145,-0.16070557,-0.0074310303,-0.019165039,-0.010650635,0.53863525,-33.676147,-19.218445,0,0.0,0.0,0.0,0.0
0.141296386,0.99945045,-0.0028602763,0.033023607,0.032972265,-0.016444305,-0.99932086,0.003401384,0.99986064,-0.016340958,-0.6167858,0.75946534,-0.20685188,-0.27116185,0.041695453,0.9616302,0.7389496,0.6492102,0.18022084,-0.002380371,9.821014,-0.026321411,0.033355713,9.805145,-0.1602478,-0.010635376,-0.012771606,0.0053253174,0.53863525,-33.676147,-19.218445,0,0.0,0.0,0.0,0.0
0.14553833,0.9994513,-0.002847619,0.03300145,0.032950424,-0.016414242,-0.99932224,0.003387382,0.99986124,-0.016311403,-0.6438605,0.7493618,-0.15459828,-0.21784426,0.01415631,0.97588086,0.7334764,0.6620095,0.15412949,-0.026321411,9.749176,-0.10293579,0.033218384,9.805145,-0.15995789,-0.0074310303,-0.01171875,-0.010650635,0.53863525,-33.676147,-19.218445,0,0.0,0.0,0.0,0.0
0.149749755,0.9994512,-0.002848617,0.033003196,0.032952257,-0.016383152,-0.99932265,0.003387384,0.9998617,-0.016280293,-0.6667581,0.73829615,-0.10174686,-0.16388434,-0.012064966,0.98640573,0.72703207,0.67436874,0.1290396,0.04548645,9.844955,-0.05027771,0.033218384,9.805145,-0.15965271,0.0,-0.01171875,-0.0063934326,0.53863525,-33.676147,-19.218445,0,0.0,0.0,0.0,0.0
0.153961181,0.9992548,-0.0040103747,-0.03838756,-0.03844754,-0.016138129,-0.99913025,0.003387384,0.9998617,-0.016280293,-0.68557566,0.72637695,-0.04860538,-0.109606735,-0.036984425,0.9932867,0.7197029,0.6863007,0.104971424,0.03111267,9.892838,-0.16519165,0.033218384,9.805145,-0.15965271,0.010665894,-0.0053253174,-0.0021362305,-0.8956909,-32.600403,-19.909668,0,0.0,0.0,0.0,0.0
0.158203125,0.9992548,-0.0040103747,-0.03838756,-0.03844754,-0.016138129,-0.99913025,0.003387384,0.9998617,-0.016280293,-0.70036715,0.7137562,0.006149672,-0.054140937,-0.061712176,0.9966244,0.7117264,0.69767016,0.08186461,0.026321411,9.840164,-0.15083313,0.033218384,9.805145,-0.15965271,-0.006378174,-0.010650635,0.01171875,-0.8956909,-32.600403,-19.909668,0,0.0,0.0,0.0,0.0
0.16241455,0.9992506,-0.0039373073,-0.03850701,-0.0385659,-0.01617168,-0.9991252,0.0033111395,0.9998614,-0.016311407,-0.7113096,0.7002786,0.060404122,9.165853E-4,-0.08501394,0.99637944,0.7028783,0.7087895,0.059829365,0.007171631,9.777908,0.002380371,0.032470703,9.805145,-0.15995789,0.008529663,-0.0063934326,0.0,-0.8956909,-32.600403,-19.909668,0,0.0,0.0,0.0,0.0
0.166625976,0.9999104,-0.0035061596,-0.0129229305,-0.012978229,-0.01623625,-0.999784,0.0032955816,0.999862,-0.016280297,-0.71841955,0.6861925,0.11407574,0.055498913,-0.10692828,0.99271655,0.6933926,0.71951807,0.03873643,-0.026321411,9.787491,-0.09336853,0.032318115,9.805145,-0.15965271,0.022369385,-0.0063934326,-0.015975952,-0.35858154,-32.063293,-19.04602,0,0.0,0.0,0.0,0.0
0.17086792,0.99991006,-0.0034908166,-0.012948753,-0.013003748,-0.016220808,-0.9997838,0.0032800226,0.9998623,-0.016264742,-0.71841955,0.6861925,0.11407574,0.055498913,-0.10692828,0.99271655,0.6933926,0.71951807,0.03873643,-0.026321411,9.787491,-0.09336853,0.032165527,9.805145,-0.15950012,0.022369385,-0.0063934326,-0.015975952,-0.35858154,-32.063293,-19.04602,0,0.0,0.0,0.0,0.0
0.175079345,0.99991006,-0.0034916012,-0.012947433,-0.013002644,-0.01628303,-0.9997828,0.0032800194,0.9998613,-0.016326966,-0.72207636,0.6567003,0.21760145,0.161391,-0.14595783,0.9760375,0.6727248,0.73989254,-5.9283135E-4,0.05505371,9.888046,-0.3471527,0.032165527,9.805145,-0.16011047,0.014923096,0.0063934326,-0.0032043457,-0.35858154,-32.063293,-19.04602,0,0.0,0.0,0.0,0.0
0.179290771,0.9996992,-0.002881062,0.024355408,0.024304895,-0.016431488,-0.9995696,0.0032800178,0.9998609,-0.016356522,-0.71892923,0.6414081,0.2678364,0.21276918,-0.16375846,0.9632821,0.6617174,0.74951905,-0.018741138,0.02154541,9.979019,-0.23701477,0.032165527,9.805145,-0.16040039,0.017044067,-0.003189087,-0.0032043457,0.36010742,-33.139038,-18.701172,0,0.0,0.0,0.0,0.0
0.183532714,0.99969995,-0.0028659452,0.024328636,0.024278376,-0.016431034,-0.9995703,0.0032644582,0.99986094,-0.016356522,-0.7129276,0.62598205,0.31603917,0.26230785,-0.17990811,0.9480652,0.6503298,0.7588014,-0.035938535,-0.011962891,9.897629,-0.13166809,0.03201294,9.805145,-0.16040039,0.0,0.0010681152,-0.007461548,0.36010742,-33.139038,-18.701172,0,0.0,0.0,0.0,0.0
0.18774414,0.99970144,-0.002833626,0.024271397,0.024221182,-0.016582558,-0.9995692,0.0032348868,0.9998585,-0.01650897,-0.7041351,0.6103757,0.36281577,0.3104216,-0.19493558,0.930397,0.63861734,0.76775104,-0.052212816,-0.03111267,9.715668,-0.25616455,0.031723022,9.805145,-0.16189575,0.019180298,0.007461548,0.0,0.36010742,-33.139038,-18.701172,0,0.0,0.0,0.0,0.0
0.191955566,0.9999889,-0.0033656198,-0.0032740242,-0.003329123,-0.016497942,-0.99985826,0.0033111288,0.9998582,-0.016508965,-0.6928258,0.59479856,0.40768486,0.35689867,-0.2084193,0.9105958,0.6265905,0.7763865,-0.06788456,0.12210083,9.76355,-0.03590393,0.032470703,9.805145,-0.16189575,0.027709961,0.007461548,-0.0032043457,-0.17852783,-33.676147,-19.909668,0,0.0,0.0,0.0,0.0
0.196197509,0.9999889,-0.0033357395,-0.0033245657,-0.0033795673,-0.016620766,-0.9998561,0.0032800029,0.99985623,-0.016631855,-0.6788063,0.57887745,0.4517996,0.40218878,-0.22168894,0.888312,0.61438274,0.7847005,-0.08233417,-0.03111267,9.92157,-0.14125061,0.032165527,9.805145,-0.1631012,0.012786865,0.02130127,0.008514404,-0.17852783,-33.676147,-19.909668,0,0.0,0.0,0.0,0.0
0.200408935,0.9999888,-0.0033206996,-0.003350004,-0.0034048487,-0.016650291,-0.9998555,0.0032644419,0.9998559,-0.016661413,-0.6625097,0.56293696,0.4941485,0.44573748,-0.23390022,0.86406523,0.60199577,0.79271215,-0.09596096,-0.03111267,9.8736725,-0.25616455,0.03201294,9.805145,-0.16339111,0.029830933,0.007461548,0.0,-0.17852783,-33.676147,-19.909668,0,0.0,0.0,0.0,0.0
0.204620361,0.99875927,-0.002417144,0.04974081,0.049693417,-0.01678836,-0.9986235,0.003248883,0.9998562,-0.016647413,-0.6441262,0.5470145,0.5346743,0.48746663,-0.24511766,0.83802956,0.5894724,0.8004327,-0.10876459,-0.002380371,9.8736725,-0.12689209,0.03186035,9.805145,-0.16325378,0.0063934326,0.022354126,0.0021362305,0.8972168,-31.88324,-19.56482,0,0.0,0.0,0.0,0.0
0.208862304,0.99876165,-0.0023883982,0.049694076,0.04964717,-0.01678678,-0.99862576,0.0032193195,0.99985623,-0.016647415,-0.6245719,0.53152174,0.5721841,0.5264704,-0.2545978,0.8111775,0.5768353,0.80787665,-0.1208158,-0.05505371,9.854523,-0.16040039,0.031570435,9.805145,-0.16325378,0.014923096,0.014907837,-0.0032043457,0.8972168,-31.88324,-19.56482,0,0.0,0.0,0.0,0.0
0.21307373,0.9987644,-0.0023559597,0.04964134,0.049594846,-0.016830169,-0.99862766,0.003188198,0.9998556,-0.016692527,-0.60319406,0.5160436,0.6081579,0.5638188,-0.26344115,0.7827561,0.56415004,0.81504464,-0.13204898,-0.04548645,9.883255,-0.27053833,0.03126526,9.805145,-0.16369629,-0.003189087,0.02130127,-0.007461548,0.8972168,-31.88324,-19.56482,0,0.0,0.0,0.0,0.0
0.217285156,0.9992182,-0.0038394537,-0.039347306,-0.03940542,-0.016462324,-0.9990877,0.0031882029,0.9998571,-0.01660075,-0.58031833,0.50071484,0.64227355,0.59929365,-0.27144614,0.75310296,0.55143255,0.8219499,-0.14255007,0.04069519,9.878464,0.07899475,0.03126526,9.805145,-0.16279602,-0.003189087,0.0053253174,-0.004257202,-0.8956909,-32.600403,-19.56482,0,0.0,0.0,0.0,0.0
0.221527099,0.9992191,-0.0038534573,-0.039324015,-0.039382268,-0.016432269,-0.9990891,0.003203764,0.99985754,-0.016571194,-0.55497915,0.4850469,0.6758163,0.63386023,-0.2795477,0.7211618,0.5387202,0.82860285,-0.15230878,0.05984497,9.844955,-0.10772705,0.031417847,9.805145,-0.1625061,-0.0053253174,-0.0095825195,0.003189087,-0.8956909,-32.600403,-19.56482,0,0.0,0.0,0.0,0.0
0.225738525,0.99921817,-0.0038388576,-0.039348297,-0.03940635,-0.016446775,-0.99908787,0.0031882036,0.99985737,-0.016585194,-0.5283847,0.46948406,0.7073856,0.6664474,-0.28682742,0.68816996,0.52598244,0.83505374,-0.16133124,-0.011962891,9.653412,-0.16998291,0.03126526,9.805145,-0.16264343,-0.0021209717,-0.0010528564,-0.004257202,-0.8956909,-32.600403,-19.56482,0,0.0,0.0,0.0,0.0
0.229949951,0.995821,-0.0016323993,0.09131178,0.09127179,-0.016774733,-0.9956846,0.0031570857,0.9998579,-0.016555639,-0.50064605,0.45419195,0.7369282,0.6970037,-0.29334453,0.65432006,0.5133608,0.8412245,-0.16971171,-0.02154541,9.8736725,-0.08857727,0.030960083,9.805145,-0.16235352,0.007461548,0.0053253174,0.0063934326,1.6143799,-32.24182,-18.182373,0,0.0,0.0,0.0,0.0
0.234191894,0.99582475,-0.0016093205,0.0912712,0.09123179,-0.016710008,-0.99568945,0.0031275258,0.9998591,-0.01649342,-0.4738328,0.4399133,0.7628622,0.7243397,-0.29796502,0.6217305,0.5008138,0.84716773,-0.17746109,-0.04548645,9.8688965,-0.011962891,0.030670166,9.805145,-0.16174316,0.007461548,-0.014907837,-0.0010681152,1.6143799,-32.24182,-18.182373,0,0.0,0.0,0.0,0.0
0.23840332,0.99582946,-0.0015804558,0.09122043,0.091181554,-0.016693149,-0.99569434,0.003096407,0.9998594,-0.016479421,-0.4462871,0.42589182,0.7870476,0.7498865,-0.30197966,0.58862424,0.48836264,0.8528918,-0.1846009,-0.07899475,9.797058,-0.11251831,0.03036499,9.805145,-0.16160583,0.0021362305,0.0053253174,-0.0095825195,1.6143799,-32.24182,-18.182373,0,0.0,0.0,0.0,0.0
0.242614746,0.9987344,-0.0022072815,0.05024679,0.05020355,-0.01654896,-0.9986019,0.0030357274,0.99986064,-0.016417202,-0.41798925,0.41216773,0.8095695,0.7737368,-0.30545667,0.55500233,0.47604248,0.8583787,-0.19123174,-0.10772705,9.849731,-0.026321411,0.029769897,9.805145,-0.16099548,0.0,-0.008514404,0.003189087,0.8972168,-31.524658,-19.218445,0,0.0,0.0,0.0,0.0
0.246856689,0.99873286,-0.0022246223,0.050275166,0.05023177,-0.016504746,-0.99860114,0.0030512894,0.9998613,-0.016372088,-0.38866532,0.3984582,0.8307649,0.79611814,-0.3086658,0.520501,0.46382663,0.8636877,-0.19725212,0.05984497,9.8736725,-0.02154541,0.029922485,9.805145,-0.16055298,-0.006378174,-0.01171875,0.004257202,0.8972168,-31.524658,-19.218445,0,0.0,0.0,0.0,0.0
0.251068115,0.99872786,-0.0022844037,0.05037299,0.050328646,-0.016492484,-0.99859655,0.0031119732,0.9998614,-0.016356532,-0.3589197,0.38502422,0.85025465,0.81675184,-0.3113577,0.48577043,0.45176673,0.86879957,-0.20271683,0.16519165,9.945511,-0.12689209,0.030517578,9.805145,-0.16040039,0.0032043457,-0.003189087,-0.007461548,0.8972168,-31.524658,-19.218445,0,0.0,0.0,0.0,0.0
0.255279541,0.99998385,-0.003002417,0.0048178164,0.0047680396,-0.01637111,-0.9998545,0.0030808535,0.9998614,-0.016356532,-0.32885554,0.37186018,0.86808646,0.83567566,-0.31357846,0.4509043,0.43988657,0.8737211,-0.20763248,-0.03111267,9.835373,-0.15560913,0.030212402,9.805145,-0.16040039,-0.014892578,-0.0063934326,0.0095825195,0.0,-32.780457,-20.428467,0,0.0,0.0,0.0,0.0
0.259521484,0.99998367,-0.0030176537,0.004842266,0.0047922847,-0.016355703,-0.9998546,0.0030964138,0.9998616,-0.016340975,-0.29783976,0.35887516,0.88459027,0.8531475,-0.31567168,0.41531995,0.4282881,0.8783849,-0.21215385,0.05984497,9.883255,-0.13645935,0.03036499,9.805145,-0.1602478,0.008529663,0.0063934326,0.0063934326,0.0,-32.780457,-20.428467,0,0.0,0.0,0.0,0.0
0.26373291,0.9999836,-0.0030329577,0.0048668236,0.00481668,-0.016326295,-0.9998551,0.0031119753,0.9998621,-0.016311418,-0.26661587,0.34603152,0.8995433,0.86903584,-0.3172761,0.37962186,0.41676468,0.8829485,-0.21612293,0.07899475,9.773117,-0.08378601,0.030517578,9.805145,-0.15995789,0.0053253174,0.015975952,-0.0021362305,0.0,-32.780457,-20.428467,0,0.0,0.0,0.0,0.0
0.268035888,0.99991465,-0.0032876963,-0.012646135,-0.01269811,-0.01630062,-0.9997865,0.0030808544,0.9998617,-0.016340977,-0.23532274,0.3334925,0.9129107,0.8833122,-0.3184455,0.34402338,0.40544155,0.8873417,-0.21964051,-0.04548645,9.801849,-0.21786499,0.030212402,9.805145,-0.1602478,-0.0021209717,0.0053253174,0.0,-0.35858154,-33.139038,-19.737244,0,0.0,0.0,0.0,0.0
0.272308349,0.99991435,-0.0032740647,-0.012669017,-0.0127207665,-0.016300723,-0.9997861,0.0030668506,0.9998617,-0.016340977,-0.20372215,0.32117227,0.9248489,0.89611125,-0.31929803,0.30827457,0.39431173,0.89157003,-0.22275804,-0.04069519,9.8736725,-0.18434143,0.030075073,9.805145,-0.1602478,0.008529663,0.012771606,0.0095825195,-0.35858154,-33.139038,-19.737244,0,0.0,0.0,0.0,0.0
0.276641845,0.99991494,-0.003302288,-0.01262164,-0.012673717,-0.016255395,-0.99978757,0.0030964164,0.9998624,-0.016295863,-0.17228472,0.30900732,0.9353248,0.9073528,-0.31983235,0.27279678,0.38344333,0.8956683,-0.22527643,0.10772705,9.8736725,-0.04069519,0.03036499,9.805145,-0.1598053,-0.011703491,0.0063934326,0.0021362305,-0.35858154,-33.139038,-19.737244,0,0.0,0.0,0.0,0.0
0.281066894,0.9994882,-0.0025916805,0.031882674,0.0318361,-0.01637119,-0.9993589,0.003111977,0.9998626,-0.016280307,-0.14090806,0.29732418,0.94432163,0.91717374,-0.31991574,0.23758414,0.37274286,0.8995845,-0.22761922,0.10293579,9.821014,-0.13645935,0.030517578,9.805145,-0.15965271,-0.0053253174,0.015975952,-0.0063934326,0.53863525,-32.958984,-19.56482,0,0.0,0.0,0.0,0.0
0.285461425,0.99948925,-0.0025741805,0.03185322,0.031806704,-0.016446808,-0.9993587,0.0030964133,0.9998614,-0.016356532,-0.11056343,0.28624094,0.95175725,0.9254942,-0.31940326,0.20357296,0.36226532,0.9033536,-0.22960003,-0.011962891,9.964661,-0.32800293,0.03036499,9.805145,-0.16040039,0.004272461,0.004272461,-0.0021362305,0.53863525,-32.958984,-19.56482,0,0.0,0.0,0.0,0.0
0.289886474,0.9994901,-0.0025599618,0.03182929,0.031783096,-0.01641671,-0.9993599,0.003080855,0.9998619,-0.016326975,-0.080476075,0.27548498,0.95793086,0.9325332,-0.31858265,0.16996148,0.352002,0.9069802,-0.23126061,-0.04069519,9.892838,-0.07899475,0.030212402,9.805145,-0.16011047,0.008529663,0.008529663,-0.0063934326,0.53863525,-32.958984,-19.56482,0,0.0,0.0,0.0,0.0
0.294281005,0.998845,-0.0022814998,0.047995288,0.04795151,-0.016424237,-0.99871457,0.0030668527,0.99986243,-0.016295865,-0.05089867,0.26509023,0.9628793,0.93834215,-0.317409,0.13698745,0.3419406,0.91048265,-0.23258962,-0.007171631,9.945511,-0.10772705,0.030075073,9.805145,-0.1598053,0.0032043457,0.011703491,-0.004257202,0.8972168,-33.317566,-20.256042,0,0.0,0.0,0.0,0.0
0.2991333,0.99884737,-0.0022519552,0.047946796,0.04790356,-0.0164071,-0.9987173,0.0030357344,0.9998629,-0.016280312,-0.021766812,0.25506473,0.966679,0.94298553,-0.3159689,0.10460383,0.33212125,0.9138411,-0.2336447,-0.04069519,9.8736725,-0.11730957,0.029769897,9.805145,-0.15965271,0.004272461,0.004272461,-0.012786865,0.8972168,-33.317566,-20.256042,0,0.0,0.0,0.0,0.0
0.303955078,0.9988475,-0.0022512288,0.047945604,0.04790233,-0.016422637,-0.9987171,0.0030357335,0.9998626,-0.016295867,0.0069844723,0.24535267,0.96940875,0.94653684,-0.31429112,0.07272589,0.32252005,0.91707313,-0.2344305,0.04548645,9.821014,-0.18434143,0.029769897,9.805145,-0.1598053,0.0234375,0.004272461,-0.0010681152,0.8972168,-33.317566,-20.256042,0,0.0,0.0,0.0,0.0
0.308776855,0.9999878,-0.0030988904,-0.0038591556,-0.0039090295,-0.016252838,-0.9998602,0.0030357349,0.999863,-0.016264753,0.035096645,0.23596063,0.9711286,0.9491117,-0.31218663,0.041552782,0.31297818,0.92025113,-0.23490968,0.011962891,9.964661,-0.08857727,0.029769897,9.805145,-0.15950012,0.0010681152,0.010650635,-0.0138549805,-0.17852783,-33.676147,-19.218445,0,0.0,0.0,0.0,0.0
0.31362915,0.99998766,-0.003068688,-0.0039120773,-0.0039615002,-0.016268356,-0.9998598,0.0030046145,0.9998629,-0.016280312,0.06398064,0.22652042,0.9719027,0.9505737,-0.31034562,0.009755403,0.30383557,0.9232411,-0.23518047,-0.04069519,9.8688965,-0.20828247,0.029464722,9.805145,-0.15965271,0.0,0.017028809,0.003189087,-0.17852783,-33.676147,-19.218445,0,0.0,0.0,0.0,0.0
0.318450927,0.9999876,-0.0030400606,-0.0039622406,-0.004011283,-0.016299432,-0.9998591,0.0029750494,0.99986243,-0.016311424,0.09237975,0.21739319,0.97170275,0.9510492,-0.30829492,-0.021443248,0.2949094,0.92611796,-0.23523182,-0.07421875,9.768341,-0.21786499,0.029174805,9.805145,-0.15995789,-0.0010528564,0.008529663,0.0063934326,-0.17852783,-33.676147,-19.218445,0,0.0,0.0,0.0,0.0
0.323303222,0.99928945,-0.0023274485,0.03761765,0.03757443,-0.016440114,-0.9991585,0.0029439286,0.9998621,-0.016340982,0.12027031,0.20857419,0.9705833,0.95059216,-0.30605242,-0.05202371,0.28619856,0.92888576,-0.23507799,-0.02154541,9.806641,-0.26574707,0.028869629,9.805145,-0.1602478,-0.018081665,0.0032043457,-0.0021362305,0.71868896,-32.780457,-21.11969,0,0.0,0.0,0.0,0.0
0.328125,0.99928766,-0.0023577767,0.037664663,0.03762094,-0.016441396,-0.99915683,0.002975048,0.999862,-0.01634098,0.14700153,0.20028487,0.96864676,0.9493054,-0.30366632,-0.08127788,0.27786663,0.9314895,-0.23477092,0.09815979,9.902405,-0.15560913,0.029174805,9.805145,-0.1602478,0.0,-0.007446289,0.012786865,0.71868896,-32.780457,-21.11969,0,0.0,0.0,0.0,0.0
0.332977295,0.99928856,-0.0023426125,0.037641156,0.037597682,-0.016440757,-0.99915767,0.0029594884,0.9998621,-0.016340982,0.17303586,0.19228496,0.96596336,0.94729996,-0.3009485,-0.109785706,0.26959506,0.9340538,-0.23422639,-0.026321411,9.888046,-0.14125061,0.029022217,9.805145,-0.1602478,0.0021362305,-0.003189087,-0.008529663,0.71868896,-32.780457,-21.11969,0,0.0,0.0,0.0,0.0
0.337799072,0.99998486,-0.0028517353,0.0047150454,0.0046678362,-0.016340543,-0.9998556,0.0029283697,0.9998624,-0.016326983,0.19852847,0.18455942,0.9625613,0.944555,-0.29810482,-0.13765672,0.26153836,0.9365209,-0.23350883,-0.04548645,9.792282,-0.13166809,0.028717041,9.805145,-0.16011047,-0.0010528564,-0.01171875,-0.0063934326,0.0,-32.063293,-19.392395,0,0.0,0.0,0.0,0.0
0.342651367,0.9999851,-0.0028232285,0.0046679126,0.0046213563,-0.01627805,-0.99985677,0.002898809,0.9998635,-0.01626476,0.22399911,0.17668535,0.9584397,0.9409721,-0.2952738,-0.16548392,0.25376356,0.93893325,-0.23239705,-0.06942749,9.7444,0.011962891,0.028427124,9.805145,-0.15950012,-0.013824463,0.0063934326,0.003189087,0.0,-32.063293,-19.392395,0,0.0,0.0,0.0,0.0
0.347473144,0.9999853,-0.0028080049,0.0046427413,0.004596391,-0.016293464,-0.99985665,0.0028832485,0.99986327,-0.016280318,0.24898568,0.16931444,0.9535925,0.9367125,-0.29230985,-0.19267741,0.24612142,0.941216,-0.23137994,0.01675415,9.902405,-0.22265625,0.028274536,9.805145,-0.15965271,-0.015960693,-0.007446289,0.0021362305,0.0,-32.063293,-19.392395,0,0.0,0.0,0.0,0.0
0.352325439,0.99998534,-0.002808307,0.0046432414,0.004597107,-0.016216991,-0.99985796,0.0028832073,0.9998645,-0.016203843,0.27338812,0.16220714,0.9481285,0.9318199,-0.28924483,-0.2192012,0.23868528,0.94341207,-0.23022394,0.002380371,9.897629,0.03111267,0.028274536,9.805298,-0.15890503,-0.0010528564,0.004272461,-0.007461548,0.0,-32.063293,-19.392395,0,0.0,0.0,0.0,0.0
0.357147216,0.99998564,-0.0027782684,0.0045935754,0.0045481077,-0.016156048,-0.99985915,0.0028520909,0.9998656,-0.016143177,0.29720065,0.15534507,0.94209325,0.926336,-0.2860941,-0.24505457,0.23145929,0.9455253,-0.22892906,-0.026321411,9.854523,-0.007171631,0.02796936,9.805298,-0.15830994,0.0021362305,0.012771606,-0.0010681152,0.0,-32.063293,-19.392395,0,0.0,0.0,0.0,0.0
0.361999511,0.99998564,-0.0027784705,0.0045939097,0.004548567,-0.016110936,-0.9998598,0.0028520927,0.99986625,-0.016098065,0.32039955,0.14885786,0.93551344,0.9203195,-0.282862,-0.27018714,0.22440174,0.94753915,-0.22762567,0.026321411,9.753967,-0.03590393,0.02796936,9.805298,-0.15786743,0.007461548,0.0010681152,-0.0021362305,0.0,-32.063293,-19.392395,0,0.0,0.0,0.0,0.0
0.366729736,0.9995151,-0.002366827,0.031044198,0.031001944,-0.016179282,-0.9993882,0.0028676526,0.99986625,-0.016098065,0.3430281,0.14247686,0.9284568,0.9137792,-0.2795657,-0.29470444,0.21757612,0.9494964,-0.22609127,0.06942749,9.864105,-0.14604187,0.028121948,9.805298,-0.15786743,0.004272461,0.004272461,-0.012786865,0.53863525,-33.676147,-19.909668,0,0.0,0.0,0.0,0.0
0.371246337,0.9995144,-0.0023819671,0.031069787,0.031027285,-0.016179826,-0.9993875,0.002883212,0.9998662,-0.016098063,0.3430281,0.14247686,0.9284568,0.9137792,-0.2795657,-0.29470444,0.21757612,0.9494964,-0.22609127,0.06942749,9.864105,-0.14604187,0.028274536,9.805298,-0.15786743,0.004272461,0.004272461,-0.012786865,0.53863525,-33.676147,-19.909668,0,0.0,0.0,0.0,0.0
0.375518798,0.9995143,-0.0023829082,0.031071376,0.03102895,-0.016148735,-0.999388,0.0028832138,0.9998668,-0.016066954,0.38548025,0.13068797,0.91341424,0.8997698,-0.27263075,-0.34071502,0.20449747,0.95320153,-0.22268288,0.02154541,9.902405,-0.08378601,0.028274536,9.805298,-0.15756226,0.0,0.0053253174,-0.0032043457,0.53863525,-33.676147,-19.909668,0,0.0,0.0,0.0,0.0
0.379791259,0.9991079,-0.0022033355,0.04217351,0.04213249,-0.016174216,-0.9989812,0.0028832138,0.9998668,-0.016066954,0.40589738,0.12510353,0.90531564,0.89215493,-0.26913056,-0.3628062,0.19825976,0.9549439,-0.22085111,0.05027771,9.907196,-0.17477417,0.028274536,9.805298,-0.15756226,0.0063934326,0.007461548,-0.008529663,0.71868896,-32.063293,-18.701172,0,0.0,0.0,0.0,0.0
0.38406372,0.99910676,-0.0022184637,0.0421994,0.04215813,-0.016174927,-0.99898005,0.0028987732,0.9998667,-0.016066952,0.40589738,0.12510353,0.90531564,0.89215493,-0.26913056,-0.3628062,0.19825976,0.9549439,-0.22085111,0.05027771,9.907196,-0.17477417,0.028427124,9.805298,-0.15756226,0.0063934326,0.007461548,-0.008529663,0.71868896,-32.063293,-18.701172,0,0.0,0.0,0.0,0.0
0.388336181,0.99910676,-0.0022184637,0.0421994,0.04215813,-0.016174927,-0.99898005,0.0028987732,0.9998667,-0.016066952,0.44465968,0.114653766,0.8883312,0.876102,-0.26200196,-0.40472257,0.18634155,0.95823246,-0.2169501,0.03590393,9.835373,-0.14604187,0.028427124,9.805298,-0.15756226,0.004272461,0.0,0.0,0.71868896,-32.063293,-18.701172,0,0.0,0.0,0.0,0.0
0.392608642,0.9878874,-3.973618E-4,0.15517215,0.15514503,-0.016342102,-0.9877566,0.0029283357,0.9998664,-0.016082507,0.4631037,0.10987988,0.87946653,0.86768216,-0.25854605,-0.42459583,0.18072805,0.9597293,-0.21507445,0.10293579,9.758759,-0.19392395,0.028717041,9.805298,-0.15771484,0.012786865,0.008529663,0.003189087,2.8701782,-32.063293,-18.354797,0,0.0,0.0,0.0,0.0
0.396881103,0.9878874,-3.973618E-4,0.15517215,0.15514503,-0.016342102,-0.9877566,0.0029283357,0.9998664,-0.016082507,0.47917932,0.10569601,0.8713297,0.8600513,-0.25471085,-0.4420793,0.17521112,0.96122354,-0.21295616,0.04069519,9.935928,-0.15083313,0.028717041,9.805298,-0.15771484,0.012786865,0.0021362305,-0.004257202,2.8701782,-32.063293,-18.354797,0,0.0,0.0,0.0,0.0
0.401153564,0.98789245,-3.7834566E-4,0.15513971,0.15511309,-0.016276034,-0.9877626,0.0028987753,0.99986744,-0.016020285,0.49480352,0.101664245,0.8630375,0.85224205,-0.25089464,-0.45905924,0.16986158,0.962661,-0.2107861,-0.06463623,9.821014,-0.03590393,0.028427124,9.805298,-0.15710449,0.0032043457,-0.01171875,-0.010650635,2.8701782,-32.063293,-18.354797,0,0.0,0.0,0.0,0.0
0.405426025,0.99947864,-0.0023646683,0.03220007,0.032157786,-0.016151417,-0.9993523,0.0028832138,0.9998668,-0.016066954,0.50998473,0.0977844,0.85460734,0.8442744,-0.24709684,-0.47554576,0.16466983,0.9640443,-0.2085725,0.002380371,9.830582,-0.2609558,0.028274536,9.805298,-0.15756226,0.0063934326,0.015975952,-0.0063934326,0.53863525,-34.03473,-19.218445,0,0.0,0.0,0.0,0.0
0.409698486,0.9994787,-0.0023636941,0.032198347,0.032155987,-0.016182506,-0.99935174,0.002883212,0.9998662,-0.016098063,0.5266136,0.093552336,0.8449415,0.8349838,-0.24355231,-0.49344125,0.15962486,0.96536535,-0.20637266,0.03590393,9.878464,-0.24180603,0.028274536,9.805298,-0.15786743,0.0053253174,0.012771606,-0.0032043457,0.53863525,-34.03473,-19.218445,0,0.0,0.0,0.0,0.0
0.413970947,0.9994787,-0.0023636941,0.032198347,0.032155987,-0.016182506,-0.99935174,0.002883212,0.9998662,-0.016098063,0.5429191,0.08938511,0.83501446,0.82540536,-0.24001426,-0.51097864,0.1547415,0.9666455,-0.20408726,0.026321411,9.816223,-0.16040039,0.028274536,9.805298,-0.15786743,-0.0021209717,-0.014907837,-0.008529663,0.53863525,-34.03473,-19.218445,0,0.0,0.0,0.0,0.0
0.418243408,0.99640274,-0.0015078647,0.08473012,0.08469447,-0.016298398,-0.9962735,0.0028832115,0.99986595,-0.016112063,0.55872256,0.08537911,0.8249482,0.8156754,-0.23648366,-0.527967,0.15000941,0.967877,-0.20177038,-0.002380371,9.840164,-0.17955017,0.028274536,9.805298,-0.15800476,-0.003189087,-0.008514404,-0.0032043457,1.6143799,-32.600403,-19.56482,0,0.0,0.0,0.0,0.0
0.422515869,0.9964026,-0.0015090201,0.08473203,0.084696405,-0.016284453,-0.99627364,0.002883212,0.9998662,-0.016098063,0.5731858,0.081774935,0.8153349,0.80641794,-0.23287827,-0.5435603,0.14542417,0.9690617,-0.19942729,0.03590393,9.92157,-0.11251831,0.028274536,9.805298,-0.15786743,0.019180298,0.0021362305,0.003189087,1.6143799,-32.600403,-19.56482,0,0.0,0.0,0.0,0.0
0.42678833,0.99639857,-0.0015380589,0.08478008,0.08474394,-0.016301114,-0.99626946,0.0029143307,0.99986595,-0.016112063,0.5871315,0.07832937,0.8056929,0.7971533,-0.22906107,-0.5586391,0.14079504,0.9702554,-0.19692948,0.09336853,9.792282,-0.19871521,0.028579712,9.805298,-0.15800476,-0.0074310303,0.004272461,-0.012786865,1.6143799,-32.600403,-19.56482,0,0.0,0.0,0.0,0.0
0.431060791,0.9999846,-0.0028220855,0.0047843745,0.0047383043,-0.016111685,-0.999859,0.0028987718,0.9998662,-0.016098063,0.6007179,0.07498847,0.79593635,0.7877209,-0.22551316,-0.5732709,0.13650542,0.97134984,-0.19453979,0.02154541,9.811432,-0.14125061,0.028427124,9.805298,-0.15786743,-0.0010528564,0.0063934326,0.0010681152,0.0,-31.704712,-18.701172,0,0.0,0.0,0.0,0.0
0.435333252,0.99998486,-0.0027913025,0.0047321874,0.0046863165,-0.016217167,-0.99985737,0.0028676474,0.9998645,-0.016203843,0.615126,0.071424425,0.78518695,0.7772413,-0.22210638,-0.58869743,0.13234766,0.9724029,-0.19213745,-0.026321411,9.878464,-0.12689209,0.028121948,9.805298,-0.15890503,0.0010681152,0.009597778,-0.0095825195,0.0,-31.704712,-18.701172,0,0.0,0.0,0.0,0.0
0.439605712,0.99998486,-0.0027911298,0.0047318945,0.004685892,-0.016264087,-0.99985665,0.00286769,0.9998638,-0.016250763,0.6290648,0.06801634,0.7743714,0.76669014,-0.21871446,-0.60361415,0.1283106,0.9734155,-0.18973304,0.05027771,9.897629,-0.25616455,0.028121948,9.805145,-0.1593628,0.027709961,-0.013839722,-0.004257202,0.0,-31.704712,-18.701172,0,0.0,0.0,0.0,0.0
0.443878173,0.9977523,-0.0017475501,0.06698621,0.066948876,-0.016342016,-0.9976225,0.0028380854,0.99986494,-0.01618829,0.64244306,0.064772815,0.7635912,0.75615084,-0.21547398,-0.61790526,0.12451056,0.974359,-0.18740779,-0.05984497,9.797058,-0.01675415,0.027832031,9.805298,-0.15875244,0.0063934326,0.008529663,0.0053253174,1.2557983,-32.958984,-19.56482,0,0.0,0.0,0.0,0.0
0.448150634,0.9977489,-0.0017771755,0.0670359,0.0669981,-0.016330114,-0.99761933,0.002867649,0.999865,-0.016174287,0.6545482,0.061903168,0.7534817,0.7463205,-0.21204384,-0.6309066,0.12071603,0.9752976,-0.18499252,0.08857727,9.801849,-0.12689209,0.028121948,9.805298,-0.15861511,0.0032043457,-0.003189087,-0.0032043457,1.2557983,-32.958984,-19.56482,0,0.0,0.0,0.0,0.0
0.452423095,0.9977489,-0.0017771755,0.0670359,0.0669981,-0.016330114,-0.99761933,0.002867649,0.999865,-0.016174287,0.66625977,0.05913911,0.743371,0.73647636,-0.20864987,-0.6434811,0.11704937,0.9762007,-0.18256955,0.03111267,9.888046,-0.13645935,0.028121948,9.805298,-0.15861511,0.0010681152,0.0,0.0063934326,1.2557983,-32.958984,-19.56482,0,0.0,0.0,0.0,0.0
0.456695556,0.9906164,-6.1294576E-4,0.13667059,0.1366422,-0.016426183,-0.9904843,0.002852089,0.99986494,-0.01618829,0.67758906,0.056484852,0.73326844,0.72662985,-0.20529108,-0.65564066,0.11349969,0.9770696,-0.18014656,-0.01675415,9.888046,-0.22744751,0.02796936,9.805298,-0.15875244,-0.003189087,-0.010650635,0.0021362305,2.5115967,-33.49762,-18.354797,0,0.0,0.0,0.0,0.0
0.460968017,0.99061686,-6.1088044E-4,0.1366669,0.1366385,-0.01644159,-0.9904845,0.0028520883,0.99986464,-0.016203845,0.6875235,0.054154333,0.72414,0.717754,-0.20199165,-0.6663546,0.11018423,0.9778889,-0.1777435,0.026321411,9.816223,-0.16519165,0.02796936,9.805298,-0.15890503,0.0010681152,0.0021362305,0.007461548,2.5115967,-33.49762,-18.354797,0,0.0,0.0,0.0,0.0
0.465240478,0.99061877,-6.033956E-4,0.13665348,0.13662533,-0.016394978,-0.9904871,0.0028380866,0.99986535,-0.016158734,0.69716144,0.051983,0.7150271,0.7089069,-0.19863552,-0.6767533,0.10685011,0.97869384,-0.17533214,-0.02154541,9.768341,-0.07421875,0.027832031,9.805298,-0.15846252,-0.004257202,-0.010650635,-0.0053253174,2.5115967,-33.49762,-18.354797,0,0.0,0.0,0.0,0.0
0.469512939,0.99949014,-0.002335891,0.03184434,0.031802263,-0.016256865,-0.999362,0.0028520895,0.9998651,-0.016174288,0.7064928,0.04989641,0.7059591,0.7000932,-0.19532457,-0.68681717,0.103621446,0.9794686,-0.17292754,0.07421875,9.888046,-0.18913269,0.02796936,9.805298,-0.15861511,0.009597778,-0.0010528564,0.0021362305,0.53863525,-31.524658,-19.218445,0,0.0,0.0,0.0,0.0
0.4737854,0.99949014,-0.002335891,0.03184434,0.031802263,-0.016256865,-0.999362,0.0028520895,0.9998651,-0.016174288,0.71697956,0.047483284,0.6954751,0.68981177,-0.19216116,-0.69802135,0.10049895,0.980214,-0.17053014,0.04548645,9.840164,-0.16040039,0.02796936,9.805298,-0.15861511,0.01171875,0.0032043457,0.01171875,0.53863525,-31.524658,-19.218445,0,0.0,0.0,0.0,0.0
0.478057861,0.9994924,-0.0022943162,0.031776212,0.031735037,-0.016179092,-0.9993654,0.0028069704,0.9998665,-0.016098069,0.727011,0.04522933,0.68513453,0.67967045,-0.18907116,-0.7087314,0.09748373,0.9809212,-0.16819786,-0.12210083,9.854523,0.026321411,0.027526855,9.805298,-0.15786743,0.004272461,0.008529663,-0.0010681152,0.53863525,-31.524658,-19.218445,0,0.0,0.0,0.0,0.0
0.482330322,0.99951464,-0.003287718,-0.030976966,-0.031025626,-0.015957141,-0.99939114,0.0027914129,0.99986726,-0.016051402,0.7367961,0.043014504,0.67474526,0.6694709,-0.18597716,-0.7191808,0.094552,0.9816121,-0.16582422,0.007171631,9.840164,-0.03111267,0.027374268,9.805298,-0.15740967,0.0053253174,0.009597778,-0.014907837,-0.7171631,-32.063293,-19.737244,0,0.0,0.0,0.0,0.0
0.486602783,0.999514,-0.0032720866,-0.031002335,-0.0310507,-0.015941996,-0.99939066,0.002775854,0.99986756,-0.016035847,0.7470709,0.04066279,0.6634995,0.6583872,-0.1829707,-0.7301013,0.091713004,0.9822771,-0.16346395,-0.03111267,9.935928,-0.11730957,0.02722168,9.805298,-0.15725708,0.004272461,0.020233154,0.004257202,-0.7171631,-32.063293,-19.737244,0,0.0,0.0,0.0,0.0
0.490875244,0.9995119,-0.0032267515,-0.03107591,-0.03112342,-0.015898073,-0.99938923,0.0027307332,0.99986845,-0.015990738,0.7569759,0.038413685,0.6523127,0.6473585,-0.17999558,-0.74062717,0.08896319,0.9829171,-0.16111974,-0.06942749,9.82579,-0.04548645,0.026779175,9.805298,-0.15681458,-0.0053253174,0.007461548,-0.0095825195,-0.7171631,-32.063293,-19.737244,0,0.0,0.0,0.0,0.0
0.495147705,0.9999059,-0.0029294835,-0.013407084,-0.013452124,-0.015937278,-0.99978256,0.002715174,0.99986875,-0.015975183,0.76640946,0.03632797,0.6413243,0.63653034,-0.17706813,-0.7506504,0.0862885,0.9835279,-0.15883054,-0.011962891,9.888046,-0.10293579,0.026626587,9.805298,-0.15666199,0.0032043457,0.010650635,-0.0021362305,-0.35858154,-32.063293,-19.737244,0,0.0,0.0,0.0,0.0
0.499420166,0.99990696,-0.0029888388,-0.013310682,-0.013356723,-0.015952298,-0.9997836,0.002775856,0.99986833,-0.015990736,0.77539194,0.034336407,0.6305461,0.6259081,-0.17414618,-0.7602054,0.083704464,0.98412097,-0.15652297,0.15083313,9.878464,-0.17955017,0.02722168,9.805298,-0.15681458,0.010665894,0.004272461,0.0095825195,-0.35858154,-32.063293,-19.737244,0,0.0,0.0,0.0,0.0
0.503692627,0.9999065,-0.0029598186,-0.013357815,-0.013403343,-0.015937002,-0.99978316,0.0027462933,0.9998686,-0.015975181,0.784048,0.032418363,0.61985314,0.615364,-0.17126417,-0.7694126,0.08121553,0.9846916,-0.15422842,-0.05027771,9.801849,-0.15083313,0.026931763,9.805298,-0.15666199,-0.003189087,0.0021362305,0.003189087,-0.35858154,-32.063293,-19.737244,0,0.0,0.0,0.0,0.0
0.507965087,0.99686587,-0.0014600045,0.07909726,0.079063594,-0.0161256,-0.99673915,0.0027307344,0.99986887,-0.015959626,0.7923899,0.030588098,0.60924757,0.6049037,-0.16841833,-0.77828455,0.07880222,0.9852409,-0.15195584,0.007171631,9.840164,-0.08378601,0.026779175,9.805298,-0.1565094,0.007461548,0.0053253174,-0.0063934326,1.435852,-32.780457,-18.701172,0,0.0,0.0,0.0,0.0
0.512237548,0.9968638,-0.0014750924,0.07912355,0.07908963,-0.016126867,-0.99673706,0.0027462938,0.9998688,-0.015959624,0.7993485,0.029063195,0.6001644,0.59597665,-0.16553293,-0.7857549,0.07651044,0.98577595,-0.14963949,0.04548645,9.864105,-0.16040039,0.026931763,9.805298,-0.1565094,-0.004257202,-0.0021209717,0.003189087,1.435852,-32.780457,-18.701172,0,0.0,0.0,0.0,0.0
0.516510009,0.99686587,-0.0014600045,0.07909726,0.079063594,-0.0161256,-0.99673915,0.0027307344,0.99986887,-0.015959626,0.8060458,0.027680494,0.5912056,0.58717734,-0.16271652,-0.7929352,0.07425009,0.9862845,-0.14741032,-0.01675415,9.816223,-0.15560913,0.026779175,9.805298,-0.1565094,-0.0053253174,0.0032043457,0.007461548,1.435852,-32.780457,-18.701172,0,0.0,0.0,0.0,0.0
0.52078247,0.9999853,-0.0027012224,0.0047186622,0.0046751443,-0.015896263,-0.9998628,0.0027758607,0.99987,-0.0158834,0.81251335,0.026357941,0.5823464,0.57847154,-0.15994492,-0.79986763,0.07206049,0.98677397,-0.14520471,0.01675415,9.787491,-0.20828247,0.02722168,9.805298,-0.15576172,-0.011703491,0.011703491,0.0063934326,0.0,-32.063293,-18.354797,0,0.0,0.0,0.0,0.0
0.525054931,0.9999853,-0.0027012224,0.0047186622,0.0046751443,-0.015896263,-0.9998628,0.0027758607,0.99987,-0.0158834,0.819606,0.024844598,0.5723886,0.5686411,-0.15725598,-0.8074143,0.06995164,0.9872453,-0.1430156,0.02154541,9.864105,-0.15083313,0.02722168,9.805298,-0.15576172,-0.020217896,0.012771606,0.010650635,0.0,-32.063293,-18.354797,0,0.0,0.0,0.0,0.0
0.529327392,0.9999849,-0.0027319957,0.0047724186,0.004728701,-0.015790775,-0.9998641,0.0028069844,0.9998715,-0.015777618,0.8264683,0.023405936,0.56249654,0.55887735,-0.154559,-0.8147193,0.06786963,0.98770624,-0.14081915,0.11251831,9.854523,0.09336853,0.027526855,9.805298,-0.15472412,-0.0021209717,-0.003189087,-0.0021362305,0.0,-32.063293,-18.354797,0,0.0,0.0,0.0,0.0
0.533599853,0.9966372,-0.0015014311,0.08192684,0.0818925,-0.01599949,-0.9965127,0.0028069827,0.99987084,-0.015822731,0.83304983,0.022012075,0.5527598,0.54925823,-0.15195057,-0.8217217,0.06590437,0.98814297,-0.13867271,0.05027771,9.8736725,-0.26574707,0.027526855,9.805298,-0.15516663,0.0053253174,0.008529663,-0.0053253174,1.6143799,-33.676147,-20.256042,0,0.0,0.0,0.0,0.0
0.537872314,0.9966347,-0.0015190244,0.08195588,0.08192135,-0.0159698,-0.9965108,0.0028225437,0.9998714,-0.01579162,0.83855456,0.020911802,0.5444161,0.5410453,-0.14935032,-0.8276259,0.064001575,0.9885632,-0.13655263,0.05027771,9.801849,-0.08378601,0.027679443,9.805298,-0.15486145,-0.014892578,0.007461548,-0.0010681152,1.6143799,-33.676147,-20.256042,0,0.0,0.0,0.0,0.0
0.542144775,0.9966324,-0.0015364958,0.08198475,0.08195002,-0.015941663,-0.9965089,0.0028381047,0.99987173,-0.01576206,0.8438689,0.01985404,0.53618205,0.5329363,-0.1467942,-0.83332497,0.06216354,0.9889678,-0.134456,0.05505371,9.883255,-0.07899475,0.027832031,9.805298,-0.15457153,0.004272461,-0.003189087,-0.0053253174,1.6143799,-33.676147,-20.256042,0,0.0,0.0,0.0,0.0
0.546417236,0.9999123,-0.0030413982,-0.012888697,-0.012934983,-0.0157241,-0.9997927,0.0028381047,0.99987173,-0.01576206,0.84901494,0.01890241,0.52803063,0.5249209,-0.14415847,-0.8388542,0.060263723,0.98937404,-0.13231495,0.02154541,9.816223,-0.12210083,0.027832031,9.805298,-0.15457153,-0.004257202,-0.0021209717,-0.007461548,-0.35858154,-32.780457,-20.083618,0,0.0,0.0,0.0,0.0
0.550689697,0.99991226,-0.0030408113,-0.012889653,-0.012935796,-0.015677432,-0.9997933,0.0028381066,0.9998724,-0.015715392,0.85494745,0.017657464,0.518414,0.5153997,-0.14172615,-0.84514904,0.058549635,0.9897484,-0.13026907,0.04069519,9.76355,-0.05027771,0.027832031,9.805298,-0.15411377,0.009597778,-0.0010528564,0.0021362305,-0.35858154,-32.780457,-20.083618,0,0.0,0.0,0.0,0.0
0.554962158,0.9999123,-0.0030406355,-0.012889941,-0.012936043,-0.015663434,-0.99979365,0.0028381073,0.9998727,-0.015701393,0.8606566,0.016466826,0.5089195,0.50599754,-0.13933104,-0.8512069,0.056891605,0.9901089,-0.12824836,0.04069519,9.92157,-0.13166809,0.027832031,9.805298,-0.15397644,-0.004257202,0.0053253174,0.004257202,-0.35858154,-32.780457,-20.083618,0,0.0,0.0,0.0,0.0
0.559234619,0.99991226,-0.0030400485,-0.012890899,-0.0129368575,-0.015616765,-0.99979424,0.0028381092,0.99987334,-0.015654724,0.866166,0.015482073,0.49951652,0.49669877,-0.13706505,-0.85703176,0.05519763,0.990441,-0.12641102,0.026321411,9.840164,-0.02154541,0.027832031,9.805298,-0.15351868,0.009597778,-0.0021209717,-0.0053253174,-0.35858154,-32.780457,-20.083618,0,0.0,0.0,0.0,0.0
0.56350708,0.99991256,-0.0030535099,-0.012868934,-0.012915062,-0.015601097,-0.99979484,0.0028521137,0.9998736,-0.015639167,0.8714508,0.014388798,0.49027196,0.48754016,-0.13474466,-0.8626405,0.05364917,0.9907759,-0.12443845,0.05505371,9.801849,-0.09336853,0.02796936,9.805298,-0.15336609,-0.0053253174,-0.007446289,0.0053253174,-0.35858154,-32.780457,-20.083618,0,0.0,0.0,0.0,0.0
0.567779541,0.999912,-0.0030233464,-0.012918157,-0.012963509,-0.015495561,-0.9997959,0.0028225551,0.99987537,-0.0155333895,0.87653434,0.013342601,0.48115432,0.47850558,-0.13246168,-0.8680359,0.052152656,0.99109834,-0.12249173,-0.11251831,9.92157,-0.14125061,0.027679443,9.805298,-0.15232849,-0.010635376,0.004272461,0.003189087,-0.35858154,-32.780457,-20.083618,0,0.0,0.0,0.0,0.0
0.572052002,0.9999862,-0.0029068512,-0.0043827626,-0.004427586,-0.015596959,-0.9998686,0.0028381115,0.9998742,-0.015609614,0.8814251,0.012345571,0.47216254,0.46959472,-0.13021354,-0.8732269,0.05070147,0.9914091,-0.12057089,0.05984497,9.8688965,-0.08857727,0.027832031,9.805298,-0.15307617,-0.02128601,0.010650635,0.004257202,-0.17852783,-32.958984,-18.873596,0,0.0,0.0,0.0,0.0
0.576446533,0.9999861,-0.0029069772,-0.0043825423,-0.004427451,-0.015626512,-0.999868,0.00283811,0.99987364,-0.01563917,0.8859608,0.01160895,0.46361482,0.46113184,-0.12833215,-0.8780024,0.049303997,0.9916633,-0.11905051,0.03590393,9.801849,-0.24180603,0.027832031,9.805298,-0.15336609,0.0234375,0.011703491,-0.0010681152,-0.17852783,-32.958984,-18.873596,0,0.0,0.0,0.0,0.0
0.580871582,0.9999861,-0.0029069772,-0.0043825423,-0.004427451,-0.015626512,-0.999868,0.00283811,0.99987364,-0.01563917,0.8904138,0.010714959,0.45502573,0.4526196,-0.12615433,-0.8827347,0.047944997,0.9919528,-0.11717936,0.04548645,9.854523,-0.14125061,0.027832031,9.805298,-0.15336609,0.0021362305,0.018096924,0.0021362305,-0.17852783,-32.958984,-18.873596,0,0.0,0.0,0.0,0.0
0.586334228,0.9997486,-0.0024885281,0.022283114,0.022241293,-0.015729584,-0.9996289,0.0028381087,0.9998732,-0.01567028,0.89469767,0.009862294,0.44656336,0.44423175,-0.124013476,-0.8872874,0.046629187,0.99223155,-0.11533571,-0.011962891,9.926346,-0.14125061,0.027832031,9.805298,-0.15367126,0.015991211,0.017028809,-0.007461548,0.36010742,-32.063293,-19.737244,0,0.0,0.0,0.0,0.0
0.591796875,0.9997491,-0.0024743374,0.022260072,0.022218604,-0.01568408,-0.9996301,0.002822551,0.99987394,-0.01562517,0.8985857,0.0091151595,0.4387033,0.43644774,-0.12190502,-0.8914328,0.045354586,0.9924999,-0.113520406,0.03111267,9.8736725,-0.15560913,0.027679443,9.805298,-0.15322876,0.008529663,0.026626587,0.0021362305,0.36010742,-32.063293,-19.737244,0,0.0,0.0,0.0,0.0
0.597229004,0.9997509,-0.0024291603,0.022186713,0.022146007,-0.015667316,-0.99963206,0.0027758728,0.99987435,-0.015609616,0.9021175,0.008444113,0.4314078,0.4292339,-0.1196788,-0.8952291,0.044070955,0.99277675,-0.11158884,0.03111267,9.854523,-0.11730957,0.02722168,9.805298,-0.15307617,-0.0074310303,0.029815674,-0.0063934326,0.36010742,-32.063293,-19.737244,0,0.0,0.0,0.0,0.0
0.60269165,0.99833655,-0.001886653,0.057623237,0.057586502,-0.01576003,-0.9982161,0.0027914317,0.99987406,-0.015625171,0.9057312,0.0077705984,0.42378145,0.4216791,-0.1176465,-0.89908075,0.042870007,0.9930251,-0.1098328,-0.007171631,9.931137,-0.07421875,0.027374268,9.805298,-0.15322876,-0.0010528564,0.03302002,-0.0095825195,1.0772705,-32.780457,-19.737244,0,0.0,0.0,0.0,0.0
0.608123779,0.99833643,-0.0018884006,0.05762613,0.05758945,-0.015728977,-0.99821645,0.0027914331,0.99987453,-0.015594059,0.90891635,0.0072086137,0.41691616,0.4148872,-0.11564642,-0.9024935,0.04170914,0.99326426,-0.10810369,-0.007171631,9.797058,-0.07421875,0.027374268,9.805298,-0.15292358,0.01171875,0.025558472,0.0063934326,1.0772705,-32.780457,-19.737244,0,0.0,0.0,0.0,0.0
0.613586425,0.9983377,-0.0018758811,0.057605404,0.057569053,-0.015681453,-0.9982183,0.0027758752,0.99987525,-0.015547391,0.9118929,0.006880982,0.41037062,0.40843472,-0.11364392,-0.90568554,0.04040412,0.9934977,-0.10644151,-0.01675415,9.864105,-0.03111267,0.02722168,9.805298,-0.15246582,0.0032043457,0.013839722,-0.012786865,1.0772705,-32.780457,-19.737244,0,0.0,0.0,0.0,0.0
0.618011474,0.9988772,-0.0034471874,-0.047249984,-0.04729769,-0.015401645,-0.9987621,0.0027151923,0.99987537,-0.015547393,0.9148581,0.0063618175,0.40372536,0.4018563,-0.11171738,-0.9088623,0.039321125,0.99371964,-0.10476209,0.06463623,9.777908,-0.18913269,0.026626587,9.805298,-0.15246582,0.019180298,0.009597778,0.0,-1.0757446,-31.704712,-20.428467,0,0.0,0.0,0.0,0.0
0.622436523,0.9988749,-0.003415458,-0.047299106,-0.047346238,-0.015373425,-0.99876016,0.0026840742,0.99987596,-0.015517838,0.9148581,0.0063618175,0.40372536,0.4018563,-0.11171738,-0.9088623,0.039321125,0.99371964,-0.10476209,0.06463623,9.777908,-0.18913269,0.026321411,9.805298,-0.1521759,0.019180298,0.009597778,0.0,-1.0757446,-31.704712,-20.428467,0,0.0,0.0,0.0,0.0
0.626831054,0.99886954,-0.0033382538,-0.047418635,-0.047464408,-0.015316038,-0.99875546,0.0026078338,0.9998771,-0.015457172,0.9219407,0.00507972,0.38729778,0.3855502,-0.10781041,-0.91636676,0.037099846,0.9941585,-0.10135329,-0.11251831,9.888046,-0.07899475,0.02557373,9.805298,-0.15158081,-0.0074310303,0.022354126,-0.010650635,-1.0757446,-31.704712,-20.428467,0,0.0,0.0,0.0,0.0
0.631225586,0.99990857,-0.002434216,0.013302783,0.013263686,-0.015428646,-0.99979305,0.002638956,0.99987805,-0.0153949475,0.9253427,0.0044384752,0.37910593,0.37740916,-0.10599845,-0.9199602,0.03610142,0.9943564,-0.09976001,0.10293579,9.854523,-0.08857727,0.025878906,9.805298,-0.15097046,-0.009567261,0.030883789,-0.007461548,0.18005371,-32.958984,-19.56482,0,0.0,0.0,0.0,0.0
0.635620117,0.99990886,-0.0024184457,0.013276218,0.013237244,-0.0154750375,-0.99979246,0.0026233941,0.9998773,-0.015441616,0.9281566,0.0039496934,0.3721689,0.37052736,-0.10421316,-0.9229567,0.035139505,0.9945471,-0.09818961,-0.026321411,9.926346,-0.2609558,0.025726318,9.805298,-0.15142822,-0.0053253174,0.030883789,-0.0010681152,0.18005371,-32.958984,-19.56482,0,0.0,0.0,0.0,0.0
0.640014648,0.9999086,-0.002433409,0.013301423,0.013262173,-0.01549086,-0.99979204,0.0026389533,0.999877,-0.015457171,0.9308644,0.0034875064,0.3653481,0.36376005,-0.102462076,-0.92584026,0.034205448,0.9947308,-0.09664692,0.06463623,9.864105,-0.18913269,0.025878906,9.805298,-0.15158081,0.0053253174,0.0063934326,-0.0021362305,0.18005371,-32.958984,-19.56482,0,0.0,0.0,0.0,0.0
0.644409179,0.99824095,-0.0017021148,0.059263304,0.059229672,-0.01559943,-0.9981225,0.002623393,0.99987686,-0.0154711725,0.9334323,0.0028465355,0.35874236,0.35719243,-0.10056183,-0.92860156,0.033432487,0.99492675,-0.09488442,0.011962891,9.916779,-0.17477417,0.025726318,9.805298,-0.15171814,-0.014892578,0.0063934326,0.007461548,1.0772705,-31.34613,-19.04602,0,0.0,0.0,0.0,0.0
0.648803711,0.99824196,-0.0016913736,0.059245687,0.059212424,-0.015522385,-0.99812466,0.0026078362,0.99987805,-0.0153949475,0.9356172,0.0025277466,0.35300717,0.3515123,-0.09887657,-0.9309472,0.032550942,0.9950965,-0.09339916,0.03111267,9.902405,-0.23222351,0.02557373,9.805298,-0.15097046,0.0021362305,0.009597778,-0.007461548,1.0772705,-31.34613,-19.04602,0,0.0,0.0,0.0,0.0
0.653198242,0.9982433,-0.0016785493,0.059224654,0.05919163,-0.015507546,-0.99812615,0.002593833,0.9998783,-0.015380948,0.9377246,0.0022245788,0.3473726,0.34593064,-0.09722231,-0.93320936,0.031696368,0.9952602,-0.091937296,-0.011962891,9.7348175,-0.10772705,0.025436401,9.805298,-0.15083313,-0.023422241,0.0010681152,-0.004257202,1.0772705,-31.34613,-19.04602,0,0.0,0.0,0.0,0.0
0.657592773,0.9999129,-0.0024260907,0.012971569,0.0129331155,-0.015245408,-0.99980015,0.0026233627,0.99988085,-0.0152127035,0.9397571,0.0019374631,0.3418373,0.34044632,-0.09559996,-0.93539137,0.030867344,0.99541795,-0.09050035,0.05027771,9.792282,0.11251831,0.025726318,9.80545,-0.14918518,-0.0074310303,-0.0053253174,-0.004257202,0.18005371,-32.24182,-19.909668,0,0.0,0.0,0.0,0.0
0.661987304,0.9999104,-0.0025312672,0.013141868,0.013101877,-0.015216114,-0.9997984,0.002730725,0.9998811,-0.015181587,0.9397571,0.0019374631,0.3418373,0.34044632,-0.09559996,-0.93539137,0.030867344,0.99541795,-0.09050035,0.05027771,9.792282,0.11251831,0.026779175,9.80545,-0.14888,-0.0074310303,-0.0053253174,-0.004257202,0.18005371,-32.24182,-19.909668,0,0.0,0.0,0.0,0.0
0.666381836,0.99991083,-0.0025154836,0.013116311,0.013076436,-0.01526251,-0.99979806,0.0027151634,0.9998804,-0.015228255,0.94415826,0.0011363011,0.32949036,0.32817334,-0.092629485,-0.9400649,0.029452322,0.9957,-0.08782979,-0.026321411,9.82579,-0.25616455,0.026626587,9.80545,-0.14933777,0.017044067,-0.022369385,0.023422241,0.18005371,-32.24182,-19.909668,0,0.0,0.0,0.0,0.0
0.670776367,0.9991153,-0.0020584622,0.042004343,0.041968018,-0.015312636,-0.9990016,0.0026996047,0.9998807,-0.0152127,0.9462602,7.974895E-4,0.32340527,0.3221295,-0.09109347,-0.9423028,0.028708633,0.99584204,-0.08645503,-0.002380371,9.7348175,-0.08857727,0.026473999,9.80545,-0.14918518,0.019180298,-0.007446289,0.0,0.71868896,-32.780457,-18.701172,0,0.0,0.0,0.0,0.0
0.675170898,0.9991142,-0.0020723937,0.042028725,0.041992098,-0.015342868,-0.999,0.0027151627,0.9998801,-0.015242254,0.94809943,5.2916654E-4,0.31797355,0.31674,-0.08958597,-0.9442723,0.027986292,0.99597895,-0.08510402,0.07421875,9.797058,-0.24659729,0.026626587,9.80545,-0.1494751,0.014923096,0.0010681152,0.017028809,0.71868896,-32.780457,-18.701172,0,0.0,0.0,0.0,0.0
0.679565429,0.99911535,-0.0020578261,0.042003233,0.04196687,-0.015328175,-0.9990014,0.0026996038,0.9998804,-0.015228255,0.94988245,4.3112197E-4,0.3126071,0.31142035,-0.08836801,-0.94615453,0.02721656,0.9960878,-0.084073484,-0.007171631,9.864105,-0.08857727,0.026473999,9.80545,-0.14933777,0.018112183,-0.0021209717,-0.004257202,0.71868896,-32.780457,-18.701172,0,0.0,0.0,0.0,0.0
0.683959961,0.9976004,-0.0016248492,0.06921512,0.069182135,-0.015361971,-0.9974857,0.002684045,0.9998807,-0.0152127,0.95159006,1.8354775E-4,0.30737016,0.30622217,-0.086914174,-0.94798416,0.026540823,0.99621576,-0.08276287,-0.01675415,9.811432,0.05984497,0.026321411,9.80545,-0.14918518,0.0053253174,-0.0021209717,0.003189087,1.2557983,-32.958984,-18.873596,0,0.0,0.0,0.0,0.0
0.688354492,0.9976007,-0.0016238004,0.0692133,0.0691803,-0.015377492,-0.9974858,0.0026840447,0.9998805,-0.0152282575,0.95307124,-3.253648E-6,0.30274618,0.30163762,-0.08548835,-0.9495822,0.025884362,0.99633914,-0.081475504,0.03111267,9.835373,-0.15560913,0.026321411,9.80545,-0.14933777,0.018112183,-0.022369385,0.0,1.2557983,-32.958984,-18.873596,0,0.0,0.0,0.0,0.0
0.692749023,0.9976016,-0.0016156449,0.06919913,0.06916592,-0.015498754,-0.9974848,0.002684081,0.9998785,-0.015349831,0.9545012,-1.8007164E-4,0.29820707,0.2971364,-0.08409095,-0.951125,0.025247786,0.99645805,-0.08021141,-0.04069519,9.821014,-0.25138855,0.026321411,9.805298,-0.15052795,0.0053253174,0.0,0.0010681152,1.2557983,-32.958984,-18.873596,0,0.0,0.0,0.0,0.0
0.697143554,0.9998984,-0.0028546888,-0.013965685,-0.014008053,-0.015403192,-0.99978316,0.002638954,0.9998773,-0.015441616,0.9558303,-2.874954E-4,0.29391927,0.29288012,-0.083088875,-0.9525322,0.024695266,0.9965421,-0.07933465,0.011962891,9.720444,-0.09815979,0.025878906,9.805298,-0.15142822,0.022369385,0.010650635,0.003189087,-0.35858154,-32.421875,-19.04602,0,0.0,0.0,0.0,0.0
0.701538086,0.99989814,-0.0028416049,-0.013987953,-0.014030516,-0.015555781,-0.99978054,0.002623388,0.99987495,-0.015594066,0.9576439,-5.7677046E-4,0.28795445,0.2869457,-0.08174153,-0.95445293,0.024088336,0.9966534,-0.07811377,-0.03111267,9.964661,-0.23701477,0.025726318,9.805298,-0.15292358,0.024505615,0.0063934326,-0.008529663,-0.35858154,-32.421875,-19.04602,0,0.0,0.0,0.0,0.0
0.705932617,0.99989843,-0.002858224,-0.0139596695,-0.014002779,-0.015662968,-0.9997792,0.0026389433,0.9998732,-0.015701402,0.95938563,-8.467664E-4,0.28209677,0.28111777,-0.080423325,-0.95629746,0.02349692,0.9967604,-0.07691894,-0.02154541,9.797058,-0.16998291,0.025878906,9.805298,-0.15397644,0.027709961,0.004272461,0.0021362305,-0.35858154,-32.421875,-19.04602,0,0.0,0.0,0.0,0.0
0.710327148,0.9965546,-0.0013112437,0.08292929,0.08289816,-0.015878813,-0.9964316,0.0026233832,0.9998731,-0.015715403,0.96108174,-0.0010627325,0.2762621,0.27530617,-0.07952021,-0.9580621,0.022986583,0.99683267,-0.07613285,0.007171631,9.787491,-0.18434143,0.025726318,9.805298,-0.15411377,0.0234375,-0.0053253174,0.004257202,1.6143799,-32.24182,-19.909668,0,0.0,0.0,0.0,0.0
0.714721679,0.9965504,-0.001342618,0.082979746,0.08294815,-0.015867509,-0.9964276,0.002654503,0.9998732,-0.015701402,0.96216106,-0.0011538076,0.27247894,0.2715568,-0.07824937,-0.95923615,0.02242808,0.99693316,-0.07497518,0.11251831,9.76355,-0.14125061,0.026031494,9.805298,-0.15397644,0.019180298,-0.007446289,0.0,1.6143799,-32.24182,-19.909668,0,0.0,0.0,0.0,0.0
0.719116211,0.99655265,-0.0013263645,0.08295362,0.082922235,-0.015880134,-0.99642956,0.0026389428,0.999873,-0.015715402,0.96320397,-0.001242749,0.26876828,0.26787832,-0.07700326,-0.96037054,0.021889536,0.9970301,-0.073836945,-0.02154541,9.897629,-0.18913269,0.025878906,9.805298,-0.15411377,0.008529663,0.0021362305,-0.014907837,1.6143799,-32.24182,-19.909668,0,0.0,0.0,0.0,0.0
0.723510742,0.99666387,-0.0013347637,0.081604615,0.08157336,-0.015847595,-0.9965413,0.0026233841,0.9998735,-0.015685845,0.9642126,-0.0013249178,0.2651269,0.26426795,-0.075782076,-0.9614673,0.021365736,0.99712354,-0.0727199,-0.007171631,9.816223,-0.06942749,0.025726318,9.805298,-0.15382385,0.018112183,-0.004257202,0.008514404,1.6143799,-32.958984,-20.256042,0,0.0,0.0,0.0,0.0
0.727905273,0.9966637,-0.0013360018,0.08160662,0.08157538,-0.015832094,-0.9965414,0.002623385,0.99987376,-0.01567029,0.9651947,-0.0013879541,0.26152885,0.260694,-0.07490686,-0.9625111,0.020926226,0.9971896,-0.071937874,0.02154541,9.883255,-0.10772705,0.025726318,9.805298,-0.15367126,0.019180298,0.0,0.004257202,1.6143799,-32.958984,-20.256042,1,0.0,0.0,0.0,0.0
0.732299804,0.9966674,-0.0013085085,0.08156218,0.08153142,-0.015814122,-0.99654526,0.002593822,0.99987406,-0.015654735,0.966144,-0.0014629151,0.25799912,0.25719306,-0.07372628,-0.96354353,0.0204309,0.99727744,-0.070853956,-0.05984497,9.758759,-0.11251831,0.025436401,9.805298,-0.15351868,0.0138549805,-0.0053253174,0.008514404,1.6143799,-32.958984,-20.256042,1,0.0,0.0,0.0,0.0
0.736694336,0.99784374,-0.0035875577,-0.06553622,-0.065584294,-0.015513568,-0.99772644,0.0025627003,0.9998732,-0.015715405,0.96706223,-0.0015310154,0.2545353,0.25375703,-0.072569035,-0.9645418,0.01994811,0.9973622,-0.069790274,-0.08378601,9.854523,-0.32800293,0.025131226,9.805298,-0.15411377,0.015991211,-0.0063934326,-0.007461548,-1.4343262,-32.063293,-20.083618,1,0.0,0.0,0.0,0.0
0.741088867,0.99784523,-0.0036027113,-0.06551214,-0.06556045,-0.015512635,-0.99772805,0.00257826,0.9998732,-0.015715405,0.9686834,-0.0018016926,0.24829264,0.24753416,-0.07143114,-0.96624243,0.019476697,0.9974439,-0.068748176,0.08378601,9.797058,-0.16040039,0.025283813,9.805298,-0.15411377,0.009597778,0.0,-0.01171875,-1.4343262,-32.063293,-20.083618,1,0.0,0.0,0.0,0.0
0.745483398,0.99784553,-0.0036047013,-0.065508984,-0.065557405,-0.015543692,-0.9977278,0.0025782587,0.9998727,-0.015746517,0.97021586,-0.0020881013,0.24223326,0.24148853,-0.070484035,-0.96784055,0.019094525,0.99751073,-0.06788047,0.01675415,9.792282,-0.20350647,0.025283813,9.805298,-0.15441895,0.009597778,0.004272461,0.004257202,-1.4343262,-32.063293,-20.083618,1,0.0,0.0,0.0,0.0
0.749877929,0.99972343,-0.0029311716,-0.023331666,-0.023375006,-0.01574302,-0.99960274,0.0025626966,0.99987173,-0.015807185,0.97169757,-0.0023309744,0.23621692,0.23549107,-0.06938606,-0.9693965,0.0186498,0.99758714,-0.06687334,-0.02154541,9.816223,-0.31362915,0.025131226,9.805298,-0.15501404,0.0063934326,-0.0063934326,0.003189087,-0.5371094,-32.958984,-18.873596,1,0.0,0.0,0.0,0.0
0.754272461,0.99972415,-0.0029456425,-0.023306414,-0.023349913,-0.015713185,-0.99960405,0.0025782576,0.99987227,-0.015777629,0.9729193,-0.0025008048,0.23113124,0.2304258,-0.068313025,-0.970689,0.01821678,0.9976608,-0.06588682,0.06942749,9.816223,-0.09336853,0.025283813,9.805298,-0.15472412,0.007461548,0.0010681152,0.0010681152,-0.5371094,-32.958984,-18.873596,1,0.0,0.0,0.0,0.0
0.758666992,0.9997241,-0.0029445835,-0.023308262,-0.02335162,-0.015666526,-0.99960464,0.0025782592,0.9998729,-0.01573096,0.9740908,-0.0026625847,0.22614153,0.22545573,-0.06725973,-0.9719289,0.017798059,0.9977319,-0.06491678,0.01675415,9.7827,-0.04069519,0.025283813,9.805298,-0.15426636,-0.009567261,-0.007446289,-0.0021362305,-0.5371094,-32.958984,-18.873596,1,0.0,0.0,0.0,0.0
0.763061523,0.99924356,-0.001889938,0.03884252,0.0388079,-0.015800705,-0.9991217,0.0025020174,0.99987334,-0.015715407,0.9752255,-0.0028905068,0.22119421,0.22052316,-0.06620798,-0.97313213,0.017457668,0.99780166,-0.063930295,-0.05027771,9.849731,-0.20828247,0.024536133,9.805298,-0.15411377,-0.0021209717,-0.003189087,0.004257202,0.71868896,-32.780457,-20.083618,1,0.0,0.0,0.0,0.0
0.767456054,0.99924463,-0.0018747789,0.03881781,0.03878343,-0.015800055,-0.99912274,0.0024864576,0.99987334,-0.015715407,0.9760331,-0.0029449838,0.2176021,0.21695262,-0.0651986,-0.97400236,0.017055774,0.99786794,-0.06299707,-0.007171631,9.773117,-0.12210083,0.024383545,9.805298,-0.15411377,-0.0074310303,-0.022369385,-0.0095825195,0.71868896,-32.780457,-20.083618,1,0.0,0.0,0.0,0.0
0.771850586,0.9992446,-0.001873601,0.038815893,0.038781457,-0.01583114,-0.99912226,0.0024864564,0.9998729,-0.01574652,0.9768119,-0.0029942254,0.21407834,0.21344969,-0.064209856,-0.9748416,0.016664835,0.9979319,-0.062081832,-0.011962891,9.777908,-0.25138855,0.024383545,9.805298,-0.15441895,0.0021362305,-0.018096924,0.0010681152,0.71868896,-32.780457,-20.083618,1,0.0,0.0,0.0,0.0
0.776245117,0.99924636,-0.001846166,0.038771175,0.038737364,-0.015753683,-0.9991252,0.0024553398,0.9998742,-0.015670296,0.97756284,-0.0030393295,0.21062203,0.2100135,-0.06324146,-0.97565097,0.01628537,0.99799365,-0.0611842,-0.05505371,9.758759,0.04548645,0.02407837,9.805298,-0.15367126,0.01171875,-0.015975952,-0.010650635,0.71868896,-32.780457,-20.083618,1,0.0,0.0,0.0,0.0
0.780639648,0.99924445,-0.0018764868,0.0388206,0.03878631,-0.015754983,-0.9991234,0.0024864594,0.9998742,-0.015670296,0.9782727,-0.0030321034,0.20729999,0.20671403,-0.062261987,-0.9764183,0.01586751,0.9980552,-0.060282424,0.11251831,9.816223,-0.13645935,0.024383545,9.805298,-0.15367126,-0.0010528564,0.004272461,-0.0032043457,0.71868896,-32.780457,-20.083618,1,0.0,0.0,0.0,0.0
0.785034179,0.99924433,-0.0018776647,0.038822517,0.038788278,-0.015723893,-0.99912363,0.0024864604,0.99987453,-0.015639182,0.9789714,-0.00307269,0.20397426,0.20340675,-0.061330684,-0.97717154,0.015512426,0.9981128,-0.05941598,0.03590393,9.801849,-0.10772705,0.024383545,9.805298,-0.15336609,0.004272461,-0.012771606,0.0095825195,0.71868896,-32.780457,-20.083618,1,0.0,0.0,0.0,0.0
0.789428711,0.9977954,-0.0014144072,0.06634999,0.06631963,-0.015738128,-0.9976743,0.0024553423,0.9998751,-0.0156096285,0.97964513,-0.003110236,0.20071311,0.20016336,-0.06041687,-0.977898,0.0151679525,0.9981684,-0.058564536,-0.05505371,9.959869,-0.05505371,0.02407837,9.805298,-0.15307617,0.015991211,-0.01171875,-0.008529663,1.2557983,-31.88324,-19.56482,1,0.0,0.0,0.0,0.0
0.793823242,0.99780065,-0.0013665792,0.06627239,0.06624265,-0.015795566,-0.9976786,0.002410217,0.99987435,-0.0156703,0.98018616,-0.0031097806,0.19805418,0.19752255,-0.059522405,-0.9784896,0.0148315495,0.9982221,-0.057728786,0.09815979,9.835373,-0.18434143,0.023635864,9.805298,-0.15367126,0.007461548,-0.0053253174,-0.004257202,1.2557983,-31.88324,-19.56482,1,0.0,0.0,0.0,0.0
0.798217773,0.99779886,-0.0013827238,0.06629859,0.06626863,-0.01578111,-0.997677,0.002425777,0.99987453,-0.015654743,0.98075485,-0.002792743,0.19522308,0.194725,-0.05879819,-0.9790939,0.0142131215,0.998266,-0.057122797,0.05505371,9.902405,-0.10293579,0.023788452,9.805298,-0.15351868,0.012786865,-0.013839722,-0.017044067,1.2557983,-31.88324,-19.56482,1,0.0,0.0,0.0,0.0
0.802612304,0.99977225,-0.002076733,0.021241805,0.021206554,-0.015733479,-0.9996513,0.0024102163,0.99987406,-0.015685854,0.9812596,-0.0027982313,0.19267006,0.19218808,-0.057937246,-0.9796463,0.013904051,0.9983163,-0.056313694,-0.002380371,9.753967,-0.22265625,0.023635864,9.805298,-0.15382385,-0.0010528564,-0.020233154,0.0010681152,0.36010742,-32.063293,-20.083618,1,0.0,0.0,0.0,0.0
0.807006836,0.99977213,-0.0020773776,0.02124283,0.021207646,-0.015702376,-0.9996517,0.0024102172,0.99987453,-0.015654743,0.9819185,-0.0028523768,0.1892826,0.18881473,-0.05709204,-0.9803518,0.013602862,0.99836487,-0.05552116,0.01675415,9.739609,-0.07421875,0.023635864,9.805298,-0.15351868,0.0138549805,-0.01171875,-0.0021362305,0.36010742,-32.063293,-20.083618,1,0.0,0.0,0.0,0.0
0.811401367,0.9997718,-0.0020903281,0.021263503,0.021227852,-0.015810063,-0.9996497,0.002425773,0.99987286,-0.01576208,0.98254937,-0.002948996,0.1859784,0.18551862,-0.056484215,-0.981016,0.013397857,0.99839914,-0.054951437,0.04069519,9.883255,-0.17955017,0.023788452,9.805298,-0.15457153,0.012786865,0.0010681152,0.0053253174,0.36010742,-32.063293,-20.083618,1,0.0,0.0,0.0,0.0
0.815795898,0.9999821,-0.0024650572,-0.0054474017,-0.0054854904,-0.015717728,-0.9998615,0.0023790952,0.9998735,-0.01573097,0.9831603,-0.0029949597,0.18272078,0.18227433,-0.055669036,-0.9816705,0.013111953,0.9984448,-0.054185677,-0.08378601,9.931137,-0.06942749,0.023330688,9.805298,-0.15426636,0.024505615,-0.0021209717,0.0010681152,-0.17852783,-32.24182,-18.182373,1,0.0,0.0,0.0,0.0
0.820190429,0.9999824,-0.0025107192,-0.0053664353,-0.005405365,-0.015764339,-0.9998611,0.0024257726,0.9998726,-0.015777634,0.9838441,-0.0030639104,0.1790013,0.17856713,-0.054867655,-0.98239684,0.012831357,0.99848896,-0.053434104,0.12689209,9.859314,-0.2609558,0.023788452,9.805298,-0.15472412,0.0138549805,-0.0010528564,0.01171875,-0.17852783,-32.24182,-18.182373,1,0.0,0.0,0.0,0.0
0.824584961,0.99998283,-0.0025702997,-0.0052607884,-0.0053009335,-0.015870059,-0.99986,0.002486451,0.9998708,-0.015883412,0.9845003,-0.0031309323,0.17535503,0.17493254,-0.054082807,-0.98309386,0.012561692,0.9985315,-0.05269684,0.15560913,9.844955,-0.4524994,0.024383545,9.805298,-0.15576172,0.007461548,0.018096924,0.007461548,-0.17852783,-32.24182,-18.182373,1,0.0,0.0,0.0,0.0
0.828979492,0.99831355,-0.0015735693,0.058030136,0.057997525,-0.016048405,-0.9981877,0.002502009,0.99987,-0.015930079,0.9851422,-0.003063017,0.1717135,0.17130469,-0.05368359,-0.98375446,0.012231452,0.9985533,-0.052361257,0.06942749,9.916779,-0.2609558,0.024536133,9.805298,-0.15621948,0.0234375,-0.004257202,-0.004257202,1.0772705,-31.704712,-19.392395,1,0.0,0.0,0.0,0.0
0.833374023,0.9983151,-0.0015584306,0.058005467,0.0579731,-0.016047467,-0.9981892,0.0024864492,0.99987,-0.015930079,0.98553276,-0.003063323,0.16945708,0.16906053,-0.052930478,-0.9841834,0.011984316,0.9985935,-0.051646832,-0.011962891,9.773117,-0.16519165,0.024383545,9.805298,-0.15621948,0.012786865,0.009597778,-0.0063934326,1.0772705,-31.704712,-19.392395,1,0.0,0.0,0.0,0.0
0.837768554,0.9983167,-0.001540742,0.05797664,0.057944454,-0.016091555,-0.9981901,0.0024708877,0.99986935,-0.015975192,0.9859107,-0.003061417,0.16724467,0.16685997,-0.05219186,-0.9845983,0.011743076,0.9986324,-0.050945684,-0.026321411,9.773117,-0.28489685,0.024230957,9.805298,-0.15666199,0.017044067,0.0,0.0,1.0772705,-31.704712,-19.392395,1,0.0,0.0,0.0,0.0
0.842163086,0.9988201,-0.0016936171,0.048533484,0.048500128,-0.016060729,-0.9986941,0.0024708884,0.99986964,-0.015959637,0.9862763,-0.0030571143,0.16507487,0.16470166,-0.05146919,-0.9849997,0.011507526,0.9986699,-0.05025933,0.04069519,9.797058,-0.11730957,0.024230957,9.805298,-0.1565094,0.012786865,0.008529663,0.004257202,0.8972168,-31.524658,-19.56482,1,0.0,0.0,0.0,0.0
0.846557617,0.9988213,-0.0016784654,0.04850913,0.048476018,-0.016059931,-0.99869525,0.0024553288,0.99986964,-0.015959637,0.9866439,-0.0029112694,0.1628657,0.16250756,-0.051035125,-0.98538655,0.011180597,0.99869263,-0.049880397,-0.011962891,9.787491,-0.13645935,0.02407837,9.805298,-0.1565094,0.018112183,0.0063934326,-0.0063934326,0.8972168,-31.524658,-19.56482,1,0.0,0.0,0.0,0.0
0.850952148,0.9988201,-0.0016936171,0.048533484,0.048500128,-0.016060729,-0.9986941,0.0024708884,0.99986964,-0.015959637,0.98701614,-0.0029189168,0.16059494,0.16024703,-0.0503342,-0.98579276,0.010960864,0.99872816,-0.049212918,0.06463623,9.806641,-0.17955017,0.024230957,9.805298,-0.1565094,0.009597778,0.0063934326,-0.0032043457,0.8972168,-31.524658,-19.56482,1,0.0,0.0,0.0,0.0
0.855346679,0.9981865,-0.0014915977,0.060177386,0.060145773,-0.016062925,-0.9980603,0.0024553295,0.9998699,-0.015944082,0.9873756,-0.0029260742,0.15836918,0.15803112,-0.049647782,-0.9861852,0.01074833,0.9987625,-0.048558597,-0.04548645,9.926346,-0.11730957,0.02407837,9.805298,-0.15635681,0.021316528,0.0021362305,-0.0053253174,1.2557983,-32.600403,-21.638489,1,0.0,0.0,0.0,0.0
0.859741211,0.99818414,-0.0015182719,0.060217436,0.060185235,-0.016126966,-0.99805695,0.0024864462,0.9998688,-0.016006304,0.9876867,-0.0029196066,0.1564174,0.15608913,-0.048975583,-0.98652804,0.010540907,0.9987957,-0.047916815,0.10772705,9.801849,-0.29927063,0.024383545,9.805298,-0.15696716,0.014923096,0.0021362305,-0.0095825195,1.2557983,-32.600403,-21.638489,1,0.0,0.0,0.0,0.0
0.864135742,0.99818385,-0.0015219318,0.060222927,0.06019082,-0.016064866,-0.9980576,0.0024864487,0.99986976,-0.01594408,0.98798776,-0.0029056573,0.15450472,0.15418567,-0.048369996,-0.9868572,0.010340861,0.99882525,-0.04734095,0.01675415,9.94072,0.01675415,0.024383545,9.805298,-0.15635681,0.0032043457,0.0,0.0,1.2557983,-32.600403,-21.638489,1,0.0,0.0,0.0,0.0
0.868530273,0.99990904,-0.0022902775,0.013295693,0.01325748,-0.015961897,-0.99978477,0.002502009,0.99987,-0.015930079,0.9882792,-0.0028998253,0.15262976,0.15231971,-0.04772333,-0.9871783,0.010146646,0.99885637,-0.046722274,-0.007171631,9.76355,-0.23701477,0.024536133,9.805298,-0.15621948,0.008529663,0.017028809,0.003189087,0.18005371,-32.958984,-19.218445,1,0.0,0.0,0.0,0.0
0.872924804,0.99990934,-0.0022747498,0.013269067,0.013231031,-0.015991181,-0.99978447,0.0024864478,0.99986947,-0.015959635,0.9882792,-0.0028998253,0.15262976,0.15231971,-0.04772333,-0.9871783,0.010146646,0.99885637,-0.046722274,-0.007171631,9.76355,-0.23701477,0.024383545,9.805298,-0.1565094,0.008529663,0.017028809,0.003189087,0.18005371,-32.958984,-19.218445,1,0.0,0.0,0.0,0.0
0.877319336,0.99991274,-0.0021405066,0.013038876,0.013002837,-0.0160651,-0.9997863,0.00234952,0.9998686,-0.016035864,0.98910946,-0.0029721875,0.14715162,0.14685673,-0.046463583,-0.98806584,0.009773908,0.99891555,-0.045521084,-0.09815979,9.935928,-0.16040039,0.023040771,9.805298,-0.15725708,0.018112183,0.0010681152,-0.0021362305,0.18005371,-32.958984,-19.218445,1,0.0,0.0,0.0,0.0
0.881713867,0.999984,-0.0024471753,-0.005091928,-0.005130575,-0.016054677,-0.99985796,0.0023650788,0.99986815,-0.016066976,0.98950034,-0.002645808,0.14450651,0.14423268,-0.04610258,-0.9884693,0.009277423,0.9989332,-0.045236904,0.05027771,9.878464,-0.21307373,0.02319336,9.805298,-0.15756226,0.018112183,0.0010681152,-0.019180298,-0.17852783,-31.524658,-19.909668,1,0.0,0.0,0.0,0.0
0.886108398,0.99998456,-0.0025352691,-0.0049524466,-0.004992564,-0.01607012,-0.9998584,0.002455324,0.9998676,-0.016082527,0.98992944,-0.0026970175,0.14153628,0.14126873,-0.0455003,-0.98892516,0.009107091,0.9989607,-0.044661082,0.05027771,9.854523,-0.12210083,0.02407837,9.805298,-0.15771484,0.014923096,0.014907837,-0.0010681152,-0.17852783,-31.524658,-19.909668,1,0.0,0.0,0.0,0.0
0.890502929,0.9999847,-0.0025658356,-0.00490405,-0.004944778,-0.016115196,-0.9998579,0.0024864413,0.99986684,-0.016127637,0.99034077,-0.0027497304,0.13862711,0.13836548,-0.04491039,-0.9893624,0.008946278,0.99898726,-0.044096127,0.11251831,9.8736725,-0.2753296,0.024383545,9.805298,-0.15815735,0.0063934326,0.023422241,0.017028809,-0.17852783,-31.524658,-19.909668,1,0.0,0.0,0.0,0.0
0.894897461,0.9991763,-0.0031385268,-0.040455803,-0.040501114,-0.01604485,-0.9990507,0.0024864404,0.9998664,-0.01615875,0.99072146,-0.0027206945,0.13588059,0.13562626,-0.04453311,-0.98975873,0.008744017,0.9990042,-0.043750916,0.007171631,9.926346,-0.25616455,0.024383545,9.805298,-0.15846252,0.012786865,0.0063934326,-0.0032043457,-0.8956909,-32.958984,-19.56482,1,0.0,0.0,0.0,0.0
0.899291992,0.9991725,-0.0030788668,-0.040556137,-0.040600438,-0.016031457,-0.99904686,0.0024257584,0.9998668,-0.016143195,0.99119526,-0.002802471,0.13237874,0.13212918,-0.043962296,-0.99025714,0.00859484,0.9990293,-0.04320493,-0.10772705,9.8688965,-0.13645935,0.023788452,9.805298,-0.15830994,0.0032043457,-0.010650635,-0.0010681152,-0.8956909,-32.958984,-19.56482,1,0.0,0.0,0.0,0.0
0.903686523,0.99917465,-0.00311242,-0.04049971,-0.040544853,-0.016151665,-0.9990471,0.0024553167,0.9998647,-0.016264528,0.9916478,-0.0028766259,0.12894338,0.12869859,-0.043401558,-0.9907335,0.0084463125,0.99905354,-0.04266884,0.026321411,9.7444,-0.17955017,0.02407837,9.805298,-0.15950012,0.015991211,0.011703491,0.003189087,-0.8956909,-32.958984,-19.56482,1,0.0,0.0,0.0,0.0
0.908081054,0.9988153,-0.0016793711,0.04863343,0.04859964,-0.016320368,-0.998685,0.002470878,0.99986535,-0.016219417,0.9920796,-0.0029473598,0.12557614,0.12533599,-0.042855565,-0.9911883,0.008303025,0.9990769,-0.04214672,0.05984497,9.82579,-0.03590393,0.024230957,9.805298,-0.15905762,0.02557373,0.010650635,0.004257202,0.8972168,-32.958984,-19.56482,1,0.0,0.0,0.0,0.0
0.912475586,0.99881375,-0.0016966361,0.04866244,0.048628483,-0.016276114,-0.9986843,0.0024864397,0.9998661,-0.016174305,0.9922358,-0.0028452592,0.124338984,0.124106966,-0.042524066,-0.9913572,0.008108067,0.9990914,-0.04184078,0.05505371,9.907196,-0.02154541,0.024383545,9.805298,-0.15861511,0.012786865,0.018096924,-0.004257202,0.8972168,-32.958984,-19.56482,1,0.0,0.0,0.0,0.0
0.916870117,0.9988166,-0.001663507,0.04860676,0.048573203,-0.016335106,-0.99868613,0.0024553179,0.99986523,-0.016234973,0.9924235,-0.0028413478,0.12283132,0.122604996,-0.04199838,-0.9915664,0.007976102,0.9991136,-0.041331813,-0.03590393,9.7348175,-0.06463623,0.02407837,9.805298,-0.1592102,0.0032043457,0.018096924,-0.0010681152,0.8972168,-32.958984,-19.56482,1,0.0,0.0,0.0,0.0
0.921264648,0.99998486,-0.002550358,-0.0048678964,-0.0049087177,-0.016252255,-0.9998558,0.0024708763,0.99986464,-0.016264528,0.99260545,-0.002834889,0.12135221,0.121131495,-0.041484766,-0.99176925,0.007845824,0.99913514,-0.040834613,0.05027771,9.82579,0.02154541,0.024230957,9.805298,-0.15950012,0.02557373,0.02130127,-0.0010681152,-0.17852783,-33.317566,-19.218445,1,0.0,0.0,0.0,0.0
0.925659179,0.99998504,-0.002566038,-0.0048407167,-0.0048820646,-0.016359832,-0.9998543,0.0024864702,0.9998629,-0.016372114,0.9929092,-0.0028722622,0.1188407,0.118624516,-0.040978108,-0.99209327,0.007719419,0.99915594,-0.040346816,-0.04069519,9.854523,-0.15083313,0.024383545,9.805145,-0.16055298,0.0234375,0.012771606,0.0021362305,-0.17852783,-33.317566,-19.218445,1,0.0,0.0,0.0,0.0
0.930053711,0.999985,-0.0025659644,-0.0048408434,-0.0048821517,-0.016344277,-0.99985456,0.0024864709,0.9998632,-0.01635656,0.99316555,-0.0029981502,0.11667606,0.11645719,-0.04089791,-0.9923534,0.0077470313,0.99915886,-0.040269237,0.011962891,9.916779,-0.11251831,0.024383545,9.805145,-0.16040039,0.024505615,0.018096924,0.008514404,-0.17852783,-33.317566,-19.218445,1,0.0,0.0,0.0,0.0
0.934448242,0.99974376,-0.0021334512,0.022534138,0.022496196,-0.016393196,-0.9996125,0.0025020312,0.9998633,-0.016341003,0.9934465,-0.0030290363,0.11425751,0.11404315,-0.040404372,-0.9926538,0.007623287,0.9991788,-0.039794143,-0.002380371,9.926346,0.007171631,0.024536133,9.805145,-0.1602478,0.01171875,0.02130127,0.0021362305,0.36010742,-32.421875,-19.04602,1,0.0,0.0,0.0,0.0
0.938842773,0.9997444,-0.0021186224,0.022508904,0.022471242,-0.016378798,-0.9996133,0.0024864718,0.99986356,-0.016327003,0.99365497,-0.0030367547,0.11243011,0.112220526,-0.03992264,-0.99288094,0.0075036427,0.99919814,-0.039328545,-0.011962891,9.849731,-0.13166809,0.024383545,9.805145,-0.16011047,0.012786865,0.022354126,0.0053253174,0.36010742,-32.421875,-19.04602,1,0.0,0.0,0.0,0.0
0.943237304,0.9997427,-0.0021601922,0.022579638,0.022541018,-0.016485713,-0.99960995,0.0025315909,0.9998617,-0.016432779,0.9938561,-0.0030427263,0.11063855,0.11043362,-0.039451137,-0.9931003,0.007386549,0.99921685,-0.038872734,0.04548645,9.82579,-0.07899475,0.02482605,9.805145,-0.16114807,0.014923096,0.017028809,0.0,0.36010742,-32.421875,-19.04602,1,0.0,0.0,0.0,0.0
0.947631836,0.99972945,-0.0021817584,0.02315864,0.023119582,-0.01648768,-0.9995967,0.0025627103,0.9998616,-0.016432777,0.99402857,-0.0030976543,0.10907637,0.10887009,-0.039506003,-0.99327064,0.0073859803,0.99921453,-0.038932856,0.09815979,9.725235,-0.16519165,0.025131226,9.805145,-0.16114807,0.030899048,0.011703491,0.0063934326,0.36010742,-33.49762,-18.701172,1,0.0,0.0,0.0,0.0
0.952026367,0.9997309,-0.002149126,0.023100216,0.023061436,-0.016594142,-0.99959636,0.0025315864,0.99986,-0.016540114,0.994215,-0.003103372,0.10736379,0.10716196,-0.039044574,-0.99347466,0.0072750943,0.99923265,-0.038486134,-0.05027771,9.888046,-0.20350647,0.02482605,9.805145,-0.16220093,0.008529663,0.019165039,-0.012786865,0.36010742,-33.49762,-18.701172,1,0.0,0.0,0.0,0.0
0.956420898,0.9997301,-0.0021649334,0.023128515,0.023089547,-0.016563457,-0.9995961,0.0025471475,0.9998604,-0.016509,0.9943949,-0.0031060257,0.10568429,0.10548685,-0.038594447,-0.9936714,0.007165196,0.9992501,-0.038050476,0.05984497,9.835373,-0.10772705,0.024978638,9.805145,-0.16189575,0.020248413,0.014907837,0.0010681152,0.36010742,-33.49762,-18.701172,1,0.0,0.0,0.0,0.0
0.960815429,0.9977091,-0.0014704812,0.06763321,0.06759945,-0.016662128,-0.99757326,0.002593826,0.99986005,-0.016524555,0.99456835,-0.0031086523,0.104038626,0.1038454,-0.038153116,-0.9938613,0.0070589674,0.99926704,-0.037623066,0.12210083,9.82579,-0.17477417,0.025436401,9.805145,-0.16204834,0.004272461,0.009597778,0.004257202,1.2557983,-31.88324,-19.218445,1,0.0,0.0,0.0,0.0
0.965209961,0.99770933,-0.0014694569,0.06763153,0.06759774,-0.016677648,-0.99757326,0.0025938256,0.9998598,-0.016540112,0.99465704,-0.0030389184,0.10318996,0.103002615,-0.0377731,-0.9939636,0.006918378,0.9992817,-0.03725826,0.03590393,9.883255,-0.20350647,0.025436401,9.805145,-0.16220093,0.0032043457,-0.007446289,-0.0021362305,1.2557983,-31.88324,-19.218445,1,0.0,0.0,0.0,0.0
0.969604492,0.9977096,-0.001466487,0.06762662,0.06759277,-0.016722647,-0.9975728,0.0025938237,0.9998591,-0.016585223,0.9947305,-0.0030107168,0.10247992,0.102297015,-0.037351586,-0.99405235,0.006820598,0.9992977,-0.036846776,0.011962891,9.988602,-0.3040619,0.025436401,9.805145,-0.16264343,-0.0084991455,-0.008514404,0.003189087,1.2557983,-31.88324,-19.218445,1,0.0,0.0,0.0,0.0
0.973999023,0.99872047,-0.0017540219,0.050540425,0.050504286,-0.016665576,-0.9985847,0.0025938249,0.9998595,-0.016555667,0.99480206,-0.002982633,0.10178368,0.101605065,-0.036938183,-0.9941388,0.006724855,0.9993131,-0.03644313,0.026321411,9.768341,-0.07899475,0.025436401,9.805145,-0.16235352,-0.0010528564,0.007461548,0.013839722,0.8972168,-32.958984,-18.873596,1,0.0,0.0,0.0,0.0
0.978393554,0.9987193,-0.0017668498,0.050562773,0.05052638,-0.016681857,-0.9985833,0.0026078278,0.9998593,-0.016571222,0.99490625,-0.0029676987,0.10076073,0.10058604,-0.036531955,-0.99425745,0.0066316426,0.9993281,-0.036047358,0.05027771,9.753967,-0.18913269,0.02557373,9.805145,-0.1625061,-0.004257202,-0.012771606,0.0010681152,0.8972168,-32.958984,-18.873596,1,0.0,0.0,0.0,0.0
0.982788086,0.9987182,-0.001779734,0.05058522,0.050548494,-0.016727738,-0.9985815,0.0026233857,0.9998585,-0.016616333,0.9949933,-0.0029152236,0.09989893,0.099727936,-0.036341496,-0.9943509,0.006529231,0.99933517,-0.035868816,0.08857727,9.926346,-0.29927063,0.025726318,9.805145,-0.16294861,0.012786865,0.008529663,-0.0010681152,0.8972168,-32.958984,-18.873596,1,0.0,0.0,0.0,0.0
0.987182617,0.9987197,-0.0017631039,0.05055625,0.05051972,-0.01675797,-0.9985825,0.0026078245,0.999858,-0.016647443,0.9950917,-0.0029025143,0.09891453,0.09874719,-0.03594895,-0.994463,0.0064423173,0.9993494,-0.03548589,-0.011962891,9.811432,-0.25138855,0.02557373,9.805145,-0.16325378,-0.0021209717,0.0063934326,0.0053253174,0.8972168,-32.958984,-18.873596,1,0.0,0.0,0.0,0.0
0.991577148,0.99871665,-0.001796366,0.05061419,0.050577257,-0.016697504,-0.9985806,0.0026389468,0.999859,-0.01658522,0.9951872,-0.0028888409,0.09794928,0.09778548,-0.035564482,-0.99457186,0.006356675,0.9993632,-0.03511083,0.09336853,9.911987,0.007171631,0.025878906,9.805145,-0.16264343,0.0010681152,0.0032043457,0.004257202,0.8972168,-32.958984,-18.873596,1,0.0,0.0,0.0,0.0
0.995971679,0.99871147,-0.0018537301,0.050714117,0.05067613,-0.016731828,-0.998575,0.0026996282,0.9998583,-0.01661633,0.9952802,-0.00272851,0.09700479,0.096848965,-0.035277706,-0.99467367,0.0061360835,0.9993738,-0.034846947,0.19392395,9.892838,-0.25616455,0.026473999,9.805145,-0.16294861,0.0063934326,0.0,-0.008529663,0.8972168,-32.958984,-18.873596,1,0.0,0.0,0.0,0.0
1.000366211,0.99998593,-0.0027753208,-0.004529689,-0.0045752046,-0.016619422,-0.99985147,0.0026996275,0.999858,-0.016631885,0.99536985,-0.0027231125,0.096080855,0.09592803,-0.034906976,-0.99477595,0.0060627786,0.99938685,-0.03448413,0.026321411,9.926346,-0.19392395,0.026473999,9.805145,-0.1631012,0.0010681152,0.0021362305,0.0053253174,-0.17852783,-32.958984,-19.218445,1,0.0,0.0,0.0,0.0
1.004760742,0.9999858,-0.0027599835,-0.0045559905,-0.004601122,-0.016572755,-0.999852,0.0026840698,0.9998588,-0.016585218,0.9955612,-0.0027554207,0.09407539,0.09392486,-0.034540407,-0.9949799,0.005990991,0.9993995,-0.03412829,-0.03111267,9.830582,-0.04548645,0.026321411,9.805145,-0.16264343,-0.0010528564,-0.014907837,0.007461548,-0.17852783,-32.958984,-19.218445,1,0.0,0.0,0.0,0.0
1.009155273,0.9999857,-0.0027462333,-0.0045795706,-0.0046243924,-0.016543198,-0.9998524,0.0026700676,0.9998594,-0.016555663,0.995745,-0.0027854873,0.09210916,0.091960885,-0.034180604,-0.9951757,0.005920396,0.99941176,-0.03377901,-0.01675415,9.883255,-0.07421875,0.026184082,9.805145,-0.16235352,0.007461548,-0.003189087,-0.0053253174,-0.17852783,-32.958984,-19.218445,1,0.0,0.0,0.0,0.0
1.013549804,0.9999064,-0.0028908635,-0.013364792,-0.013410648,-0.016471768,-0.9997743,0.0026700695,0.9998601,-0.016508996,0.9959384,-0.0029389467,0.08998904,0.08983915,-0.033786155,-0.995383,0.0059657614,0.99942476,-0.033384897,0.007171631,9.888046,-0.03111267,0.026184082,9.805145,-0.16189575,-0.003189087,-0.01171875,0.007461548,-0.35858154,-32.780457,-19.737244,1,0.0,0.0,0.0,0.0
1.017944336,0.9999071,-0.0029200448,-0.013316339,-0.013362765,-0.01650262,-0.99977446,0.0026996317,0.9998595,-0.016540106,0.99612236,-0.0029673546,0.0879282,0.08778058,-0.033438973,-0.99557847,0.005894463,0.9994364,-0.033048835,0.12689209,9.964661,-0.25138855,0.026473999,9.805145,-0.16220093,0.004272461,0.012771606,0.008514404,-0.35858154,-32.780457,-19.737244,1,0.0,0.0,0.0,0.0
1.022338867,0.9999068,-0.0029044952,-0.013342159,-0.013388243,-0.016471647,-0.9997747,0.0026840733,0.9998601,-0.016508996,0.9962985,-0.0029949355,0.08590927,0.08576382,-0.03309845,-0.99576557,0.005825718,0.9994476,-0.03271908,-0.01675415,9.76355,-0.07421875,0.026321411,9.805145,-0.16189575,0.008529663,0.004272461,0.004257202,-0.35858154,-32.780457,-19.737244,1,0.0,0.0,0.0,0.0
1.026733398,0.999987,-0.0026120024,0.0043855794,0.0043418445,-0.016520554,-0.99985415,0.0026840733,0.9998601,-0.016508996,0.9964671,-0.0030205087,0.0839294,0.0837861,-0.032765433,-0.9959449,0.0057582436,0.9994585,-0.032396603,0.01675415,9.768341,-0.16998291,0.026321411,9.805145,-0.16189575,0.004272461,0.0,-0.014907837,0.0,-33.139038,-19.737244,1,0.0,0.0,0.0,0.0
1.031127929,0.99998707,-0.0025985,0.004362909,0.004319479,-0.016490879,-0.9998546,0.0026700709,0.99986064,-0.016479442,0.9965848,-0.003103371,0.08251701,0.08237373,-0.03242784,-0.99607384,0.0057670353,0.9994693,-0.032061458,-0.01675415,9.821014,-0.07421875,0.026184082,9.805145,-0.16160583,-0.0010528564,0.010650635,0.004257202,0.0,-33.139038,-19.737244,1,0.0,0.0,0.0,0.0
1.035522461,0.99998707,-0.0025985662,0.00436302,0.0043196306,-0.016475322,-0.99985486,0.0026700716,0.9998609,-0.016463885,0.9967127,-0.0031121501,0.0809574,0.080816455,-0.032107282,-0.9962117,0.0056996825,0.9994796,-0.03175022,0.026321411,9.806641,-0.13166809,0.026184082,9.805145,-0.16145325,0.0,0.011703491,0.003189087,0.0,-33.139038,-19.737244,1,0.0,0.0,0.0,0.0
1.039916992,0.9997467,-0.0022866128,0.02238777,0.022347134,-0.01647249,-0.99961454,0.002654514,0.9998617,-0.01641722,0.99683565,-0.0031201104,0.07942872,0.07929006,-0.031793334,-0.99634445,0.0056340084,0.9994896,-0.031445336,-0.007171631,9.902405,-0.06463623,0.026031494,9.805145,-0.16099548,-0.006378174,-0.004257202,-0.0010681152,0.36010742,-32.421875,-19.392395,1,0.0,0.0,0.0,0.0
1.044311523,0.9997468,-0.0022852567,0.022385504,0.022344725,-0.016534692,-0.9996136,0.002654511,0.99986064,-0.016479442,0.9969258,-0.003115418,0.07828995,0.078153715,-0.031485625,-0.9964439,0.005569347,0.9994993,-0.031145347,0.007171631,9.911987,-0.3184204,0.026031494,9.805145,-0.16160583,0.0063934326,0.0010681152,-0.0053253174,0.36010742,-32.421875,-19.392395,1,0.0,0.0,0.0,0.0
1.048706054,0.9997468,-0.0022852567,0.022385504,0.022344725,-0.016534692,-0.9996136,0.002654511,0.99986064,-0.016479442,0.99702626,-0.0031262245,0.07699946,0.07686505,-0.031205434,-0.99655306,0.0055182497,0.9995081,-0.03087234,0.04548645,9.806641,-0.15083313,0.026031494,9.805145,-0.16160583,0.0010681152,-0.010650635,0.0010681152,0.36010742,-32.421875,-19.392395,1,0.0,0.0,0.0,0.0
1.053100586,0.9970987,-0.0013641238,0.07610786,0.07607486,-0.01660027,-0.9969639,0.002623393,0.99986124,-0.01644833,0.9971099,-0.003120221,0.07590894,0.075776875,-0.030911807,-0.99664557,0.005456237,0.99951726,-0.030586027,-0.05984497,9.811432,-0.07421875,0.025726318,9.805145,-0.16130066,0.0063934326,0.0063934326,0.003189087,1.435852,-32.421875,-19.392395,1,0.0,0.0,0.0,0.0
1.057495117,0.9971007,-0.0013478724,0.07608084,0.076048076,-0.016614558,-0.99696565,0.0026078324,0.999861,-0.016463887,0.9971097,-0.0030798288,0.075912654,0.07578337,-0.030625708,-0.99665385,0.005394402,0.9995262,-0.030303791,-0.01675415,9.821014,-0.21786499,0.02557373,9.805145,-0.16145325,-0.004257202,0.0010681152,0.008514404,1.435852,-32.421875,-19.392395,1,0.0,0.0,0.0,0.0
1.061889648,0.99710166,-0.001339928,0.07606763,0.076035194,-0.016537474,-0.99696785,0.0025938319,0.9998623,-0.016387666,0.99710965,-0.0030398264,0.075915664,0.07578907,-0.03034543,-0.996662,0.005333373,0.99953485,-0.030027336,-0.02154541,9.907196,0.05027771,0.025436401,9.805145,-0.16070557,0.0010681152,0.0032043457,0.004257202,1.435852,-32.421875,-19.392395,1,0.0,0.0,0.0,0.0
1.066284179,0.9983037,-0.0016221865,0.05819906,0.058164544,-0.016478863,-0.99817103,0.0025782736,0.9998629,-0.016356556,0.9970989,-0.0029581522,0.07605874,0.07593543,-0.030172242,-0.9966562,0.005243123,0.9995403,-0.029860083,-0.007171631,9.840164,-0.07899475,0.025283813,9.805145,-0.16040039,0.0063934326,0.008529663,-0.0021362305,1.0772705,-32.780457,-19.392395,1,0.0,0.0,0.0,0.0
1.070678711,0.99830496,-0.0016096259,0.0581779,0.05814371,-0.016432889,-0.99817294,0.0025627157,0.9998636,-0.016311444,0.9971262,-0.0029315536,0.07570158,0.075580664,-0.02989852,-0.99669135,0.0051852195,0.9995486,-0.029591031,-0.002380371,9.8688965,-0.05027771,0.025131226,9.805145,-0.15995789,0.0032043457,0.0,0.0,1.0772705,-32.780457,-19.392395,1,0.0,0.0,0.0,0.0
1.075073242,0.9983033,-0.0016264801,0.05820629,0.058171906,-0.016402526,-0.99817187,0.0025782366,0.99986416,-0.01628008,0.9971528,-0.002905184,0.07535108,0.07523249,-0.029630164,-0.9967257,0.0051283366,0.9995567,-0.029327238,0.03590393,9.835373,-0.07421875,0.025283813,9.805298,-0.15965271,-0.0053253174,0.0032043457,-0.0063934326,1.0772705,-32.780457,-19.392395,1,0.0,0.0,0.0,0.0
1.079467773,0.99949586,-0.0031068118,-0.031596445,-0.031642687,-0.016174369,-0.9993683,0.002593797,0.99986434,-0.016264522,0.9971663,-0.0030719654,0.07516612,0.075042926,-0.02958938,-0.9967412,0.0052860733,0.99955744,-0.029275002,0.06463623,9.830582,-0.14604187,0.025436401,9.805298,-0.15950012,0.012786865,0.009597778,0.012786865,-0.7171631,-33.49762,-19.392395,1,0.0,0.0,0.0,0.0
1.083862304,0.9994943,-0.0030765494,-0.031648662,-0.03169441,-0.016175194,-0.9993667,0.0025626777,0.99986446,-0.016264524,0.9973245,-0.0030951106,0.07303545,0.072913885,-0.029319424,-0.9969072,0.005226895,0.9995653,-0.029015305,-0.05984497,9.888046,-0.13166809,0.025131226,9.805298,-0.15950012,0.007461548,0.004272461,0.0,-0.7171631,-33.49762,-19.392395,1,0.0,0.0,0.0,0.0
1.088256836,0.99949425,-0.0030751599,-0.03165106,-0.03169667,-0.016130097,-0.9993673,0.0025626794,0.9998651,-0.016219411,0.9974753,-0.0031158852,0.07094628,0.07082636,-0.029055385,-0.9970654,0.0051681125,0.99957293,-0.02876134,0.04548645,9.878464,-0.07421875,0.025131226,9.805298,-0.15905762,0.007461548,-0.012771606,-0.015975952,-0.7171631,-33.49762,-19.392395,1,0.0,0.0,0.0,0.0
1.092651367,0.9987642,-0.0017355942,0.049668748,0.04963375,-0.016386474,-0.998633,0.0025471174,0.9998642,-0.01628008,0.9976188,-0.0031356155,0.06889842,0.0687801,-0.02879629,-0.9972161,0.005110905,0.9995804,-0.02851205,-0.01675415,9.710876,-0.2896881,0.024978638,9.805298,-0.15965271,-0.0021209717,0.0053253174,0.007461548,0.8972168,-33.676147,-19.218445,1,0.0,0.0,0.0,0.0
1.097045898,0.99876416,-0.0017370221,0.049671248,0.0496363,-0.01635696,-0.99863344,0.0025471188,0.9998647,-0.016250525,0.99762934,-0.0032393956,0.068740994,0.06862056,-0.028644737,-0.9972315,0.005199495,0.9995844,-0.02835454,0.01675415,9.907196,-0.10293579,0.024978638,9.805298,-0.1593628,0.0053253174,0.013839722,0.008514404,0.8972168,-33.676147,-19.218445,1,0.0,0.0,0.0,0.0
1.101440429,0.9987615,-0.001765812,0.049721573,0.04968607,-0.01638811,-0.99863034,0.0025782366,0.99986416,-0.01628008,0.99765563,-0.0032078181,0.068359815,0.06824169,-0.028400196,-0.9972645,0.005140475,0.99959147,-0.028114706,0.07899475,9.892838,-0.21307373,0.025283813,9.805298,-0.15965271,-0.009567261,0.0,0.0010681152,0.8972168,-33.676147,-19.218445,1,0.0,0.0,0.0,0.0
1.105834961,0.9999119,-0.0023655933,0.013057142,0.013016814,-0.016328117,-0.99978185,0.002578276,0.99986386,-0.016295888,0.99768114,-0.0031778414,0.06798724,0.06787135,-0.028160743,-0.9972965,0.0050838217,0.9995984,-0.027879758,0.04548645,9.878464,-0.20350647,0.025283813,9.805145,-0.1598053,0.004272461,0.0063934326,0.0063934326,0.18005371,-31.88324,-19.56482,1,0.0,0.0,0.0,0.0
1.110229492,0.9999119,-0.0023655933,0.013057142,0.013016814,-0.016328117,-0.99978185,0.002578276,0.99986386,-0.016295888,0.99775535,-0.0031687932,0.066889875,0.06677586,-0.027922641,-0.99737716,0.0050282246,0.99960506,-0.027648367,0.007171631,9.811432,-0.16998291,0.025283813,9.805145,-0.1598053,-0.0074310303,0.010650635,0.0095825195,0.18005371,-31.88324,-19.56482,1,0.0,0.0,0.0,0.0
1.114624023,0.9999123,-0.002350634,0.013032768,0.0129927285,-0.016312305,-0.9997825,0.0025627168,0.99986416,-0.016280333,0.99782395,-0.003320364,0.06585018,0.06573251,-0.027892545,-0.9974473,0.0051486176,0.9996054,-0.027613595,0.002380371,9.777908,-0.12210083,0.025131226,9.805145,-0.15965271,0.01171875,0.0021362305,0.010650635,0.18005371,-31.88324,-19.56482,1,0.0,0.0,0.0,0.0
1.119018554,0.9958723,-0.0010901835,0.09075872,0.09072864,-0.016446877,-0.9957398,0.0025782366,0.99986416,-0.01628008,0.99789315,-0.0033065425,0.06479498,0.06467927,-0.027660301,-0.9975227,0.0050906,0.9996119,-0.02738816,-0.06942749,9.883255,-0.19871521,0.025283813,9.805298,-0.15965271,0.004272461,0.0053253174,0.015960693,1.7944336,-32.780457,-20.083618,1,0.0,0.0,0.0,0.0
1.123413086,0.995877,-0.0010586368,0.09070765,0.09067806,-0.016459746,-0.99574417,0.0025471565,0.9998639,-0.016295888,0.99789315,-0.0033065425,0.06479498,0.06467927,-0.027660301,-0.9975227,0.0050906,0.9996119,-0.02738816,-0.06942749,9.883255,-0.19871521,0.024978638,9.805145,-0.1598053,0.004272461,0.0053253174,0.015960693,1.7944336,-32.780457,-20.083618,1,0.0,0.0,0.0,0.0
1.127807617,0.9958833,-0.0010162226,0.09063898,0.09061014,-0.016439842,-0.9957507,0.0025019948,0.99986434,-0.016280083,0.9978263,-0.0031940807,0.065821454,0.06571065,-0.027220152,-0.99746746,0.0049776617,0.9996244,-0.026951099,-0.03111267,9.835373,-0.25616455,0.024536133,9.805298,-0.15965271,0.015991211,0.007461548,0.004257202,1.7944336,-32.780457,-20.083618,1,0.0,0.0,0.0,0.0
1.132202148,0.99771583,-0.0013814276,0.06753746,0.0675058,-0.016410824,-0.9975839,0.0024864352,0.99986434,-0.016280083,0.99776137,-0.0030276072,0.0668064,0.06670155,-0.026840111,-0.9974119,0.0048128623,0.99963516,-0.02657808,-0.007171631,9.816223,-0.14125061,0.024383545,9.805298,-0.15965271,-0.009567261,0.029815674,-0.007461548,1.2557983,-32.600403,-19.218445,1,0.0,0.0,0.0,0.0
1.136596679,0.99771595,-0.001380426,0.06753577,0.06750411,-0.016426597,-0.99758387,0.0024864734,0.99986416,-0.016295891,0.99776053,-0.0029888658,0.0668208,0.06671796,-0.026632216,-0.9974164,0.0047607296,0.9996408,-0.026373161,0.02154541,9.859314,-0.22744751,0.024383545,9.805145,-0.1598053,0.014923096,0.010650635,-0.0010681152,1.2557983,-32.600403,-19.218445,1,0.0,0.0,0.0,0.0
1.140991211,0.9977194,-0.0013501927,0.06748471,0.06745354,-0.016424172,-0.99758726,0.0024553156,0.9998642,-0.01629564,0.9977597,-0.0029511428,0.06683475,0.06673386,-0.02642923,-0.99742067,0.004709922,0.9996463,-0.026173081,-0.06942749,9.821014,-0.15083313,0.02407837,9.805298,-0.1598053,0.0010681152,0.0032043457,-0.004257202,1.2557983,-32.600403,-19.218445,1,0.0,0.0,0.0,0.0
1.145385742,0.9997691,-0.0021211235,0.02138836,0.021350775,-0.016390078,-0.9996377,0.0024709115,0.9998633,-0.016341003,0.997759,-0.0029134846,0.06684753,0.06674856,-0.026230786,-0.997425,0.004659446,0.9996517,-0.025977531,0.06463623,9.844955,-0.2609558,0.024230957,9.805145,-0.1602478,0.0010681152,-0.0010528564,-0.007461548,0.36010742,-32.780457,-20.083618,1,0.0,0.0,0.0,0.0
1.149780273,0.99976796,-0.0021501298,0.021435684,0.021397462,-0.016453054,-0.9996357,0.0025020286,0.9998623,-0.016403226,0.99780095,-0.0028999073,0.06621822,0.06612184,-0.025789956,-0.9974782,0.004600359,0.9996632,-0.025541494,0.11251831,9.830582,-0.32321167,0.024536133,9.805145,-0.16085815,-0.014892578,0.017028809,-0.0010681152,0.36010742,-32.780457,-20.083618,1,0.0,0.0,0.0,0.0
1.154174804,0.99976903,-0.002119211,0.021385238,0.02134746,-0.016481828,-0.99963623,0.0024709078,0.9998619,-0.016432783,0.99785995,-0.0028882069,0.06532352,0.06522858,-0.025602994,-0.99754184,0.0045535853,0.999668,-0.02535981,-0.05984497,9.892838,-0.26574707,0.024230957,9.805145,-0.16114807,0.01171875,0.0,-0.010650635,0.36010742,-32.780457,-20.083618,1,0.0,0.0,0.0,0.0
1.158569336,0.9979472,-0.0014187751,0.06402679,0.06399482,-0.016481187,-0.99781424,0.002470911,0.9998632,-0.01635656,0.99791706,-0.0028756717,0.064445674,0.06435218,-0.02542092,-0.9976034,0.0045070485,0.9996727,-0.025182916,0.02154541,9.897629,0.05027771,0.024230957,9.805145,-0.16040039,0.0063934326,0.004272461,-0.008529663,1.2557983,-30.807495,-20.256042,1,0.0,0.0,0.0,0.0
1.162963867,0.99795157,-0.001373866,0.06395876,0.0639275,-0.01649373,-0.9978182,0.0024257868,0.99986297,-0.016372116,0.9979177,-0.0028417674,0.0644374,0.06434553,-0.025242219,-0.9976084,0.004461514,0.9996773,-0.025006803,-0.06942749,9.979019,-0.18434143,0.023788452,9.805145,-0.16055298,-0.0053253174,0.014907837,-0.0095825195,1.2557983,-30.807495,-20.256042,1,0.0,0.0,0.0,0.0
1.167358398,0.99795157,-0.0013748371,0.06396023,0.063929,-0.01647821,-0.99781847,0.0024257875,0.99986327,-0.016356561,0.99790955,-0.0027520724,0.06456791,0.06447881,-0.025119087,-0.99760294,0.0043673627,0.9996807,-0.024889125,0.01675415,9.911987,-0.13645935,0.023788452,9.805145,-0.16040039,0.0032043457,0.008529663,-0.0032043457,1.2557983,-30.807495,-20.256042,1,0.0,0.0,0.0,0.0
1.171752929,0.99873435,-0.0016162382,0.05026977,0.050236464,-0.016458586,-0.99860173,0.0024413473,0.99986327,-0.016356561,0.99791044,-0.0027200556,0.06455538,0.064467825,-0.02494612,-0.9976079,0.0043239556,0.9996851,-0.024718639,0.03590393,9.840164,-0.15083313,0.02394104,9.805145,-0.16040039,0.0,0.004272461,-0.0032043457,0.8972168,-32.600403,-18.873596,1,0.0,0.0,0.0,0.0
1.176147461,0.9987331,-0.001631286,0.0502957,0.050262205,-0.016429812,-0.9986009,0.0024553523,0.9998636,-0.016327003,0.9979289,-0.002696144,0.06426959,0.06418344,-0.024776103,-0.9976305,0.0042821052,0.9996894,-0.024551742,0.06942749,9.931137,-0.07899475,0.02407837,9.805145,-0.16011047,0.007461548,0.009597778,-0.0010681152,0.8972168,-32.600403,-18.873596,1,0.0,0.0,0.0,0.0
1.180541992,0.9987318,-0.0016463998,0.050321743,0.050288,-0.016430639,-0.99859965,0.0024709122,0.9998636,-0.016327003,0.99794245,-0.0026872214,0.06406019,0.063974805,-0.024661634,-0.9976468,0.0042607263,0.99969226,-0.024438975,0.06942749,9.797058,-0.16519165,0.024230957,9.805145,-0.16011047,0.0032043457,0.004272461,0.0010681152,0.8972168,-32.600403,-18.873596,1,0.0,0.0,0.0,0.0
1.184936523,0.99877584,-0.0016564783,0.049437944,0.049403936,-0.016519286,-0.9986423,0.0024709085,0.9998622,-0.016417228,0.9979601,-0.0026649283,0.063785374,0.063701294,-0.024496472,-0.99766827,0.004221231,0.9996964,-0.024276743,0.04069519,9.749176,-0.12210083,0.024230957,9.805145,-0.16099548,0.007461548,0.022354126,0.007461548,0.8972168,-32.600403,-19.218445,1,0.0,0.0,0.0,0.0
1.189331054,0.99877584,-0.0016564783,0.049437944,0.049403936,-0.016519286,-0.9986423,0.0024709085,0.9998622,-0.016417228,0.9979785,-0.0026434069,0.06349843,0.06341564,-0.024336742,-0.9976905,0.0041826465,0.9997003,-0.02411991,0.01675415,9.935928,-0.15083313,0.024230957,9.805145,-0.16099548,0.026641846,-0.0010528564,-0.0021362305,0.8972168,-32.600403,-19.218445,1,0.0,0.0,0.0,0.0
1.193725586,0.99878013,-0.0016052347,0.04935122,0.049317695,-0.01667073,-0.99864393,0.0024257791,0.99985975,-0.01657123,0.99799633,-0.002622469,0.0632172,0.06313566,-0.024181139,-0.99771196,0.004145133,0.9997042,-0.023967117,-0.007171631,9.830582,-0.18434143,0.023788452,9.805145,-0.1625061,-0.0084991455,0.007461548,0.0,0.8972168,-32.600403,-19.218445,1,0.0,0.0,0.0,0.0
1.198120117,0.99878,-0.0016067286,0.049353745,0.049320273,-0.016639661,-0.99864435,0.0024257803,0.9998603,-0.016540118,0.99801636,-0.0024457078,0.06290645,0.06282777,-0.024545318,-0.99772245,0.0039841966,0.9996957,-0.02434297,0.011962891,9.7444,-0.10772705,0.023788452,9.805145,-0.16220093,0.031967163,-0.0021209717,-0.007461548,0.8972168,-32.600403,-19.218445,1,0.0,0.0,0.0,0.0
1.202514648,0.9987813,-0.0015923588,0.04932943,0.04929624,-0.016623318,-0.9986459,0.0024102211,0.9998606,-0.016524563,0.9980335,-0.002428492,0.06263551,0.06255796,-0.02438763,-0.99774337,0.0039505432,0.99969965,-0.02418775,-0.026321411,9.844955,-0.12210083,0.023635864,9.805145,-0.16204834,0.012786865,0.015975952,0.0,0.8972168,-32.600403,-19.218445,1,0.0,0.0,0.0,0.0
1.206909179,0.99877995,-0.0016074758,0.04935501,0.04932157,-0.016624127,-0.9986446,0.002425781,0.9998606,-0.016524563,0.9980502,-0.0024111082,0.062369555,0.06229312,-0.02423151,-0.9977637,0.003917025,0.99970347,-0.02403407,0.06942749,9.878464,-0.15560913,0.023788452,9.805145,-0.16204834,0.017044067,0.011703491,-0.0010681152,0.8972168,-32.600403,-19.218445,1,0.0,0.0,0.0,0.0
1.211303711,0.99922436,-0.0017608894,0.039341144,0.039306708,-0.016545948,-0.99909025,0.0024102235,0.99986154,-0.016463896,0.9980665,-0.0023946194,0.062109098,0.062033705,-0.024079377,-0.99778354,0.00388486,0.99970716,-0.02388427,-0.011962891,9.835373,-0.011962891,0.023635864,9.805145,-0.16145325,0.008529663,0.019165039,-0.0032043457,0.71868896,-33.139038,-19.737244,1,0.0,0.0,0.0,0.0
1.215698242,0.99922436,-0.0017597575,0.039339244,0.039304752,-0.016575474,-0.9990897,0.0024102223,0.999861,-0.01649345,0.99808806,-0.0024507204,0.061759695,0.061682403,-0.024250297,-0.99780124,0.003943023,0.99970293,-0.024052765,0.026321411,9.7827,-0.23222351,0.023635864,9.805145,-0.16174316,0.019180298,0.0063934326,0.0053253174,0.71868896,-33.139038,-19.737244,1,0.0,0.0,0.0,0.0
1.220092773,0.9992264,-0.0017294993,0.039288513,0.03925453,-0.016574165,-0.99909174,0.0023791029,0.9998611,-0.016493453,0.99811566,-0.0024376027,0.061311483,0.061235234,-0.024096144,-0.9978325,0.00390969,0.9997067,-0.023901474,-0.05027771,9.8688965,-0.15560913,0.023330688,9.805145,-0.16174316,-0.0084991455,0.0063934326,0.0021362305,0.71868896,-33.139038,-19.737244,1,0.0,0.0,0.0,0.0
1.224487304,0.99949145,-0.0018535779,0.031831913,0.031796955,-0.016546806,-0.99935734,0.0023791036,0.9998614,-0.016479455,0.9981427,-0.002423853,0.060871378,0.060796164,-0.023945173,-0.99786294,0.0038762486,0.9997103,-0.023753338,0.007171631,9.8688965,-0.14604187,0.023330688,9.805145,-0.16160583,0.012786865,0.007461548,0.0063934326,0.53863525,-33.676147,-18.873596,1,0.0,0.0,0.0,0.0
1.228881836,0.9994941,-0.0018102444,0.03175467,0.031720474,-0.016529685,-0.9993601,0.0023339805,0.9998617,-0.0164639,0.9981779,-0.0024140363,0.06029112,0.060216874,-0.023797514,-0.99790156,0.0038437494,0.9997139,-0.023608787,-0.08378601,9.911987,-0.12210083,0.022888184,9.805145,-0.16145325,0.0032043457,0.0010681152,0.004257202,0.53863525,-33.676147,-18.873596,1,0.0,0.0,0.0,0.0
1.233276367,0.99949414,-0.0018093325,0.031753045,0.031718794,-0.016559223,-0.99935967,0.0023339794,0.99986124,-0.016493455,0.9982123,-0.0023856503,0.059720866,0.059648007,-0.023650775,-0.9979393,0.0037931788,0.9997174,-0.023466194,0.01675415,9.94072,-0.21307373,0.022888184,9.805145,-0.16174316,0.0,0.0,-0.0010681152,0.53863525,-33.676147,-18.873596,1,0.0,0.0,0.0,0.0
1.237670898,0.99869287,-0.0014712723,0.05109487,0.05106344,-0.016621426,-0.99855715,0.0023184184,0.9998607,-0.016524566,0.9982456,-0.00237536,0.059161767,0.059089847,-0.023509635,-0.9979758,0.0037614235,0.9997208,-0.023328029,-0.026321411,9.931137,-0.25616455,0.022735596,9.805145,-0.16204834,-0.0074310303,-0.008514404,-0.0032043457,0.8972168,-34.39331,-18.527222,1,0.0,0.0,0.0,0.0
1.242065429,0.99869555,-0.0014418887,0.051040456,0.051009562,-0.016604222,-0.99856013,0.0022872996,0.9998611,-0.016509013,0.9982552,-0.0023555185,0.05900024,0.05892934,-0.023371253,-0.9979886,0.0037296903,0.9997241,-0.023191666,-0.04069519,9.844955,-0.11730957,0.02243042,9.805145,-0.16189575,0.0021362305,0.0010681152,-0.0063934326,0.8972168,-34.39331,-18.527222,1,0.0,0.0,0.0,0.0
1.246459961,0.9986926,-0.0014728149,0.05109772,0.05106634,-0.016590357,-0.9985574,0.0023184195,0.99986124,-0.016493455,0.9982647,-0.002335349,0.0588411,0.058771215,-0.023235537,-0.9980011,0.0036978854,0.9997273,-0.023057964,0.08378601,9.864105,-0.13166809,0.022735596,9.805145,-0.16174316,0.0,-0.004257202,0.0021362305,0.8972168,-34.39331,-18.527222,1,0.0,0.0,0.0,0.0
1.250854492,0.99973124,-0.001951557,0.023099333,0.02306383,-0.016589588,-0.99959624,0.0023339775,0.9998604,-0.016540121,0.9982703,-0.0020343373,0.058756657,0.058693998,-0.023156272,-0.9980074,0.003390869,0.9997298,-0.022996815,0.08378601,9.892838,-0.27053833,0.022888184,9.805145,-0.16220093,0.004272461,0.004272461,-0.017044067,0.36010742,-32.780457,-18.354797,1,0.0,0.0,0.0,0.0
1.255249023,0.99973124,-0.0019519062,0.023099957,0.023064485,-0.01657404,-0.99959654,0.0023339782,0.9998607,-0.016524566,0.99831194,-0.0020363822,0.058044165,0.057982095,-0.02302389,-0.99805206,0.0033688182,0.99973285,-0.022866951,-0.007171631,9.821014,-0.14125061,0.022888184,9.805145,-0.16204834,-0.010635376,0.0,-0.0021362305,0.36010742,-32.780457,-18.354797,1,0.0,0.0,0.0,0.0
1.259643554,0.9997306,-0.0019670166,0.02312693,0.023091203,-0.01657445,-0.99959594,0.0023495378,0.99986064,-0.016524564,0.9983523,-0.0020383128,0.057346188,0.057284683,-0.022894382,-0.99809533,0.003347336,0.99973583,-0.022739895,0.06463623,9.844955,-0.14604187,0.023040771,9.805145,-0.16204834,-0.004257202,0.0,-0.018112183,0.36010742,-32.780457,-18.354797,1,0.0,0.0,0.0,0.0
1.264038086,0.99998397,-0.0024495628,-0.0050883344,-0.00512814,-0.01652782,-0.9998501,0.0023650972,0.99986035,-0.01654012,0.9983956,-0.0018509052,0.056592435,0.056535937,-0.022719344,-0.998142,0.0031332092,0.9997402,-0.02257825,0.05505371,9.8688965,-0.22744751,0.02319336,9.805145,-0.16220093,-0.0021209717,-0.004257202,-0.01171875,-0.17852783,-32.958984,-19.218445,1,0.0,0.0,0.0,0.0
1.268432617,0.99998397,-0.002449486,-0.0050884667,-0.005128234,-0.016512265,-0.9998504,0.0023650979,0.99986064,-0.016524564,0.9984647,-0.0018707359,0.055360444,0.055304192,-0.022595024,-0.9982138,0.003118265,0.9997429,-0.022456873,0.04548645,9.8688965,-0.09815979,0.02319336,9.805145,-0.16204834,-0.004257202,-0.008514404,-0.004257202,-0.17852783,-32.958984,-19.218445,1,0.0,0.0,0.0,0.0
1.272827148,0.99998397,-0.0024341983,-0.0051146843,-0.005154123,-0.016481172,-0.9998509,0.0023495392,0.99986124,-0.016493455,0.9985308,-0.0018900167,0.0541531,0.0540971,-0.022474421,-0.9982827,0.0031038304,0.9997456,-0.022339158,-0.026321411,9.801849,-0.09815979,0.023040771,9.805145,-0.16174316,-0.012756348,0.007461548,-0.01171875,-0.17852783,-32.958984,-19.218445,1,0.0,0.0,0.0,0.0
1.277221679,0.9978058,-0.001249655,0.0661967,0.066166796,-0.016659359,-0.9976694,0.0023495373,0.9998604,-0.016540121,0.99859434,-0.0019082724,0.052968994,0.05291325,-0.022355542,-0.9983489,0.003089272,0.9997483,-0.022223143,0.002380371,9.950287,-0.2753296,0.023040771,9.805145,-0.16220093,0.012786865,0.013839722,0.0,1.2557983,-33.676147,-19.56482,1,0.0,0.0,0.0,0.0
1.281616211,0.9978092,-0.001220464,0.066146664,0.06611728,-0.01664172,-0.997673,0.0023184184,0.9998607,-0.016524566,0.9985756,-0.0019241002,0.05332102,0.05326493,-0.022329303,-0.9983308,0.0031115096,0.9997488,-0.02219501,-0.06463623,9.897629,-0.12689209,0.022735596,9.805145,-0.16204834,0.0053253174,0.0053253174,0.0021362305,1.2557983,-33.676147,-19.56482,1,0.0,0.0,0.0,0.0
1.286010742,0.9978142,-0.0011766846,0.06607164,0.066043,-0.016638648,-0.99767804,0.002273295,0.9998609,-0.016524568,0.99856186,-0.0019085798,0.053577624,0.053522177,-0.022215443,-0.9983195,0.0030956233,0.9997514,-0.022081343,-0.07421875,9.82579,-0.14604187,0.02229309,9.805145,-0.16204834,0.004272461,0.0,-0.0010681152,1.2557983,-33.676147,-19.56482,1,0.0,0.0,0.0,0.0
1.290405273,0.9977435,-0.0011289883,0.067132115,0.06710416,-0.016622284,-0.9976075,0.0022421763,0.99986124,-0.016509015,0.99854845,-0.0018922726,0.053827792,0.05377297,-0.022103924,-0.99830854,0.0030788775,0.9997539,-0.021970086,-0.04548645,9.892838,-0.15083313,0.021987915,9.805145,-0.16189575,0.0,0.0,0.008514404,1.2557983,-32.958984,-19.218445,1,0.0,0.0,0.0,0.0
1.294799804,0.9977467,-0.001100722,0.06708385,0.06705643,-0.016590651,-0.99761117,0.0022110576,0.9998617,-0.016479459,0.998534,-0.0018750841,0.054093905,0.05403973,-0.021994151,-0.9982965,0.0030616396,0.99975634,-0.02186058,-0.06942749,9.911987,-0.06942749,0.02168274,9.805145,-0.16160583,-0.0053253174,0.012771606,0.0,1.2557983,-32.958984,-19.218445,1,0.0,0.0,0.0,0.0
1.299194336,0.9977484,-0.0010862204,0.06705909,0.06703189,-0.016603654,-0.9976126,0.0021970533,0.99986154,-0.01649346,0.99850875,-0.001748374,0.05456341,0.054511987,-0.021967046,-0.99827147,0.0029439486,0.9997572,-0.02183898,-0.08378601,9.94072,-0.026321411,0.02154541,9.805145,-0.16174316,0.0053253174,0.012771606,-0.0063934326,1.2557983,-32.958984,-19.218445,1,0.0,0.0,0.0,0.0
1.303588867,0.99931127,-0.001569256,0.037073575,0.037042588,-0.016548987,-0.99917656,0.0021814941,0.9998618,-0.01647946,0.9984951,-0.0017336226,0.054813363,0.05476252,-0.02185966,-0.99826014,0.0029288079,0.99975955,-0.021731827,-0.04548645,9.816223,-0.08857727,0.021392822,9.805145,-0.16160583,0.018112183,0.023422241,0.0053253174,0.71868896,-33.139038,-20.774841,1,0.0,0.0,0.0,0.0
1.307983398,0.9993133,-0.0015367639,0.037021816,0.03699125,-0.016608382,-0.99917763,0.0021503724,0.99986094,-0.016540129,0.99851453,-0.0017319095,0.054458775,0.054408334,-0.021753034,-0.9982818,0.0029135772,0.9997619,-0.02162649,-0.08857727,9.859314,-0.17955017,0.021087646,9.805145,-0.16220093,0.014923096,0.017028809,0.0053253174,0.71868896,-33.139038,-20.774841,1,0.0,0.0,0.0,0.0
1.312377929,0.9993106,-0.0015794587,0.037089825,0.03705837,-0.016686382,-0.99917364,0.0021970489,0.99985945,-0.016616348,0.9985334,-0.0017292671,0.05411011,0.054060116,-0.021649705,-0.99830294,0.0028978004,0.99976414,-0.021524472,0.09336853,9.753967,-0.08857727,0.02154541,9.805145,-0.16294861,0.014923096,0.034072876,0.003189087,0.71868896,-33.139038,-20.774841,1,0.0,0.0,0.0,0.0
1.316772461,0.9991616,-0.0014832319,0.04091251,0.040882055,-0.016722118,-0.99902403,0.0021659283,0.9998591,-0.016647462,0.99851865,-0.001758069,0.05438257,0.05433102,-0.02195312,-0.99828166,0.0029489151,0.99975747,-0.021825083,-0.03111267,9.797058,-0.17477417,0.021240234,9.805145,-0.16325378,0.024505615,0.03727722,0.003189087,0.71868896,-31.704712,-18.701172,1,0.0,0.0,0.0,0.0
1.321166992,0.9991627,-0.0014675545,0.040885974,0.04085575,-0.01673543,-0.9990248,0.002150368,0.99985886,-0.016661461,0.9985333,-0.0017534083,0.054113165,0.054062083,-0.021847919,-0.9982985,0.0029326852,0.9997598,-0.021721082,0.02154541,9.849731,-0.16519165,0.021087646,9.805145,-0.16339111,0.004272461,0.043670654,-0.0032043457,0.71868896,-31.704712,-18.701172,1,0.0,0.0,0.0,0.0
1.325561523,0.9991638,-0.0014529908,0.040861323,0.04083138,-0.016720774,-0.9990262,0.0021348088,0.99985915,-0.016647464,0.99854755,-0.0017483373,0.05384852,0.053797908,-0.021744424,-0.9983151,0.0029162967,0.99976206,-0.021618785,-0.002380371,9.797058,-0.14125061,0.020935059,9.805145,-0.16325378,0.004272461,0.03302002,-0.004257202,0.71868896,-31.704712,-18.701172,1,0.0,0.0,0.0,0.0
1.329956054,0.9997351,-0.002469691,-0.022881778,-0.022919606,-0.016564136,-0.9996001,0.0020896865,0.99985975,-0.016616354,0.99856156,-0.0017429716,0.05358889,0.05353874,-0.021642746,-0.9983312,0.0028998735,0.99976426,-0.0215183,-0.05984497,9.787491,-0.10772705,0.020492554,9.805145,-0.16294861,0.0010681152,0.041534424,-0.0021362305,-0.5371094,-32.958984,-19.909668,1,0.0,0.0,0.0,0.0
1.334350586,0.99973345,-0.0024237258,-0.022957828,-0.022994693,-0.016473232,-0.99959975,0.0020445662,0.9998613,-0.016524576,0.9986113,-0.0016963804,0.052655697,0.052607194,-0.021502988,-0.99838376,0.0028258937,0.99976736,-0.021383885,-0.03111267,9.878464,-0.05505371,0.020050049,9.805145,-0.16204834,-0.0021209717,0.036209106,-0.004257202,-0.5371094,-32.958984,-19.909668,1,0.0,0.0,0.0,0.0
1.338745117,0.9997345,-0.002453195,-0.02290907,-0.022946494,-0.016503774,-0.99960035,0.0020741287,0.9998607,-0.016555686,0.9986897,-0.0017174281,0.05114486,0.05109652,-0.021401962,-0.9984642,0.0028093911,0.99976945,-0.021286165,0.06942749,9.926346,-0.11730957,0.020339966,9.805145,-0.16235352,-0.011703491,0.050064087,-0.0095825195,-0.5371094,-32.958984,-19.909668,1,0.0,0.0,0.0,0.0
1.343139648,0.9987212,-0.0012247465,0.050543785,0.050516695,-0.016531367,-0.9985865,0.0020585726,0.9998626,-0.016448354,0.99876446,-0.0017386447,0.049665354,0.049617156,-0.021305664,-0.99854106,0.0027942616,0.9997715,-0.021193072,0.04069519,9.916779,-0.07899475,0.020187378,9.805145,-0.16130066,0.01171875,0.027694702,0.003189087,0.8972168,-32.958984,-18.527222,1,0.0,0.0,0.0,0.0
1.347534179,0.9987233,-0.0011997998,0.05049951,0.050472993,-0.016453693,-0.9985898,0.0020290115,0.99986386,-0.016372131,0.99876356,-0.0017277385,0.049683027,0.04963532,-0.02121113,-0.9985422,0.0027790528,0.9997735,-0.021099146,0.02154541,9.806641,-0.15083313,0.019897461,9.805145,-0.16055298,-0.014892578,0.053253174,-0.0053253174,0.8972168,-32.958984,-18.527222,1,0.0,0.0,0.0,0.0
1.351928711,0.99872994,-0.0011279982,0.050372086,0.05034686,-0.016404396,-0.99859715,0.0019527393,0.9998648,-0.016326768,0.9987191,-0.0015738631,0.05057358,0.050529942,-0.02083169,-0.9985053,0.0026250435,0.9997818,-0.020725477,-0.09336853,9.835373,-0.19392395,0.01914978,9.805298,-0.16011047,-0.017028809,0.053253174,-0.0095825195,0.8972168,-32.958984,-18.527222,1,0.0,0.0,0.0,0.0
1.356323242,0.9998899,-0.0021447248,-0.014681641,-0.014714529,-0.016220775,-0.99976015,0.0019060628,0.9998661,-0.016250547,0.99871933,-0.001564253,0.0505696,0.050526388,-0.020741815,-0.9985073,0.0026108234,0.99978364,-0.020636214,0.026321411,9.830582,-0.12210083,0.018692017,9.805298,-0.1593628,-0.010635376,0.059646606,-0.0095825195,-0.35858154,-32.063293,-19.737244,1,0.0,0.0,0.0,0.0
1.360717773,0.9998896,-0.0021297648,-0.014705937,-0.014738405,-0.016129162,-0.9997613,0.001892062,0.9998676,-0.01615877,0.9987844,-0.0015808186,0.04926599,0.04922294,-0.020651985,-0.99857426,0.002596005,0.9997855,-0.02054907,-0.007171631,9.888046,-0.11251831,0.018554688,9.805298,-0.15846252,-0.015960693,0.045791626,-0.010650635,-0.35858154,-32.063293,-19.737244,1,0.0,0.0,0.0,0.0
1.365112304,0.9998896,-0.0021290958,-0.014707024,-0.014739394,-0.0160825,-0.9997621,0.0018920635,0.99986845,-0.016112104,0.99880606,-0.0015723606,0.04882676,0.048784807,-0.020329889,-0.99860245,0.002562806,0.9997921,-0.02022891,0.03111267,9.7827,-0.06463623,0.018554688,9.805298,-0.15800476,-0.013824463,0.051116943,-0.0021362305,-0.35858154,-32.063293,-19.737244,1,0.0,0.0,0.0,0.0
1.369506836,0.9995362,-0.001419378,0.030421697,0.030395087,-0.01602579,-0.99940956,0.0019060713,0.9998706,-0.015975213,0.9988673,-0.0015879391,0.047557086,0.047515295,-0.020244634,-0.99866533,0.002548596,0.99979377,-0.020146253,-0.03111267,9.806641,-0.20828247,0.018692017,9.805298,-0.15666199,-0.0021209717,0.04260254,-0.0010681152,0.53863525,-32.600403,-19.218445,1,0.0,0.0,0.0,0.0
1.373901367,0.99954015,-0.0013451771,0.03029594,0.030270535,-0.016023304,-0.99941343,0.001829829,0.9998708,-0.015975215,0.9988673,-0.0015879391,0.047557086,0.047515295,-0.020244634,-0.99866533,0.002548596,0.99979377,-0.020146253,-0.03111267,9.806641,-0.20828247,0.017944336,9.805298,-0.15666199,-0.0021209717,0.04260254,-0.0010681152,0.53863525,-32.600403,-19.218445,1,0.0,0.0,0.0,0.0
1.378295898,0.9995394,-0.0013598608,0.030320825,0.030295154,-0.01603936,-0.9994124,0.0018453881,0.9998705,-0.015990771,0.9988996,-0.001579252,0.04687409,0.04683303,-0.020078063,-0.998701,0.0025183414,0.99979717,-0.019982008,-0.05505371,9.806641,-0.17477417,0.018096924,9.805298,-0.15681458,-0.004257202,0.029815674,-0.014907837,0.53863525,-32.600403,-19.218445,1,0.0,0.0,0.0,0.0
1.382690429,0.99850744,-0.0026980254,-0.054548748,-0.054584768,-0.015836021,-0.9983835,0.0018298292,0.99987096,-0.015959658,0.9988935,-0.0016956656,0.046998113,0.046954803,-0.02003699,-0.998696,0.0026351553,0.9997978,-0.019935202,0.007171631,9.768341,-0.06463623,0.017944336,9.805298,-0.1565094,0.0021362305,0.027694702,0.007461548,-1.2542725,-33.676147,-21.29364,1,0.0,0.0,0.0,0.0
1.387084961,0.99851125,-0.0027426772,-0.054478355,-0.054515064,-0.015818134,-0.9983877,0.0018765089,0.99987113,-0.0159441,0.99898684,-0.0017224251,0.04496842,0.04492519,-0.019952644,-0.99879104,0.0026175815,0.99979943,-0.01985505,-0.011962891,9.82579,-0.05027771,0.0184021,9.805298,-0.15635681,-0.010635376,0.009597778,-0.0053253174,-1.2542725,-33.676147,-21.29364,1,0.0,0.0,0.0,0.0
1.391479492,0.99851096,-0.0027402781,-0.05448213,-0.05451871,-0.015773078,-0.99838805,0.0018765101,0.9998718,-0.01589899,0.9990743,-0.0017496484,0.042980686,0.042937547,-0.01987107,-0.9988801,0.0026017614,0.99980104,-0.019777551,-0.011962891,9.773117,-0.04069519,0.0184021,9.805298,-0.1559143,0.008529663,0.020233154,0.012786865,-1.2542725,-33.676147,-21.29364,1,0.0,0.0,0.0,0.0
1.395874023,0.99886405,-0.0010875104,0.04763861,0.047615275,-0.015937764,-0.9987386,0.0018453916,0.9998724,-0.015867878,0.99915624,-0.0017759865,0.041032568,0.04098948,-0.0197888,-0.9989636,0.0025861312,0.9998026,-0.019699307,-0.03111267,9.8736725,-0.09815979,0.018096924,9.805298,-0.15560913,-0.0010528564,0.025558472,-0.0010681152,0.8972168,-32.958984,-19.56482,1,0.0,0.0,0.0,0.0
1.400268554,0.99886394,-0.0010888822,0.04764092,0.04761762,-0.015908247,-0.998739,0.0018453926,0.9998729,-0.015838323,0.9991566,-0.0017326624,0.041024312,0.040982723,-0.01953444,-0.99896884,0.0025322628,0.99980766,-0.019446956,0.002380371,9.82579,-0.06942749,0.018096924,9.805298,-0.15531921,-0.010635376,-0.008514404,-0.0021362305,0.8972168,-32.958984,-19.56482,1,0.0,0.0,0.0,0.0
1.404663086,0.99886376,-0.0010903263,0.047643345,0.047620073,-0.015877169,-0.9987392,0.0018453932,0.9998733,-0.01580721,0.9991512,-0.0017184693,0.041156545,0.041115403,-0.019463426,-0.9989648,0.0025177377,0.9998091,-0.01937625,0.002380371,9.7827,-0.08378601,0.018096924,9.805298,-0.15501404,0.018112183,0.012771606,-0.0010681152,0.8972168,-32.958984,-19.56482,1,0.0,0.0,0.0,0.0
1.409057617,0.9988651,-0.0010737434,0.04761547,0.047592413,-0.015907478,-0.99874014,0.0018298328,0.9998729,-0.015838323,0.9991459,-0.0017045634,0.0412862,0.041245468,-0.019392263,-0.99896085,0.0025034249,0.9998105,-0.019305395,-0.011962891,9.926346,-0.22744751,0.017944336,9.805298,-0.15531921,0.010665894,0.012771606,0.004257202,0.8972168,-32.958984,-19.56482,1,0.0,0.0,0.0,0.0
