Time,Rot1,Rot2,Rot3,Rot4,Rot5,Rot6,Rot7,Rot8,Rot9,FRot1,FRot2,FRot3,FRot4,FRot5,FRot6,FRot7,FRot8,FRot9,AccX,AccY,AccZ,GravX,GravY,GravZ,GyroX,GyroY,GyroZ,MagX,MagY,MagZ,Imid
0.0,0.0,0.0,0.0,0.0,0.0,0.0,0.0,0.0,0.0,1.0,0.0,0.0,0.0,1.0,0.0,0.0,0.0,1.0,0.0,0.0,0.0,9.166044,0.2759251,3.4753249,0.0,0.0,0.0,0.0,0.0,0.0,0,0.0,0.0,0.0,0.0
0.008300781,0.22992937,-0.80883664,-0.541217,0.27127668,0.58734214,-0.762521,0.9346344,0.028506387,0.3544657,1.0,0.0,0.0,0.0,1.0,0.0,0.0,0.0,1.0,9.262619,0.2871399,3.6586304,9.165632,0.27955216,3.4761212,0.055099487,0.007659912,-0.05091858,-9.658813,15.119934,-26.69983,0,0.0,0.0,0.0,0.0
0.016601562,0.23066765,-0.8085544,-0.54132426,0.27108592,0.58770144,-0.7623117,0.9345077,0.029095279,0.35475153,0.9981615,-0.03732339,-0.047754947,0.037226733,0.99930257,-0.0029121188,0.047830332,0.0011290044,0.9988548,9.352341,0.31225586,3.7256317,9.164391,0.28532723,3.478924,0.058914185,0.044158936,-0.067871094,-9.658813,15.119934,-26.69983,0,0.0,0.0,0.0,0.0
0.024902343,0.23517561,-0.8000535,-0.5519121,0.26769292,0.599193,-0.7545252,0.93436223,0.029702956,0.35508418,0.9929564,-0.07310228,-0.09323925,0.07257227,0.9973219,-0.009067077,0.09365238,0.0022366287,0.9956024,9.422928,0.27278137,3.6191406,9.162964,0.2912865,3.4821863,0.06333923,0.05331421,-0.053985596,-9.359741,15.419006,-26.339722,0,0.0,0.0,0.0,0.0
0.033203125,0.23600179,-0.7997357,-0.5520197,0.26759225,0.5995876,-0.7542473,0.9341828,0.0302875,0.3555069,0.98925734,-0.09014095,-0.11508541,0.08921349,0.9959251,-0.0131949615,0.11580586,0.0027860405,0.99326795,9.422928,0.27278137,3.6191406,9.161204,0.29701892,3.486332,0.06135559,0.04385376,-0.052444458,-9.359741,15.419006,-26.339722,0,0.0,0.0,0.0,0.0
0.041503906,0.23731633,-0.7976958,-0.5544026,0.2666617,0.60227656,-0.7524322,0.9341158,0.03072651,0.35564506,0.97990835,-0.12310302,-0.15692423,0.12093583,0.99238634,-0.023321606,0.15860042,0.0038752744,0.98733526,9.438492,0.22372437,3.4564362,9.160547,0.30132413,3.4876866,0.04837036,0.024002075,-0.030303955,-8.879089,15.539551,-26.159668,0,0.0,0.0,0.0,0.0
0.049804687,0.23765494,-0.79756796,-0.5544416,0.2665168,0.6024303,-0.75236064,0.9340712,0.031034222,0.3557358,0.9683002,-0.15450035,-0.19627634,0.15042591,0.98798037,-0.03559207,0.19941615,0.0049387636,0.97990245,9.284149,0.20936584,3.394226,9.160109,0.30434173,3.4885764,0.04058838,0.019561768,-0.0016021729,-8.879089,15.539551,-26.159668,0,0.0,0.0,0.0,0.0
0.058105468,0.23811504,-0.7966486,-0.5555648,0.26609433,0.6036411,-0.75153923,0.9340744,0.031120159,0.3557197,0.961759,-0.16967154,-0.21501476,0.16437249,0.98548555,-0.042425677,0.21909237,0.0054607643,0.9756889,9.284149,0.20936584,3.394226,9.160141,0.3051845,3.4884186,0.008972168,0.016815186,0.004196167,-8.81958,15.899658,-26.579285,0,0.0,0.0,0.0,0.0
0.06640625,0.23796979,-0.79670304,-0.55554914,0.26603022,0.603572,-0.7516176,0.9341297,0.031069402,0.35557893,0.94742167,-0.19893268,-0.25063497,0.19062248,0.97999173,-0.057264585,0.25701198,0.006477055,0.9663865,9.373886,0.27757263,3.3643036,9.160684,0.30468675,3.4870381,-0.021865845,-0.0036468506,0.029403687,-8.81958,15.899658,-26.579285,0,0.0,0.0,0.0,0.0
0.074707031,0.23480444,-0.8032428,-0.5474194,0.26849055,0.5948484,-0.757673,0.9342268,0.03092802,0.3553361,0.931653,-0.22687224,-0.28381628,0.21478939,0.973896,-0.07343056,0.2930669,0.0074510835,0.95606285,9.5282135,0.41635132,3.4289093,9.161635,0.30330026,3.4846568,-0.038208008,-0.023345947,0.037490845,-8.938599,15.419006,-26.45874,0,0.0,0.0,0.0,0.0
0.083007812,0.23437122,-0.8034046,-0.5473674,0.26840603,0.5946412,-0.7578654,0.93435985,0.030705133,0.35500544,0.931653,-0.22687224,-0.28381628,0.21478939,0.973896,-0.07343056,0.2930669,0.0074510835,0.95606285,9.5282135,0.41635132,3.4289093,9.16294,0.3011145,3.4814143,-0.038208008,-0.023345947,0.037490845,-8.938599,15.419006,-26.45874,0,0.0,0.0,0.0,0.0
0.091308593,0.23106264,-0.80943966,-0.53983104,0.2706124,0.58641964,-0.7634665,0.93454754,0.0303236,0.35454404,0.9057488,-0.2670263,-0.32911408,0.24783596,0.9636489,-0.09979053,0.34379715,0.008818842,0.9390026,9.531815,0.3397827,3.402588,9.164781,0.29737294,3.4768894,-0.065704346,-0.04045105,0.023284912,-9.059143,15.299988,-26.818848,0,0.0,0.0,0.0,0.0
0.099609375,0.23037668,-0.8096932,-0.539744,0.27048084,0.586088,-0.76376766,0.93475485,0.029963834,0.35402748,0.88731754,-0.29262757,-0.35642222,0.2677563,0.95617753,-0.118452385,0.37546533,0.009670573,0.92678595,9.458832,0.24526978,3.377472,9.166814,0.29384485,3.4718237,-0.081726074,-0.023956299,0.011688232,-9.059143,15.299988,-26.818848,0,0.0,0.0,0.0,0.0
0.107910156,0.23043396,-0.8082854,-0.5418255,0.2697863,0.5880499,-0.7625042,0.9349415,0.029529769,0.353571,0.8778589,-0.30497938,-0.36925787,0.27700365,0.9523057,-0.12799585,0.39068243,0.010076505,0.92047036,9.458832,0.24526978,3.377472,9.168644,0.28958812,3.4673471,-0.08555603,-0.0068511963,0.011993408,-9.118652,15.419006,-26.879883,0,0.0,0.0,0.0,0.0
0.116210937,0.22985311,-0.80850023,-0.5417516,0.27005702,0.5877815,-0.7626152,0.93500626,0.02898564,0.3534446,0.8586094,-0.32870853,-0.3933708,0.29403475,0.94436914,-0.14734484,0.41992074,0.010846975,0.9074959,9.314056,0.1483612,3.4205475,9.16928,0.28425205,3.4661078,-0.09196472,0.048583984,0.009857178,-9.118652,15.419006,-26.879883,0,0.0,0.0,0.0,0.0
0.124511718,0.22263871,-0.8232117,-0.52225906,0.27631897,0.5670212,-0.7759735,0.9349224,0.028451655,0.35370985,0.8390287,-0.35131675,-0.41546044,0.3093278,0.9361853,-0.16695358,0.44760153,0.011565373,0.89415836,9.348755,0.2632141,3.5258179,9.168457,0.27901542,3.4687088,-0.073638916,0.08615112,0.0101623535,-9.359741,14.93988,-27.539063,0,0.0,0.0,0.0,0.0
0.1328125,0.22270103,-0.82318914,-0.522268,0.27694556,0.5670708,-0.77571374,0.93472207,0.028112434,0.35426584,0.8290058,-0.3626848,-0.42568675,0.31677464,0.93183583,-0.17701918,0.46087232,0.011903147,0.8873866,9.348755,0.2632141,3.5258179,9.166492,0.2756888,3.4741611,-0.0713501,0.09591675,0.0077209473,-9.359741,14.93988,-27.539063,0,0.0,0.0,0.0,0.0
0.141113281,0.21971583,-0.82982886,-0.51294136,0.28027844,0.55731714,-0.78156346,0.93443507,0.027955433,0.3550346,0.80889976,-0.38458633,-0.44471857,0.33043307,0.92300385,-0.19717504,0.48630774,0.012545123,0.8736976,9.51387,0.3625183,3.674179,9.163678,0.27414915,3.4817002,-0.06248474,0.07928467,0.0019073486,-9.47876,14.6987915,-27.83966,0,0.0,0.0,0.0,0.0
0.149414062,0.22012463,-0.82968235,-0.5130033,0.2809401,0.5575416,-0.78116584,0.93414015,0.027830655,0.35581967,0.7886605,-0.40584546,-0.46184847,0.34290284,0.913847,-0.2174885,0.51032555,0.013155452,0.8598806,9.566498,0.35055542,3.7627106,9.160786,0.2729255,3.489399,-0.057144165,0.04522705,0.0016021729,-9.47876,14.6987915,-27.83966,0,0.0,0.0,0.0,0.0
0.157714843,0.22111487,-0.8282162,-0.5149429,0.28091502,0.5597223,-0.7796138,0.93391377,0.02772903,0.3564213,0.7785885,-0.41607457,-0.46976784,0.34857246,0.90923107,-0.22758767,0.52182096,0.013448994,0.852949,9.566498,0.35055542,3.7627106,9.1585655,0.2719289,3.4952989,-0.0566864,0.02949524,0.00894165,-10.139465,14.639282,-27.89917,0,0.0,0.0,0.0,0.0
0.166015625,0.22114606,-0.8282046,-0.51494807,0.28141153,0.55975306,-0.77941257,0.9337569,0.02745172,0.35685351,0.75863165,-0.43567845,-0.48441952,0.35877812,0.89999324,-0.247569,0.5438348,0.014014553,0.83907527,9.482758,0.2416687,3.7591248,9.157027,0.2692094,3.4995377,-0.055007935,0.0010986328,0.010467529,-10.139465,14.639282,-27.89917,0,0.0,0.0,0.0,0.0
0.174316406,0.22064427,-0.82884073,-0.51413924,0.28195477,0.55882734,-0.7798805,0.93371177,0.027112152,0.35699764,0.7389365,-0.45431197,-0.49756756,0.36767218,0.8907239,-0.26726043,0.56461495,0.01454673,0.82522625,9.402603,0.20936584,3.632309,9.156585,0.2658794,3.500951,-0.054855347,-0.02670288,0.021759033,-9.899902,14.819336,-28.138733,0,0.0,0.0,0.0,0.0
0.182617187,0.22018518,-0.8290083,-0.5140659,0.2821078,0.5585977,-0.7799897,0.93377393,0.02672018,0.3568646,0.72919846,-0.46329963,-0.50361,0.37167707,0.8860781,-0.2769868,0.5745657,0.0147980675,0.8183247,9.384644,0.18902588,3.5365906,9.157194,0.26203546,3.4996464,-0.048446655,-0.037857056,0.02482605,-9.899902,14.819336,-28.138733,0,0.0,0.0,0.0,0.0
0.190917968,0.22532086,-0.817623,-0.5298333,0.27761823,0.57515347,-0.76949775,0.93389434,0.026292507,0.35658106,0.7195438,-0.47206646,-0.509323,0.37539658,0.88143474,-0.28661865,0.58423805,0.015036536,0.81144303,9.397812,0.16630554,3.5354004,9.158376,0.25784144,3.496866,-0.04232788,-0.037857056,0.025726318,-9.599304,15.238953,-27.598572,0,0.0,0.0,0.0,0.0
0.19921875,0.22465786,-0.81786734,-0.5297376,0.27761972,0.57482535,-0.76974225,0.9340536,0.025863063,0.35619512,0.7008209,-0.48824984,-0.5200597,0.38145316,0.8725665,-0.30515748,0.6027798,0.015482319,0.7977574,9.326019,0.11843872,3.4588318,9.159937,0.25363,3.493081,-0.036224365,-0.04838562,0.013977051,-9.599304,15.238953,-27.598572,0,0.0,0.0,0.0,0.0
0.207519531,0.22861736,-0.80839396,-0.5424327,0.27377746,0.58808994,-0.7610494,0.934227,0.025483241,0.35576764,0.6825037,-0.50364965,-0.5296468,0.38654643,0.8637618,-0.32326058,0.62029874,0.015893435,0.7842046,9.326019,0.11843872,3.4588318,9.161637,0.24990523,3.4888887,-0.020950317,-0.018920898,0.0020599365,-9.118652,15.779114,-27.359009,0,0.0,0.0,0.0,0.0
0.215820312,0.22816,-0.80856085,-0.5423766,0.27376795,0.58787286,-0.76122046,0.93434155,0.02519473,0.35548714,0.6736354,-0.5107822,-0.53415066,0.38853416,0.85955966,-0.33196148,0.62869436,0.016085248,0.77748615,9.266205,0.107681274,3.385849,9.162761,0.24707592,3.486138,-0.016525269,-0.0050201416,0.0074157715,-9.118652,15.779114,-27.359009,0,0.0,0.0,0.0,0.0
0.224121093,0.22778894,-0.8086962,-0.5423309,0.2738158,0.58769834,-0.7613381,0.9344181,0.024925621,0.35530493,0.65623987,-0.5245311,-0.54241717,0.39191884,0.8512324,-0.3490028,0.64478594,0.016446015,0.76418626,9.266205,0.107681274,3.385849,9.163511,0.24443685,3.4843512,-0.013015747,0.011932373,-5.340576E-4,-9.118652,15.779114,-27.359009,0,0.0,0.0,0.0,0.0
0.232421875,0.2287332,-0.8060314,-0.54588866,0.27284193,0.5913599,-0.75884825,0.93447226,0.024632443,0.35518283,0.6393245,-0.53761524,-0.54975814,0.39457387,0.84302324,-0.3655452,0.65998155,0.016781831,0.75109434,9.28894,0.08375549,3.357132,9.164042,0.24156176,3.4831538,-0.016677856,0.016967773,0.0074157715,-9.118652,15.779114,-27.119446,0,0.0,0.0,0.0,0.0
0.240722656,0.22755583,-0.8079597,-0.54352504,0.27371913,0.58873653,-0.7605703,0.9345032,0.024298992,0.35512447,0.63108873,-0.54383963,-0.5531414,0.3955915,0.83901817,-0.3735717,0.66725886,0.016938854,0.74463326,9.28894,0.08375549,3.357132,9.164346,0.23829171,3.4825814,-0.025680542,0.029647827,0.01550293,-8.81958,15.7196045,-27.059937,0,0.0,0.0,0.0,0.0
0.249023437,0.22733857,-0.80803794,-0.5434997,0.27407843,0.5886442,-0.76051235,0.93445075,0.023932239,0.35528728,0.61494416,-0.55593926,-0.5592631,0.39725232,0.8310443,-0.38930187,0.6812006,0.017230336,0.731894,9.32962,0.13998413,3.542572,9.163832,0.2346951,3.484178,-0.030426025,0.053771973,0.006958008,-8.81958,15.7196045,-27.059937,0,0.0,0.0,0.0,0.0
0.257324218,0.22690743,-0.8092797,-0.5418298,0.27509773,0.58694434,-0.76145756,0.93425596,0.02372422,0.35581297,0.5993161,-0.5674538,-0.5646383,0.39835787,0.82321936,-0.4045008,0.69435674,0.01749575,0.7194183,9.347565,0.19381714,3.6550293,9.1619215,0.23265514,3.4893334,-0.022628784,0.07072449,0.0048217773,-8.338928,15.779114,-27.059937,0,0.0,0.0,0.0,0.0
0.265625,0.22719008,-0.8091806,-0.5418592,0.27566797,0.5870878,-0.7611406,0.93401915,0.02355037,0.35644573,0.5916863,-0.5730339,-0.5670445,0.3987475,0.8193422,-0.41192088,0.7006481,0.017620325,0.7132894,9.347565,0.19381714,3.6550293,9.159599,0.23095025,3.4955385,-0.018661499,0.07499695,0.0035858154,-8.338928,15.779114,-27.059937,0,0.0,0.0,0.0,0.0
0.273925781,0.22753757,-0.80905885,-0.5418953,0.27627394,0.58726186,-0.76078665,0.9337555,0.023395982,0.357146,0.57683563,-0.5837802,-0.5713679,0.39917955,0.8117153,-0.4263495,0.7126825,0.01785517,0.70125943,9.376282,0.1603241,3.7112732,9.157014,0.2294362,3.502406,0.00592041,0.06629944,-0.0032806396,-8.338928,15.779114,-27.059937,0,0.0,0.0,0.0,0.0
0.282226562,0.23089136,-0.802535,-0.55011517,0.2741999,0.5961463,-0.7546018,0.9335435,0.023389526,0.35770008,0.5696155,-0.5889529,-0.5732998,0.3992354,0.80796766,-0.43335825,0.7184353,0.017965991,0.69536173,9.413361,0.22132874,3.714859,9.154935,0.2293729,3.5078397,0.00592041,0.033462524,-2.2888184E-4,-8.21991,16.018677,-26.818848,0,0.0,0.0,0.0,0.0
0.290527343,0.23129167,-0.8022009,-0.5504342,0.27431512,0.59659344,-0.7542064,0.9334106,0.023449259,0.35804296,0.5557526,-0.59857154,-0.5769326,0.3988146,0.800863,-0.4467274,0.7294423,0.018180775,0.68380076,9.379868,0.20578003,3.6586304,9.153631,0.22995868,3.511202,0.0440979,0.006591797,-0.005264282,-7.499695,16.19873,-26.759338,0,0.0,0.0,0.0,0.0
0.298828125,0.23148574,-0.8021351,-0.5504487,0.27433753,0.59667766,-0.7541318,0.9333559,0.023562012,0.35817808,0.5424147,-0.60771096,-0.5800636,0.39804545,0.7939454,-0.45957655,0.73982847,0.018389415,0.67254424,9.379868,0.20578003,3.6586304,9.153095,0.23106441,3.5125272,0.050354004,-0.005630493,-0.0029754639,-7.499695,16.19873,-26.759338,0,0.0,0.0,0.0,0.0
0.307128906,0.22836703,-0.8088193,-0.541904,0.2766488,0.5875782,-0.7604061,0.933442,0.023734614,0.35794234,0.5295822,-0.6164097,-0.58273643,0.3969745,0.787206,-0.47193006,0.7496359,0.01859426,0.6615892,9.492325,0.23568726,3.4923248,9.153939,0.23275706,3.5102153,0.061660767,-0.0289917,-0.0051116943,-8.039856,15.658569,-26.759338,0,0.0,0.0,0.0,0.0
0.315429687,0.22829607,-0.8088439,-0.541897,0.27627385,0.58753645,-0.7605745,0.9335704,0.023924181,0.35759473,0.52325886,-0.6207793,-0.58380926,0.39645225,0.7837624,-0.4780608,0.75433797,0.01869707,0.65621996,9.500702,0.2763672,3.4432678,9.155198,0.23461609,3.5068064,0.061660767,-0.025482178,-0.0051116943,-8.039856,15.658569,-26.759338,0,0.0,0.0,0.0,0.0
0.323730468,0.22823858,-0.8088639,-0.5418914,0.2758056,0.5874984,-0.7607738,0.93372285,0.02418124,0.35717902,0.510974,-0.62920433,-0.5856685,0.39520264,0.77701,-0.48996976,0.76336133,0.018904071,0.6456951,9.446869,0.25004578,3.3236237,9.156693,0.23713696,3.5027297,0.03340149,-0.011123657,-0.015655518,-8.039856,15.658569,-26.759338,0,0.0,0.0,0.0,0.0
0.33203125,0.22258043,-0.8204865,-0.52655476,0.27983996,0.57114464,-0.7716757,0.9338884,0.024408853,0.35673052,0.49916372,-0.6372278,-0.5871766,0.39370775,0.7704385,-0.50141674,0.7719001,0.019113058,0.63545644,9.446869,0.25004578,3.3236237,9.158317,0.23936908,3.4983313,0.017837524,0.0017089844,-0.02633667,-8.279419,15.119934,-27.059937,0,0.0,0.0,0.0,0.0
0.340332031,0.22079217,-0.8240765,-0.5216788,0.28080794,0.5659418,-0.7751496,0.93402237,0.024655437,0.35636273,0.493274,-0.6414027,-0.5876081,0.39307395,0.7669636,-0.50720775,0.7759985,0.019218981,0.6304419,9.390625,0.20219421,3.2901306,9.159631,0.24178725,3.4947245,0.006378174,0.0033874512,-0.028167725,-8.518982,14.99939,-27.2995,0,0.0,0.0,0.0,0.0
0.348632812,0.22069718,-0.8241094,-0.5216672,0.2804396,0.565887,-0.7753229,0.9341554,0.024815476,0.3560025,0.4817491,-0.6496397,-0.58812076,0.3917525,0.75999373,-0.5185937,0.7838671,0.019434275,0.6206243,9.346359,0.2033844,3.2662048,9.160935,0.24335669,3.491192,-0.00920105,-0.010513306,-0.028015137,-8.518982,14.99939,-27.2995,0,0.0,0.0,0.0,0.0
0.356933593,0.22054543,-0.82416177,-0.5216486,0.2800658,0.5658052,-0.77551776,0.9343034,0.024940949,0.3556052,0.47616002,-0.6536088,-0.5882748,0.39100987,0.7565802,-0.5241161,0.7876439,0.019541904,0.61582077,9.281754,0.18664551,3.3104706,9.162387,0.24458717,3.487296,-0.022781372,-0.0065460205,-0.03060913,-8.518982,14.99939,-27.2995,0,0.0,0.0,0.0,0.0
0.365234375,0.22205754,-0.8208547,-0.5262014,0.27851152,0.57058954,-0.7725663,0.9344098,0.025001017,0.35532123,0.4653179,-0.661262,-0.5883976,0.3893789,0.74989486,-0.53482866,0.7948983,0.01975572,0.606421,9.281754,0.18664551,3.3104706,9.16343,0.24517623,3.484511,-0.04598999,0.007507324,-0.028778076,-8.578491,15.179443,-27.2995,0,0.0,0.0,0.0,0.0
0.373535156,0.22199811,-0.8208754,-0.5261943,0.2784003,0.57055855,-0.7726294,0.9344571,0.02502961,0.3551949,0.45500752,-0.6683764,-0.58842266,0.38747653,0.7435553,-0.54496557,0.8017668,0.019963443,0.5973034,9.318848,0.21057129,3.3726807,9.163895,0.24545667,3.4832723,-0.053482056,0.019714355,-0.02557373,-8.578491,15.179443,-27.2995,0,0.0,0.0,0.0,0.0
0.381835937,0.21931408,-0.82657015,-0.51834655,0.28066894,0.5622732,-0.77786493,0.93441224,0.025112957,0.35530698,0.45001256,-0.6718059,-0.58835834,0.38647527,0.7404554,-0.5498752,0.8050625,0.020064771,0.59285057,9.378662,0.2871399,3.5485535,9.163454,0.24627398,3.4843714,-0.053482056,0.0128479,-0.02053833,-8.758545,15.058899,-27.719116,0,0.0,0.0,0.0,0.0
0.390136718,0.2218181,-0.821802,-0.524822,0.27882475,0.5692139,-0.7734676,0.93437326,0.025235746,0.3554007,0.44018877,-0.6787118,-0.58786404,0.3845651,0.7341251,-0.55961597,0.8113837,0.020264689,0.5841625,9.397812,0.3134613,3.6789703,9.163072,0.24747814,3.4852905,-0.007369995,0.017425537,-0.02923584,-8.999634,15.119934,-27.479553,0,0.0,0.0,0.0,0.0
0.3984375,0.2222147,-0.8216614,-0.5248745,0.27882442,0.56940544,-0.77332693,0.9342792,0.025496768,0.3556295,0.4309122,-0.6850452,-0.5873907,0.3824014,0.72821325,-0.5687483,0.817364,0.020461552,0.5757582,9.456436,0.3146515,3.6789703,9.162149,0.25003788,3.487534,0.02027893,0.012237549,-0.026489258,-8.999634,15.119934,-27.479553,0,0.0,0.0,0.0,0.0
0.406738281,0.22265126,-0.8215063,-0.52493215,0.27877295,0.5696147,-0.7731913,0.9341906,0.025815126,0.35583916,0.4264298,-0.6880951,-0.5870969,0.38128683,0.72532916,-0.5731648,0.8202304,0.020562263,0.57166356,9.456436,0.3146515,3.6789703,9.16128,0.25315988,3.48959,0.02027893,0.020019531,-0.024963379,-8.999634,15.119934,-27.479553,0,0.0,0.0,0.0,0.0
0.415039062,0.22385028,-0.81976974,-0.5271324,0.27803898,0.5720952,-0.7716225,0.93412274,0.026164558,0.35599163,0.41776818,-0.693971,-0.5864077,0.3790011,0.7197034,-0.5817089,0.8257287,0.020770287,0.56368494,9.556931,0.32661438,3.628708,9.160615,0.25658667,3.4910855,0.03265381,0.011779785,-0.030456543,-8.81958,15.299988,-27.539063,0,0.0,0.0,0.0,0.0
0.423339843,0.22424085,-0.8196318,-0.5271809,0.27782124,0.5722748,-0.7715677,0.93409383,0.026554968,0.35603857,0.40953347,-0.6994849,-0.58566475,0.37660852,0.7143393,-0.58981806,0.8309322,0.020983914,0.5559778,9.487549,0.2632141,3.6155548,9.160332,0.2604153,3.4915457,0.03187561,-0.020141602,-0.025115967,-8.81958,15.299988,-27.539063,0,0.0,0.0,0.0,0.0
0.431640625,0.22344196,-0.8216129,-0.52442926,0.27837268,0.5694136,-0.77348363,0.9341212,0.026841898,0.35594544,0.40555617,-0.7021411,-0.58525383,0.3753923,0.7117253,-0.5937405,0.8334296,0.021095343,0.55222297,9.487549,0.2632141,3.6155548,9.1606,0.2632291,3.4906323,0.027145386,-0.022125244,-0.020233154,-8.81958,15.179443,-27.539063,0,0.0,0.0,0.0,0.0
0.439941406,0.22780629,-0.812611,-0.5364398,0.27464184,0.5821805,-0.7652697,0.9341714,0.027004456,0.35580134,0.39781174,-0.7073647,-0.5842782,0.37298566,0.7065271,-0.601416,0.8382288,0.021322919,0.54490167,9.377472,0.19142151,3.5330048,9.161092,0.26482326,3.4892192,0.011871338,-0.019378662,-0.018859863,-8.279419,15.779114,-27.418518,0,0.0,0.0,0.0,0.0
0.448242187,0.22771889,-0.8126414,-0.5364309,0.2744573,0.58213544,-0.7653702,0.9342469,0.027061876,0.3555986,0.39063084,-0.7119107,-0.5836014,0.37030858,0.7019393,-0.60840183,0.8427806,0.021547923,0.5378258,9.377472,0.19142151,3.5330048,9.161833,0.26538634,3.487231,0.0013427734,-0.022277832,-0.01335144,-8.279419,15.779114,-27.418518,0,0.0,0.0,0.0,0.0
0.456542968,0.22756365,-0.8126954,-0.5364151,0.27429086,0.58206016,-0.7654873,0.9343337,0.027063306,0.35537058,0.38715464,-0.71410584,-0.5832359,0.36896944,0.6997026,-0.6117825,0.84496915,0.021658208,0.5343764,9.4049835,0.22132874,3.4432678,9.1626835,0.26540038,3.484995,-0.004470825,-0.034942627,-0.011672974,-8.279419,15.779114,-27.418518,0,0.0,0.0,0.0,0.0
0.46484375,0.23152131,-0.80360967,-0.54827857,0.2704031,0.59454125,-0.7572337,0.9344945,0.02705951,0.3549475,0.3804201,-0.71834767,-0.58245784,0.366296,0.69534034,-0.6183276,0.84918064,0.021872263,0.52764934,9.4049835,0.22132874,3.4432678,9.164261,0.26536316,3.4808462,-0.009963989,-0.040603638,2.2888184E-4,-7.798767,16.378784,-27.2995,0,0.0,0.0,0.0,0.0
0.473144531,0.23113628,-0.80374163,-0.5482477,0.270071,0.5943648,-0.75749075,0.9346859,0.027017798,0.35444653,0.3741871,-0.72197366,-0.5820121,0.3634014,0.69156826,-0.6242378,0.8531843,0.022077689,0.5211422,9.395416,0.26200867,3.357132,9.166138,0.2649541,3.475933,-0.016983032,-0.02746582,0.0016021729,-7.798767,16.378784,-27.2995,0,0.0,0.0,0.0,0.0
0.481445312,0.23473348,-0.79501396,-0.55933267,0.26636583,0.60599184,-0.7495486,0.9348526,0.026957054,0.35401112,0.37116265,-0.7237283,-0.5817694,0.36196482,0.68972856,-0.6271012,0.85511386,0.022176497,0.5179657,9.4253235,0.24047852,3.365509,9.167772,0.2643584,3.4716632,-0.016983032,-0.004714966,6.866455E-4,-7.499695,16.738892,-26.939392,0,0.0,0.0,0.0,0.0
0.489746093,0.2314473,-0.8017921,-0.55096424,0.2687912,0.5969995,-0.7558722,0.9349777,0.02685025,0.3536886,0.3655026,-0.72672445,-0.5816179,0.35890442,0.68656486,-0.6323103,0.8588338,0.022365816,0.5117659,9.390625,0.23210144,3.397812,9.169,0.263311,3.4685004,-0.027832031,-0.0053253174,-2.2888184E-4,-7.319641,16.43982,-26.998901,0,0.0,0.0,0.0,0.0
0.498046875,0.23119855,-0.8018754,-0.5509475,0.2687225,0.59689313,-0.7559807,0.935059,0.026729668,0.35348278,0.36267698,-0.7283271,-0.581382,0.35747617,0.6848616,-0.63496095,0.8606255,0.02245551,0.5087431,9.390625,0.23210144,3.397812,9.169797,0.2621285,3.466482,-0.02720642,-1.373291E-4,-0.002670288,-7.319641,16.43982,-26.998901,0,0.0,0.0,0.0,0.0
0.506347656,0.23111801,-0.80190235,-0.55094206,0.2687763,0.5968609,-0.7559871,0.93506354,0.02664206,0.35347763,0.357197,-0.7314291,-0.58088017,0.3546586,0.68154204,-0.64009196,0.86407614,0.022624776,0.5028524,9.336792,0.24406433,3.4911346,9.169841,0.26126936,3.4664314,-0.029205322,0.02796936,-0.008468628,-7.319641,16.43982,-26.998901,0,0.0,0.0,0.0,0.0
0.514648437,0.23300695,-0.7977586,-0.55613756,0.2672889,0.60239,-0.752119,0.9350211,0.02659956,0.35359308,0.35194743,-0.7343952,-0.58034194,0.35189876,0.6783396,-0.6449982,0.8673525,0.02278387,0.49717262,9.336792,0.24406433,3.4911346,9.169425,0.26085258,3.4675636,-0.01423645,0.03742981,-0.016113281,-7.3791504,16.499329,-26.759338,0,0.0,0.0,0.0,0.0
0.522949218,0.2331747,-0.7977017,-0.55614877,0.26749566,0.6024662,-0.75198424,0.9349201,0.026576333,0.35386166,0.34945643,-0.73573536,-0.5801498,0.3504941,0.67688334,-0.6472889,0.86892706,0.022860188,0.49441206,9.32962,0.20578003,3.550949,9.168435,0.26062483,3.4701977,-0.0110321045,0.028121948,-0.019012451,-7.3791504,16.499329,-26.759338,0,0.0,0.0,0.0,0.0
0.53125,0.23154783,-0.80182177,-0.55087876,0.26926833,0.59696853,-0.75572693,0.93481565,0.02665273,0.354132,0.34702235,-0.7370446,-0.579949,0.34910902,0.6754549,-0.64952564,0.8704587,0.022934513,0.49170685,9.383453,0.22612,3.596405,9.16741,0.261374,3.4728487,-0.0024719238,0.023544312,-0.01977539,-7.4386597,16.319275,-26.879883,0,0.0,0.0,0.0,0.0
0.539550781,0.23109299,-0.8035005,-0.5486192,0.27005377,0.59469897,-0.7572345,0.93470156,0.02683491,0.3544191,0.3399017,-0.7410729,-0.5790319,0.34519875,0.67102534,-0.6561729,0.87481695,0.023153182,0.48390007,9.427719,0.2907257,3.652649,9.166291,0.2631606,3.4756641,0.015090942,0.029037476,-0.021911621,-7.6187134,16.079712,-26.759338,0,0.0,0.0,0.0,0.0
0.547851562,0.23150235,-0.80336046,-0.54865164,0.2701177,0.5948777,-0.75707126,0.93458176,0.027063262,0.35471746,0.337616,-0.74239445,-0.5786761,0.34394664,0.6695604,-0.6583234,0.8761941,0.023226822,0.48139834,9.427719,0.2907257,3.652649,9.165116,0.26539993,3.47859,0.017532349,0.025985718,-0.016571045,-7.6187134,16.079712,-26.759338,0,0.0,0.0,0.0,0.0
0.556152343,0.23176698,-0.80326986,-0.54867256,0.27021036,0.59499484,-0.75694615,0.93448937,0.027178122,0.354952,0.33320776,-0.7449444,-0.5779537,0.34148693,0.6667168,-0.6624767,0.87883973,0.023378752,0.47654396,9.440887,0.25483704,3.6263275,9.16421,0.26652634,3.4808903,0.007598877,0.022018433,-0.0060272217,-7.6187134,16.079712,-26.759338,0,0.0,0.0,0.0,0.0
0.564453125,0.23092261,-0.80542517,-0.54586166,0.27117807,0.592072,-0.7588893,0.9344181,0.027219,0.35513648,0.32899818,-0.747379,-0.5772215,0.33908927,0.6639811,-0.66644394,0.88135046,0.023529217,0.4718768,9.361923,0.18664551,3.6011963,9.163511,0.2669272,3.4826994,0.01171875,-0.0018157959,0.0087890625,-7.798767,15.899658,-26.759338,0,0.0,0.0,0.0,0.0
0.572753906,0.23087193,-0.8054427,-0.54585737,0.27132922,0.59205425,-0.7588493,0.9343868,0.027089952,0.35522884,0.32693946,-0.74860454,-0.57680315,0.3379392,0.6625965,-0.6684033,0.8825575,0.023603017,0.46961176,9.361923,0.18664551,3.6011963,9.163204,0.2656617,3.4836051,2.746582E-4,-0.008224487,0.016113281,-7.798767,15.899658,-26.759338,0,0.0,0.0,0.0,0.0
0.581054687,0.2303914,-0.8060792,-0.54512024,0.27168372,0.5911979,-0.7593898,0.93440235,0.026856584,0.3552055,0.3229528,-0.75097585,-0.57596594,0.33568838,0.65990275,-0.6721917,0.8848812,0.023741102,0.46521133,9.373886,0.18066406,3.549759,9.163357,0.26337314,3.4833763,-0.011947632,-0.00730896,0.025131226,-8.039856,15.838623,-26.818848,0,0.0,0.0,0.0,0.0
0.589355468,0.22512433,-0.8166344,-0.5314388,0.27591434,0.5765463,-0.76906794,0.93444645,0.026504302,0.35511577,0.31911528,-0.75327206,-0.57510585,0.33351377,0.65727603,-0.6758379,0.887093,0.023864482,0.4609734,9.399002,0.22612,3.4564362,9.16379,0.25991842,3.482496,-0.033172607,-0.0065460205,0.028030396,-8.518982,15.299988,-27.119446,0,0.0,0.0,0.0,0.0
0.59765625,0.22467197,-0.8167932,-0.5313863,0.2759918,0.5763373,-0.7691969,0.9345325,0.026158726,0.35491505,0.3171323,-0.7546196,-0.5744358,0.3325653,0.6557265,-0.6778075,0.88815963,0.023917278,0.45891234,9.399002,0.22612,3.4564362,9.164634,0.25652948,3.4805279,-0.03652954,-0.0033416748,0.028335571,-8.518982,15.299988,-27.119446,0,0.0,0.0,0.0,0.0
0.605957031,0.22421646,-0.8169528,-0.5313333,0.27606595,0.5761265,-0.7693282,0.93461996,0.025813008,0.3547099,0.3132772,-0.75723237,-0.5731113,0.33070567,0.65270424,-0.6816237,0.89021975,0.024006043,0.45489842,9.43251,0.24885559,3.4348907,9.165491,0.25313914,3.4785159,-0.038513184,-0.0037994385,0.03337097,-8.518982,15.299988,-27.119446,0,0.0,0.0,0.0,0.0
0.614257812,0.21747935,-0.8298615,-0.51384103,0.28111836,0.55738884,-0.7812107,0.9347059,0.025447043,0.3545099,0.30957004,-0.7597373,-0.5718091,0.32889417,0.6497842,-0.6852803,0.8921855,0.024077602,0.4510269,9.463608,0.36610413,3.4504547,9.166334,0.24955025,3.4765546,-0.040802002,-0.006088257,0.031234741,-8.518982,14.819336,-27.539063,0,0.0,0.0,0.0,0.0
0.622558593,0.21716052,-0.82997,-0.51380074,0.2810922,0.55723643,-0.7813289,0.9347879,0.025248392,0.3543078,0.30761978,-0.76124346,-0.57085764,0.32814607,0.648018,-0.6873084,0.8931351,0.02410499,0.44914222,9.463608,0.36610413,3.4504547,9.167138,0.24760215,3.4745727,-0.040802002,-0.004714966,0.023132324,-8.518982,14.819336,-27.539063,0,0.0,0.0,0.0,0.0
0.630859375,0.21835017,-0.8271829,-0.5177756,0.27991325,0.5613711,-0.7787881,0.9348645,0.025116267,0.35411498,0.30383372,-0.7641592,-0.56898665,0.32667017,0.6445754,-0.6912374,0.89497024,0.02415027,0.44547176,9.409775,0.33259583,3.4289093,9.16789,0.24630643,3.4726818,-0.039886475,-0.004257202,0.0063476563,-8.279419,14.93988,-27.359009,0,0.0,0.0,0.0,0.0
0.639160156,0.21815725,-0.82724816,-0.5177528,0.27982807,0.5612786,-0.7788854,0.93493503,0.025037738,0.3539342,0.3002674,-0.7668182,-0.5673,0.3251596,0.6414084,-0.69488597,0.8967222,0.024188522,0.44193235,9.318848,0.26200867,3.480362,9.168581,0.24553634,3.4709089,-0.03515625,-0.004257202,0.001449585,-8.279419,14.93988,-27.359009,0,0.0,0.0,0.0,0.0
0.647460937,0.21634082,-0.83061457,-0.51310444,0.2811295,0.5562896,-0.7819899,0.93496674,0.02492752,0.35385838,0.29853827,-0.76810473,-0.5664716,0.3244154,0.63986653,-0.69665307,0.89756864,0.024205508,0.44020966,9.318848,0.26200867,3.480362,9.168892,0.24445547,3.4701655,-0.022018433,-0.0041046143,0.005569458,-8.21991,14.759827,-27.359009,0,0.0,0.0,0.0,0.0
0.655761718,0.21614994,-0.8306784,-0.51308155,0.2811904,0.5562017,-0.7820305,0.9349926,0.024762256,0.35380173,0.29511017,-0.77074414,-0.56468,0.3230223,0.63668376,-0.7002074,0.8992033,0.0242341,0.4368594,9.342773,0.1651001,3.5330048,9.169146,0.24283478,3.4696097,-0.023544312,0.013305664,-0.0029754639,-8.21991,14.759827,-27.359009,0,0.0,0.0,0.0,0.0
0.6640625,0.21877381,-0.8252477,-0.52067685,0.27922952,0.5642355,-0.7769616,0.9349701,0.0245905,0.3538734,0.29344818,-0.77202106,-0.56380105,0.32233837,0.63513434,-0.7019276,0.8999923,0.024244662,0.43523103,9.342773,0.1651001,3.5330048,9.168924,0.24115044,3.4703126,-0.024154663,0.012542725,-0.005874634,-7.739258,15.058899,-27.119446,0,0.0,0.0,0.0,0.0
0.672363281,0.21874854,-0.825256,-0.5206743,0.27938324,0.56422806,-0.7769117,0.93492997,0.024480628,0.35398674,0.2918832,-0.77314657,-0.56307065,0.32160825,0.63376355,-0.70349973,0.9007621,0.02425158,0.43363526,9.34996,0.19502258,3.5928192,9.168531,0.24007295,3.471424,-0.015151978,0.0014038086,3.8146973E-4,-7.739258,15.058899,-27.119446,0,0.0,0.0,0.0,0.0
0.680664062,0.21985632,-0.822862,-0.52398604,0.27850148,0.5677177,-0.7746829,0.9349332,0.024388025,0.3539846,0.28738725,-0.77637684,-0.5609346,0.3194821,0.62980175,-0.708012,0.9029617,0.02426505,0.42903548,9.34996,0.19502258,3.5928192,9.168563,0.23916483,3.4714031,-0.017745972,-0.01876831,-0.010604858,-7.6797485,15.179443,-27.059937,0,0.0,0.0,0.0,0.0
0.688964843,0.21974568,-0.82289857,-0.5239751,0.27846012,0.5676669,-0.774735,0.9349715,0.024338514,0.35388672,0.2859785,-0.7773533,-0.56030184,0.31876868,0.628596,-0.70940363,0.9036608,0.024267511,0.42756084,9.415756,0.21057129,3.5820618,9.168939,0.23867929,3.4704432,-0.018814087,-0.011734009,-0.0034332275,-7.6797485,15.179443,-27.059937,0,0.0,0.0,0.0,0.0
0.697265625,0.21980652,-0.8226334,-0.5243657,0.27839747,0.5680547,-0.77447313,0.93497586,0.02425217,0.35388118,0.2832466,-0.7792443,-0.5590614,0.31737053,0.62625015,-0.71210015,0.9050123,0.02427032,0.42469242,9.360718,0.1878357,3.5724792,9.168982,0.23783256,3.470389,-0.0357666,0.016815186,-0.007095337,-7.499695,15.359497,-27.23999,0,0.0,0.0,0.0,0.0
0.705566406,0.21975774,-0.8226493,-0.52436125,0.27861598,0.56803876,-0.7744064,0.9349223,0.024086367,0.35403413,0.28063393,-0.78104216,-0.5578689,0.31600848,0.62400645,-0.7146709,0.906302,0.024269603,0.42193332,9.321243,0.19502258,3.5784607,9.168455,0.23620656,3.4718885,-0.034851074,0.03147888,-8.392334E-4,-7.499695,15.359497,-27.23999,0,0.0,0.0,0.0,0.0
0.713867187,0.21792859,-0.82642376,-0.5191636,0.28037542,0.56253946,-0.7777782,0.93482447,0.0239394,0.35430235,0.27936864,-0.78191227,-0.5572848,0.31534657,0.62291604,-0.7159135,0.9069232,0.024265938,0.42059657,9.321243,0.19502258,3.5784607,9.167497,0.23476534,3.4745193,-0.033935547,0.034988403,0.004348755,-7.499695,15.058899,-27.119446,0,0.0,0.0,0.0,0.0
0.722167968,0.2179961,-0.82640195,-0.5191701,0.28072706,0.5625786,-0.77762306,0.9347032,0.023773689,0.3546333,0.2780895,-0.78284645,-0.5566126,0.3147373,0.6217418,-0.71720123,0.90752774,0.024259407,0.41929084,9.365509,0.21894836,3.6155548,9.1663065,0.23314023,3.4777646,-0.03652954,0.029953003,0.008178711,-7.499695,15.058899,-27.119446,0,0.0,0.0,0.0,0.0
0.73046875,0.22069092,-0.82102257,-0.52651465,0.27894396,0.5704069,-0.7725455,0.9346047,0.023625687,0.35490283,0.27441946,-0.7855273,-0.5546538,0.31298018,0.6183524,-0.72089094,0.90925103,0.024230845,0.4155424,9.406189,0.23568726,3.6083832,9.165341,0.23168884,3.480408,-0.0395813,0.0154418945,-0.0034332275,-7.258606,15.478516,-27.178955,0,0.0,0.0,0.0,0.0
0.738769531,0.22073382,-0.8210087,-0.5265182,0.27915213,0.5704308,-0.77245253,0.93453234,0.023527723,0.35509965,0.27330846,-0.7862651,-0.5541568,0.3123651,0.61741453,-0.7219608,0.909797,0.024218742,0.4143464,9.406189,0.23568726,3.6083832,9.164632,0.23072815,3.482338,-0.028289795,0.008422852,-0.007095337,-7.258606,15.478516,-27.178955,0,0.0,0.0,0.0,0.0
0.747070312,0.22596167,-0.81013435,-0.54094714,0.27500486,0.5857728,-0.7623927,0.9345125,0.023508428,0.35515305,0.2711588,-0.7876927,-0.55318445,0.3111717,0.6155932,-0.72402847,0.9108485,0.024191378,0.4120312,9.401398,0.25125122,3.5856476,9.164437,0.23053892,3.4828618,-0.016525269,-0.014633179,-0.0061798096,-7.1990967,15.899658,-26.818848,0,0.0,0.0,0.0,0.0
0.755371093,0.22599354,-0.81012386,-0.54094946,0.2750161,0.5857867,-0.7623779,0.9345015,0.02352268,0.3551811,0.26933068,-0.7886026,-0.55278116,0.30981737,0.6144283,-0.7255971,0.9118521,0.024164334,0.40980715,9.314056,0.17228699,3.5820618,9.16433,0.23067869,3.4831367,0.0036315918,-0.0131073,-0.016113281,-7.1990967,15.899658,-26.818848,0,0.0,0.0,0.0,0.0
0.763671875,0.22216061,-0.81814164,-0.53036684,0.27806056,0.5745345,-0.7698002,0.9345196,0.023545166,0.35513183,0.2684456,-0.789043,-0.55258316,0.30915827,0.61386305,-0.72635627,0.91233665,0.0241515,0.408728,9.314056,0.17228699,3.5820618,9.164507,0.23089921,3.4826536,0.014175415,-0.0041046143,-0.022979736,-7.4386597,15.59906,-27.178955,0,0.0,0.0,0.0,0.0
0.771972656,0.2221958,-0.8181301,-0.5303699,0.27789795,0.57454586,-0.7698504,0.9345596,0.023668833,0.35501835,0.26656133,-0.7902317,-0.551796,0.30801904,0.61233294,-0.7281295,0.91327393,0.024127489,0.40663072,9.312866,0.1758728,3.4911346,9.1649,0.23211199,3.4815412,0.027755737,-0.00730896,-0.02130127,-7.4386597,15.59906,-27.178955,0,0.0,0.0,0.0,0.0
0.780273437,0.22577721,-0.81064516,-0.5402583,0.2748201,0.5850539,-0.763011,0.9346114,0.023796644,0.35487342,0.26475647,-0.7913701,-0.55103296,0.3069112,0.6108617,-0.72983116,0.91417146,0.024109328,0.40460992,9.337997,0.14356995,3.4660034,9.165407,0.23336537,3.4801195,0.04058838,-0.0068511963,-0.024810791,-7.3791504,16.018677,-27.119446,0,0.0,0.0,0.0,0.0
0.788574218,0.22580536,-0.81063586,-0.5402605,0.27459988,0.5850604,-0.7630853,0.9346694,0.023953272,0.35471028,0.2639616,-0.7917638,-0.55084884,0.30629948,0.6103517,-0.7305145,0.91460645,0.024103073,0.40362623,9.337997,0.14356995,3.4660034,9.165976,0.23490135,3.4785197,0.038604736,-0.012496948,-0.026489258,-7.3791504,16.018677,-27.119446,0,0.0,0.0,0.0,0.0
0.796875,0.22312576,-0.8164018,-0.5326378,0.27658698,0.57697904,-0.76850164,0.93472695,0.02415181,0.354545,0.26242173,-0.79252625,-0.550488,0.30510023,0.6093615,-0.7318417,0.91545,0.024097143,0.40170965,9.34996,0.15434265,3.4719849,9.16654,0.23684834,3.4768987,0.032348633,-0.0063934326,-0.031066895,-8.1588745,15.658569,-27.418518,0,0.0,0.0,0.0,0.0
0.805175781,0.22320192,-0.8163758,-0.53264564,0.27637324,0.5770081,-0.7685568,0.9347721,0.024334343,0.35441378,0.2608273,-0.7934963,-0.5498478,0.3040372,0.6080976,-0.7333339,0.91625893,0.024099305,0.3998609,9.314056,0.18544006,3.3966064,9.166983,0.23863839,3.475612,0.027297974,0.013000488,-0.026794434,-8.1588745,15.658569,-27.418518,0,0.0,0.0,0.0,0.0
0.813476562,0.22112317,-0.8208755,-0.52656245,0.27789953,0.5705793,-0.7727944,0.93481356,0.024551319,0.3542892,0.26005644,-0.79396564,-0.5495354,0.3035154,0.6074846,-0.73405784,0.91665095,0.024104008,0.39896107,9.314056,0.18544006,3.3966064,9.16739,0.2407662,3.4743903,0.011108398,0.024917603,-0.026031494,-8.099365,15.59906,-27.719116,0,0.0,0.0,0.0,0.0
0.821777343,0.22130644,-0.82081395,-0.5265813,0.27783784,0.57066077,-0.77275634,0.9347885,0.024711743,0.3543441,0.25847203,-0.7950632,-0.54869545,0.30257085,0.6060467,-0.7356346,0.9174111,0.02412172,0.39720908,9.401398,0.19740295,3.4755707,9.167144,0.24233942,3.4749286,-0.0018615723,0.023086548,-0.018554688,-8.099365,15.59906,-27.719116,0,0.0,0.0,0.0,0.0
0.830078125,0.22148,-0.82083446,-0.52647644,0.27786788,0.5706248,-0.77277213,0.9347385,0.024862682,0.3544655,0.25696063,-0.79611236,-0.5478835,0.30165535,0.604667,-0.7371444,0.91813684,0.024145084,0.39552715,9.389435,0.2644043,3.5700989,9.166654,0.24381962,3.4761193,-0.0068969727,0.029953003,-0.016723633,-8.21991,15.59906,-27.778625,0,0.0,0.0,0.0,0.0
0.838378906,0.2217569,-0.82074076,-0.5265058,0.27794474,0.5707534,-0.77264947,0.93465,0.025000867,0.35468912,0.25623202,-0.7966208,-0.54748565,0.3012098,0.6039964,-0.737876,0.9184867,0.024159435,0.3947132,9.389435,0.2644043,3.5700989,9.165786,0.24517475,3.478312,-0.013473511,0.037124634,-0.019317627,-8.21991,15.59906,-27.778625,0,0.0,0.0,0.0,0.0
0.846679687,0.21963066,-0.8255755,-0.5197956,0.28006062,0.5637338,-0.7770264,0.93452036,0.025084563,0.35502443,0.2548315,-0.7976019,-0.5467104,0.30034408,0.602699,-0.73928845,0.91915965,0.024192754,0.39314166,9.431305,0.24406433,3.6394806,9.164515,0.24599554,3.4816005,-0.016983032,0.03742981,-0.010604858,-8.578491,15.359497,-28.019714,0,0.0,0.0,0.0,0.0
0.854980468,0.21988572,-0.82548845,-0.519826,0.28029612,0.56386006,-0.77685004,0.9343899,0.025113028,0.355366,0.25339824,-0.798745,-0.54570675,0.29960266,0.60118175,-0.7408231,0.9197976,0.024228068,0.39164448,9.424133,0.28474426,3.603592,9.163235,0.24627468,3.48495,-0.019882202,0.031021118,0.0025177002,-8.578491,15.359497,-28.019714,0,0.0,0.0,0.0,0.0
0.86328125,0.22379388,-0.8178264,-0.53016627,0.27752933,0.57491654,-0.7697067,0.93428785,0.025118962,0.35563362,0.25270942,-0.7992966,-0.5452183,0.29924545,0.6004475,-0.7415626,0.9201034,0.024245767,0.39092457,9.424133,0.28474426,3.603592,9.162234,0.24633287,3.4875746,-0.021865845,0.02293396,0.0046539307,-8.879089,15.539551,-27.719116,0,0.0,0.0,0.0,0.0
0.871582031,0.22389649,-0.81779015,-0.53017884,0.27767333,0.574969,-0.7696156,0.9342205,0.025097692,0.35581204,0.25154033,-0.8000456,-0.54466,0.29842314,0.59944767,-0.7427019,0.92069054,0.024280347,0.3895374,9.469589,0.3026886,3.6107635,9.161573,0.24612428,3.4893243,-0.021713257,0.0026245117,0.0071105957,-8.879089,15.539551,-27.719116,0,0.0,0.0,0.0,0.0
0.879882812,0.22083724,-0.8239084,-0.52192515,0.28018436,0.5661731,-0.77520615,0.93419886,0.024959126,0.35587835,0.25042358,-0.80076236,-0.544121,0.29763588,0.59848857,-0.74379045,0.9212496,0.024312712,0.38821128,9.501892,0.28234863,3.6227264,9.161362,0.24476542,3.4899745,-0.022018433,-0.010055542,-0.001449585,-8.879089,15.179443,-27.719116,0,0.0,0.0,0.0,0.0
0.888183593,0.22077462,-0.8239303,-0.5219171,0.28018066,0.56614304,-0.77522963,0.93421483,0.024919964,0.3558393,0.24981755,-0.8012378,-0.54369944,0.29730922,0.59785134,-0.74443334,0.9215196,0.02432564,0.38756913,9.501892,0.28234863,3.6227264,9.161518,0.24438138,3.4895916,-0.023391724,-0.021972656,-0.009231567,-8.879089,15.179443,-27.719116,0,0.0,0.0,0.0,0.0
0.896484375,0.22250436,-0.8202772,-0.5269127,0.2786207,0.57142186,-0.77191156,0.93427104,0.024944909,0.3556901,0.24864072,-0.80215985,-0.54287875,0.29667258,0.5966127,-0.74568,0.9220429,0.024349177,0.38632107,9.483948,0.29193115,3.6107635,9.162069,0.244626,3.4881282,-0.015457153,-0.03616333,-0.0048065186,-8.639526,15.539551,-27.83966,0,0.0,0.0,0.0,0.0
0.904785156,0.22237076,-0.8203235,-0.52689713,0.27844504,0.5713546,-0.77202475,0.93435514,0.024963858,0.35546756,0.24758509,-0.8028921,-0.5422784,0.29598963,0.59562594,-0.7467395,0.9225463,0.024372766,0.38511583,9.483948,0.2715912,3.625122,9.162894,0.24481182,3.485946,-0.011184692,-0.035095215,-0.005569458,-8.639526,15.539551,-27.83966,0,0.0,0.0,0.0,0.0
0.913085937,0.22371987,-0.8173017,-0.5310059,0.27705047,0.57566744,-0.7693178,0.93444765,0.024996264,0.35522208,0.24707082,-0.8032478,-0.54198605,0.2956541,0.5951456,-0.7472552,0.9227918,0.024384588,0.3845266,9.483948,0.2715912,3.625122,9.163801,0.24512962,3.4835386,0.008361816,-0.02960205,-0.0032806396,-8.518982,15.59906,-27.598572,0,0.0,0.0,0.0,0.0
0.921386718,0.22358721,-0.8173477,-0.5309909,0.27688643,0.57560146,-0.7694261,0.934528,0.025009653,0.35500965,0.246131,-0.8038133,-0.54157525,0.2949413,0.59438074,-0.74814516,0.9232709,0.02440881,0.38337323,9.468399,0.22732544,3.6227264,9.164589,0.24526091,3.4814556,0.026687622,-0.017684937,-0.010604858,-8.518982,15.59906,-27.598572,0,0.0,0.0,0.0,0.0
0.9296875,0.22603296,-0.8119609,-0.5381715,0.2746197,0.5831756,-0.7645196,0.9346085,0.025014123,0.35479736,0.24522415,-0.8043575,-0.5411785,0.29424864,0.59364307,-0.7490031,0.9237332,0.024432607,0.38225672,9.418152,0.13160706,3.5102692,9.165379,0.24530475,3.4793737,0.028213501,-0.0062408447,-0.0061798096,-7.739258,16.018677,-27.418518,0,0.0,0.0,0.0,0.0
0.937988281,0.22589856,-0.812006,-0.53816,0.27450246,0.5831137,-0.7646091,0.9346755,0.024997843,0.35462213,0.24483688,-0.8045109,-0.5411258,0.29386297,0.59343463,-0.74931955,0.9239586,0.024444237,0.38171068,9.418152,0.13160706,3.5102692,9.166036,0.24514511,3.4776552,0.04135132,0.006134033,-0.0061798096,-7.739258,16.018677,-27.418518,0,0.0,0.0,0.0,0.0
0.946289062,0.22551814,-0.81270415,-0.53726476,0.2747232,0.5821406,-0.76527077,0.93470246,0.024983332,0.35455197,0.24445485,-0.80466205,-0.54107374,0.29348254,0.5932292,-0.74963135,0.9241806,0.024455309,0.381172,9.390625,0.15074158,3.5330048,9.166301,0.24500282,3.4769673,0.04135132,0.0113220215,-0.004501343,-7.739258,15.899658,-27.2995,0,0.0,0.0,0.0,0.0
0.954589843,0.22557655,-0.8126846,-0.53727,0.27476358,0.58216757,-0.76523596,0.9346766,0.024997048,0.35461944,0.2436979,-0.8049835,-0.5409372,0.29275313,0.5927922,-0.75026196,0.9246118,0.024476219,0.38012365,9.439682,0.19502258,3.448059,9.166046,0.2451373,3.477629,0.034179688,0.02079773,-0.008468628,-7.739258,15.899658,-27.2995,0,0.0,0.0,0.0,0.0
0.962890625,0.22784987,-0.8079043,-0.5434842,0.2728626,0.5887806,-0.76084393,0.934682,0.025061669,0.35460046,0.24333215,-0.8051388,-0.5408705,0.29239976,0.5925806,-0.75056684,0.9248199,0.024486635,0.37961632,9.439682,0.19502258,3.448059,9.1661,0.24577102,3.4774427,0.028823853,0.01864624,-0.0074005127,-7.739258,15.899658,-26.879883,0,0.0,0.0,0.0,0.0
0.971191406,0.22790089,-0.80788696,-0.5434886,0.27282816,0.58880204,-0.76083964,0.93467957,0.025117036,0.3546028,0.24271855,-0.8052487,-0.54098266,0.29163274,0.5924304,-0.7509838,0.92522323,0.024509408,0.37863073,9.451645,0.20936584,3.4205475,9.166076,0.24631399,3.4774656,0.023330688,0.028579712,-0.009384155,-7.739258,15.899658,-26.879883,0,0.0,0.0,0.0,0.0
0.979492187,0.22795026,-0.8078701,-0.54349285,0.2727913,0.5888226,-0.7608368,0.9346783,0.025172833,0.35460225,0.2421313,-0.80535346,-0.5410899,0.2908942,0.592287,-0.7513832,0.9256095,0.02453347,0.37768388,9.451645,0.20936584,3.4205475,9.166063,0.24686117,3.4774601,0.017074585,0.027053833,7.6293945E-5,-7.739258,15.899658,-26.879883,0,0.0,0.0,0.0,0.0
0.987792968,0.23260306,-0.7981088,-0.55580395,0.26906854,0.6019808,-0.7518119,0.93461114,0.025324406,0.35476857,0.24156927,-0.8054534,-0.5411923,0.29018298,0.59215003,-0.7517661,0.92597955,0.02455879,0.37677413,9.467209,0.29670715,3.5880432,9.165404,0.2483476,3.4790914,0.015701294,-0.0021209717,-0.008773804,-6.8984985,16.499329,-26.579285,0,0.0,0.0,0.0,0.0
0.99609375,0.23192719,-0.7999125,-0.5534886,0.26969305,0.59957504,-0.7535086,0.93459904,0.025487108,0.35478863,0.24139589,-0.8053077,-0.5414864,0.28975978,0.5923475,-0.75177366,0.92615724,0.024574105,0.37633604,9.461227,0.28115845,3.603592,9.165286,0.24994315,3.479288,0.022872925,-0.017074585,-0.010910034,-6.77948,16.259766,-26.339722,0,0.0,0.0,0.0,0.0
1.004394531,0.23198569,-0.7998934,-0.5534919,0.26949483,0.5995937,-0.75356495,0.9346418,0.025653075,0.35466427,0.24102965,-0.8050954,-0.5419651,0.28896457,0.5926347,-0.7518535,0.9265011,0.024610259,0.37548655,9.401398,0.23928833,3.5892334,9.165705,0.25157073,3.4780684,0.02607727,-0.028839111,-0.006942749,-6.77948,16.259766,-26.339722,0,0.0,0.0,0.0,0.0
1.012695312,0.23238401,-0.7988912,-0.55477065,0.2689328,0.6009253,-0.7527043,0.93470466,0.025720444,0.3544935,0.24067959,-0.8048905,-0.54242474,0.28819308,0.59291106,-0.7519316,0.92683226,0.024651555,0.37466547,9.330811,0.20578003,3.5653076,9.166322,0.2522314,3.4763937,0.016159058,-0.022277832,-0.004501343,-7.019043,16.499329,-26.69983,0,0.0,0.0,0.0,0.0
1.020996093,0.23232812,-0.7989097,-0.55476743,0.2688136,0.60089904,-0.7527679,0.9347528,0.025760144,0.35436356,0.24051821,-0.80477136,-0.5426731,0.2878074,0.59307194,-0.7519525,0.926994,0.024672933,0.37426376,9.395416,0.18664551,3.5246277,9.166794,0.25262073,3.4751194,0.014175415,-0.0077667236,-0.0063323975,-7.019043,16.499329,-26.69983,0,0.0,0.0,0.0,0.0
1.029296875,0.232232,-0.7989415,-0.55476177,0.268725,0.60085696,-0.75283307,0.93480223,0.025753565,0.35423383,0.24020231,-0.8045407,-0.54315484,0.28705433,0.593383,-0.751995,0.9273094,0.024715988,0.37347886,9.395416,0.18664551,3.5246277,9.167278,0.2525562,3.4738472,0.0024108887,-0.0053253174,-0.010757446,-7.019043,16.499329,-26.69983,0,0.0,0.0,0.0,0.0
1.037597656,0.23280616,-0.79755527,-0.5565131,0.2681406,0.6026962,-0.7515703,0.9348272,0.02574643,0.35416836,0.23989452,-0.80432034,-0.543617,0.28632772,0.59367996,-0.75203764,0.9276137,0.024757074,0.3727198,9.406189,0.17706299,3.4923248,9.167523,0.25248623,3.473205,-0.012710571,0.014526367,-0.010757446,-7.1990967,16.319275,-26.399231,0,0.0,0.0,0.0,0.0
1.045898437,0.22717427,-0.80987,-0.54083484,0.27294475,0.5860461,-0.76292264,0.93482244,0.025698341,0.3541844,0.23975725,-0.80418605,-0.5438762,0.28596324,0.59386104,-0.75203335,0.9277616,0.024776861,0.37235016,9.322433,0.19502258,3.4241333,9.167477,0.25201464,3.4733624,-0.028289795,0.014526367,-0.006942749,-7.3791504,15.7196045,-26.638794,0,0.0,0.0,0.0,0.0
1.054199218,0.22707213,-0.80990404,-0.54082674,0.27301452,0.586004,-0.7629301,0.9348269,0.025586642,0.35418078,0.23925537,-0.8044125,-0.54376227,0.28545403,0.59355277,-0.75247,0.92804784,0.024813354,0.37163344,9.291336,0.19262695,3.3834534,9.1675205,0.25091925,3.473327,-0.04446411,0.022628784,-0.0032806396,-7.3791504,15.7196045,-26.638794,0,0.0,0.0,0.0,0.0
1.0625,0.22585687,-0.8123214,-0.53770113,0.27403384,0.5826539,-0.7651273,0.93482304,0.025460947,0.35419998,0.23876956,-0.8046313,-0.54365206,0.28496733,0.5932548,-0.7528893,0.92832255,0.024843976,0.37094483,9.287735,0.24047852,3.4121704,9.167482,0.24968661,3.4735153,-0.052261353,0.01940918,-0.0011444092,-7.6797485,15.419006,-26.519775,0,0.0,0.0,0.0,0.0
1.070800781,0.22574036,-0.81236106,-0.5376904,0.27416137,0.5826057,-0.7651185,0.9348138,0.025304167,0.35423556,0.23850876,-0.80478644,-0.54353684,0.28475243,0.59304374,-0.7531369,0.9284555,0.024856314,0.370611,9.305695,0.2859497,3.5042877,9.167392,0.24814911,3.4738643,-0.05531311,0.023239136,-0.0031280518,-7.6797485,15.419006,-26.519775,0,0.0,0.0,0.0,0.0
1.079101562,0.2258234,-0.8123328,-0.53769803,0.27436668,0.582648,-0.7650125,0.93473345,0.025231307,0.3544526,0.2379984,-0.80508894,-0.5433125,0.28433996,0.5926323,-0.75361645,0.92871284,0.02487405,0.3699645,9.3511505,0.32302856,3.645462,9.166604,0.2474346,3.475993,-0.04232788,0.054840088,-0.009994507,-7.6797485,15.419006,-26.519775,0,0.0,0.0,0.0,0.0
1.087402343,0.22402404,-0.8167657,-0.53170186,0.2764811,0.57641613,-0.76896197,0.93454343,0.02526045,0.3549514,0.23775275,-0.805235,-0.54320365,0.28414378,0.5924335,-0.75384676,0.9288358,0.024881195,0.36965522,9.3511505,0.32302856,3.645462,9.164741,0.2477204,3.4808843,-0.033325195,0.05758667,-0.008468628,-8.099365,15.119934,-26.638794,0,0.0,0.0,0.0,0.0
1.095703125,0.22157517,-0.82253355,-0.5237777,0.27907017,0.56815076,-0.7741606,0.9343577,0.025364025,0.35543263,0.23720272,-0.8056977,-0.5427579,0.28384998,0.5918036,-0.75445193,0.92906624,0.024896216,0.36907467,9.372681,0.3361969,3.5784607,9.162919,0.24873611,3.4856036,-0.0039978027,0.015136719,-0.012283325,-7.978821,15.119934,-27.119446,0,0.0,0.0,0.0,0.0
1.104003906,0.22175133,-0.82247406,-0.5237963,0.2790307,0.56823033,-0.77411634,0.9343277,0.025506053,0.35550138,0.23657581,-0.80637735,-0.5420216,0.28367463,0.5908763,-0.75524426,0.9292796,0.024914742,0.36853585,9.438492,0.33738708,3.4863434,9.162624,0.25012892,3.4862773,-0.009811401,-0.048080444,5.340576E-4,-7.978821,15.119934,-27.119446,0,0.0,0.0,0.0,0.0
1.112304687,0.22161555,-0.8225199,-0.52378196,0.2786915,0.56815886,-0.77429086,0.93446106,0.025621308,0.35514215,0.2362755,-0.8067054,-0.54166424,0.28358832,0.59042776,-0.75562733,0.9293824,0.02492657,0.36827585,9.536591,0.35055542,3.6981049,9.163933,0.2512592,3.482755,-0.004470825,-0.030059814,-0.0037384033,-7.978821,15.119934,-27.119446,0,0.0,0.0,0.0,0.0
1.120605468,0.2162028,-0.8334061,-0.50861657,0.28278807,0.5520608,-0.78438514,0.9344984,0.025755567,0.35503432,0.2356875,-0.80734324,-0.54096985,0.28340685,0.58955425,-0.7563771,0.929587,0.024954082,0.36775714,9.49353,0.3254242,3.7220306,9.164299,0.25257584,3.4816976,-0.0067596436,-0.0135650635,-9.918213E-4,-8.81958,14.518738,-27.539063,0,0.0,0.0,0.0,0.0
1.12890625,0.21631365,-0.8333679,-0.5086319,0.28273886,0.5521135,-0.78436565,0.93448764,0.02585899,0.35505518,0.23490669,-0.8084077,-0.5397183,0.28340605,0.5880924,-0.75751466,0.92978483,0.024985824,0.36725447,9.438492,0.17826843,3.7316132,9.164193,0.25359008,3.4819021,-0.033325195,-0.01663208,-0.010147095,-8.81958,14.518738,-27.539063,0,0.0,0.0,0.0,0.0
1.137207031,0.21300851,-0.83961374,-0.49967605,0.28530842,0.5425742,-0.7900711,0.93446594,0.025730103,0.3551218,0.23453037,-0.8089223,-0.5391106,0.28340384,0.5873836,-0.7580651,0.9298805,0.025003286,0.367011,9.438492,0.17826843,3.7316132,9.1639805,0.25232613,3.4825552,-0.033325195,-0.0131073,-0.007095337,-8.879089,14.279175,-27.778625,0,0.0,0.0,0.0,0.0
1.145507812,0.20970549,-0.8456109,-0.49088258,0.28781947,0.5331882,-0.79553133,0.9344429,0.025541747,0.35519582,0.23367038,-0.8101837,-0.5375877,0.28350884,0.5856413,-0.7593727,0.930065,0.025032068,0.36654127,9.383453,0.14596558,3.603592,9.163754,0.25047898,3.4832811,-0.05088806,-0.019989014,7.6293945E-5,-8.758545,13.919067,-27.719116,0,0.0,0.0,0.0,0.0
1.153808593,0.2093793,-0.8457199,-0.4908342,0.28793728,0.5330293,-0.7955952,0.9344797,0.025251718,0.3551196,0.23271586,-0.8116494,-0.5357879,0.28371647,0.5836075,-0.7608596,0.930241,0.025052251,0.36609298,9.326019,0.1483612,3.5114746,9.164116,0.24763477,3.4825337,-0.05455017,-0.021514893,0.0035858154,-8.758545,13.919067,-27.719116,0,0.0,0.0,0.0,0.0
1.162109375,0.20894335,-0.84586525,-0.49076945,0.28799933,0.53281426,-0.7957168,0.9345582,0.024918476,0.35493663,0.23224662,-0.8123608,-0.53491247,0.2838188,0.58261657,-0.7615804,0.930327,0.025056241,0.36587405,9.346359,0.1651001,3.5389862,9.1648855,0.24436678,3.4807394,-0.058670044,-0.019989014,0.00970459,-8.758545,13.919067,-27.719116,0,0.0,0.0,0.0,0.0
1.170410156,0.21141958,-0.8405802,-0.498725,0.28602198,0.5411307,-0.7908028,0.9346086,0.02454489,0.35483006,0.2313193,-0.8137441,-0.533209,0.28401893,0.58068323,-0.7629812,0.93049693,0.025050787,0.36544198,9.394226,0.17347717,3.571289,9.16538,0.24070314,3.4796944,-0.074401855,0.0043029785,0.018249512,-8.518982,14.338684,-27.778625,0,0.0,0.0,0.0,0.0
1.178710937,0.21102715,-0.8407104,-0.4986718,0.28631493,0.54094803,-0.7908216,0.9346075,0.02410764,0.3548627,0.23052615,-0.8148425,-0.53187346,0.28412274,0.5791417,-0.7641133,0.9306621,0.025030753,0.3650226,9.455246,0.21774292,3.6011963,9.165369,0.23641519,3.4800143,-0.060043335,0.017120361,0.01977539,-8.518982,14.338684,-27.778625,0,0.0,0.0,0.0,0.0
1.187011718,0.2152965,-0.8320566,-0.51120394,0.2832264,0.55418307,-0.78272873,0.93457496,0.023732293,0.354974,0.23013398,-0.8153771,-0.5312236,0.28417864,0.57838964,-0.76466197,0.9307421,0.025012292,0.36481985,9.455246,0.21774292,3.6011963,9.16505,0.2327343,3.4811058,-0.04385376,0.0073547363,0.019927979,-8.21991,14.93988,-27.778625,0,0.0,0.0,0.0,0.0
1.1953125,0.2144518,-0.83328074,-0.5095622,0.28389388,0.55235374,-0.783779,0.93456656,0.023421234,0.35501656,0.22954232,-0.81605107,-0.5304441,0.28415328,0.57744044,-0.76538837,0.9308959,0.024961606,0.3644306,9.336792,0.14476013,3.4815521,9.164968,0.22968385,3.4815233,-0.027832031,-0.019836426,0.021148682,-8.099365,14.93988,-27.83966,0,0.0,0.0,0.0,0.0
1.203613281,0.21399403,-0.8334307,-0.50950944,0.28397596,0.5521426,-0.783898,0.9346465,0.02306105,0.3548295,0.22894129,-0.8167479,-0.5296308,0.28415605,0.5764571,-0.7661283,0.9310431,0.024900606,0.3640587,9.336792,0.14476013,3.4815521,9.165751,0.22615166,3.4796886,-0.0033874512,-0.028076172,0.014587402,-8.099365,14.93988,-27.83966,0,0.0,0.0,0.0,0.0
1.211914062,0.21357316,-0.8335684,-0.5094609,0.2839389,0.55194587,-0.78405017,0.9347541,0.022796275,0.35456327,0.22864075,-0.8170886,-0.5292348,0.284159,0.5759756,-0.76648927,0.93111604,0.024863815,0.36387458,9.361923,0.23091125,3.5042877,9.166806,0.22355509,3.477078,-0.0033874512,-0.025024414,0.0035858154,-8.099365,14.93988,-27.83966,0,0.0,0.0,0.0,0.0
1.220214843,0.21243894,-0.83556044,-0.5066642,0.28452957,0.54892516,-0.78595436,0.93483293,0.022806348,0.35435465,0.2283378,-0.8174251,-0.52884597,0.284161,0.57549983,-0.76684576,0.9311898,0.024822466,0.3636887,9.361923,0.23091125,3.5042877,9.16758,0.22365388,3.475032,0.0031738281,-0.014633179,-0.011520386,-7.739258,15.058899,-28.079224,0,0.0,0.0,0.0,0.0
1.228515625,0.21269421,-0.8354791,-0.50669104,0.28435513,0.5490371,-0.78593916,0.934828,0.023084516,0.35434982,0.22770508,-0.8181595,-0.5279825,0.2841899,0.5744588,-0.76761526,0.93133587,0.02474263,0.36331984,9.365509,0.29551697,3.5581207,9.167531,0.22638176,3.4749846,0.019363403,0.014526367,-0.035812378,-7.739258,15.058899,-28.079224,0,0.0,0.0,0.0,0.0
1.236816406,0.2115684,-0.8383679,-0.5023725,0.28547114,0.54460096,-0.78861654,0.9347433,0.023433466,0.35455018,0.22710745,-0.8188602,-0.52715296,0.28420916,0.5734623,-0.76835287,0.93147594,0.02467697,0.36296514,9.424133,0.25004578,3.5700989,9.1667,0.2298038,3.4769497,0.021347046,0.03086853,-0.0284729,-7.8598022,14.6987915,-27.83966,1,0.0,0.0,0.0,0.0
1.245117187,0.21509945,-0.8321645,-0.51111096,0.28305808,0.5540209,-0.7829042,0.9346712,0.023728177,0.35472047,0.22648923,-0.8196518,-0.5261878,0.2842735,0.57233244,-0.76917106,0.93160677,0.024627728,0.36263242,9.4049835,0.22013855,3.534195,9.165994,0.23269394,3.4786196,0.017532349,0.016815186,-0.022827148,-7.319641,15.058899,-27.598572,1,0.0,0.0,0.0,0.0
1.253417968,0.21535106,-0.8320851,-0.5111343,0.28300714,0.55413145,-0.7828443,0.9346287,0.023931706,0.35481882,0.22626004,-0.81990606,-0.5258902,0.28425294,0.5719689,-0.769449,0.93166876,0.024609737,0.3624744,9.4049835,0.22013855,3.534195,9.165577,0.23468988,3.479584,0.015548706,0.009796143,-0.021453857,-7.319641,15.058899,-27.598572,1,0.0,0.0,0.0,0.0
1.26171875,0.21544445,-0.83205557,-0.511143,0.28285322,0.55416906,-0.7828734,0.9346538,0.024087286,0.35474226,0.22582546,-0.82039565,-0.5253131,0.28421044,0.5712676,-0.7699856,0.93178713,0.024582887,0.36217177,9.361923,0.18066406,3.4444733,9.165823,0.23621558,3.4788332,0.006072998,0.0044555664,-0.011520386,-7.319641,15.058899,-27.598572,1,0.0,0.0,0.0,0.0
1.270019531,0.21470945,-0.83336127,-0.5093219,0.28325334,0.5522034,-0.7841166,0.93470174,0.024090113,0.35461566,0.22541182,-0.82086414,-0.5247587,0.28416282,0.57059515,-0.7705016,0.9319018,0.024563262,0.36187792,9.361923,0.18066406,3.4444733,9.166293,0.23624331,3.4775918,-0.01133728,-0.012802124,0.0020599365,-7.019043,15.058899,-27.598572,1,0.0,0.0,0.0,0.0
1.278320312,0.21450432,-0.8334248,-0.50930446,0.28320944,0.55211264,-0.7841964,0.9347621,0.023973692,0.35446432,0.22541182,-0.82086414,-0.5247587,0.28416282,0.57059515,-0.7705016,0.9319018,0.024563262,0.36187792,9.389435,0.16749573,3.4899292,9.166885,0.23510161,3.4761076,-0.01133728,-0.012802124,0.0020599365,-7.019043,15.058899,-27.598572,1,0.0,0.0,0.0,0.0
1.286621093,0.21993697,-0.82221514,-0.52496684,0.2787795,0.5686769,-0.77387905,0.9348314,0.023854613,0.35428974,0.22476657,-0.82161415,-0.5238607,0.2841167,0.56951594,-0.7713166,0.9320717,0.02452859,0.36144248,9.471985,0.15194702,3.5258179,9.167564,0.23393385,3.4743955,-0.004470825,-2.89917E-4,-0.007247925,-6.6589355,15.419006,-26.939392,1,0.0,0.0,0.0,0.0
1.294921875,0.2185607,-0.82480335,-0.5214698,0.27977055,0.5649199,-0.7762693,0.93485814,0.023770068,0.35422495,0.22457543,-0.821638,-0.52390534,0.28390586,0.56948274,-0.7714187,0.932182,0.0245019,0.3611597,9.450455,0.15553284,3.4241333,9.167827,0.23310475,3.4737601,0.003479004,0.021240234,-0.0090789795,-6.5994263,15.359497,-27.059937,1,0.0,0.0,0.0,0.0
1.303222656,0.21846782,-0.82483196,-0.5214634,0.27974743,0.5648802,-0.77630645,0.9348867,0.02371994,0.35415274,0.22457543,-0.821638,-0.52390534,0.28390586,0.56948274,-0.7714187,0.932182,0.0245019,0.3611597,9.450455,0.15553284,3.4241333,9.168107,0.23261316,3.473052,0.003479004,0.021240234,-0.0090789795,-6.5994263,15.359497,-27.059937,1,0.0,0.0,0.0,0.0
1.311523437,0.21854039,-0.82480955,-0.52146834,0.27974674,0.56491065,-0.77628446,0.93486995,0.02377043,0.3541936,0.22421515,-0.82182664,-0.52376384,0.2836633,0.5692125,-0.77170736,0.9323426,0.024455918,0.3607481,9.4002075,0.22372437,3.4408722,9.167942,0.23310827,3.4734526,-0.003692627,0.03010559,-0.009231567,-6.5994263,15.359497,-27.059937,1,0.0,0.0,0.0,0.0
1.319824218,0.2145826,-0.8327265,-0.51041275,0.2828439,0.55317414,-0.78358024,0.9348549,0.02377555,0.35423306,0.22398977,-0.82194513,-0.52367425,0.28350934,0.5690425,-0.77188927,0.93244356,0.024428774,0.36048883,9.4002075,0.22372437,3.4408722,9.167795,0.2331585,3.4738398,-0.02293396,0.008270264,0.009246826,-7.1395874,14.819336,-27.178955,1,0.0,0.0,0.0,0.0
1.328125,0.21451294,-0.8327482,-0.51040626,0.28289834,0.5531446,-0.7835813,0.93485445,0.023695255,0.3542398,0.22380075,-0.82216376,-0.5234118,0.28349867,0.5687272,-0.77212554,0.9324922,0.02441571,0.36036393,9.388245,0.24645996,3.4911346,9.16779,0.23237108,3.4739058,-0.033935547,-0.008682251,0.013977051,-7.1395874,14.819336,-27.178955,1,0.0,0.0,0.0,0.0
1.336425781,0.21285528,-0.83571553,-0.5062333,0.28414804,0.54865867,-0.7862782,0.9348542,0.023518277,0.35425183,0.22343135,-0.8225885,-0.5229021,0.28347996,0.56811386,-0.77258384,0.9325865,0.024387179,0.36012182,9.408585,0.25483704,3.5928192,9.1677885,0.23063552,3.4740238,-0.03805542,-0.00730896,0.020385742,-7.0785522,14.878845,-27.539063,1,0.0,0.0,0.0,0.0
1.344726562,0.21546331,-0.8304558,-0.5137302,0.282234,0.5565943,-0.7813749,0.9348366,0.023365483,0.35430852,0.22301115,-0.823117,-0.52224934,0.28351316,0.5673494,-0.7731332,0.932677,0.024352772,0.35988972,9.464813,0.3361969,3.6693878,9.167616,0.22913711,3.4745798,-0.060958862,0.008728027,0.022216797,-7.0785522,14.93988,-27.119446,1,0.0,0.0,0.0,0.0
1.353027343,0.21537788,-0.83048266,-0.5137228,0.282459,0.5565625,-0.78131646,0.9347884,0.023172691,0.35444847,0.22285959,-0.82326514,-0.5220805,0.28348902,0.5671352,-0.7732991,0.9327205,0.024333026,0.35977817,9.464813,0.3361969,3.6693878,9.167143,0.22724648,3.4759521,-0.06906128,0.006286621,0.02619934,-7.0785522,14.93988,-27.119446,1,0.0,0.0,0.0,0.0
1.361328125,0.21517526,-0.83054626,-0.51370484,0.28275353,0.5564805,-0.78126824,0.934746,0.022857713,0.35458067,0.22270942,-0.82341087,-0.52191484,0.2834699,0.5669247,-0.77346057,0.9327622,0.024309821,0.35967162,9.479172,0.2871399,3.6586304,9.166727,0.22415759,3.4772487,-0.0687561,0.006286621,0.02619934,-7.0785522,14.93988,-27.119446,1,0.0,0.0,0.0,0.0
1.369628906,0.21947485,-0.8215077,-0.52626604,0.27951226,0.5697527,-0.7728226,0.9347212,0.022517333,0.35466784,0.22241041,-0.8236959,-0.52159244,0.2834445,0.5665129,-0.7737715,0.93284124,0.02425232,0.35947043,9.479172,0.2871399,3.6586304,9.166484,0.2208196,3.4781034,-0.06906128,-0.0033416748,0.029251099,-6.7199707,15.539551,-27.059937,1,0.0,0.0,0.0,0.0
1.377929687,0.21903253,-0.8216454,-0.5262353,0.27976415,0.5695719,-0.7728647,0.9347496,0.02206074,0.3546217,0.22229491,-0.82360953,-0.521778,0.28328842,0.5666414,-0.7737346,0.9329162,0.024183614,0.35928053,9.419342,0.2141571,3.5844421,9.166762,0.21634197,3.4776511,-0.06890869,-0.018920898,0.03138733,-6.7199707,15.539551,-27.059937,1,0.0,0.0,0.0,0.0
1.386230468,0.21646537,-0.825908,-0.52059454,0.28151178,0.56339145,-0.7767503,0.93482286,0.021586047,0.35445762,0.22216637,-0.8235321,-0.52195495,0.28314844,0.5667575,-0.7737008,0.9329893,0.024099547,0.3590963,9.354736,0.19740295,3.5198364,9.167481,0.21168683,3.476042,-0.07165527,-0.022888184,0.02267456,-7.0785522,15.238953,-27.119446,1,0.0,0.0,0.0,0.0
1.39453125,0.21283257,-0.8321836,-0.51202804,0.28396752,0.5540968,-0.78252107,0.93491435,0.021146644,0.35424295,0.22194053,-0.8236265,-0.52190197,0.2830845,0.56662446,-0.7738216,0.93306243,0.024000015,0.35891286,9.361923,0.18304443,3.4851532,9.168378,0.20737773,3.4739368,-0.062942505,-0.025787354,0.008483887,-7.499695,14.878845,-27.2995,1,0.0,0.0,0.0,0.0
1.402832031,0.21236853,-0.83233106,-0.51198095,0.28397977,0.5538875,-0.78266466,0.93501604,0.020821102,0.3539935,0.2217583,-0.82379955,-0.5217063,0.28310424,0.56637526,-0.7739968,0.9330998,0.02394295,0.35881957,9.361923,0.18304443,3.4851532,9.169375,0.20418526,3.4714906,-0.058059692,-0.025939941,0.0074157715,-7.499695,14.878845,-27.2995,1,0.0,0.0,0.0,0.0
1.411132812,0.21202362,-0.8324406,-0.51194596,0.28390935,0.5537303,-0.78280157,0.93511575,0.020626174,0.3537416,0.2213863,-0.8241412,-0.52132463,0.28314304,0.56588334,-0.77434236,0.9331764,0.023819327,0.35862866,9.332001,0.20936584,3.4648132,9.170353,0.20227368,3.46902,-0.038513184,-0.015701294,0.004196167,-7.499695,14.878845,-27.2995,1,0.0,0.0,0.0,0.0
1.419433593,0.20894238,-0.83796436,-0.5041417,0.28592408,0.5453403,-0.7879413,0.9351955,0.020488085,0.35353887,0.22119896,-0.824309,-0.52113885,0.28316048,0.5656415,-0.7745126,0.93321544,0.023755467,0.35853106,9.332001,0.20936584,3.4648132,9.171135,0.20091948,3.467032,-0.022628784,-0.0065460205,0.005126953,-7.739258,14.819336,-27.83966,1,0.0,0.0,0.0,0.0
1.427734375,0.20879379,-0.83801126,-0.50412536,0.28593817,0.5452724,-0.7879832,0.93522435,0.020377306,0.35346887,0.22071409,-0.82485926,-0.52047336,0.28327805,0.56484425,-0.7750513,0.9332946,0.023626084,0.3583336,9.388245,0.17706299,3.5114746,9.171418,0.19983311,3.4663455,-0.0038452148,0.0043029785,-0.008163452,-7.739258,14.819336,-27.83966,1,0.0,0.0,0.0,0.0
1.436035156,0.2040107,-0.8469293,-0.49100962,0.2893324,0.531315,-0.7962356,0.93523604,0.020375606,0.353438,0.22024257,-0.82538897,-0.5198329,0.28339115,0.5640753,-0.7755698,0.93337166,0.023497438,0.3581413,9.428925,0.20100403,3.5413818,9.171533,0.19981644,3.4660428,0.022262573,-0.0041046143,-0.006790161,-8.1588745,14.279175,-28.019714,1,0.0,0.0,0.0,0.0
1.444335937,0.2040674,-0.8469114,-0.49101698,0.2892395,0.53134006,-0.79625267,0.93525237,0.020467704,0.35338938,0.2199195,-0.82583237,-0.5192652,0.2835181,0.5634285,-0.7759934,0.9334093,0.023435002,0.35804734,9.428925,0.20100403,3.5413818,9.171693,0.20071962,3.4655662,0.026382446,-0.0063934326,-0.0017547607,-8.1588745,14.279175,-28.019714,1,0.0,0.0,0.0,0.0
1.452636718,0.2050503,-0.8450424,-0.49381953,0.2884511,0.534307,-0.79455155,0.9352809,0.020480245,0.3533132,0.21929461,-0.8266906,-0.51816267,0.28375995,0.5621734,-0.7768149,0.93348277,0.0233175,0.35786328,9.407379,0.14715576,3.5461578,9.171973,0.20084262,3.4648192,0.036315918,-0.016937256,-8.392334E-4,-8.279419,14.399719,-28.079224,1,0.0,0.0,0.0,0.0
1.460929991,0.20496462,-0.8450697,-0.49380836,0.2883744,0.5342643,-0.794608,0.93532336,0.020464849,0.35320175,0.21873237,-0.8274351,-0.5172112,0.28395784,0.56108177,-0.7775315,0.93355453,0.023205148,0.3576834,9.402603,0.14237976,3.5246277,9.172389,0.20069161,3.463726,0.040893555,-0.029296875,0.0061798096,-8.279419,14.399719,-28.079224,1,0.0,0.0,0.0,0.0
1.469230772,0.20548485,-0.8438565,-0.49566352,0.28772238,0.53617924,-0.79355395,0.93541,0.020449817,0.35297304,0.21845782,-0.8277962,-0.5167491,0.28405195,0.56055105,-0.7778798,0.9335902,0.023150343,0.35759392,9.402603,0.14237976,3.5246277,9.173239,0.20054421,3.4614832,0.029129028,-0.032196045,0.012756348,-8.758545,14.219666,-27.83966,1,0.0,0.0,0.0,0.0
1.477531553,0.20519143,-0.843953,-0.49562055,0.287477,0.53602934,-0.79374385,0.93554974,0.020389946,0.3526057,0.21794514,-0.82844573,-0.515924,0.28420722,0.55959505,-0.77851117,0.9336628,0.023043403,0.3574113,9.378662,0.15911865,3.4372864,9.174609,0.19995707,3.4578807,0.022415161,-0.031585693,0.011993408,-8.758545,14.219666,-27.83966,1,0.0,0.0,0.0,0.0
1.485832334,0.20495419,-0.8438631,-0.4958717,0.28704965,0.5361722,-0.793802,0.93573296,0.020353265,0.3521214,0.21744071,-0.8290726,-0.5151293,0.28434613,0.5586703,-0.7791244,0.9337381,0.02293833,0.35722128,9.340378,0.20219421,3.3009033,9.176406,0.19959734,3.4531317,0.0022583008,-0.01953125,0.010009766,-8.999634,14.279175,-28.019714,1,0.0,0.0,0.0,0.0
1.494133116,0.204611,-0.84397715,-0.49581954,0.2867619,0.53599554,-0.79402554,0.93589634,0.020284202,0.35169104,0.21719104,-0.8293744,-0.5147487,0.2844048,0.55822426,-0.7794226,0.9337783,0.022886628,0.35711935,9.340378,0.20219421,3.3009033,9.178008,0.19892007,3.448911,-0.009506226,-0.021209717,0.013366699,-8.999634,14.279175,-28.019714,1,0.0,0.0,0.0,0.0
1.502433897,0.19642226,-0.85822207,-0.47420785,0.2920484,0.5128859,-0.807252,0.9360161,0.020070618,0.3513846,0.21669284,-0.829964,-0.51400775,0.2845072,0.55735147,-0.78000957,0.93386286,0.022783576,0.35690483,9.290131,0.14596558,3.3547363,9.179182,0.19682553,3.445906,-0.023086548,-0.015090942,0.021453857,-10.018921,13.619995,-28.799438,1,0.0,0.0,0.0,0.0
1.510734678,0.19593681,-0.8583841,-0.47411555,0.29203644,0.5126275,-0.8074204,0.93612146,0.019744363,0.35112202,0.21589492,-0.83112746,-0.51246125,0.28483135,0.5556194,-0.7811262,0.9339489,0.022676144,0.3566866,9.334396,0.17347717,3.399002,9.180216,0.19362606,3.4433308,-0.044937134,0.0056762695,0.023742676,-10.018921,13.619995,-28.799438,1,0.0,0.0,0.0,0.0
1.519035459,0.19793215,-0.85432285,-0.4805779,0.29054385,0.51937896,-0.80363524,0.9361662,0.019436305,0.35102016,0.21549805,-0.83169395,-0.51170856,0.28498814,0.5547734,-0.78167015,0.9339927,0.02261751,0.3565755,9.334396,0.17347717,3.399002,9.180655,0.19060504,3.4423318,-0.047073364,0.018798828,0.019927979,-10.139465,13.919067,-28.919983,1,0.0,0.0,0.0,0.0
1.527336241,0.1976795,-0.8544082,-0.48053035,0.2908101,0.51925063,-0.803622,0.93613696,0.019116513,0.35111573,0.21480489,-0.83261836,-0.51049536,0.28522658,0.55339026,-0.78256315,0.9340796,0.02249154,0.35635582,9.364319,0.16870117,3.4695892,9.180367,0.18746896,3.4432693,-0.049972534,0.036209106,0.016723633,-10.139465,13.919067,-28.919983,1,0.0,0.0,0.0,0.0
1.535637022,0.20085752,-0.8484571,-0.48967016,0.28890935,0.5289299,-0.7979753,0.936049,0.018809058,0.3513667,0.21412934,-0.83350754,-0.5093268,0.28546503,0.5520555,-0.7834185,0.93416184,0.022357894,0.35614854,9.402603,0.15792847,3.513855,9.179504,0.18445385,3.44573,-0.04598999,0.04324341,0.013366699,-10.079956,14.338684,-28.979492,1,0.0,0.0,0.0,0.0
1.543937803,0.20079322,-0.8484789,-0.4896586,0.28930527,0.5289042,-0.7978488,0.93594044,0.018541835,0.35166982,0.21386443,-0.8338129,-0.5089382,0.285539,0.5515971,-0.7837143,0.9341999,0.022286918,0.3560531,9.402603,0.15792847,3.513855,9.178441,0.18183331,3.448703,-0.021408081,0.035598755,0.008026123,-10.079956,14.338684,-28.979492,1,0.0,0.0,0.0,0.0
1.552238584,0.1916323,-0.8646711,-0.46434996,0.2956853,0.5019995,-0.81275254,0.93586713,0.018448208,0.35186985,0.21334818,-0.83440554,-0.50818294,0.2856977,0.55070615,-0.7842828,0.9342694,0.02213862,0.3558799,9.443268,0.2368927,3.505478,9.177721,0.1809151,3.4506643,-0.011947632,0.0099487305,0.0045166016,-10.618591,13.499451,-29.519653,1,0.0,0.0,0.0,0.0
1.560539366,0.19173935,-0.86463547,-0.46437222,0.29573065,0.5020591,-0.81269914,0.9358308,0.018497307,0.35196367,0.212498,-0.83565706,-0.5064799,0.28612238,0.5488111,-0.7854555,0.93433326,0.021992484,0.3557214,9.541382,0.29910278,3.5569305,9.177365,0.18139662,3.4515846,-0.0053863525,-0.0135650635,-0.009689331,-10.618591,13.499451,-29.519653,1,0.0,0.0,0.0,0.0
1.568840147,0.19216491,-0.86407834,-0.46523243,0.29538646,0.50301135,-0.8122355,0.9358523,0.018659802,0.3518982,0.21208745,-0.83626175,-0.50565326,0.28632823,0.54789203,-0.78602195,0.9343635,0.021922583,0.35564634,9.541382,0.29910278,3.5569305,9.177576,0.18299015,3.4509425,-0.0078125,-0.020446777,-0.015197754,-10.618591,13.499451,-29.458618,1,0.0,0.0,0.0,0.0
1.577140928,0.1923481,-0.86401725,-0.46527046,0.29520443,0.50310814,-0.8122418,0.9358721,0.018883266,0.35183355,0.2113064,-0.83740824,-0.5040803,0.2867114,0.5461432,-0.7870985,0.93442285,0.021793382,0.35549808,9.504288,0.29193115,3.6442719,9.17777,0.18518157,3.4503083,-0.017440796,-0.026855469,-0.01977539,-10.618591,13.499451,-29.458618,1,0.0,0.0,0.0,0.0
1.585441709,0.19034883,-0.8675936,-0.45940042,0.29644153,0.49690846,-0.8156007,0.93588984,0.019063298,0.3517767,0.21056259,-0.8385033,-0.502569,0.28707004,0.5444651,-0.7881298,0.93448067,0.021678142,0.35535315,9.394226,0.18664551,3.6334991,9.177944,0.18694709,3.449751,-0.011795044,-0.043502808,-0.019317627,-10.679626,13.319397,-29.579163,1,0.0,0.0,0.0,0.0
1.593742491,0.19034107,-0.86759627,-0.4593987,0.29624808,0.49690014,-0.81567615,0.93595266,0.019160675,0.35160416,0.21016267,-0.83911103,-0.5017214,0.28727067,0.54353017,-0.78870183,0.93450904,0.021625848,0.3552817,9.394226,0.18664551,3.6334991,9.17856,0.18790203,3.448059,-0.011795044,-0.055862427,-0.020080566,-10.679626,13.319397,-29.579163,1,0.0,0.0,0.0,0.0
1.602043272,0.18968177,-0.8685374,-0.45789027,0.29629987,0.49525023,-0.81666,0.9360701,0.019232688,0.35128748,0.20938547,-0.8402873,-0.500075,0.2876508,0.5417137,-0.7898122,0.9345667,0.021528231,0.3551363,9.315262,0.14356995,3.5461578,9.179712,0.18860826,3.4449537,-0.006454468,-0.03968811,-0.0234375,-10.559082,13.319397,-29.638672,1,0.0,0.0,0.0,0.0
1.610344053,0.18960749,-0.86856186,-0.45787483,0.29605097,0.49520436,-0.81677806,0.93616384,0.019312946,0.351033,0.20861226,-0.84145385,-0.49843386,0.2880176,0.5399035,-0.7909172,0.9346265,0.02143733,0.35498402,9.316452,0.12802124,3.4983063,9.180632,0.18939531,3.442458,-0.010269165,-0.012649536,-0.011520386,-10.559082,13.319397,-29.638672,1,0.0,0.0,0.0,0.0
1.618644834,0.18473886,-0.87643945,-0.44466338,0.2989313,0.48112434,-0.82411134,0.936222,0.019321578,0.3508775,0.20823532,-0.84201884,-0.49763677,0.28818995,0.53902376,-0.7914544,0.9346575,0.021394845,0.35490513,9.316452,0.12802124,3.4983063,9.181202,0.18947996,3.440933,-0.011795044,-0.0033416748,-0.011062622,-10.438538,12.95929,-29.87976,1,0.0,0.0,0.0,0.0
1.626945616,0.18464294,-0.87646985,-0.4446431,0.29882243,0.48106927,-0.8241829,0.9362757,0.019310223,0.35073495,0.20731603,-0.8434557,-0.4955831,0.28865018,0.5367758,-0.79281324,0.9347198,0.021312747,0.35474586,9.340378,0.14715576,3.402588,9.181728,0.1893686,3.439535,-0.014541626,0.012542725,-0.0090789795,-10.438538,12.95929,-29.87976,1,0.0,0.0,0.0,0.0
1.635246397,0.1874289,-0.8717502,-0.4526832,0.2970208,0.4895743,-0.8198144,0.93629533,0.019200563,0.3506883,0.20642808,-0.8448313,-0.49360663,0.28908533,0.5346112,-0.7941162,0.93478185,0.021233449,0.3545871,9.341583,0.117248535,3.328415,9.181921,0.18829322,3.4390776,-0.021102905,0.017730713,-0.0035858154,-10.018921,13.018799,-29.219055,1,0.0,0.0,0.0,0.0
1.643547178,0.18726858,-0.8718013,-0.452651,0.29702058,0.48948756,-0.81986624,0.9363275,0.019088533,0.3506086,0.2060512,-0.84539276,-0.4928022,0.28925574,0.5337246,-0.7946503,0.9348123,0.021192793,0.3545093,9.341583,0.117248535,3.328415,9.182237,0.18719457,3.4382958,-0.023849487,0.029037476,6.866455E-4,-10.018921,13.018799,-29.219055,1,0.0,0.0,0.0,0.0
1.651847959,0.18603447,-0.87361395,-0.44965512,0.29771557,0.4862498,-0.8215391,0.93635285,0.018965267,0.35054773,0.20531309,-0.84648174,-0.49123847,0.28958526,0.5319992,-0.79568666,0.93487275,0.021109466,0.354355,9.385849,0.13998413,3.3009033,9.182485,0.18598573,3.437699,-0.022781372,0.03239441,0.0012969971,-9.779358,13.018799,-29.3396,1,0.0,0.0,0.0,0.0
1.660148741,0.18599057,-0.8736278,-0.44964665,0.2978185,0.48622847,-0.82151455,0.9363288,0.018880852,0.3506164,0.20455593,-0.84760225,-0.48961958,0.28993034,0.5302155,-0.7967509,0.93493176,0.021024557,0.35420433,9.385849,0.18066406,3.3690948,9.182249,0.18515791,3.4383724,-0.02293396,0.01574707,-0.0023651123,-9.779358,13.018799,-29.3396,1,0.0,0.0,0.0,0.0
1.668449522,0.18256158,-0.879059,-0.4403709,0.29994175,0.4763419,-0.8265188,0.9363259,0.018804934,0.35062823,0.2041877,-0.84814465,-0.48883328,0.29009914,0.529349,-0.7972654,0.9349598,0.020981682,0.35413262,9.385849,0.18066406,3.3690948,9.18222,0.18441342,3.4384885,-0.020339966,0.0078125,0.0012969971,-9.959412,12.719727,-29.519653,1,0.0,0.0,0.0,0.0
1.676750303,0.1826399,-0.8790347,-0.4403869,0.29995888,0.47638485,-0.82648766,0.93630505,0.018851675,0.3506812,0.20334083,-0.8494305,-0.48695007,0.29051808,0.52728665,-0.79847854,0.9350143,0.020895485,0.35399383,9.43251,0.25842285,3.517456,9.182016,0.1848718,3.4390078,-0.006454468,-0.010360718,-9.918213E-4,-9.959412,12.719727,-29.519653,1,0.0,0.0,0.0,0.0
1.685051084,0.19057095,-0.8661548,-0.46201572,0.2950385,0.49941742,-0.81457627,0.9362879,0.018922148,0.35072348,0.20252982,-0.8506596,-0.48513904,0.29091874,0.5253046,-0.7996383,0.93506575,0.020814551,0.35386267,9.43251,0.26200867,3.6083832,9.181848,0.1855629,3.4394224,0.0011901855,-0.007003784,-0.0063323975,-9.719849,13.319397,-28.979492,1,0.0,0.0,0.0,0.0
1.693351866,0.19071653,-0.86610824,-0.46204317,0.29498369,0.4994934,-0.81454957,0.9362755,0.01905289,0.35074937,0.20229141,-0.8509771,-0.48468134,0.29100558,0.52479154,-0.7999434,0.93509024,0.020776704,0.35379997,9.43251,0.26200867,3.6083832,9.181726,0.18684502,3.4396765,0.008666992,-0.0036468506,-0.018249512,-9.719849,13.319397,-28.979492,1,0.0,0.0,0.0,0.0
1.701652647,0.18870658,-0.8698173,-0.45585927,0.2963487,0.49299753,-0.8180043,0.93625176,0.0192695,0.35080108,0.2020606,-0.851287,-0.4842333,0.29108927,0.5242901,-0.8002418,0.9351142,0.020742228,0.35373887,9.402603,0.22372437,3.554535,9.181494,0.18896924,3.4401834,0.013092041,-0.0021209717,-0.019012451,-9.899902,13.259888,-29.399109,1,0.0,0.0,0.0,0.0
1.709953428,0.1889693,-0.8697337,-0.45591,0.2962552,0.49313587,-0.8179547,0.93622833,0.019502634,0.35085064,0.20153427,-0.85204244,-0.48312268,0.2913086,0.52306384,-0.800964,0.93515944,0.020683909,0.35362262,9.402603,0.22372437,3.554535,9.181264,0.19125551,3.4406695,0.033706665,0.0053710938,-0.016418457,-9.899902,13.259888,-29.399109,1,0.0,0.0,0.0,0.0
1.718254209,0.18966363,-0.86888313,-0.4572413,0.29588675,0.49462494,-0.8171885,0.93620443,0.019699318,0.35090345,0.20103888,-0.8527627,-0.48205712,0.29151428,0.52189064,-0.8016543,0.935202,0.02063713,0.35351282,9.43251,0.18664551,3.5413818,9.181029,0.19318432,3.4411874,0.03265381,0.0032348633,-0.012435913,-9.838867,13.259888,-29.278564,1,0.0,0.0,0.0,0.0
1.726554991,0.18985337,-0.8688227,-0.45727766,0.29578263,0.49472383,-0.81716645,0.9361989,0.019887008,0.35090762,0.20081222,-0.8530935,-0.48156598,0.29160592,0.5213504,-0.8019724,0.9352221,0.020618375,0.35346067,9.43251,0.18664551,3.5413818,9.180975,0.19502494,3.4412284,0.036621094,-0.0131073,-0.012435913,-9.838867,13.259888,-29.278564,1,0.0,0.0,0.0,0.0
1.734855772,0.18990251,-0.8688069,-0.45728707,0.2955408,0.49474487,-0.81724113,0.9362653,0.02004917,0.35072124,0.20037977,-0.85373205,-0.48061362,0.29177898,0.5203053,-0.8025879,0.9352609,0.020589413,0.35335976,9.408585,0.098098755,3.488739,9.181626,0.19661519,3.4394004,0.037078857,-0.026397705,-0.007247925,-9.838867,13.259888,-29.278564,1,0.0,0.0,0.0,0.0
1.743156553,0.18919761,-0.8698421,-0.4556082,0.2958219,0.49292326,-0.8182395,0.9363192,0.020030089,0.3505783,0.19996595,-0.8543435,-0.47969863,0.29193506,0.5193016,-0.803181,0.93530077,0.020568019,0.35325545,9.369095,0.06700134,3.5186462,9.182155,0.19642808,3.4379988,0.018447876,-0.0015106201,0.0011444092,-9.719849,13.378906,-29.579163,1,0.0,0.0,0.0,0.0
1.751457334,0.1895944,-0.86902285,-0.45700464,0.29551312,0.49437004,-0.8174779,0.9363364,0.019938372,0.35053748,0.19975117,-0.8546614,-0.47922173,0.29201654,0.5187788,-0.80348927,0.9353213,0.020557262,0.3532019,9.359528,0.08015442,3.4911346,9.182323,0.19552864,3.4375985,0.01890564,0.006439209,0.002822876,-9.838867,13.439941,-29.638672,1,0.0,0.0,0.0,0.0
1.759758116,0.18946326,-0.8690644,-0.45697993,0.29562867,0.49430305,-0.8174766,0.93632644,0.019785406,0.35057265,0.19934997,-0.8552431,-0.4783501,0.29216158,0.51782006,-0.80405474,0.93536156,0.020532755,0.3530966,9.428925,0.124420166,3.4564362,9.182226,0.19402856,3.4379435,-0.0012512207,0.011932373,0.0046539307,-9.838867,13.439941,-29.638672,1,0.0,0.0,0.0,0.0
1.768058897,0.18937683,-0.8690425,-0.45705748,0.29574555,0.49434805,-0.8174073,0.93630713,0.019625284,0.3506335,0.19895941,-0.8558026,-0.4775113,0.29230508,0.51689607,-0.8045969,0.93539983,0.020503161,0.35299677,9.428925,0.124420166,3.5234375,9.182036,0.19245829,3.4385402,-0.0110321045,0.0073547363,0.014587402,-9.899902,13.619995,-29.99878,1,0.0,0.0,0.0,0.0
1.776359678,0.18918318,-0.8691037,-0.4570214,0.29591402,0.49424934,-0.81740594,0.936293,0.01940042,0.3506836,0.19876827,-0.85607314,-0.47710577,0.29237682,0.5164485,-0.80485815,0.93541807,0.020485604,0.35294953,9.487549,0.21655273,3.5617218,9.181898,0.19025314,3.4390314,-0.016220093,0.009185791,0.014282227,-9.899902,13.619995,-29.99878,1,0.0,0.0,0.0,0.0
1.784660459,0.18910235,-0.86912924,-0.45700628,0.29605234,0.49420953,-0.8173799,0.9362656,0.019270707,0.3507639,0.1983898,-0.8566,-0.47631705,0.29252258,0.51557595,-0.8053645,0.9354529,0.020442627,0.35285982,9.487549,0.21655273,3.5617218,9.181629,0.18898109,3.4398186,-0.02859497,0.009490967,0.011688232,-9.899902,13.619995,-29.99878,1,0.0,0.0,0.0,0.0
1.792961241,0.18704304,-0.87257653,-0.45124838,0.29748458,0.48809862,-0.8205259,0.93622535,0.019234233,0.3508735,0.1980232,-0.85710615,-0.47555846,0.29266763,0.5147359,-0.80584896,0.9354851,0.020396221,0.35277689,9.458832,0.26919556,3.5784607,9.181234,0.1886234,3.4408937,-0.016677856,-0.0010528564,0.0019073486,-10.079956,13.259888,-29.818726,1,0.0,0.0,0.0,0.0
1.801262022,0.18830289,-0.8705865,-0.45455608,0.296782,0.49163863,-0.8186648,0.93619573,0.019252876,0.35095134,0.19780472,-0.85742366,-0.47507685,0.29276785,0.5142078,-0.8061497,0.9355,0.020372981,0.3527388,9.419342,0.25602722,3.5820618,9.1809435,0.1888062,3.4416568,-0.016677856,0.0058288574,-3.8146973E-4,-9.838867,13.378906,-29.699707,1,0.0,0.0,0.0,0.0
1.809562803,0.18842089,-0.8705493,-0.45457843,0.29683828,0.49170238,-0.818606,0.9361541,0.019306187,0.35105935,0.19743003,-0.85795605,-0.47427082,0.29293242,0.51332074,-0.8066551,0.9355277,0.020328626,0.35266808,9.355942,0.19979858,3.5617218,9.180536,0.18932903,3.4427164,-0.009506226,0.012542725,-0.007247925,-9.838867,13.378906,-29.699707,1,0.0,0.0,0.0,0.0
1.817863584,0.18699414,-0.8728811,-0.45067912,0.2977955,0.48755246,-0.82073766,0.93613625,0.01926293,0.35110953,0.19707467,-0.8584651,-0.47349685,0.29309213,0.5124706,-0.8071374,0.93555254,0.020288138,0.35260433,9.367905,0.16989136,3.4863434,9.180361,0.18890482,3.4432085,-0.013473511,0.0056762695,8.392334E-4,-9.719849,13.499451,-30.178833,1,0.0,0.0,0.0,0.0
1.826164366,0.18695515,-0.8728932,-0.450672,0.2978438,0.48753303,-0.82073176,0.9361287,0.01921016,0.35113263,0.1968742,-0.8587604,-0.4730445,0.2931895,0.51197636,-0.8074157,0.9355642,0.020267634,0.3525745,9.387039,0.114852905,3.4648132,9.180286,0.18838732,3.443435,-0.007675171,-0.0019683838,-0.0025177002,-9.719849,13.499451,-30.178833,1,0.0,0.0,0.0,0.0
1.834465147,0.18679017,-0.8729442,-0.45064166,0.2978601,0.48744664,-0.8207772,0.9361564,0.019084949,0.35106546,0.19648355,-0.85933316,-0.47216603,0.29337993,0.51101613,-0.80795467,0.93558663,0.020225758,0.35251737,9.387039,0.112457275,3.5210419,9.180558,0.18715942,3.4427762,-0.01499939,-0.0037994385,-6.866455E-4,-9.719849,13.499451,-30.178833,1,0.0,0.0,0.0,0.0
1.842765928,0.19147877,-0.86488366,-0.4640173,0.29479524,0.50161475,-0.8133131,0.9361792,0.01894213,0.3510122,0.19610164,-0.85988426,-0.4713206,0.29356313,0.51008993,-0.8084732,0.9356093,0.02018058,0.3524598,9.430115,0.112457275,3.5210419,9.180782,0.18575886,3.4422538,-0.018966675,-9.0026855E-4,-6.866455E-4,-9.47876,13.739014,-29.519653,1,0.0,0.0,0.0,0.0
1.851066709,0.18841352,-0.8697754,-0.4560604,0.2966986,0.4930905,-0.8178214,0.93619996,0.018776126,0.35096607,0.19600926,-0.8599852,-0.4711751,0.29358837,0.50992095,-0.8085707,0.9356208,0.020155812,0.35243085,9.444473,0.12802124,3.493515,9.180985,0.1841309,3.4418013,-0.018203735,-0.0024261475,0.0025177002,-9.899902,13.679504,-30.178833,1,0.0,0.0,0.0,0.0
1.859367491,0.18825081,-0.8698265,-0.4560302,0.2967323,0.49300534,-0.81786036,0.9362219,0.018643996,0.35091427,0.19570945,-0.86037904,-0.47058016,0.29371503,0.5092581,-0.80894226,0.9356438,0.020101178,0.35237288,9.444473,0.12802124,3.493515,9.181201,0.18283515,3.4412935,-0.018051147,0.0070495605,-0.0061798096,-9.899902,13.679504,-30.178833,1,0.0,0.0,0.0,0.0
1.867668272,0.188179,-0.86984897,-0.45601684,0.29671586,0.49296722,-0.81788933,0.9362416,0.018602144,0.35086408,0.19556077,-0.860571,-0.47029087,0.29377717,0.5089348,-0.80912316,0.93565536,0.020072035,0.3523438,9.443268,0.12921143,3.5581207,9.181395,0.18242474,3.4408016,-0.013015747,0.0014038086,-0.010604858,-9.899902,13.679504,-30.178833,1,0.0,0.0,0.0,0.0
1.875969053,0.184781,-0.8753644,-0.44675845,0.29886723,0.4831077,-0.8229734,0.93623406,0.018548373,0.35088688,0.19526929,-0.8609441,-0.46972886,0.29389673,0.5083058,-0.80947506,0.93567866,0.02001383,0.35228518,9.443268,0.12921143,3.5581207,9.18132,0.18189742,3.441025,-0.0038452148,-0.0065460205,-0.005874634,-10.438538,13.198853,-30.178833,1,0.0,0.0,0.0,0.0
1.884269834,0.18480991,-0.87535524,-0.44676444,0.29894271,0.48312506,-0.8229358,0.9362043,0.018529737,0.35096738,0.19485638,-0.86152905,-0.4688269,0.2941003,0.50731593,-0.81002194,0.9357008,0.019955799,0.3522297,9.383453,0.11843872,3.5988007,9.181028,0.18171465,3.4418142,0.0066833496,-0.008529663,-7.6293945E-5,-10.438538,13.198853,-30.178833,1,0.0,0.0,0.0,0.0
1.892570616,0.18589585,-0.8735143,-0.44990632,0.2982843,0.48644853,-0.8212153,0.93619937,0.018460501,0.35098428,0.19465666,-0.86181223,-0.46838927,0.2942004,0.5068359,-0.81028605,0.93571097,0.019927278,0.35220447,9.383453,0.11843872,3.5988007,9.18098,0.18103568,3.4419801,0.0066833496,-0.015853882,-0.0020599365,-10.438538,13.198853,-29.93927,1,0.0,0.0,0.0,0.0
1.900871397,0.1794899,-0.8835975,-0.4324799,0.3021736,0.4678861,-0.8305262,0.93620217,0.018387066,0.35098067,0.19431145,-0.8622848,-0.46766233,0.2943669,0.50603384,-0.81072676,0.9357303,0.019869195,0.35215625,9.379868,0.10887146,3.5365906,9.181007,0.18031552,3.4419446,-0.0020141602,-0.012954712,0.002670288,-10.679626,12.719727,-30.419922,1,0.0,0.0,0.0,0.0
1.909172178,0.17933978,-0.8836443,-0.4324467,0.302186,0.46780223,-0.8305689,0.9362269,0.0182747,0.35092044,0.19373082,-0.86316043,-0.46628588,0.2946898,0.5045411,-0.8115395,0.9357491,0.019810505,0.3521097,9.34996,0.07058716,3.497116,9.18125,0.1792136,3.441354,0.004699707,-0.007461548,0.004348755,-10.679626,12.719727,-30.419922,1,0.0,0.0,0.0,0.0
1.917472959,0.17912573,-0.8837108,-0.4323994,0.30223614,0.46768332,-0.8306176,0.9362517,0.018098267,0.35086346,0.19344601,-0.8635852,-0.46561712,0.2948464,0.5038149,-0.81193364,0.93575865,0.01977979,0.35208592,9.375076,0.086135864,3.4947205,9.181493,0.17748338,3.4407952,0.0024108887,-0.0013580322,0.0031280518,-10.679626,12.719727,-30.419922,1,0.0,0.0,0.0,0.0
1.925773741,0.17511901,-0.88957596,-0.4218861,0.3045337,0.45643538,-0.8360179,0.93626523,0.017924102,0.3508364,0.19288462,-0.8644105,-0.46431664,0.2951519,0.50240004,-0.8126989,0.93577826,0.019713202,0.35203764,9.379868,0.13998413,3.5078735,9.181625,0.1757754,3.4405298,-0.0024719238,0.0067443848,0.011383057,-10.919189,12.419128,-30.718994,1,0.0,0.0,0.0,0.0
1.934074522,0.17502795,-0.8896039,-0.42186505,0.30464628,0.4563857,-0.8360041,0.9362457,0.017804466,0.35089478,0.19219045,-0.8654527,-0.4626602,0.2955431,0.5006054,-0.81366366,0.9357976,0.019642359,0.35199016,9.436096,0.13400269,3.5413818,9.181434,0.17460217,3.4411023,-4.8828125E-4,0.024307251,0.002670288,-10.919189,12.419128,-30.718994,1,0.0,0.0,0.0,0.0
1.942375303,0.17087655,-0.89568806,-0.41054133,0.30718228,0.444331,-0.8415516,0.9361839,0.017690413,0.35106522,0.19185169,-0.8659575,-0.46185553,0.29573458,0.49973312,-0.8141301,0.9358066,0.019605601,0.3519682,9.436096,0.13400269,3.5413818,9.180828,0.17348368,3.4427738,-1.8310547E-4,0.03086853,0.006958008,-11.459351,12.059021,-31.079102,1,0.0,0.0,0.0,0.0
1.950676084,0.16388501,-0.90554535,-0.39131737,0.31124094,0.42388424,-0.8505594,0.9360934,0.017599935,0.3513111,0.19103509,-0.86720073,-0.459857,0.29621515,0.49757555,-0.81527615,0.93582165,0.01952976,0.35193238,9.436096,0.13400269,3.5413818,9.17994,0.17259641,3.445185,0.006378174,0.033309937,0.001449585,-11.698914,11.338806,-31.13861,1,0.0,0.0,0.0,0.0
1.958976866,0.16408229,-0.9054868,-0.3913702,0.3115799,0.4240098,-0.8503727,0.93594605,0.017588008,0.351704,0.18998466,-0.868835,-0.4571997,0.29685566,0.49471942,-0.8167799,0.9358325,0.01945334,0.3519077,9.461227,0.20936584,3.6514435,9.178495,0.17247945,3.4490383,0.0042419434,0.031784058,0.00970459,-11.698914,11.338806,-31.13861,1,0.0,0.0,0.0,0.0
1.967277647,0.16428317,-0.90542716,-0.39142394,0.31187636,0.42413676,-0.85020065,0.93581206,0.017597781,0.35205984,0.18947889,-0.8696228,-0.45590988,0.2971714,0.49333468,-0.8175023,0.9358348,0.019416032,0.35190356,9.461227,0.20936584,3.6514435,9.177181,0.1725753,3.4525278,0.010040283,0.028579712,0.005569458,-11.698914,11.338806,-31.13861,1,0.0,0.0,0.0,0.0
1.975578428,0.16080616,-0.91032714,-0.38137376,0.3142354,0.4135162,-0.8545528,0.93562675,0.017576229,0.35255292,0.1885048,-0.8711427,-0.4534053,0.29779303,0.49064878,-0.81889135,0.935834,0.01934403,0.35190988,9.456436,0.19142151,3.7495575,9.1753645,0.17236394,3.4573631,0.0135650635,0.047973633,0.01626587,-11.819458,11.158752,-31.619263,1,0.0,0.0,0.0,0.0
1.983879209,0.16110565,-0.91024005,-0.381455,0.31469283,0.41370708,-0.8542919,0.93542147,0.017590104,0.3530966,0.18743779,-0.87282056,-0.45061216,0.29849133,0.48766047,-0.82042074,0.9358258,0.019274026,0.35193536,9.410965,0.21655273,3.7220306,9.173351,0.1725,3.462695,0.023483276,0.050872803,0.015655518,-11.819458,11.158752,-31.619263,1,0.0,0.0,0.0,0.0
1.992179991,0.16386157,-0.9069177,-0.38813615,0.31393424,0.42093995,-0.85103154,0.9351976,0.017602144,0.35368842,0.18692607,-0.8736286,-0.44925678,0.2988373,0.4862127,-0.8211537,0.9358178,0.01924035,0.35195866,9.406189,0.20100403,3.6514435,9.171156,0.17261806,3.4684987,0.023483276,0.053466797,0.0049591064,-11.51886,11.219788,-31.079102,1,0.0,0.0,0.0,0.0
2.000480772,0.16610116,-0.9042858,-0.3932908,0.3133276,0.4265606,-0.8484526,0.935006,0.0177001,0.3541899,0.18603724,-0.8750374,-0.44687775,0.29946792,0.48367536,-0.8224215,0.93579334,0.019175477,0.35202727,9.501892,0.19142151,3.4540405,9.169277,0.1735787,3.4734166,0.056167603,0.044921875,-0.011672974,-11.099243,11.399841,-30.899048,1,0.0,0.0,0.0,0.0
2.008781553,0.16642871,-0.9041897,-0.39337304,0.3133711,0.42675507,-0.8483387,0.9349332,0.017916184,0.35437125,0.18526806,-0.876265,-0.4447869,0.30004126,0.48145008,-0.8235175,0.9357622,0.019117052,0.35211298,9.501892,0.19142151,3.4540405,9.168563,0.17569774,3.475195,0.056777954,0.020187378,-0.01687622,-11.099243,11.399841,-30.899048,1,0.0,0.0,0.0,0.0
2.017082334,0.1667821,-0.90408605,-0.39346173,0.31324923,0.42696157,-0.84827983,0.934911,0.018226324,0.3544138,0.18490095,-0.87685627,-0.44377333,0.30031916,0.4803734,-0.8240448,0.9357457,0.019093035,0.35215825,9.463608,0.13998413,3.4133606,9.168345,0.17873918,3.4756122,0.068222046,0.009033203,-0.025878906,-11.099243,11.399841,-30.899048,1,0.0,0.0,0.0,0.0
2.025383116,0.1653955,-0.906216,-0.3891232,0.31381828,0.42240882,-0.8503464,0.93496656,0.018529482,0.35425165,0.18420118,-0.87799513,-0.44180822,0.3008515,0.47829002,-0.82506186,0.93571275,0.019058712,0.35224771,9.463608,0.13998413,3.4133606,9.16889,0.18171215,3.474022,0.06852722,-0.008224487,-0.02420044,-11.039734,11.459351,-31.3797,1,0.0,0.0,0.0,0.0
2.033683897,0.16545367,-0.9061992,-0.38913757,0.3134635,0.42243588,-0.8504636,0.93507516,0.018731903,0.35395396,0.18383437,-0.8785937,-0.44076988,0.30112204,0.47719002,-0.82559997,0.93569785,0.019048126,0.35228783,9.421738,0.06939697,3.348755,9.169955,0.18369722,3.4711027,0.07066345,-0.0027313232,-0.012130737,-11.039734,11.459351,-31.3797,1,0.0,0.0,0.0,0.0
2.041984678,0.16917722,-0.9010684,-0.39931807,0.3110825,0.43326586,-0.84587735,0.93520415,0.018882304,0.3536053,0.18312305,-0.8797504,-0.43875414,0.30163157,0.47505462,-0.8266447,0.9356732,0.019035606,0.35235393,9.2973175,0.11126709,3.2362976,9.17122,0.18517216,3.4676836,0.041503906,0.015899658,0.004196167,-10.798645,11.639404,-30.839539,1,0.0,0.0,0.0,0.0
2.050285459,0.1698435,-0.90000963,-0.40141734,0.31063235,0.435464,-0.8449135,0.935233,0.018809848,0.35353282,0.18258041,-0.8806317,-0.4372096,0.30201778,0.4734192,-0.8274415,0.93565464,0.019029535,0.3524035,9.243469,0.062210083,3.348755,9.171503,0.1844616,3.4669726,0.016159058,0.029342651,0.015350342,-10.499573,11.639404,-30.53894,1,0.0,0.0,0.0,0.0
2.058586241,0.16970214,-0.90005094,-0.4013845,0.31084487,0.43538728,-0.8448749,0.9351881,0.018608768,0.35366237,0.18232973,-0.88103503,-0.43650094,0.30219522,0.4726682,-0.827806,0.93564624,0.019025143,0.35242605,9.270996,0.0657959,3.4217377,9.171062,0.18248968,3.4682431,0.00881958,0.046905518,0.020690918,-10.499573,11.639404,-30.53894,1,0.0,0.0,0.0,0.0
2.066887022,0.16975518,-0.90003544,-0.4013968,0.31131652,0.43542698,-0.84468067,0.9350215,0.018427458,0.35411188,0.18208122,-0.8814306,-0.43580544,0.30237326,0.4719304,-0.8281618,0.9356371,0.019016815,0.35245076,9.312866,0.13998413,3.5533447,9.169429,0.18071163,3.4726512,0.010040283,0.06248474,0.023742676,-10.499573,11.639404,-30.53894,1,0.0,0.0,0.0,0.0
2.075187803,0.17175345,-0.8974113,-0.4063911,0.31098783,0.440818,-0.84200126,0.93476593,0.018233933,0.354796,0.18136868,-0.88256603,-0.43380025,0.30291304,0.46980518,-0.8291724,0.93560094,0.018982153,0.3525487,9.242279,0.19979858,3.5928192,9.166923,0.1788138,3.4793603,0.00881958,0.12295532,0.028793335,-10.139465,11.698914,-30.119324,1,0.0,0.0,0.0,0.0
2.083488584,0.17215097,-0.897295,-0.40647978,0.31187677,0.44106022,-0.8415455,0.93439656,0.018101286,0.3557744,0.1811797,-0.88287216,-0.4332559,0.30307746,0.46923023,-0.8294378,0.9355843,0.018967189,0.35259363,9.242279,0.19979858,3.5928192,9.1633005,0.17751299,3.488955,0.0031738281,0.1357727,0.024520874,-10.139465,11.698914,-30.119324,1,0.0,0.0,0.0,0.0
2.091789366,0.17547998,-0.8929981,-0.41444075,0.3111288,0.44970134,-0.837238,0.93402654,0.017974045,0.35675102,0.18082952,-0.88346016,-0.43220234,0.30343103,0.4681236,-0.8299337,0.93553746,0.018932901,0.35271978,9.454041,0.24526978,3.600006,9.159672,0.17626517,3.4985325,-0.00920105,0.114852905,0.017791748,-10.258484,11.878967,-29.93927,1,0.0,0.0,0.0,0.0
2.100090147,0.1748361,-0.89439577,-0.41168994,0.3125154,0.44691855,-0.8382111,0.93368435,0.017890112,0.35764992,0.18062231,-0.88384515,-0.43150127,0.30373776,0.46739784,-0.83023053,0.935478,0.018894931,0.3528796,9.454041,0.24526978,3.600006,9.156316,0.17544207,3.5073478,-0.023239136,0.09347534,0.0049591064,-10.198975,11.759949,-29.87976,1,0.0,0.0,0.0,0.0
2.108390928,0.17526323,-0.89426816,-0.4117855,0.31314412,0.44717368,-0.8378404,0.9333936,0.01789439,0.3584079,0.18050967,-0.88406074,-0.43110657,0.30391437,0.46699074,-0.8303949,0.93544227,0.018874835,0.3529751,9.446869,0.275177,3.6227264,9.153464,0.17548402,3.514781,-0.02645874,0.07698059,0.0035858154,-10.198975,11.759949,-29.87976,1,0.0,0.0,0.0,0.0
2.116691709,0.17559564,-0.8941687,-0.41185984,0.31361514,0.44737205,-0.8375582,0.93317294,0.017906094,0.3589814,0.18030813,-0.8844733,-0.4303438,0.3042817,0.46621028,-0.83069885,0.93536174,0.018836012,0.35319057,9.440887,0.25602722,3.600006,9.1513,0.1755988,3.520405,-0.01927185,0.053009033,3.8146973E-4,-10.198975,11.759949,-29.87976,1,0.0,0.0,0.0,0.0
2.124992491,0.17243321,-0.89887774,-0.4028468,0.31577,0.4378319,-0.8417793,0.9330359,0.017943753,0.3593354,0.18012759,-0.88486487,-0.42961398,0.3046527,0.46546826,-0.83097893,0.93527573,0.018799186,0.35342017,9.445663,0.19502258,3.672989,9.149958,0.17596813,3.523877,-0.021713257,-5.950928E-4,0.002822876,-10.319519,11.51886,-30.119324,1,0.0,0.0,0.0,0.0
2.133293272,0.17245573,-0.8988711,-0.40285203,0.31592354,0.43784785,-0.8417134,0.93297976,0.017887853,0.35948393,0.17997882,-0.88515353,-0.42908138,0.30487686,0.46491984,-0.8312037,0.9352314,0.01878208,0.35353857,9.445663,0.19502258,3.672989,9.149406,0.17541993,3.5253332,-0.025375366,-0.015090942,0.0048217773,-10.319519,11.51886,-30.119324,1,0.0,0.0,0.0,0.0
2.141594053,0.16983582,-0.90218663,-0.3965036,0.31719562,0.43098247,-0.8447728,0.9330288,0.017703475,0.3593659,0.17969064,-0.8857124,-0.42804775,0.3053178,0.46385577,-0.8316363,0.935143,0.018746665,0.35377428,9.4002075,0.12921143,3.4839478,9.149887,0.17361179,3.5241756,-0.024307251,-0.03250122,0.013519287,-10.319519,11.399841,-30.358887,1,0.0,0.0,0.0,0.0
2.149894834,0.16643088,-0.90626895,-0.38855815,0.31852832,0.4223404,-0.84862727,0.9331883,0.017471,0.35896277,0.17931269,-0.8863877,-0.4268066,0.30579427,0.4625657,-0.83217967,0.93505985,0.018705355,0.35399616,9.396622,0.08015442,3.4492493,9.151452,0.171332,3.5202227,-0.04676819,-0.03892517,0.0019073486,-10.438538,11.099243,-30.358887,1,0.0,0.0,0.0,0.0
2.158195616,0.1658465,-0.9064359,-0.38841832,0.31826264,0.4219942,-0.8488991,0.933383,0.017167913,0.35847098,0.17906289,-0.8868029,-0.42604816,0.30605417,0.46177003,-0.83252585,0.93502265,0.01868067,0.3540956,9.396622,0.08015442,3.4492493,9.15336,0.16835971,3.5153995,-0.056381226,-0.05281067,0.0057373047,-10.438538,11.099243,-30.358887,1,0.0,0.0,0.0,0.0
2.166496397,0.16531582,-0.90658736,-0.3882912,0.31783885,0.4216767,-0.8492157,0.9336215,0.016974753,0.3578585,0.17855373,-0.88761383,-0.42457062,0.30654827,0.4602118,-0.83320665,0.93495816,0.018620763,0.35426903,9.4002075,0.14715576,3.4205475,9.1557,0.16646546,3.5093932,-0.050125122,-0.063812256,-0.0075531006,-10.438538,11.099243,-30.358887,1,0.0,0.0,0.0,0.0
2.174797178,0.16581888,-0.9053878,-0.39086708,0.3168278,0.42425203,-0.84831035,0.9338759,0.01682831,0.357201,0.1782954,-0.8880095,-0.4238512,0.30677962,0.45944923,-0.8335423,0.9349315,0.018587844,0.35434088,9.4002075,0.14715576,3.4205475,9.158195,0.16502935,3.5029454,-0.052871704,-0.046401978,-0.009841919,-10.499573,11.338806,-30.718994,1,0.0,0.0,0.0,0.0
2.183097959,0.1653836,-0.9055118,-0.39076412,0.31651488,0.42399403,-0.848556,0.93405914,0.01665459,0.35672966,0.17781124,-0.888724,-0.4225551,0.30718693,0.45806846,-0.8341519,0.93489003,0.018518168,0.35445413,9.298508,0.08255005,3.402588,9.159991,0.16332574,3.498323,-0.05470276,-0.013870239,-0.015655518,-10.499573,11.338806,-30.718994,1,0.0,0.0,0.0,0.0
2.191398741,0.16527687,-0.9053249,-0.39124227,0.3162179,0.4243987,-0.84846455,0.93417865,0.016513744,0.3564232,0.1773279,-0.8894135,-0.42130575,0.30756587,0.45673135,-0.83474535,0.9348572,0.01844437,0.35454443,9.266205,0.14356995,3.4755707,9.161163,0.16194451,3.4953177,-0.055160522,-0.0077667236,-0.026184082,-10.559082,11.399841,-30.839539,1,0.0,0.0,0.0,0.0
2.199699522,0.16519788,-0.90534735,-0.39122352,0.31614837,0.42435163,-0.84851396,0.9342162,0.016488025,0.35632607,0.17709082,-0.8897431,-0.420709,0.30774343,0.4560904,-0.83503026,0.9348438,0.01840576,0.354582,9.266205,0.14356995,3.4755707,9.161531,0.16169229,3.4943652,-0.055923462,0.015136719,-0.023132324,-10.559082,11.399841,-30.839539,1,0.0,0.0,0.0,0.0
2.208000303,0.16200075,-0.9098482,-0.38201043,0.31841987,0.41461462,-0.8524691,0.9340046,0.016460918,0.35688162,0.1766271,-0.8903824,-0.41954976,0.30808488,0.4548441,-0.835584,0.934819,0.018329822,0.35465115,9.175278,0.13519287,3.7244263,9.159456,0.16142647,3.499813,-0.026901245,0.109817505,-0.011978149,-10.85968,11.039734,-30.899048,1,0.0,0.0,0.0,0.0
2.216301084,0.16235216,-0.9097486,-0.38209835,0.31933814,0.414839,-0.85201615,0.93362993,0.016308088,0.35786748,0.17605913,-0.8911874,-0.41807672,0.30850723,0.45326778,-0.8362844,0.93478686,0.018255817,0.3547397,9.326019,0.09690857,3.6550293,9.155782,0.15992771,3.509481,-0.009506226,0.1737976,-0.012283325,-10.85968,11.039734,-30.899048,1,0.0,0.0,0.0,0.0
2.224601866,0.16229345,-0.9104477,-0.38045475,0.32074434,0.41330355,-0.8522343,0.93315804,0.016283352,0.3590974,0.17579108,-0.8915747,-0.41736326,0.30872974,0.45250717,-0.8366142,0.93476385,0.018216861,0.35480234,9.326019,0.09690857,3.6550293,9.1511545,0.15968513,3.5215425,0.0022583008,0.1737976,-0.012283325,-10.679626,11.158752,-31.259155,1,0.0,0.0,0.0,0.0
2.232902647,0.16302499,-0.91024303,-0.3806316,0.3217764,0.4137511,-0.8516279,0.9326751,0.016358377,0.3603465,0.17527047,-0.89235437,-0.41591334,0.30921662,0.45097068,-0.8372637,0.93470067,0.018140297,0.35497266,9.500702,0.16151428,3.6598206,9.146419,0.16042088,3.533792,0.006378174,0.12814331,-0.009231567,-10.679626,11.158752,-31.259155,1,0.0,0.0,0.0,0.0
2.241203428,0.15816896,-0.9168769,-0.36649606,0.32523066,0.39883223,-0.8574135,0.932313,0.016420443,0.36127937,0.17479979,-0.893092,-0.4145259,0.30972302,0.44951105,-0.8378612,0.93462116,0.018069733,0.3551856,9.549759,0.14237976,3.726822,9.142867,0.16102952,3.5429401,0.014007568,0.02154541,-0.009536743,-11.219788,10.679626,-31.559753,1,0.0,0.0,0.0,0.0
2.249504209,0.15842794,-0.916805,-0.36656383,0.3254981,0.39899424,-0.8572366,0.93217576,0.016494403,0.36163017,0.1744791,-0.8935954,-0.41357505,0.31004164,0.44851083,-0.83827937,0.93457544,0.018036747,0.35530755,9.549759,0.14237976,3.726822,9.141521,0.16175483,3.5463805,0.008666992,-0.023651123,-0.008926392,-11.219788,10.679626,-31.559753,1,0.0,0.0,0.0,0.0
2.257804991,0.16082102,-0.9139239,-0.37266555,0.32433322,0.40554714,-0.854599,0.93217194,0.016569672,0.36163643,0.17386635,-0.8945658,-0.41173097,0.31066924,0.44657448,-0.83908033,0.93448114,0.017975671,0.3555584,9.586838,0.14356995,3.846466,9.141484,0.16249298,3.546442,0.018600464,-0.039382935,-0.009994507,-10.85968,10.85968,-31.318665,1,0.0,0.0,0.0,0.0
2.266105772,0.16095456,-0.9138868,-0.37269893,0.32423994,0.4056251,-0.8545973,0.9321813,0.016707454,0.36160582,0.17336683,-0.8953678,-0.41019562,0.31122062,0.4449667,-0.83972996,0.93439054,0.017919991,0.35579938,9.657425,0.1651001,3.5844421,9.141577,0.16384417,3.546142,0.047454834,-0.04182434,-0.020843506,-10.85968,10.85968,-31.318665,1,0.0,0.0,0.0,0.0
2.274406553,0.16142641,-0.91329074,-0.37395397,0.3234134,0.406955,-0.8542783,0.9323869,0.016961344,0.36106375,0.1731266,-0.89575493,-0.40945122,0.3114857,0.44418788,-0.8400439,0.93434674,0.01789574,0.35591558,9.657425,0.1651001,3.5844421,9.143592,0.16633396,3.5408258,0.058914185,-0.082901,-0.029083252,-11.039734,10.798645,-31.13861,1,0.0,0.0,0.0,0.0
2.282707334,0.1613514,-0.9133119,-0.37393472,0.3224321,0.4068918,-0.8546793,0.9327397,0.01733514,0.36013362,0.17289944,-0.89612067,-0.40874633,0.31172845,0.44345033,-0.84034353,0.9343079,0.017877053,0.35601863,9.49472,0.17945862,3.448059,9.147052,0.16999964,3.5317044,0.05065918,-0.11604309,-0.032302856,-11.039734,10.798645,-31.13861,1,0.0,0.0,0.0,0.0
2.291008116,0.1611108,-0.91337967,-0.37387294,0.32137588,0.4067274,-0.8551552,0.9331457,0.017620994,0.35906634,0.1722368,-0.8971724,-0.40671375,0.31236953,0.44131973,-0.8412266,0.9342161,0.017845185,0.35626084,9.381058,0.11366272,3.4624176,9.151033,0.17280293,3.521238,0.020126343,-0.08366394,-0.030303955,-11.039734,10.798645,-31.13861,1,0.0,0.0,0.0,0.0
2.299308897,0.1608917,-0.91344136,-0.3738166,0.32048985,0.40657893,-0.85555816,0.9334881,0.017847767,0.3581638,0.17201865,-0.8975095,-0.40606183,0.31255347,0.440634,-0.8415176,0.9341948,0.017840704,0.35631698,9.381058,0.11366272,3.4624176,9.154391,0.1750268,3.5123873,0.012954712,-0.05189514,-0.028625488,-11.039734,10.798645,-31.13861,1,0.0,0.0,0.0,0.0
2.307609678,0.16318555,-0.9102168,-0.38062558,0.31867284,0.41374636,-0.85279626,0.93371195,0.017868988,0.3575788,0.17158495,-0.8981648,-0.40479457,0.3128752,0.43929687,-0.842097,0.93416685,0.017840983,0.35639027,9.274582,0.011962891,3.4217377,9.156587,0.17523491,3.5066504,-0.006591797,-0.02670288,-0.024810791,-10.85968,10.798645,-30.479431,1,0.0,0.0,0.0,0.0
2.315910459,0.16284572,-0.9103139,-0.38053888,0.31827137,0.41353562,-0.8530484,0.9339082,0.017800648,0.35706934,0.17125599,-0.8986557,-0.40384302,0.31310898,0.4382915,-0.8425338,0.93414885,0.017842093,0.35643727,9.233902,0.08973694,3.3403778,9.158511,0.17456472,3.5016541,-0.008285522,-0.04701233,-0.0034332275,-10.85968,10.798645,-30.479431,1,0.0,0.0,0.0,0.0
2.324211241,0.1633264,-0.90933484,-0.38266775,0.31743494,0.41568694,-0.8523141,0.9341089,0.017733268,0.35654733,0.17108935,-0.8988956,-0.4033797,0.31321448,0.43779954,-0.84275043,0.9341441,0.017841265,0.35644996,9.233902,0.08973694,3.3403778,9.16048,0.17390396,3.4965348,-0.026763916,-0.053726196,0.013061523,-10.618591,10.919189,-30.479431,1,0.0,0.0,0.0,0.0
2.332512022,0.16291586,-0.9094511,-0.38256636,0.3170337,0.41543758,-0.852585,0.9343169,0.017613165,0.35600805,0.17078397,-0.89931923,-0.402564,0.31338522,0.4369288,-0.84313875,0.93414265,0.017836986,0.35645378,9.198013,0.17706299,3.382248,9.1625185,0.17272615,3.4912465,-0.031951904,-0.05128479,0.025131226,-10.618591,10.919189,-30.479431,1,0.0,0.0,0.0,0.0
2.340812803,0.16502887,-0.9061338,-0.38947034,0.31544748,0.4226351,-0.84963083,0.93448293,0.017356185,0.3555846,0.17047392,-0.89973015,-0.40177646,0.31353337,0.4360824,-0.8435218,0.9341496,0.017828126,0.3564361,9.220749,0.18066406,3.4827576,9.164147,0.17020604,3.4870937,-0.040649414,-0.048690796,0.040237427,-10.379028,11.338806,-30.778503,1,0.0,0.0,0.0,0.0
2.349113584,0.16448374,-0.9062875,-0.3893431,0.31545085,0.42232144,-0.84978545,0.9345779,0.01695728,0.35535416,0.17036526,-0.8998601,-0.40153128,0.31357262,0.4358144,-0.84364563,0.93415624,0.017818687,0.35641915,9.220749,0.16151428,3.6155548,9.165078,0.1662941,3.484834,-0.03729248,-0.04197693,0.049865723,-10.379028,11.338806,-30.778503,1,0.0,0.0,0.0,0.0
2.357414366,0.16734985,-0.90164506,-0.398786,0.31346485,0.43216202,-0.8455624,0.93473727,0.01649933,0.35495624,0.17024782,-0.8999907,-0.4012885,0.31361124,0.4355455,-0.8437702,0.93416476,0.017801458,0.35639787,9.457626,0.1603241,3.5677032,9.166641,0.16180316,3.4809318,-0.017745972,-0.05342102,0.050476074,-10.319519,11.459351,-30.239868,1,0.0,0.0,0.0,0.0
2.365715147,0.16670905,-0.90182954,-0.39863726,0.3133362,0.43179223,-0.84579897,0.93489486,0.01609487,0.35455948,0.17007737,-0.9000883,-0.40114167,0.31360313,0.43534672,-0.8438757,0.93419844,0.017724883,0.35631314,9.456436,0.1878357,3.4528503,9.168187,0.15783677,3.4770408,0.01676941,-0.042129517,0.043289185,-10.319519,11.459351,-30.239868,1,0.0,0.0,0.0,0.0
2.374015928,0.16902544,-0.8979802,-0.4062783,0.3115103,0.43975145,-0.8423658,0.9350892,0.01582136,0.35405922,0.17007737,-0.9000883,-0.40114167,0.31360313,0.43534672,-0.8438757,0.93419844,0.017724883,0.35631314,9.456436,0.1878357,3.4528503,9.170093,0.15515454,3.4721348,0.01676941,-0.042129517,0.043289185,-9.719849,11.878967,-30.299377,1,0.0,0.0,0.0,0.0
2.382316709,0.16854613,-0.8981157,-0.40617764,0.3111883,0.4394815,-0.84262544,0.9352828,0.01562352,0.35355607,0.17001599,-0.8999651,-0.4014442,0.31347945,0.4356061,-0.8437879,0.9342512,0.01761294,0.35618055,9.444473,0.19142151,3.426529,9.171991,0.1532144,3.4672008,0.009887695,-0.050216675,0.018249512,-9.719849,11.878967,-30.299377,1,0.0,0.0,0.0,0.0
2.390617491,0.16834362,-0.8979219,-0.40668994,0.31067643,0.4398819,-0.84260553,0.9354895,0.015498286,0.35301444,0.16995816,-0.8998923,-0.40163183,0.31338838,0.43575966,-0.8437424,0.9342922,0.017534161,0.3560767,9.381058,0.15911865,3.3798676,9.174018,0.15198627,3.4618893,0.014007568,-0.057556152,0.014282227,-9.719849,11.819458,-30.119324,1,0.0,0.0,0.0,0.0
2.398918272,0.1679317,-0.8980385,-0.4066027,0.31017673,0.43964604,-0.8429126,0.9357293,0.015433053,0.35238114,0.1699262,-0.8998531,-0.40173322,0.31333402,0.43584225,-0.84371996,0.9343163,0.017493444,0.3560156,9.381058,0.15911865,3.3798676,9.17637,0.15134653,3.4556785,0.017837524,-0.057250977,0.006958008,-9.719849,11.819458,-30.119324,1,0.0,0.0,0.0,0.0
2.407219053,0.17318843,-0.8900141,-0.42175895,0.30657235,0.4556717,-0.83568937,0.935959,0.015432109,0.3517708,0.16984783,-0.89978164,-0.4019264,0.31320864,0.43599305,-0.8436886,0.9343726,0.017411856,0.35587186,9.339188,0.18066406,3.3643036,9.178622,0.1513373,3.4496932,-0.0039978027,-0.039230347,0.005126953,-9.719849,12.239075,-29.818726,1,0.0,0.0,0.0,0.0
2.415519834,0.17291227,-0.8900948,-0.4217021,0.30620655,0.4555149,-0.835909,0.93612975,0.015410975,0.35131696,0.16998428,-0.8994031,-0.402715,0.31294596,0.43677634,-0.84338087,0.9344357,0.017333457,0.35570967,9.3020935,0.17228699,3.4097748,9.180297,0.15113004,3.4452426,-0.018203735,-0.020446777,0.0038909912,-9.719849,12.239075,-29.818726,1,0.0,0.0,0.0,0.0
2.423820616,0.17317514,-0.8894196,-0.4230168,0.305677,0.45683354,-0.835383,0.9362542,0.015361063,0.3509873,0.17004493,-0.89922094,-0.4030962,0.3128111,0.43715295,-0.84323573,0.9344699,0.017295007,0.35562193,9.3020935,0.17228699,3.4097748,9.181518,0.15064058,3.4420097,-0.025222778,-0.015701294,0.0011444092,-10.139465,12.179565,-29.759216,1,0.0,0.0,0.0,0.0
2.432121397,0.17299567,-0.88947314,-0.42297754,0.30547762,0.45673022,-0.83551234,0.93635243,0.015329852,0.35072652,0.17017347,-0.8988411,-0.4038882,0.3125285,0.4379363,-0.84293395,0.934541,0.017218424,0.3554386,9.348755,0.19621277,3.397812,9.182481,0.15033449,3.4394522,-0.03286743,-0.010971069,0.0035858154,-10.139465,12.179565,-29.759216,1,0.0,0.0,0.0,0.0
2.440422178,0.16801809,-0.8965805,-0.40977252,0.3080289,0.44261757,-0.84214497,0.93642306,0.015273793,0.3505404,0.17028959,-0.89847773,-0.404647,0.31224906,0.4386842,-0.84264857,0.9346132,0.017143637,0.3552522,9.455246,0.14715576,3.4899292,9.183173,0.14978474,3.437627,-0.031188965,0.0128479,-0.0064849854,-10.679626,11.819458,-30.239868,1,0.0,0.0,0.0,0.0
2.448722959,0.16792086,-0.89660925,-0.40974936,0.30804026,0.4425618,-0.84217,0.9364368,0.015198617,0.35050705,0.1702446,-0.89844,-0.40474975,0.3121645,0.438763,-0.84263897,0.9346497,0.01710624,0.35515806,9.455246,0.14715576,3.4899292,9.183308,0.14904752,3.4373,-0.030578613,0.024002075,-0.010910034,-10.679626,11.819458,-30.239868,1,0.0,0.0,0.0,0.0
2.457023741,0.16957694,-0.8942822,-0.41412917,0.3073,0.447246,-0.8399629,0.9363815,0.015176449,0.35065553,0.17015344,-0.8983678,-0.4049483,0.31200078,0.43891373,-0.8426211,0.934721,0.0170307,0.35497412,9.382263,0.14596558,3.5078735,9.182766,0.14883013,3.438756,-0.041107178,0.021850586,-0.009994507,-10.85968,11.999512,-30.358887,1,0.0,0.0,0.0,0.0
2.465324522,0.16964185,-0.89426273,-0.4141447,0.30741876,0.44728532,-0.83989847,0.93633074,0.015166068,0.35079145,0.17013212,-0.89820755,-0.40531254,0.3118139,0.43924442,-0.84251785,0.9347872,0.016957274,0.35480317,9.440887,0.16270447,3.5078735,9.182268,0.14872833,3.440089,-0.042938232,0.0014038086,-0.011672974,-10.85968,11.999512,-30.358887,1,0.0,0.0,0.0,0.0
2.473625303,0.17025991,-0.8933476,-0.41586262,0.30712172,0.4491115,-0.83903235,0.9363161,0.01513313,0.3508321,0.17012304,-0.89812934,-0.40548956,0.3117257,0.43940562,-0.8424665,0.93481827,0.01692145,0.35472307,9.440887,0.16270447,3.5078735,9.182124,0.14840531,3.4404876,-0.04095459,-0.0051727295,-0.0184021,-10.798645,11.878967,-29.93927,1,0.0,0.0,0.0,0.0
2.481926084,0.17024684,-0.8933515,-0.4158595,0.30707574,0.4491032,-0.83905345,0.9363335,0.01514586,0.350785,0.1701266,-0.8980349,-0.4056974,0.31163332,0.4396002,-0.8423992,0.9348485,0.016885685,0.35464525,9.466003,0.122039795,3.5437775,9.182296,0.14853016,3.4400258,-0.035461426,-0.007003784,-0.018249512,-10.798645,11.878967,-29.93927,1,0.0,0.0,0.0,0.0
2.490226866,0.17023383,-0.89335555,-0.41585636,0.307059,0.44909546,-0.839064,0.93634146,0.0151446285,0.350764,0.17013301,-0.8978513,-0.4061007,0.31145227,0.4399775,-0.84226906,0.93490756,0.016816787,0.35449252,9.340378,0.0993042,3.5569305,9.182373,0.14851807,3.43982,-0.025543213,0.005218506,-0.015960693,-10.798645,11.878967,-29.93927,1,0.0,0.0,0.0,0.0
2.498527647,0.16613653,-0.8992965,-0.4045545,0.30939546,0.43707716,-0.84453416,0.9363082,0.015140654,0.35085276,0.17013848,-0.89767516,-0.4064877,0.31127784,0.4403394,-0.8421445,0.9349647,0.01675057,0.35434505,9.290131,0.10169983,3.5401764,9.182048,0.1484791,3.4406905,-0.0029296875,0.0058288574,-0.019622803,-11.099243,11.579895,-30.299377,1,0.0,0.0,0.0,0.0
2.506828428,0.17138332,-0.8918382,-0.41863143,0.30662638,0.45209935,-0.8376075,0.93627346,0.015188534,0.35094345,0.17005834,-0.8977077,-0.40644935,0.31124043,0.44027424,-0.84219235,0.9349917,0.016718375,0.35427523,9.352341,0.046661377,3.5317993,9.181706,0.14894864,3.4415796,0.004699707,-0.0025787354,-0.020385742,-11.51886,11.698914,-29.638672,1,0.0,0.0,0.0,0.0
2.515129209,0.17145409,-0.89181596,-0.41865012,0.3066149,0.45214158,-0.83758897,0.9362642,0.015243679,0.35096556,0.17011267,-0.8974782,-0.40693298,0.3110574,0.440744,-0.84201425,0.93504274,0.016657794,0.35414338,9.393021,-0.020339966,3.4229279,9.181616,0.14948943,3.4417965,0.030197144,-0.004257202,-0.023742676,-11.51886,11.698914,-29.638672,1,0.0,0.0,0.0,0.0
2.523429991,0.1677929,-0.8971341,-0.40865147,0.30855036,0.44149393,-0.8425437,0.93629175,0.015283294,0.35089058,0.17016752,-0.89725685,-0.40739805,0.31088123,0.4411967,-0.8418422,0.9350914,0.016601797,0.35401767,9.393021,-0.020339966,3.4229279,9.181886,0.14987792,3.4410613,0.034484863,0.036361694,-0.0342865,-11.819458,11.399841,-29.87976,1,0.0,0.0,0.0,0.0
2.531730772,0.16793898,-0.89708835,-0.40869176,0.3085837,0.44158375,-0.84248435,0.93625456,0.015370356,0.35098597,0.17012008,-0.8972544,-0.40742323,0.3108346,0.44120267,-0.8418563,0.93511546,0.016575426,0.35395515,9.4002075,-0.06819153,3.2817535,9.18152,0.1507317,3.4419963,0.025466919,0.044921875,-0.03199768,-11.819458,11.399841,-29.87976,1,0.0,0.0,0.0,0.0
2.540031553,0.16796145,-0.8970813,-0.408698,0.30859235,0.44159767,-0.84247386,0.9362477,0.015382052,0.35100383,0.17003387,-0.89724785,-0.40747362,0.31074554,0.44121775,-0.84188133,0.93516076,0.016527707,0.35383773,9.367905,-0.107681274,3.2817535,9.181454,0.1508464,3.4421718,0.016159058,0.04093933,-0.030456543,-11.819458,11.399841,-29.87976,1,0.0,0.0,0.0,0.0
2.548332334,0.16270186,-0.9043574,-0.3945451,0.31135672,0.4265008,-0.8492079,0.93626124,0.015323414,0.35097024,0.16995189,-0.89724135,-0.40752223,0.31066033,0.44123277,-0.8419049,0.93520397,0.016482338,0.35372558,9.377472,-0.102890015,3.2362976,9.181586,0.15027136,3.4418423,0.007751465,0.044311523,-0.03213501,-11.819458,11.039734,-30.178833,1,0.0,0.0,0.0,0.0
2.556633116,0.1698651,-0.89413637,-0.41432598,0.30747125,0.447535,-0.8397463,0.9362731,0.015250262,0.35094178,0.16980667,-0.897386,-0.40726396,0.31067577,0.44093916,-0.84205294,0.9352252,0.01645916,0.35367054,9.389435,-0.0657959,3.193222,9.181703,0.14955398,3.4415634,-0.0027770996,0.039886475,-0.0342865,-11.338806,11.579895,-29.638672,1,0.0,0.0,0.0,0.0
2.564933897,0.16973291,-0.89417744,-0.4142915,0.30743787,0.44745556,-0.8398008,0.93630797,0.015172941,0.35085195,0.1698099,-0.8972583,-0.40754417,0.3105487,0.44120097,-0.84196275,0.9352669,0.016411288,0.35356268,9.384644,-0.041870117,3.2518463,9.182045,0.14879572,3.4406824,-0.029052734,0.033309937,-0.031066895,-11.338806,11.579895,-29.638672,1,0.0,0.0,0.0,0.0
2.573234678,0.17494656,-0.88617975,-0.42904457,0.30437824,0.46309772,-0.83240277,0.93634796,0.015034175,0.35075116,0.16980761,-0.89713717,-0.40781164,0.3104253,0.44144905,-0.8418782,0.9353082,0.016362248,0.35345548,9.3703,-0.07298279,3.2350922,9.182437,0.14743489,3.439694,-0.037139893,0.017425537,-0.034744263,-10.85968,12.11853,-29.458618,1,0.0,0.0,0.0,0.0
2.581535459,0.17469364,-0.88625896,-0.4289839,0.30431855,0.46295083,-0.83250624,0.9364146,0.014885788,0.35057962,0.16991225,-0.8969232,-0.40823844,0.310305,0.44188455,-0.841694,0.93532914,0.016335687,0.35340133,9.330811,-0.039474487,3.2171478,9.18309,0.14597972,3.4380116,-0.03866577,0.0178833,-0.035507202,-10.85968,12.11853,-29.458618,1,0.0,0.0,0.0,0.0
2.589836241,0.17452283,-0.88631237,-0.4289429,0.30420637,0.46285048,-0.83260304,0.93648297,0.0148210805,0.3503999,0.17010522,-0.8965104,-0.4090639,0.31006905,0.44272345,-0.84134,0.9353723,0.016278272,0.35328972,9.330811,-0.039474487,3.2171478,9.183761,0.14534515,3.4362493,-0.042633057,0.0287323,-0.049545288,-10.85968,12.11853,-29.458618,1,0.0,0.0,0.0,0.0
2.598137022,0.17652096,-0.8830703,-0.43477267,0.30288708,0.46900856,-0.8296327,0.936536,0.014760542,0.3502604,0.17028357,-0.8961153,-0.4098547,0.30983776,0.44352484,-0.8410031,0.9354165,0.01622057,0.35317534,9.242279,-0.08135986,3.1621094,9.184281,0.14475147,3.4348812,-0.03668213,0.047668457,-0.0602417,-10.739136,12.239075,-29.219055,1,0.0,0.0,0.0,0.0
2.606437803,0.17652762,-0.88306814,-0.4347742,0.3028496,0.46901175,-0.82964456,0.9365469,0.014783985,0.3502304,0.17041087,-0.8958616,-0.41035613,0.30969977,0.44403815,-0.8407831,0.93543905,0.016191369,0.35311708,9.20639,-0.13519287,3.1980133,9.184388,0.14498137,3.434587,-0.023086548,0.055755615,-0.0710907,-10.739136,12.239075,-29.219055,1,0.0,0.0,0.0,0.0
2.614738584,0.18127371,-0.87577796,-0.44738442,0.30019566,0.4824854,-0.822855,0.9364947,0.014859124,0.35036665,0.17065795,-0.8953683,-0.41132897,0.30943048,0.44503403,-0.8403556,0.93548316,0.016135635,0.35300285,9.2686,-0.1603241,3.2123718,9.183877,0.14571825,3.4359233,-0.00491333,0.0655365,-0.0773468,-10.798645,12.599182,-29.039001,1,0.0,0.0,0.0,0.0
2.623039366,0.18149884,-0.87570477,-0.44743636,0.30027908,0.4826147,-0.8227487,0.9364244,0.014972148,0.35054985,0.17087482,-0.89499205,-0.41205698,0.30924928,0.44579104,-0.84002095,0.9355034,0.016110105,0.35295013,9.322433,-0.16989136,3.3391876,9.183187,0.14682662,3.4377198,-0.012863159,0.0655365,-0.073532104,-10.798645,12.599182,-29.039001,1,0.0,0.0,0.0,0.0
2.631340147,0.18575864,-0.86910623,-0.45841914,0.29803225,0.49439627,-0.81654704,0.93630683,0.015056974,0.35086006,0.17130388,-0.8942576,-0.41347113,0.30890086,0.44726425,-0.83936584,0.9355401,0.016065042,0.35285503,9.389435,-0.20458984,3.4468536,9.182034,0.14765848,3.4407618,-0.020187378,0.06034851,-0.06741333,-10.559082,12.838745,-28.619385,1,0.0,0.0,0.0,0.0
2.639640928,0.185984,-0.8690318,-0.4584689,0.29833758,0.49452734,-0.81635624,0.93616486,0.015050679,0.351239,0.17188865,-0.8933097,-0.41527352,0.30848345,0.4491559,-0.8385088,0.9355706,0.016025124,0.35277608,9.382263,-0.17228699,3.5796661,9.180641,0.14759675,3.444478,-0.035461426,0.057281494,-0.0710907,-10.559082,12.838745,-28.619385,1,0.0,0.0,0.0,0.0
2.647941709,0.18230855,-0.8754089,-0.44768617,0.30118445,0.48314914,-0.82210386,0.9359762,0.015040484,0.35174176,0.17217612,-0.8928472,-0.41614825,0.308287,0.4500753,-0.8380879,0.93558246,0.016005633,0.3527454,9.382263,-0.17228699,3.5796661,9.178792,0.14749677,3.4494085,-0.035461426,0.050109863,-0.06512451,-10.379028,12.658691,-28.979492,1,0.0,0.0,0.0,0.0
2.656242491,0.18819743,-0.8659908,-0.4632944,0.29797658,0.4998349,-0.81324965,0.9358374,0.015000604,0.3521126,0.1725828,-0.8921801,-0.4174084,0.30801207,0.45139745,-0.8374777,0.9355981,0.015967416,0.3527057,9.406189,-0.14356995,3.6394806,9.17743,0.14710568,3.4530451,-0.03012085,0.0038452148,-0.06359863,-10.139465,13.139343,-28.678894,1,0.0,0.0,0.0,0.0
2.664543272,0.18829001,-0.8659606,-0.4633133,0.29809955,0.49988735,-0.8131724,0.93577963,0.014998752,0.35226622,0.17321151,-0.89119405,-0.41925037,0.30762985,0.4533424,-0.8365671,0.9356076,0.01592913,0.35268202,9.439682,-0.17468262,3.5820618,9.176864,0.14708751,3.4545517,-0.007980347,-0.039993286,-0.062072754,-10.139465,13.139343,-28.678894,1,0.0,0.0,0.0,0.0
2.672844053,0.18814422,-0.8660081,-0.46328357,0.2979609,0.4998057,-0.8132733,0.93585306,0.014972287,0.35207212,0.173518,-0.8907137,-0.4201436,0.3074467,0.45428625,-0.8361224,0.93561107,0.015910525,0.3526738,9.378662,-0.17706299,3.4097748,9.177584,0.14682798,3.4526482,0.0065307617,-0.043502808,-0.05444336,-10.139465,13.139343,-28.678894,1,0.0,0.0,0.0,0.0
2.681144834,0.19150716,-0.8598906,-0.4731946,0.2953452,0.51026,-0.8077164,0.9360001,0.014927729,0.35168302,0.17410655,-0.8897804,-0.42187414,0.3070844,0.45611283,-0.83526057,0.93562067,0.01587337,0.3526499,9.284149,-0.25004578,3.221939,9.179026,0.14639102,3.4488325,8.8500977E-4,-0.011734009,-0.04008484,-9.899902,13.378906,-28.318787,1,0.0,0.0,0.0,0.0
2.689445616,0.19102684,-0.86004865,-0.4731014,0.29514563,0.5099999,-0.80795354,0.93616116,0.014706993,0.35126328,0.17480971,-0.8886608,-0.4239381,0.3066386,0.45829156,-0.83423114,0.93563575,0.015835924,0.3526115,9.312866,-0.23928833,3.0843506,9.180605,0.14422633,3.4447162,0.018600464,0.004760742,-0.029846191,-9.899902,13.378906,-28.318787,1,0.0,0.0,0.0,0.0
2.697746397,0.18654579,-0.86684746,-0.46235937,0.2973771,0.49836484,-0.8143705,0.93635863,0.0144222975,0.35074842,0.17514102,-0.8881187,-0.4249362,0.30641726,0.459342,-0.83373463,0.93564636,0.015813345,0.3525845,9.312866,-0.23928833,3.0843506,9.182542,0.14143443,3.439667,0.01966858,-0.005783081,-0.013046265,-9.899902,13.198853,-28.73993,1,0.0,0.0,0.0,0.0
2.706047178,0.18525556,-0.8681318,-0.46046463,0.29757035,0.49613392,-0.81566113,0.93655336,0.014085143,0.3502418,0.17560112,-0.88730955,-0.4264342,0.3060672,0.46090513,-0.83300024,0.9356747,0.015758261,0.3525118,9.4253235,-0.20219421,2.9240265,9.184451,0.13812807,3.4346988,0.034332275,0.005065918,-0.014129639,-10.258484,12.95929,-28.559875,1,0.0,0.0,0.0,0.0
2.714347959,0.18455693,-0.8683589,-0.46031675,0.29719192,0.49574414,-0.8160359,0.93681145,0.013802674,0.34956226,0.17599088,-0.88657707,-0.42779472,0.30573615,0.46231467,-0.8323405,0.9357097,0.015692005,0.35242182,9.5354,-0.28234863,2.8259277,9.186982,0.13535799,3.4280348,0.04196167,0.03666687,-0.01763916,-10.258484,12.95929,-28.559875,1,0.0,0.0,0.0,0.0
2.722648741,0.18385307,-0.86858726,-0.46016753,0.29689094,0.49535292,-0.81638294,0.9370452,0.013474954,0.34894788,0.17616598,-0.8862253,-0.42845106,0.30556732,0.46298996,-0.832027,0.9357319,0.01565422,0.35236457,9.524628,-0.4295044,2.7505493,9.189275,0.13214417,3.4220097,0.052963257,0.07469177,-0.024658203,-10.258484,12.95929,-28.559875,1,0.0,0.0,0.0,0.0
2.730949522,0.18150643,-0.87161165,-0.45535547,0.29788157,0.49002326,-0.8192337,0.9371884,0.013054188,0.34857938,0.17647803,-0.88554966,-0.42971766,0.30522683,0.46428373,-0.8314308,0.9357842,0.015567922,0.35222942,9.480362,-0.5539398,2.7278137,9.190679,0.12801786,3.418396,0.059829712,0.12387085,-0.03352356,-10.559082,12.658691,-28.439331,1,0.0,0.0,0.0,0.0
2.739250303,0.18093996,-0.87179637,-0.45522732,0.2981201,0.48970804,-0.8193354,0.937222,0.0125381015,0.34850776,0.17668258,-0.8850123,-0.43073955,0.30493674,0.46531066,-0.8309631,0.93584025,0.0154683795,0.35208505,9.4205475,-0.63768005,2.7361908,9.191009,0.122956775,3.4176936,0.07952881,0.14128113,-0.03213501,-10.559082,12.658691,-28.439331,1,0.0,0.0,0.0,0.0
2.747551084,0.18011044,-0.8724906,-0.4542251,0.2987867,0.48848498,-0.81982243,0.9371695,0.011942175,0.34866983,0.17677015,-0.88475466,-0.4312325,0.3048004,0.46580222,-0.8307376,0.9358681,0.015409774,0.3520135,9.284149,-0.727417,2.8666077,9.190494,0.11711273,3.419283,0.07952881,0.16403198,-0.033828735,-10.559082,12.719727,-28.619385,1,0.0,0.0,0.0,0.0
2.755851866,0.1806444,-0.87108237,-0.45670918,0.2990212,0.4910084,-0.81822807,0.93699193,0.011242589,0.34916997,0.17690627,-0.8842803,-0.43214858,0.3045617,0.4667065,-0.8303175,0.93592,0.01527246,0.35188127,9.296112,-0.7381897,3.1322021,9.188752,0.110252135,3.4241877,0.10380554,0.16662598,-0.017028809,-10.85968,12.658691,-28.439331,1,0.0,0.0,0.0,0.0
2.764152647,0.1804086,-0.8711602,-0.45665374,0.30011302,0.4908864,-0.8179014,0.93668824,0.010508706,0.35000664,0.17705774,-0.8837708,-0.43312788,0.30434185,0.46767595,-0.8298526,0.9359629,0.0151128825,0.3517741,9.296112,-0.7381897,3.1322021,9.185774,0.1030552,3.4323928,0.115722656,0.13731384,-0.0034332275,-10.85968,12.658691,-28.439331,1,0.0,0.0,0.0,0.0
2.772453428,0.18002844,-0.8712857,-0.4565645,0.30111644,0.49068,-0.8176565,0.9364394,0.009722365,0.35069475,0.17712578,-0.8835247,-0.4336017,0.30425686,0.46814352,-0.82962,0.93597764,0.015020802,0.35173875,9.390625,-0.7346039,3.3966064,9.183333,0.095343836,3.4391408,0.13313293,0.12234497,0.007873535,-10.85968,12.658691,-28.439331,1,0.0,0.0,0.0,0.0
2.780754209,0.18217689,-0.8673117,-0.46322975,0.30070803,0.49768537,-0.8135624,0.936155,0.008915373,0.3514744,0.17724164,-0.8830516,-0.4345173,0.30413148,0.46904215,-0.8291583,0.93599653,0.0148109915,0.3516976,9.390625,-0.7346039,3.3966064,9.180545,0.08742995,3.4467866,0.18902588,0.10310364,0.022216797,-11.039734,12.838745,-28.379822,1,0.0,0.0,0.0,0.0
2.789054991,0.18192777,-0.86739564,-0.4631708,0.30170235,0.49755138,-0.81327635,0.9358835,0.008217839,0.35221368,0.17734066,-0.8827463,-0.43509686,0.30406293,0.46962014,-0.8288562,0.93600005,0.014693083,0.35169318,9.580856,-0.6795654,3.5724792,9.177882,0.080589466,3.4540362,0.21879578,0.08035278,0.029556274,-11.039734,12.838745,-28.379822,1,0.0,0.0,0.0,0.0
