Time,Rot1,Rot2,Rot3,Rot4,Rot5,Rot6,Rot7,Rot8,Rot9,FRot1,FRot2,FRot3,FRot4,FRot5,FRot6,FRot7,FRot8,FRot9,AccX,AccY,AccZ,GravX,GravY,GravZ,GyroX,GyroY,GyroZ,MagX,MagY,MagZ,Imid
0.0,0.0,0.0,0.0,0.0,0.0,0.0,0.0,0.0,0.0,1.0,0.0,0.0,0.0,1.0,0.0,0.0,0.0,1.0,9.828522,-0.114852905,-0.04547119,9.805311,-0.15812857,-0.035480104,0.0,0.0,0.0,0.0,0.0,0.0,0,0.0,0.0,0.0,0.0
0.008300781,0.0,0.0,0.0,0.0,0.0,0.0,0.0,0.0,0.0,1.0,0.0,0.0,0.0,1.0,0.0,0.0,0.0,1.0,9.828522,-0.114852905,-0.04547119,9.805318,-0.15790632,-0.03462455,0.06311035,0.041778564,0.007446289,0.0,0.0,0.0,0,0.0,0.0,0.0,0.0
0.016601562,0.016327627,0.9577104,0.2872702,-0.0018376773,-0.28727928,0.9578451,0.999865,-0.016167248,-0.002930626,1.0,0.0,0.0,0.0,1.0,0.0,0.0,0.0,1.0,9.899109,-0.1758728,0.14237976,9.805326,-0.15854655,-0.028739624,0.05731201,0.096450806,0.008666992,-18.299866,-2.0996094,8.039856,0,0.0,0.0,0.0,0.0
0.024902343,0.016158143,0.95782036,0.2869132,-0.0027743343,-0.2869066,0.9579546,0.9998656,-0.01627476,-0.001978564,0.9953491,0.07367704,-0.062062863,-0.07349426,0.99728197,0.005225819,0.0622792,-6.402502E-4,0.99805856,10.013962,-0.18304443,0.1651001,9.805332,-0.15960087,-0.019403087,0.06097412,0.08911133,0.01675415,-18.299866,-2.0996094,8.039856,0,0.0,0.0,0.0,0.0
0.033203125,0.015861409,0.94685495,0.3212697,-0.0043869927,-0.3212411,0.9469873,0.9998645,-0.016429957,-9.414899E-4,0.9897678,0.10928682,-0.09173953,-0.10873186,0.9940098,0.011040935,0.09239661,-9.529544E-4,0.9957218,10.013962,-0.18304443,0.1651001,9.805322,-0.16112284,-0.009232862,0.07014465,0.07185364,0.022567749,-18.418884,-2.3986816,7.978821,0,0.0,0.0,0.0,0.0
0.041503906,0.015656428,0.9470036,0.32084116,-0.005235441,-0.32079846,0.947133,0.99986374,-0.016508466,-6.4576765E-5,0.97261775,0.17934933,-0.14781246,-0.17707403,0.98378414,0.028520577,0.1505307,-0.0015658719,0.98860407,10.082153,-0.102890015,0.1651001,9.805314,-0.16189274,-6.332818E-4,0.062805176,0.052764893,0.019500732,-18.418884,-2.3986816,7.978821,0,0.0,0.0,0.0,0.0
0.049804687,0.015183872,0.92838365,0.37131292,-0.0067307972,-0.37125242,0.9285076,0.9998621,-0.016597573,6.117128E-4,0.9345366,0.27760756,-0.22265543,-0.26945817,0.96069145,0.066814914,0.2324515,-0.0024446575,0.97260493,10.122833,-0.107681274,0.13639832,9.805298,-0.16276659,0.0059988536,0.014099121,0.013214111,0.014007568,-18.359375,-2.6992798,7.499695,0,0.0,0.0,0.0,0.0
0.058105468,0.015075847,0.9284776,0.3710823,-0.0071982658,-0.37101412,0.92859936,0.99986047,-0.016670572,0.0010900766,0.9345366,0.27760756,-0.22265543,-0.26945817,0.96069145,0.066814914,0.2324515,-0.0024446575,0.97260493,10.122833,-0.107681274,0.13639832,9.805282,-0.16348246,0.01069,0.014099121,0.013214111,0.014007568,-18.359375,-2.6992798,7.499695,0,0.0,0.0,0.0,0.0
0.06640625,0.014862781,0.91887194,0.39427578,-0.00782963,-0.3942003,0.91899115,0.99985886,-0.016745798,0.0013355144,0.9019605,0.34047323,-0.2656037,-0.32570142,0.94024944,0.09924551,0.28352416,-0.0030080315,0.95896035,10.060623,-0.12562561,0.124420166,9.805266,-0.16422018,0.013096922,-0.0043792725,-0.028015137,0.012634277,-18.838501,-2.758789,7.1395874,0,0.0,0.0,0.0,0.0
0.074707031,0.01485811,0.9188766,0.3942652,-0.007884104,-0.3941888,0.9189957,0.9998585,-0.016762968,0.0013876163,0.8649084,0.40036282,-0.30272618,-0.37660128,0.9163498,0.13592091,0.33182076,-0.0035520743,0.9433358,10.035492,-0.100494385,0.15553284,9.8052635,-0.16438858,0.013607869,0.00630188,-0.05290222,0.014312744,-18.838501,-2.758789,7.1395874,0,0.0,0.0,0.0,0.0
0.083007812,0.01417314,0.8790625,0.47649556,-0.009066091,-0.47641084,0.8791758,0.9998584,-0.016780637,0.0012174246,0.8451427,0.42882755,-0.31912485,-0.39968407,0.9033783,0.1554358,0.35494563,-0.0038163057,0.9348792,10.035492,-0.100494385,0.15553284,9.805262,-0.16456184,0.011938858,0.007217407,-0.056427002,0.0138549805,-19.259644,-3.2989502,6.6589355,0,0.0,0.0,0.0,0.0
0.091308593,0.014363413,0.87882495,0.47692814,-0.008768745,-0.4768483,0.8789419,0.9998584,-0.016806664,8.5702294E-4,0.82394284,0.4579418,-0.3337777,-0.42271224,0.8889728,0.1761864,0.37740242,-0.004075606,0.9260404,9.999603,-0.11366272,0.06819153,9.805262,-0.16481708,0.008404524,0.013641357,-0.05305481,0.007751465,-19.259644,-3.2989502,6.6589355,0,0.0,0.0,0.0,0.0
0.099609375,0.014540176,0.8786038,0.47732985,-0.008434621,-0.47725555,0.878724,0.9998587,-0.016802901,4.7130944E-4,0.7798266,0.51304615,-0.35868388,-0.46386957,0.8583488,0.2192312,0.42035162,-0.0045797816,0.9073497,9.958923,-0.117248535,0.0047912598,9.805264,-0.16478017,0.0046219667,0.007843018,-0.030761719,0.0045318604,-19.259644,-3.2989502,6.6589355,0,0.0,0.0,0.0,0.0
0.107910156,0.014136452,0.85040987,0.52593076,-0.008977199,-0.5258541,0.8505273,0.99985975,-0.016744824,2.0058715E-4,0.73417044,0.5640663,-0.3779193,-0.49870494,0.82571393,0.26360914,0.4607463,-0.005063841,0.88751745,9.897903,-0.09690857,-0.0023956299,9.805275,-0.16421063,0.001967088,0.012420654,-0.028320313,0.0028686523,-19.259644,-3.5385132,6.239319,0,0.0,0.0,0.0,0.0
0.116210937,0.014260561,0.8502329,0.52621347,-0.008740736,-0.52614087,0.8503525,0.9998601,-0.016725997,-7.140188E-5,0.7104407,0.58898836,-0.38518405,-0.5146467,0.8081242,0.2864858,0.48001334,-0.0052974727,0.87724525,9.96611,-0.13279724,-0.029907227,9.805278,-0.16402599,-7.0021325E-4,0.011047363,-0.03213501,0.0031738281,-19.259644,-3.5385132,6.239319,0,0.0,0.0,0.0,0.0
0.124511718,0.013844874,0.8220677,0.5692215,-0.009298965,-0.5691456,0.82218426,0.99986094,-0.016676206,-2.3536931E-4,0.6627101,0.63577324,-0.39573693,-0.5420218,0.77185446,0.33234462,0.5167472,-0.0057500647,0.85611874,9.944565,-0.114852905,0.057434082,9.805286,-0.16353773,-0.0023081845,0.035324097,-0.028167725,-0.0012664795,-19.499207,-3.6590576,5.758667,0,0.0,0.0,0.0,0.0
0.1328125,0.012891957,0.7611537,0.64844346,-0.010493594,-0.6483586,0.7612627,0.9998618,-0.016618667,-3.7137346E-4,0.61401474,0.6801038,-0.40055564,-0.5649868,0.7330898,0.3786414,0.55115867,-0.0061827605,0.8343775,9.944565,-0.114852905,0.057434082,9.805295,-0.16297345,-0.0036419297,0.046157837,-0.017944336,0.0037841797,-20.098877,-4.258728,5.3985596,0,0.0,0.0,0.0,0.0
0.141113281,0.012831273,0.7612694,0.64830875,-0.010516064,-0.6482235,0.76137745,0.9998624,-0.016587099,-3.119756E-4,0.58874935,0.70219094,-0.40037748,-0.57557607,0.71196,0.4022751,0.56752664,-0.0063914894,0.8233302,9.92543,-0.13877869,0.13400269,9.805301,-0.16266388,-0.0030594356,0.05090332,-0.0011444092,-0.0030975342,-20.098877,-4.258728,5.3985596,0,0.0,0.0,0.0,0.0
0.149414062,0.012666983,0.7615825,0.6479441,-0.010609637,-0.64785725,0.76168776,0.99986345,-0.01652274,-1.262822E-4,0.53897434,0.7431544,-0.39652014,-0.5925598,0.6690855,0.44855043,0.5986481,-0.006795254,0.80098337,9.94577,-0.12562561,0.1375885,9.805311,-0.16203272,-0.0012384055,0.055480957,0.0057373047,-0.0024871826,-20.098877,-4.258728,5.3985596,0,0.0,0.0,0.0,0.0
0.157714843,0.012930737,0.78941226,0.6137273,-0.010162813,-0.6136431,0.7895181,0.9998647,-0.016446246,8.7791566E-5,0.49060303,0.78002506,-0.38841918,-0.604397,0.625707,0.49314797,0.6277044,-0.0071804803,0.7784186,9.997208,-0.119644165,0.119644165,9.805324,-0.16128258,8.609412E-4,0.08357239,-0.006942749,-0.007675171,-19.859314,-4.1992188,5.819702,0,0.0,0.0,0.0,0.0
0.166015625,0.012759769,0.7897044,0.61335474,-0.010217936,-0.6132697,0.7898074,0.99986637,-0.016344981,2.4396878E-4,0.4675973,0.79647255,-0.3833853,-0.60814613,0.6046299,0.5143744,0.6414913,-0.007365804,0.76709497,9.9756775,-0.11126709,0.11366272,9.80534,-0.16028951,0.0023925165,0.079452515,-0.006942749,-0.0043182373,-19.859314,-4.1992188,5.819702,0,0.0,0.0,0.0,0.0
0.174316406,0.012807749,0.80264,0.59632623,-0.009962483,-0.59624314,0.8027421,0.99986833,-0.016222209,3.5975582E-4,0.423052,0.8267421,-0.370843,-0.612591,0.5625282,0.55524254,0.667652,-0.007721395,0.74443346,9.924225,-0.10647583,0.114852905,9.805359,-0.15908553,0.0035279996,0.07167053,-0.0037384033,-0.0056915283,-19.918823,-4.1397095,5.999756,0,0.0,0.0,0.0,0.0
0.182617187,0.012896174,0.81646246,0.5772544,-0.009669944,-0.5771736,0.81656414,0.99987006,-0.016112573,4.5181482E-4,0.38114023,0.85327953,-0.35587373,-0.6130573,0.52139145,0.5935585,0.69202083,-0.008058042,0.7218326,9.924225,-0.10647583,0.114852905,9.805376,-0.15801036,0.00443079,0.06188965,-0.023590088,-8.087158E-4,-19.859314,-4.1397095,6.298828,0,0.0,0.0,0.0,0.0
0.190917968,0.012885368,0.816479,0.5772313,-0.009561113,-0.5771522,0.8165806,0.99987125,-0.016040916,3.696304E-4,0.36130613,0.8651826,-0.34773102,-0.61192566,0.5013895,0.6116826,0.70356584,-0.008219141,0.71058255,9.914658,-0.114852905,0.044265747,9.8053875,-0.15730765,0.003624836,0.05807495,-0.023590088,0.0037841797,-19.859314,-4.1397095,6.298828,0,0.0,0.0,0.0,0.0
0.19921875,0.012980145,0.8163338,0.5774346,-0.009307354,-0.57735956,0.81643695,0.99987245,-0.015971858,1.0369667E-4,0.32334375,0.88693595,-0.32983863,-0.6075998,0.46181378,0.6461816,0.7254456,-0.008528894,0.68822664,9.895523,-0.086135864,-0.04067993,9.8054,-0.15663044,0.001016917,0.04663086,-0.0284729,0.010192871,-19.859314,-4.1397095,6.298828,0,0.0,0.0,0.0,0.0
0.207519531,0.013126833,0.8132055,0.58182865,-0.009032857,-0.5817586,0.8133114,0.99987304,-0.015931778,-2.9107943E-4,0.28769046,0.9061295,-0.3101025,-0.60084915,0.4229084,0.6783279,0.7457979,-0.008823645,0.66611385,9.92543,-0.071777344,-0.13160706,9.805405,-0.15623736,-0.002854514,0.026611328,-0.022216797,0.012176514,-19.558716,-4.319763,6.478882,0,0.0,0.0,0.0,0.0
0.215820312,0.013283708,0.8129743,0.582148,-0.008639751,-0.58208436,0.8130825,0.9998745,-0.015830366,-7.0834346E-4,0.2706735,0.91487074,-0.2995787,-0.5967046,0.40364736,0.69355065,0.7554333,-0.008965813,0.6551642,9.912262,-0.015548706,-0.16270447,9.805419,-0.15524286,-0.0069464766,0.021270752,-0.026489258,0.008056641,-19.558716,-4.319763,6.478882,0,0.0,0.0,0.0,0.0
0.224121093,0.013450206,0.8100472,0.5862102,-0.00838465,-0.5861512,0.8101581,0.99987435,-0.015811965,-0.0010918932,0.2383785,0.93066686,-0.27755165,-0.587022,0.36575112,0.7222404,0.77368003,-0.009237658,0.6335091,9.927826,-0.086135864,-0.15553284,9.805419,-0.15506242,-0.010707815,0.001876831,-0.014877319,0.009124756,-19.619751,-4.319763,6.4193726,0,0.0,0.0,0.0,0.0
0.232421875,0.01360453,0.81501836,0.5792754,-0.008043917,-0.57922107,0.8151309,0.9998751,-0.015749115,-0.0013240909,0.20827888,0.9444259,-0.25432193,-0.575782,0.32858714,0.7486692,0.79062945,-0.009498009,0.6122212,9.934998,-0.0657959,-0.07058716,9.805426,-0.15444607,-0.012984896,-0.0055999756,-0.0184021,0.0037841797,-19.67926,-4.319763,6.539917,0,0.0,0.0,0.0,0.0
0.240722656,0.013673217,0.81491756,0.57941556,-0.007866815,-0.5793641,0.8150308,0.9998755,-0.015702248,-0.0015109652,0.19417962,0.95051366,-0.24252413,-0.56961644,0.31053352,0.7609901,0.7986434,-0.009623036,0.60172755,9.917053,-0.086135864,-0.04547119,9.805429,-0.15398645,-0.014817507,-0.0052948,-0.016860962,0.00881958,-19.67926,-4.319763,6.539917,0,0.0,0.0,0.0,0.0
0.249023437,0.013725222,0.8148412,0.5795216,-0.0077074766,-0.5794727,0.81495506,0.9998761,-0.01565209,-0.0016730225,0.16762972,0.9613422,-0.21845254,-0.55644476,0.27517983,0.7839931,0.81379944,-0.009863781,0.58106214,9.917053,-0.086135864,-0.04547119,9.805435,-0.15349458,-0.016406747,-0.004837036,-0.009536743,0.004852295,-19.67926,-4.319763,6.539917,0,0.0,0.0,0.0,0.0
0.257324218,0.013678152,0.8075494,0.5896412,-0.007850615,-0.58959144,0.8076634,0.9998756,-0.01567639,-0.0017247619,0.14321367,0.9705058,-0.19392867,-0.54235107,0.24086638,0.80488425,0.8278557,-0.010093004,0.5608502,9.938583,-0.12562561,-0.023925781,9.80543,-0.15373288,-0.016914137,-0.010803223,0.0049743652,0.007293701,-20.098877,-4.258728,6.298828,0,0.0,0.0,0.0,0.0
0.265625,0.013455097,0.7890498,0.61418194,-0.008325702,-0.6141278,0.7891627,0.99987483,-0.015731756,-0.0016937566,0.13164648,0.9745661,-0.18135598,-0.5350597,0.22386748,0.8146131,0.83449405,-0.010204676,0.5509224,9.94577,-0.14237976,-0.01675415,9.805423,-0.15427582,-0.016610079,-0.009414673,0.009399414,0.007751465,-20.098877,-4.1397095,5.758667,0,0.0,0.0,0.0,0.0
0.273925781,0.013544465,0.78889304,0.61438113,-0.008369664,-0.61432654,0.7890075,0.9998733,-0.01582885,-0.0017179555,0.10938654,0.9818259,-0.15508905,-0.52016157,0.1894977,0.83278,0.847034,-0.010423554,0.5314366,9.934998,-0.18304443,-0.08494568,9.805408,-0.15522799,-0.016847389,-0.007888794,0.016113281,0.0042266846,-20.098877,-4.1397095,5.758667,0,0.0,0.0,0.0,0.0
0.282226562,0.013555518,0.78887373,0.6144059,-0.008437614,-0.6143502,0.7889884,0.9998725,-0.015879264,-0.0016716222,0.09900545,0.9849121,-0.14193702,-0.51251215,0.17273471,0.8411266,0.85295326,-0.010531664,0.52188116,9.934998,-0.15792847,-0.07058716,9.8054,-0.1557224,-0.016393013,-0.011566162,0.019927979,0.0057678223,-20.098877,-4.1397095,5.758667,0,0.0,0.0,0.0,0.0
0.290527343,0.0129334675,0.7444878,0.6675108,-0.009509472,-0.6674449,0.7445985,0.99987113,-0.015977915,-0.0015526912,0.0796767,0.99008363,-0.1156983,-0.4969219,0.14006804,0.85641664,0.8641297,-0.0107434355,0.5031544,9.919449,-0.2033844,-0.035888672,9.805387,-0.15668982,-0.015226699,-0.010025024,0.019165039,0.0025634766,-20.399475,-4.3792725,5.279541,0,0.0,0.0,0.0,0.0
0.298828125,0.011618273,0.66233087,0.74912137,-0.01117921,-0.749039,0.6624315,0.99986994,-0.016070895,-0.0012982044,0.052132323,0.9959553,-0.07317916,-0.47330576,0.089167476,0.87637365,0.87935424,-0.011051272,0.4760399,9.948166,-0.18544006,0.06700134,9.805375,-0.15760164,-0.012731036,0.0027923584,0.012451172,0.015380859,-20.759583,-4.8599243,4.6188354,0,0.0,0.0,0.0,0.0
0.307128906,0.0115393195,0.6625147,0.74896,-0.0114346845,-0.7488735,0.6626143,0.99986804,-0.01621024,-0.0010658428,0.052132323,0.9959553,-0.07317916,-0.47330576,0.089167476,0.87637365,0.87935424,-0.011051272,0.4760399,9.948166,-0.18544006,0.06700134,9.805356,-0.15896815,-0.010452348,0.0027923584,0.012451172,0.015380859,-20.759583,-4.8599243,4.6188354,0,0.0,0.0,0.0,0.0
0.315429687,0.011038058,0.633211,0.7739004,-0.012104217,-0.77380615,0.63330656,0.9998658,-0.016357936,-8.7679434E-4,0.033934962,0.9985728,-0.041239057,-0.45751363,0.052206833,0.8876687,0.8885548,-0.0112555735,0.45863232,9.937393,-0.1651001,0.07537842,9.805334,-0.16041656,-0.008598415,1.9836426E-4,-0.0012969971,0.021484375,-20.999146,-4.6188354,4.0786743,0,0.0,0.0,0.0,0.0
0.323730468,0.01106051,0.63315165,0.77394867,-0.012311603,-0.7738511,0.6332478,0.999863,-0.016532594,-7.6407637E-4,0.016957054,0.99982005,-0.008502437,-0.44157642,0.015118061,0.8970962,0.8970634,-0.011457633,0.44175336,9.937393,-0.1651001,0.07537842,9.805306,-0.16212936,-0.0074930293,-0.0023956299,-0.014877319,0.029129028,-20.999146,-4.6188354,4.0786743,0,0.0,0.0,0.0,0.0
0.33203125,0.01118569,0.63282025,0.77421796,-0.012375144,-0.77411944,0.63291854,0.9998608,-0.016660688,-8.278181E-4,0.009165931,0.999929,0.0076102624,-0.43356827,-0.0028838774,0.90111613,0.9010741,-0.011559136,0.43351108,9.927826,-0.095718384,0.0143585205,9.805285,-0.16338554,-0.008118123,0.008285522,-0.012741089,0.029129028,-20.999146,-4.6188354,4.0786743,0,0.0,0.0,0.0,0.0
0.340332031,0.011293301,0.6310242,0.7756809,-0.012427317,-0.7755819,0.63112456,0.999859,-0.016767114,-9.169427E-4,-0.0051105097,0.99921525,0.03927906,-0.41754645,-0.037823763,0.90786797,0.9086412,-0.011761164,0.41741207,9.927826,-0.095718384,0.0143585205,9.805267,-0.16442922,-0.008992136,0.007217407,-0.0023651123,0.02684021,-21.299744,-4.559326,4.019165,0,0.0,0.0,0.0,0.0
0.348632812,0.011330298,0.63092333,0.77576256,-0.012439463,-0.7756634,0.6310243,0.9998584,-0.016799761,-9.4015006E-4,-0.017782358,0.997374,0.07020562,-0.40160733,-0.07142838,0.91302216,0.9156393,-0.011959407,0.40182292,10.003189,-0.034698486,-0.01914978,9.805262,-0.16474938,-0.009219723,0.004928589,0.002532959,0.020874023,-21.299744,-4.559326,4.019165,0,0.0,0.0,0.0,0.0
0.356933593,0.010913424,0.6057043,0.79561496,-0.012782801,-0.79551286,0.60580194,0.9998588,-0.016781561,-9.391715E-4,-0.023542594,0.99607366,0.08534112,-0.39369962,-0.08770409,0.91504574,0.9189377,-0.012056217,0.3942186,10.003189,-0.034698486,-0.01914978,9.805265,-0.1645709,-0.0092101265,0.004928589,0.0023651123,0.016143799,-21.1792,-4.73938,3.8986206,0,0.0,0.0,0.0,0.0
0.365234375,0.009848257,0.5391274,0.84216666,-0.013619888,-0.84205705,0.5392165,0.99985874,-0.016780557,-9.499389E-4,-0.039401833,0.990587,0.13109115,-0.37027,-0.13632777,0.9188661,0.9280882,-0.012334114,0.37215623,10.055832,-0.093322754,-0.026321411,9.805264,-0.16456105,-0.009315718,0.016845703,-0.0060272217,-0.009353638,-21.598816,-5.039978,3.479004,0,0.0,0.0,0.0,0.0
0.373535156,0.009908504,0.538948,0.8422808,-0.013490182,-0.84217346,0.539038,0.99985987,-0.01670358,-0.0010741707,-0.044591088,0.9880807,0.14733669,-0.36252797,-0.15343444,0.91925585,0.9309055,-0.012423045,0.36504868,10.016357,-0.10887146,-0.08255005,9.805276,-0.16380617,-0.010534016,0.024017334,-0.0060272217,-0.009353638,-21.598816,-5.039978,3.479004,0,0.0,0.0,0.0,0.0
0.381835937,0.010040256,0.5385555,0.84253025,-0.013328551,-0.84242576,0.53864753,0.9998607,-0.016637865,-0.0012800047,-0.049427766,0.98533726,0.1633014,-0.3548528,-0.17015868,0.9193071,0.9336147,-0.012508659,0.35806027,9.982849,-0.17347717,-0.11366272,9.8052845,-0.16316172,-0.012552558,0.024017334,-0.012741089,-0.015304565,-21.598816,-5.039978,3.479004,0,0.0,0.0,0.0,0.0
0.390136718,0.009783368,0.51238865,0.85869795,-0.01341133,-0.8585946,0.5124797,0.9998622,-0.01653006,-0.001528133,-0.058103904,0.97920346,0.19438255,-0.33973545,-0.2024847,0.918466,0.9387245,-0.01267218,0.34443527,9.968506,-0.18066406,-0.088531494,9.805299,-0.1621045,-0.014985867,0.024627686,-0.021911621,-0.017303467,-21.598816,-5.218506,3.3599854,0,0.0,0.0,0.0,0.0
0.3984375,0.009895101,0.5120539,0.8588963,-0.013149185,-0.8587975,0.5121465,0.99986464,-0.016361527,-0.0017647962,-0.0659358,0.9720293,0.22541371,-0.324897,-0.23450883,0.9162137,0.9434481,-0.012824955,0.33127195,9.970886,-0.14596558,-0.0765686,9.805323,-0.16045177,-0.01730674,0.034713745,-0.020996094,-0.02279663,-21.598816,-5.218506,3.3599854,0,0.0,0.0,0.0,0.0
0.406738281,0.010707328,0.55890155,0.8291649,-0.012260467,-0.8290768,0.55900043,0.99986756,-0.016151348,-0.0020248024,-0.06940662,0.96817005,0.24047753,-0.3176199,-0.24996084,0.91467875,0.94567454,-0.012895688,0.32485902,10.0247345,-0.13400269,-0.08494568,9.805351,-0.15839063,-0.01985653,0.036087036,-0.021759033,-0.022949219,-21.77887,-5.0994873,3.718567,0,0.0,0.0,0.0,0.0
0.415039062,0.01165294,0.61805606,0.7860476,-0.011114461,-0.78597236,0.6181617,0.99987036,-0.015939899,-0.0022895294,-0.07485592,0.96059424,0.26768515,-0.3035409,-0.27764925,0.9114679,0.9498734,-0.013024615,0.31236333,10.0247345,-0.13400269,-0.08494568,9.805379,-0.15631701,-0.022452613,0.04386902,-0.04069519,-0.0206604,-21.479797,-4.8599243,4.1397095,0,0.0,0.0,0.0,0.0
0.423339843,0.011799917,0.61766595,0.78635216,-0.010754819,-0.786283,0.617773,0.9998725,-0.015746742,-0.0026351875,-0.07853413,0.9534507,0.29114297,-0.29014817,-0.30126262,0.9083253,0.9537539,-0.013140063,0.30030137,10.003189,-0.1375885,-0.055038452,9.8054,-0.1544228,-0.025842361,0.06983948,-0.043136597,-0.013015747,-21.479797,-4.8599243,4.1397095,0,0.0,0.0,0.0,0.0
0.431640625,0.011923428,0.6173378,0.78660786,-0.010491775,-0.78654325,0.6174462,0.9998739,-0.015614985,-0.0029013199,-0.08009648,0.94977325,0.30251488,-0.2836294,-0.31266063,0.90653056,0.95558304,-0.013192196,0.29442662,9.915863,-0.15553284,0.013153076,9.805413,-0.1531307,-0.028452229,0.07182312,-0.031677246,-0.013320923,-21.479797,-4.8599243,4.1397095,0,0.0,0.0,0.0,0.0
0.439941406,0.012977992,0.69091606,0.7228186,-0.009012633,-0.7227693,0.69103074,0.9998751,-0.015482687,-0.0031531197,-0.082711905,0.942244,0.32455346,-0.27095446,-0.33466348,0.90254307,0.95903206,-0.013288141,0.28298587,9.933807,-0.13040161,-0.044265747,9.805426,-0.1518333,-0.030921541,0.07777405,-0.011062622,-0.007369995,-20.939636,-4.4387817,4.6188354,0,0.0,0.0,0.0,0.0
0.448242187,0.012994552,0.6908768,0.7228558,-0.008871123,-0.7228088,0.6909913,0.9998762,-0.015391663,-0.0032637222,-0.08326429,0.9390791,0.33346286,-0.2649622,-0.34344244,0.90102285,0.9606571,-0.013332033,0.27741697,9.933807,-0.13040161,-0.044265747,9.805436,-0.15094066,-0.03200618,0.07609558,8.392334E-4,-5.0354004E-4,-20.939636,-4.4387817,4.6188354,0,0.0,0.0,0.0,0.0
0.456542968,0.013219716,0.70009035,0.71393186,-0.008430688,-0.71389085,0.7002062,0.9998771,-0.015275465,-0.0035351915,-0.08403186,0.9327041,0.35071608,-0.253345,-0.3603931,0.89773774,0.96371937,-0.013413595,0.26658043,9.955338,-0.0765686,-0.21774292,9.805445,-0.14980115,-0.034668386,0.07426453,-0.0038909912,0.0027008057,-20.819092,-4.3792725,4.6798706,0,0.0,0.0,0.0,0.0
0.46484375,0.0125062205,0.62790203,0.778192,-0.009352138,-0.7781454,0.6280147,0.99987805,-0.015131848,-0.0038594313,-0.084266,0.9264846,0.3667773,-0.24224803,-0.376091,0.89435536,0.9665481,-0.013487327,0.25613073,9.955338,-0.0765686,-0.21774292,9.805454,-0.14839274,-0.037848093,0.054870605,-0.021911621,-8.087158E-4,-21.1792,-4.559326,4.019165,0,0.0,0.0,0.0,0.0
0.473144531,0.012717621,0.62732625,0.7786527,-0.00899377,-0.77861243,0.6274407,0.99987864,-0.014982576,-0.004260069,-0.08470778,0.9226289,0.3762719,-0.2367087,-0.38545188,0.8918497,0.967881,-0.0135202175,0.25104505,9.954147,-0.039474487,-0.23449707,9.80546,-0.14692888,-0.04177701,0.042648315,-0.018859863,-0.0012664795,-21.1792,-4.559326,4.019165,0,0.0,0.0,0.0,0.0
0.481445312,0.0129657425,0.62665,0.77919304,-0.008711283,-0.7791581,0.62676686,0.9998779,-0.014914268,-0.004643438,-0.08526895,0.91486615,0.39465058,-0.22597103,-0.4035288,0.8866237,0.9703949,-0.013578127,0.24114174,9.919449,-0.105285645,-0.20698547,9.805453,-0.14625901,-0.04553657,0.023712158,-0.017028809,-0.0011138916,-21.1792,-4.559326,4.019165,0,0.0,0.0,0.0,0.0
0.489746093,0.013101959,0.6198582,0.78460443,-0.008647637,-0.7845722,0.6199772,0.9998768,-0.014907891,-0.004919124,-0.085436925,0.90706295,0.4122346,-0.21568762,-0.42077434,0.8811514,0.97271746,-0.013631038,0.23159191,9.865601,-0.14715576,-0.14356995,9.805442,-0.14619647,-0.048240125,-0.011245728,-0.009231567,0.004852295,-21.418762,-4.559326,3.9596558,0,0.0,0.0,0.0,0.0
0.498046875,0.013290217,0.6193319,0.7850168,-0.008530615,-0.78498733,0.6194531,0.9998753,-0.014929343,-0.0051493705,-0.085420765,0.9030862,0.42087838,-0.21069981,-0.42924213,0.87826914,0.9738115,-0.013656575,0.22694628,9.865601,-0.14715576,-0.14356995,9.805428,-0.14640684,-0.050498076,-0.01751709,-0.005264282,0.0068359375,-21.418762,-4.559326,3.9596558,0,0.0,0.0,0.0,0.0
0.506347656,0.012966808,0.5845806,0.81123203,-0.0091432445,-0.81119704,0.5847015,0.9998741,-0.014999005,-0.005173673,-0.08514011,0.89513254,0.4375944,-0.201055,-0.4455893,0.87236863,0.975873,-0.0137069775,0.2179084,9.956528,-0.15553284,-0.04307556,9.805415,-0.14708999,-0.050736398,-0.027435303,-7.6293945E-5,0.009735107,-21.659851,-4.6798706,3.718567,0,0.0,0.0,0.0,0.0
0.514648437,0.012848711,0.5705638,0.8211528,-0.009394826,-0.82111543,0.57068485,0.9998733,-0.015047151,-0.0051899254,-0.08488873,0.88641894,0.45503333,-0.19170801,-0.4626793,0.8655495,0.97777396,-0.0137581425,0.20920987,9.956528,-0.15553284,-0.04307556,9.805408,-0.14756215,-0.050895784,-0.027740479,-0.004196167,0.0042266846,-21.839905,-4.8599243,3.718567,0,0.0,0.0,0.0,0.0
0.522949218,0.012883614,0.57046115,0.8212235,-0.009394623,-0.8211863,0.57058275,0.99987286,-0.015066254,-0.0052205804,-0.08471001,0.8819129,0.46373895,-0.18717046,-0.47121078,0.8619325,0.9786682,-0.013783922,0.20498432,9.954147,-0.13519287,-0.059814453,9.805404,-0.14774948,-0.051196404,-0.0138549805,-0.0048065186,-0.0011138916,-21.839905,-4.8599243,3.718567,0,0.0,0.0,0.0,0.0
0.53125,0.013041503,0.56999654,0.8215437,-0.009344305,-0.82150817,0.5701203,0.99987125,-0.015111977,-0.0053874794,-0.08413167,0.8729331,0.4805306,-0.17841755,-0.48764372,0.85461736,0.98035145,-0.013834703,0.19677286,9.978073,-0.17108154,-0.11126709,9.8053875,-0.14819787,-0.052833125,-0.016143799,-0.019470215,0.009124756,-21.839905,-4.8599243,3.718567,0,0.0,0.0,0.0,0.0
0.539550781,0.01302987,0.5434561,0.8393364,-0.009724718,-0.8392991,0.5435829,0.99986786,-0.015245126,-0.005651002,-0.08328995,0.8640095,0.49653843,-0.17007758,-0.50328404,0.8472183,0.9819045,-0.013885283,0.18886715,9.969696,-0.21655273,-0.14356995,9.805354,-0.14950362,-0.055417396,-0.011108398,-0.015640259,0.00881958,-21.659851,-5.039978,3.5995483,0,0.0,0.0,0.0,0.0
0.547851562,0.013318613,0.54260516,0.8398823,-0.009728014,-0.83984673,0.5427364,0.9998639,-0.015398882,-0.005907123,-0.08288276,0.8592532,0.50479126,-0.16600437,-0.5113611,0.8431799,0.98263574,-0.01391248,0.18502283,9.969696,-0.21655273,-0.14356995,9.805316,-0.15101145,-0.057929087,-0.003616333,-0.013656616,0.0056152344,-21.659851,-5.039978,3.5995483,0,0.0,0.0,0.0,0.0
0.556152343,0.012849485,0.482172,0.87598234,-0.010685949,-0.8759385,0.4823046,0.99986035,-0.015558068,-0.0061028926,-0.08188874,0.84978795,0.5207251,-0.15815112,-0.52693945,0.8350587,0.98401344,-0.013971342,0.17754532,9.90509,-0.25004578,-0.13040161,9.805281,-0.15257253,-0.05984893,-0.0095825195,-0.0046539307,-0.0041656494,-22.31903,-5.3985596,3.2989502,0,0.0,0.0,0.0,0.0
0.564453125,0.01198558,0.39870748,0.9169999,-0.011879023,-0.91694427,0.39883855,0.9998576,-0.015673373,-0.006253853,-0.08109739,0.8389179,0.53818214,-0.15045977,-0.54407704,0.82543445,0.98528427,-0.014034176,0.17034662,9.913467,-0.24765015,-0.13998413,9.805254,-0.15370329,-0.06132935,-0.003616333,0.008331299,-1.9836426E-4,-22.738647,-5.9387207,2.8793335,0,0.0,0.0,0.0,0.0
0.572753906,0.012100955,0.39834198,0.9171571,-0.011967416,-0.91710085,0.39847547,0.99985516,-0.015797935,-0.006330673,-0.08088137,0.8324914,0.5481025,-0.14661017,-0.5538594,0.81960064,0.98588216,-0.014066962,0.1668486,9.913467,-0.24765015,-0.13998413,9.80523,-0.15492482,-0.062082697,0.007522583,0.013366699,0.0027008057,-22.738647,-5.9387207,2.8793335,0,0.0,0.0,0.0,0.0
0.581054687,0.012168875,0.39812678,0.9172496,-0.012058446,-0.91719246,0.39826193,0.99985325,-0.015907006,-0.0063604102,-0.08023152,0.8196879,0.5671637,-0.13921002,-0.57263595,0.8079038,0.9870074,-0.014135509,0.16005222,9.933807,-0.21894836,-0.1483612,9.805211,-0.15599445,-0.06237432,0.011047363,0.009399414,0.010498047,-22.738647,-5.9387207,2.8793335,0,0.0,0.0,0.0,0.0
0.589355468,0.0112913465,0.3271564,0.9449028,-0.013080972,-0.9448338,0.32728884,0.9998507,-0.016055778,-0.0063889227,-0.079807796,0.8133217,0.5763145,-0.13565697,-0.58164155,0.80205375,0.98753625,-0.014170939,0.15675229,9.933807,-0.21894836,-0.1483612,9.805186,-0.15745339,-0.06265393,0.01638794,0.009246826,0.010955811,-23.098755,-6.478882,2.519226,0,0.0,0.0,0.0,0.0
0.59765625,0.011262188,0.32724813,0.9448713,-0.01319081,-0.9448004,0.32738078,0.99984956,-0.016150642,-0.006323852,-0.079171166,0.7988768,0.59626144,-0.1285995,-0.6013259,0.7885869,0.9885313,-0.014245581,0.15034284,9.907486,-0.15553284,-0.0765686,9.805175,-0.1583837,-0.062015805,0.011199951,0.013824463,0.013702393,-23.098755,-6.478882,2.519226,0,0.0,0.0,0.0,0.0
0.605957031,0.011483381,0.34620383,0.938089,-0.013091572,-0.93801844,0.34633806,0.99984837,-0.016258191,-0.0062392694,-0.078277126,0.78455776,0.6150949,-0.12192935,-0.6198903,0.7751575,0.98944724,-0.014321021,0.14418384,9.98764,-0.15074158,-0.07417297,9.805163,-0.1594384,-0.061186332,0.01638794,0.014282227,0.009124756,-23.339844,-6.539917,2.6992798,0,0.0,0.0,0.0,0.0
0.614257812,0.011425572,0.34638315,0.93802357,-0.013187944,-0.93795097,0.34651697,0.9998477,-0.016329756,-0.006148545,-0.077697426,0.77770954,0.6238036,-0.118767254,-0.62845975,0.7687215,0.98987746,-0.014359765,0.14119613,9.98764,-0.15074158,-0.07417297,9.805157,-0.1601402,-0.060296632,0.0093688965,0.009094238,0.005004883,-23.339844,-6.539917,2.6992798,0,0.0,0.0,0.0,0.0
0.622558593,0.009325693,0.20715594,0.9782635,-0.014796371,-0.97817034,0.20727727,0.999847,-0.016407754,-0.0060569607,-0.076399855,0.7641598,0.64048636,-0.112713456,-0.64486533,0.75593936,0.99068594,-0.014437777,0.13539872,10.025925,-0.17706299,-0.08375549,9.80515,-0.16090511,-0.059398495,0.01776123,0.024215698,0.009735107,-23.878479,-7.1395874,1.739502,0,0.0,0.0,0.0,0.0
0.630859375,0.009304552,0.20722319,0.97824943,-0.014833156,-0.9781555,0.20734437,0.99984664,-0.016439773,-0.0060275253,-0.075556666,0.747015,0.6604996,-0.10657262,-0.66464865,0.7395164,0.99143,-0.014515789,0.12982999,9.948166,-0.1531372,-0.1603241,9.805146,-0.1612191,-0.059109833,0.01638794,0.024978638,-0.0012664795,-23.878479,-7.1395874,1.739502,0,0.0,0.0,0.0,0.0
0.639160156,0.010079477,0.26383334,0.9645157,-0.014288312,-0.9644282,0.26395875,0.9998471,-0.016441865,-0.0059511983,-0.0750502,0.73851484,0.67004734,-0.10363798,-0.6740802,0.7313516,0.9917795,-0.014554269,0.12712802,9.948166,-0.1531372,-0.1603241,9.805151,-0.16123961,-0.058361318,0.02218628,0.034439087,0.0017852783,-23.458862,-6.77948,2.0996094,0,0.0,0.0,0.0,0.0
0.647460937,0.009945695,0.2642605,0.96440005,-0.014297314,-0.9643116,0.2643837,0.9998483,-0.01641781,-0.0058125337,-0.07366502,0.72327745,0.6866172,-0.098201565,-0.6904026,0.7167291,0.99243635,-0.014629019,0.12188551,10.00798,-0.1531372,-0.14117432,9.805162,-0.16100372,-0.057001483,0.00920105,0.027267456,-0.0040130615,-23.458862,-6.77948,2.0996094,0,0.0,0.0,0.0,0.0
0.655761718,0.010151089,0.29338497,0.9559405,-0.013991088,-0.9558545,0.29350716,0.99985063,-0.016354065,-0.0055981893,-0.0721438,0.7083161,0.7021991,-0.09309086,-0.7057423,0.702326,0.99304044,-0.014699856,0.116852686,10.058228,-0.15074158,-0.04307556,9.805185,-0.1603786,-0.054899484,0.0014190674,0.0058898926,-0.007980347,-23.399353,-6.4193726,2.218628,0,0.0,0.0,0.0,0.0
0.6640625,0.010037071,0.29376107,0.9558262,-0.013920666,-0.95574063,0.29388097,0.99985266,-0.01625544,-0.005503486,-0.071287826,0.70137393,0.7092198,-0.090696394,-0.7126413,0.69564116,0.9933238,-0.01473294,0.11441473,10.058228,-0.15074158,-0.04307556,9.805205,-0.15941142,-0.05397076,0.009811401,-7.6293945E-5,-0.015304565,-23.399353,-6.4193726,2.218628,0,0.0,0.0,0.0,0.0
0.672363281,0.008921256,0.22671582,0.9739201,-0.014549714,-0.97382635,0.22682726,0.9998543,-0.016193843,-0.005389104,-0.069516525,0.6877235,0.7226367,-0.08612373,-0.7258219,0.68246996,0.9938562,-0.014793231,0.109685935,10.080963,-0.19023132,0.0382843,9.805222,-0.15880735,-0.052849058,0.022644043,-0.011672974,-0.013626099,-23.699951,-6.539917,1.739502,0,0.0,0.0,0.0,0.0
0.680664062,0.008916541,0.22673188,0.97391635,-0.014428601,-0.9738245,0.2268426,0.9998561,-0.016074903,-0.0054117227,-0.06790544,0.67234737,0.7371145,-0.08164014,-0.7400868,0.66753757,0.99434584,-0.014848696,0.10514646,10.084549,-0.15792847,-0.009567261,9.805239,-0.15764095,-0.053070866,0.034561157,-0.02420044,-0.018066406,-23.699951,-6.539917,1.739502,0,0.0,0.0,0.0,0.0
0.688964843,0.008458148,0.19121277,0.9815121,-0.0145938415,-0.9814191,0.1913204,0.9998577,-0.01594225,-0.00551046,-0.06706823,0.66478246,0.7440202,-0.079500884,-0.74688894,0.6601792,0.99457604,-0.01487322,0.1029433,10.084549,-0.15792847,-0.009567261,9.805255,-0.15634006,-0.054039154,0.03883362,-0.03137207,-0.015472412,-23.519897,-6.6589355,1.499939,0,0.0,0.0,0.0,0.0
0.697265625,0.008662336,0.19052146,0.9816448,-0.014461852,-0.9815551,0.19063167,0.9998579,-0.015847716,-0.0057472656,-0.06544851,0.6488142,0.7581271,-0.07532201,-0.76080066,0.64459985,0.9950091,-0.014915553,0.09866326,10.005585,-0.18544006,-0.046661377,9.805256,-0.155413,-0.056361422,0.04876709,-0.036254883,-0.0137786865,-23.519897,-6.6589355,1.499939,0,0.0,0.0,0.0,0.0
0.705566406,0.008972465,0.18519123,0.98266155,-0.014276901,-0.9825772,0.1853057,0.99985784,-0.01569201,-0.0061721825,-0.06375184,0.6331826,0.77137244,-0.07139601,-0.77385795,0.6293222,0.9954086,-0.014952467,0.09454159,9.970886,-0.13040161,-0.15553284,9.805256,-0.15388606,-0.060528435,0.04663086,-0.040542603,-0.0137786865,-23.519897,-6.1798096,1.3793945,0,0.0,0.0,0.0,0.0
0.713867187,0.0093538845,0.18379718,0.9829197,-0.01406746,-0.98284125,0.18391639,0.9998573,-0.015547516,-0.006607824,-0.06288385,0.62542075,0.7777497,-0.069513075,-0.78014416,0.6217259,0.9955971,-0.014967258,0.09253339,9.970886,-0.13040161,-0.15553284,9.805251,-0.15246905,-0.06480062,0.040512085,-0.03779602,-0.012252808,-23.519897,-6.1798096,1.3793945,0,0.0,0.0,0.0,0.0
0.722167968,0.010025267,0.20363034,0.97899646,-0.013737427,-0.9789252,0.20375621,0.9998554,-0.015491605,-0.007016631,-0.061103955,0.61013776,0.78993565,-0.065910704,-0.7921536,0.60675246,0.99595284,-0.014990238,0.088618316,10.004395,-0.1878357,-0.124420166,9.805232,-0.15192075,-0.06880964,0.038986206,-0.049087524,-0.013931274,-23.399353,-6.059265,1.499939,0,0.0,0.0,0.0,0.0
0.73046875,0.010412464,0.20220712,0.9792875,-0.013567445,-0.9792219,0.20233782,0.99985373,-0.015393262,-0.0074526775,-0.059223417,0.5958865,0.8008819,-0.06257682,-0.8029284,0.59278166,0.99628145,-0.015010092,0.08484084,9.98645,-0.15074158,-0.13279724,9.805216,-0.15095633,-0.0730858,0.029678345,-0.034118652,-0.006454468,-23.399353,-6.059265,1.499939,0,0.0,0.0,0.0,0.0
0.738769531,0.009838701,0.1342558,0.99089783,-0.014133977,-0.99082816,0.13438669,0.9998517,-0.015327519,-0.007850893,-0.058271173,0.5888815,0.8061161,-0.060982898,-0.8080799,0.5859078,0.9964365,-0.015017756,0.08299947,9.9015045,-0.1531372,-0.13400269,9.805196,-0.15031162,-0.07699096,0.026763916,-0.030303955,-0.0030975342,-23.098755,-6.7199707,1.1398315,0,0.0,0.0,0.0,0.0
0.747070312,0.010123358,0.13329874,0.99102414,-0.014057409,-0.99095803,0.13343343,0.9998499,-0.015282028,-0.008157989,-0.05650372,0.57292664,0.8176566,-0.057785414,-0.8194688,0.5702032,0.9967287,-0.015030023,0.079409845,9.92543,-0.14476013,-0.14356995,9.805179,-0.14986551,-0.08000255,0.0315094,-0.007247925,-0.0026397705,-23.098755,-6.7199707,1.1398315,0,0.0,0.0,0.0,0.0
0.755371093,0.0112478575,0.20155452,0.9794127,-0.0132312495,-0.9793588,0.20169538,0.99984914,-0.015227496,-0.008348871,-0.054702625,0.5573646,0.82846385,-0.054791503,-0.8301316,0.5548688,0.9969982,-0.015040004,0.07594922,9.912262,-0.122039795,-0.15434265,9.805171,-0.14933072,-0.08187446,0.026931763,0.0031433105,0.008361816,-22.918701,-6.298828,1.5594482,0,0.0,0.0,0.0,0.0
0.763671875,0.011340526,0.20123342,0.97947776,-0.013209054,-0.9794251,0.20137551,0.99984837,-0.015221677,-0.008449091,-0.05371897,0.5509008,0.8328401,-0.053442534,-0.8344351,0.5485088,0.9971249,-0.015043754,0.07426653,9.912262,-0.122039795,-0.15434265,9.805163,-0.14927366,-0.08285728,0.028900146,-0.0019073486,0.010192871,-22.918701,-6.298828,1.5594482,0,0.0,0.0,0.0,0.0
0.771972656,0.010671535,0.14997528,0.9886322,-0.013759276,-0.98857284,0.1501148,0.99984837,-0.015204817,-0.008486037,-0.05175754,0.5382531,0.8411925,-0.05087501,-0.84264886,0.5360548,0.99736303,-0.0150508,0.07099707,9.958923,-0.088531494,-0.10169983,9.805163,-0.14910832,-0.0832196,0.02784729,-0.015792847,0.009429932,-23.039246,-6.6589355,1.2588501,0,0.0,0.0,0.0,0.0
0.780273437,0.010810207,0.14950854,0.98870134,-0.013786937,-0.9886428,0.14965042,0.9998465,-0.015248915,-0.0086261695,-0.049911216,0.52423596,0.8501091,-0.048371866,-0.8514399,0.5222166,0.99758154,-0.015056898,0.06785467,9.954147,-0.16870117,-0.11366272,9.805145,-0.14954078,-0.084593825,0.02508545,-0.026031494,0.013702393,-23.039246,-6.6589355,1.2588501,0,0.0,0.0,0.0,0.0
0.788574218,0.0103331385,0.099751025,0.9949588,-0.014408413,-0.9948938,0.09989415,0.9998428,-0.015367997,-0.008843121,-0.048988473,0.51737696,0.8543543,-0.047183484,-0.8556251,0.51544106,0.99768424,-0.015060739,0.06632741,9.954147,-0.16870117,-0.11366272,9.805109,-0.15070857,-0.0867214,0.014099121,-0.035339355,0.013092041,-22.918701,-7.1990967,0.95977783,0,0.0,0.0,0.0,0.0
0.796875,0.0106060365,0.09889327,0.99504155,-0.014564395,-0.9949767,0.099042065,0.9998377,-0.015542621,-0.009112439,-0.047232337,0.50225645,0.8634279,-0.04483486,-0.86458737,0.5004783,0.99787724,-0.015072905,0.06335508,9.888336,-0.19381714,-0.1040802,9.8050585,-0.15242104,-0.0893625,-4.119873E-4,-0.027404785,0.013549805,-22.918701,-7.1990967,0.95977783,0,0.0,0.0,0.0,0.0
0.805175781,0.011665981,0.15259834,0.98821944,-0.014072429,-0.98816377,0.15275587,0.9998329,-0.015688695,-0.00938047,-0.04547117,0.48755866,0.8719054,-0.04265032,-0.8729598,0.48592404,0.9980548,-0.015091506,0.060489032,9.914658,-0.13040161,-0.08255005,9.805012,-0.15385354,-0.09199099,1.9836426E-4,-0.022521973,0.012786865,-22.679138,-7.1990967,1.3793945,0,0.0,0.0,0.0,0.0
0.813476562,0.01185388,0.15202297,0.9883059,-0.014124675,-0.9882513,0.152184,0.99983,-0.015763469,-0.009567337,-0.044543996,0.48132837,0.87540776,-0.041664988,-0.8764102,0.47975945,0.9981381,-0.015103449,0.059093356,9.914658,-0.13040161,-0.08255005,9.804983,-0.15458682,-0.09382353,-0.004837036,-0.018707275,0.01461792,-22.679138,-7.1990967,1.3793945,0,0.0,0.0,0.0,0.0
0.821777343,0.01133558,0.106681205,0.9942286,-0.014697507,-0.9941673,0.106842205,0.99982774,-0.015823802,-0.0097015165,-0.042704653,0.46914923,0.88208574,-0.039795097,-0.8829893,0.46770316,0.9982949,-0.015129587,0.056377593,9.9015045,-0.112457275,-0.08135986,9.80496,-0.15517847,-0.09513937,-0.010940552,-0.011367798,0.018737793,-22.918701,-7.6187134,1.0787964,0,0.0,0.0,0.0,0.0
0.830078125,0.011443198,0.10636213,0.9942616,-0.014745482,-0.9942006,0.10652531,0.9998257,-0.015879856,-0.009808472,-0.040960673,0.455757,0.8891612,-0.0379803,-0.8899752,0.45442453,0.99843866,-0.015157077,0.05376377,9.879959,-0.100494385,-0.09451294,9.804941,-0.1557282,-0.09618826,-0.016906738,-0.014877319,0.014160156,-22.918701,-7.6187134,1.0787964,0,0.0,0.0,0.0,0.0
0.838378906,0.011987885,0.13584524,0.99065757,-0.014431998,-0.9906021,0.13601227,0.999824,-0.015927667,-0.0099147055,-0.0400963,0.44921762,0.89252216,-0.03712199,-0.89329356,0.44793817,0.998506,-0.0151715325,0.052493617,9.879959,-0.100494385,-0.09451294,9.804924,-0.15619706,-0.09723005,-0.00819397,-0.018707275,0.015838623,-22.738647,-7.6187134,1.3198853,0,0.0,0.0,0.0,0.0
0.846679687,0.012129357,0.13543251,0.99071234,-0.0144753605,-0.9906576,0.13560225,0.99982166,-0.015985686,-0.010055605,-0.03834323,0.43751785,0.89839184,-0.035543542,-0.8990812,0.43633658,0.99863225,-0.0152014755,0.05002461,9.888336,-0.114852905,-0.117248535,9.804901,-0.15676603,-0.0986118,6.5612793E-4,-7.6293945E-5,0.014465332,-22.738647,-7.6187134,1.3198853,0,0.0,0.0,0.0,0.0
0.854980468,0.012551185,0.16306534,0.9865354,-0.014196608,-0.98648465,0.16323756,0.9998205,-0.016054284,-0.010066576,-0.03662171,0.42619625,0.9038891,-0.034075633,-0.90450245,0.42510486,0.998748,-0.01523253,0.047647335,9.934998,-0.124420166,-0.0765686,9.80489,-0.15743874,-0.098719396,-0.0034637451,0.014282227,0.007751465,-22.799683,-7.319641,1.499939,0,0.0,0.0,0.0,0.0
0.86328125,0.012469594,0.16331139,0.9864958,-0.014250865,-0.9864432,0.16348282,0.99982065,-0.016096981,-0.009973217,-0.035756174,0.42118722,0.9062686,-0.033402324,-0.9068455,0.4201375,0.9988021,-0.015248966,0.046493955,9.934998,-0.124420166,-0.0765686,9.804892,-0.15785746,-0.09780385,0.0055389404,0.015960693,0.0043945313,-22.799683,-7.319641,1.499939,0,0.0,0.0,0.0,0.0
0.871582031,0.012757877,0.19452858,0.9808139,-0.013899524,-0.98076445,0.19469959,0.999822,-0.016116798,-0.009808617,-0.034903035,0.41627043,0.90857065,-0.0327545,-0.90911263,0.4152605,0.9988538,-0.015265928,0.045365524,9.934998,-0.124420166,-0.0765686,9.804905,-0.1580518,-0.09618968,0.019897461,0.0046691895,0.0054626465,-23.039246,-6.9595337,1.6799927,0,0.0,0.0,0.0,0.0
0.879882812,0.012724004,0.19463572,0.9807931,-0.013913742,-0.98074305,0.1948063,0.9998222,-0.016125217,-0.0097708665,-0.032361794,0.40374258,0.9143001,-0.031010201,-0.91474444,0.40284118,0.99899507,-0.015315966,0.042122908,9.9673,-0.14476013,-0.07298279,9.804907,-0.15813436,-0.09581947,0.03303528,-0.00831604,0.0010223389,-23.039246,-6.9595337,1.6799927,0,0.0,0.0,0.0,0.0
0.888183593,0.013394013,0.24074334,0.9704965,-0.013282823,-0.970455,0.24091639,0.999822,-0.016117768,-0.009800534,-0.03154023,0.3997185,0.91609514,-0.030468434,-0.9165097,0.39885038,0.999038,-0.015332151,0.041085728,9.9673,-0.14476013,-0.07298279,9.804905,-0.15806133,-0.09611041,0.03593445,-0.0016021729,0.0013275146,-22.619629,-6.9595337,2.0385742,0,0.0,0.0,0.0,0.0
0.896484375,0.013460343,0.24054211,0.9705454,-0.013279151,-0.97050476,0.2407162,0.99982125,-0.01612814,-0.009869131,-0.030702252,0.3966349,0.9174629,-0.029973712,-0.9178481,0.39579844,0.9990791,-0.015347864,0.040068626,9.942184,-0.16390991,-0.12322998,9.804897,-0.15816303,-0.09678312,0.038223267,-0.0016021729,-0.0017242432,-22.619629,-6.9595337,2.0385742,0,0.0,0.0,0.0,0.0
0.904785156,0.0135511365,0.24026665,0.97061235,-0.013251492,-0.97057307,0.24044193,0.99982035,-0.016120322,-0.009968476,-0.02906518,0.3906312,0.9200883,-0.029029772,-0.9204188,0.3898545,0.9991559,-0.015378763,0.038092077,9.919449,-0.15792847,-0.1531372,9.804889,-0.15808636,-0.09775736,0.026931763,-0.005264282,-0.0014190674,-22.619629,-6.9595337,2.0385742,0,0.0,0.0,0.0,0.0
0.913085937,0.012912793,0.18302186,0.983024,-0.014036805,-0.98297596,0.18319729,0.99981815,-0.016164105,-0.0101239225,-0.027479533,0.3848392,0.92257446,-0.028142456,-0.92285496,0.384118,0.9992261,-0.0154081285,0.036189944,9.952942,-0.20578003,-0.18664551,9.804867,-0.15851574,-0.099281766,0.02218628,-0.0038909912,-0.004470825,-22.918701,-7.0785522,1.6189575,0,0.0,0.0,0.0,0.0
0.921386718,0.012664048,0.15499768,0.9878336,-0.014418843,-0.9877818,0.15517439,0.9998158,-0.016208556,-0.010274429,-0.026736028,0.3809412,0.92421263,-0.027687926,-0.9244706,0.3802466,0.999259,-0.015423248,0.035264146,9.964905,-0.19979858,-0.1651001,9.804844,-0.15895164,-0.10075773,0.02218628,-0.004348755,0.002243042,-23.399353,-7.258606,1.4389038,0,0.0,0.0,0.0,0.0
0.9296875,0.012736745,0.15477021,0.98786837,-0.01444307,-0.987817,0.15494837,0.99981457,-0.01624139,-0.010346215,-0.025307557,0.37231365,0.9277619,-0.026796095,-0.9279783,0.37166956,0.9993205,-0.015454345,0.033461414,9.994827,-0.1878357,-0.12921143,9.8048315,-0.15927364,-0.101461716,0.028152466,-0.0064849854,-0.003250122,-23.399353,-7.258606,1.4389038,0,0.0,0.0,0.0,0.0
0.937988281,0.011500046,0.064577326,0.99784636,-0.015561294,-0.99777997,0.06475237,0.9998128,-0.016272439,-0.01046961,-0.023919426,0.36398882,0.93109614,-0.025966845,-0.93127453,0.36339152,0.9993766,-0.015485512,0.0317272,9.994827,-0.1878357,-0.12921143,9.804814,-0.15957811,-0.1026718,0.024780273,-0.018707275,-0.002029419,-23.519897,-7.8598022,0.7797241,0,0.0,0.0,0.0,0.0
0.946289062,0.011653618,0.06412052,0.99787414,-0.015557292,-0.99780947,0.064298056,0.99981105,-0.016273523,-0.010630547,-0.023285436,0.35824585,0.9333368,-0.025531804,-0.93349856,0.35767096,0.99940276,-0.0155012505,0.030883584,10.022339,-0.16870117,-0.12562561,9.804797,-0.15958875,-0.10425006,0.028152466,-0.013046265,7.171631E-4,-23.519897,-7.8598022,0.7797241,0,0.0,0.0,0.0,0.0
0.954589843,0.011795161,0.06369947,0.99789935,-0.015595836,-0.99783564,0.06387974,0.9998088,-0.016316548,-0.010776187,-0.022037147,0.34704694,0.9375888,-0.024710216,-0.9377191,0.3465144,0.99945176,-0.015531831,0.029240258,10.022339,-0.16870117,-0.12562561,9.804775,-0.16001068,-0.1056783,0.026611328,-0.013961792,0.012939453,-23.519897,-7.8598022,0.7797241,0,0.0,0.0,0.0,0.0
0.962890625,0.012887919,0.12118472,0.9925463,-0.014879426,-0.9924956,0.12137173,0.9998062,-0.016332747,-0.010988044,-0.020817367,0.33622873,0.94155025,-0.023952022,-0.9416517,0.3357354,0.99949634,-0.015562905,0.027656069,9.972092,-0.12322998,-0.17347717,9.80475,-0.16016956,-0.10775591,0.030899048,-0.01777649,8.69751E-4,-22.979736,-7.3791504,1.1993408,0,0.0,0.0,0.0,0.0
0.971191406,0.013098331,0.120541744,0.9926218,-0.014868238,-0.9925737,0.1207321,0.99980366,-0.016339928,-0.011208817,-0.020189216,0.33205473,0.94304407,-0.023617815,-0.9431315,0.3315799,0.9995172,-0.015578302,0.026883492,9.973282,-0.13279724,-0.17108154,9.804725,-0.16023995,-0.10992095,0.037765503,-0.01763916,0.0069885254,-22.979736,-7.3791504,1.1993408,0,0.0,0.0,0.0,0.0
0.979492187,0.013004062,0.105511375,0.9943331,-0.015034549,-0.99428415,0.1057028,0.9998024,-0.016323915,-0.011343415,-0.01895522,0.3239125,0.9458971,-0.022983432,-0.94595826,0.32347286,0.9995561,-0.0156084625,0.025375467,9.952942,-0.119644165,-0.119644165,9.804712,-0.16008292,-0.1112409,0.035476685,-0.010910034,0.0042266846,-23.098755,-7.319641,1.0787964,0,0.0,0.0,0.0,0.0
0.987792968,0.012801333,0.08697945,0.99612784,-0.015247077,-0.9960767,0.08717092,0.9998018,-0.016303942,-0.011424928,-0.017769761,0.31550175,0.94875854,-0.022382889,-0.94879615,0.315095,0.9995916,-0.015636796,0.023921723,9.9266205,-0.10887146,-0.107681274,9.804707,-0.15988706,-0.112040274,0.03135681,-0.010757446,0.0045318604,-22.918701,-7.6187134,0.95977783,0,0.0,0.0,0.0,0.0
0.99609375,0.012857019,0.086813666,0.9961416,-0.015206135,-0.9960918,0.08700558,0.9998017,-0.016266096,-0.01148667,-0.01719818,0.3110593,0.9502349,-0.022092503,-0.95026165,0.31066823,0.999608,-0.015650138,0.023214849,9.96611,-0.08015442,-0.15434265,9.804706,-0.15951592,-0.11264575,0.032424927,-0.0061798096,-0.0015716553,-22.918701,-7.6187134,0.95977783,0,0.0,0.0,0.0,0.0
1.004394531,0.012924381,0.086613104,0.9961582,-0.01509227,-0.99611104,0.086804815,0.9998026,-0.016156187,-0.01156693,-0.016080875,0.3024136,0.9530411,-0.021543447,-0.95304793,0.30205226,0.99963856,-0.015674528,0.021840876,9.96611,-0.08015442,-0.15434265,9.804714,-0.15843807,-0.11343284,0.03303528,0.00390625,-0.002029419,-22.918701,-7.6187134,0.95977783,0,0.0,0.0,0.0,0.0
1.012695312,0.013360264,0.1096754,0.99387765,-0.014626549,-0.99383855,0.10986771,0.9998037,-0.016004862,-0.011673774,-0.014998242,0.29407933,0.9556633,-0.021031752,-0.9556522,0.29374582,0.9996663,-0.015693603,0.020518105,9.919449,-0.06819153,-0.21894836,9.804726,-0.15695408,-0.114480615,0.015930176,0.0063476563,-0.0055389404,-22.738647,-7.559204,1.1398315,0,0.0,0.0,0.0,0.0
1.020996093,0.012163989,0.025103506,0.9996109,-0.015543162,-0.99955934,0.025291352,0.9998052,-0.015844757,-0.01176844,-0.014459654,0.290472,0.95677423,-0.02079417,-0.9567547,0.2901518,0.99967915,-0.01569983,0.019874467,9.882355,-0.088531494,-0.1758728,9.80474,-0.15538399,-0.11540897,0.00630188,0.0016174316,-0.0021820068,-23.278809,-7.798767,0.47912598,0,0.0,0.0,0.0,0.0
1.029296875,0.012220789,0.024934169,0.9996144,-0.015424098,-0.9995654,0.025121516,0.99980634,-0.015725154,-0.0118308915,-0.013476467,0.28023958,0.95983547,-0.020293303,-0.9598016,0.27994478,0.9997032,-0.015705567,0.018621722,9.92543,-0.10169983,-0.17468262,9.804751,-0.15421109,-0.11602142,0.0043182373,-0.004501343,-0.0011138916,-23.278809,-7.798767,0.47912598,0,0.0,0.0,0.0,0.0
1.037597656,0.012874986,0.061843503,0.9980028,-0.014851891,-0.99796367,0.062032677,0.9998069,-0.015620898,-0.011930275,-0.012522671,0.27037528,0.9626736,-0.019828912,-0.9626269,0.27010423,0.9997249,-0.015706342,0.017415907,9.9673,-0.09451294,-0.17228699,9.804756,-0.15318869,-0.116996035,0.0014190674,-0.013046265,-1.9836426E-4,-22.979736,-7.798767,0.7797241,0,0.0,0.0,0.0,0.0
1.045898437,0.013028398,0.061394043,0.99802864,-0.014787133,-0.9979924,0.06158485,0.9998058,-0.015560332,-0.012094399,-0.012041317,0.26629266,0.963817,-0.01961785,-0.9637643,0.266033,0.999735,-0.015704632,0.01682908,9.970886,-0.11843872,-0.1758728,9.804746,-0.15259473,-0.11860554,0.006149292,-0.02053833,0.002090454,-22.979736,-7.798767,0.7797241,0,0.0,0.0,0.0,0.0
1.054199218,0.0131998,0.060891833,0.9980571,-0.014673034,-0.9980248,0.06108392,0.9998052,-0.01545082,-0.012280259,-0.011097562,0.25834003,0.9659903,-0.01921678,-0.96592647,0.2581022,0.9997537,-0.015698917,0.015683891,9.94577,-0.06939697,-0.14476013,9.80474,-0.15152079,-0.12042821,0.010894775,-0.022064209,7.171631E-4,-22.979736,-7.798767,0.7797241,0,0.0,0.0,0.0,0.0
1.0625,0.012973313,0.032038193,0.9994024,-0.01493025,-0.99936885,0.03223093,0.9998043,-0.015339471,-0.012486788,-0.010634873,0.2544665,0.9670231,-0.019025147,-0.96695423,0.25423917,0.9997624,-0.015693955,0.015124699,9.94577,-0.06939697,-0.14476013,9.804731,-0.15042883,-0.12245357,0.010284424,-0.020080566,-0.0012664795,-22.679138,-7.6187134,0.53863525,0,0.0,0.0,0.0,0.0
1.070800781,0.013655538,0.06999512,0.99745387,-0.014286645,-0.99743134,0.07018913,0.9998047,-0.015208739,-0.012620466,-0.009747618,0.24583021,0.9692639,-0.018647302,-0.969186,0.24562295,0.99977857,-0.015679918,0.0140313255,9.940979,-0.06819153,-0.086135864,9.804735,-0.1491468,-0.1237645,0.022644043,-0.03152466,-0.0030975342,-22.859192,-7.499695,0.8392334,0,0.0,0.0,0.0,0.0
1.079101562,0.0138843125,0.069302864,0.99749905,-0.014179071,-0.9974812,0.069498986,0.99980307,-0.015108556,-0.012866692,-0.008858684,0.23897915,0.9709843,-0.018307848,-0.9708984,0.23879099,0.9997931,-0.015661258,0.012976077,9.969696,-0.105285645,-0.12562561,9.804719,-0.14816432,-0.12617914,0.024169922,-0.03916931,-0.0053863525,-22.859192,-7.499695,0.8392334,0,0.0,0.0,0.0,0.0
1.087402343,0.01415721,0.06847703,0.9975522,-0.0140530225,-0.99754006,0.06867563,0.99980104,-0.014990879,-0.013160074,-0.008421779,0.23563823,0.9718043,-0.018144794,-0.9717148,0.23545928,0.99979985,-0.015650205,0.012459174,9.900299,-0.19023132,-0.17945862,9.804699,-0.14701031,-0.12905625,0.027236938,-0.036865234,-0.00920105,-22.859192,-7.499695,0.8392334,0,0.0,0.0,0.0,0.0
1.095703125,0.015221699,0.11351492,0.99341965,-0.013312712,-0.9934237,0.11371937,0.9997955,-0.014956113,-0.013610404,-0.0075615784,0.22911607,0.9733698,-0.017830178,-0.9732737,0.22895496,0.9998124,-0.015624096,0.011444666,9.907486,-0.14955139,-0.26679993,9.804645,-0.14666937,-0.13347247,0.041732788,-0.017166138,-8.087158E-4,-22.799683,-7.4386597,1.1993408,0,0.0,0.0,0.0,0.0
1.104003906,0.015714359,0.112030834,0.9935804,-0.0132558895,-0.9935925,0.11224185,0.9997887,-0.014934602,-0.0141286,-0.006683432,0.22458762,0.9744309,-0.017546343,-0.97432905,0.22444378,0.9998237,-0.015597645,0.010452553,9.912262,-0.15194702,-0.38883972,9.804578,-0.14645842,-0.13855425,0.04234314,-0.01335144,-0.007827759,-22.799683,-7.4386597,1.1993408,0,0.0,0.0,0.0,0.0
1.112304687,0.015526173,0.068275765,0.9975456,-0.013869796,-0.99755514,0.068492286,0.9997832,-0.014899179,-0.014541244,-0.006247164,0.22236028,0.97494453,-0.017408846,-0.97484004,0.22222488,0.99982893,-0.015584385,0.009961021,9.912262,-0.15194702,-0.38883972,9.804524,-0.14611104,-0.1426009,0.04234314,0.0049743652,-0.0038604736,-22.918701,-7.9193115,0.8987427,0,0.0,0.0,0.0,0.0
1.120605468,0.015904967,0.07393183,0.9971365,-0.013756899,-0.9971521,0.07415242,0.99977887,-0.014896897,-0.014842597,-0.005412807,0.21633695,0.97630376,-0.017133597,-0.9761948,0.21621782,0.9998386,-0.015557251,0.008990585,9.937393,-0.15194702,-0.39959717,9.8044815,-0.14608866,-0.14555615,0.012573242,0.01184082,0.006225586,-22.799683,-8.039856,0.95977783,0,0.0,0.0,0.0,0.0
1.12890625,0.016079448,0.07344103,0.9971699,-0.013823399,-0.99718726,0.07366521,0.9997752,-0.014968774,-0.015019016,-0.0045933006,0.21076399,0.9775262,-0.01687804,-0.97741354,0.21066041,0.999847,-0.0155311,0.0080468375,9.942184,-0.16870117,-0.3397827,9.804445,-0.14679353,-0.14728624,0.0043182373,0.009552002,0.0082092285,-22.799683,-8.039856,0.95977783,0,0.0,0.0,0.0,0.0
1.137207031,0.01610767,0.073361635,0.9971753,-0.013878273,-0.9971922,0.07358706,0.9997739,-0.015024387,-0.015044309,-0.004191141,0.20804863,0.97810954,-0.01675826,-0.97799534,0.20795254,0.99985075,-0.015519855,0.0075854487,9.964905,-0.13160706,-0.22132874,9.804433,-0.14733891,-0.14753428,0.0043182373,0.0060424805,0.015075684,-22.799683,-8.039856,0.95977783,0,0.0,0.0,0.0,0.0
1.145507812,0.015744586,0.050594885,0.9985952,-0.014351556,-0.9986046,0.05082164,0.999773,-0.01513156,-0.0149965,-0.0034078297,0.20277226,0.97922003,-0.016534556,-0.9791032,0.20269054,0.9998575,-0.0155002335,0.0066893664,9.972092,-0.14476013,-0.19142151,9.804424,-0.14838992,-0.14706543,0.009811401,0.031082153,0.016601563,-23.039246,-8.21991,0.7797241,0,0.0,0.0,0.0,0.0
1.153808593,0.015475741,0.051345173,0.998561,-0.014500205,-0.998564,0.051570054,0.99977505,-0.015277426,-0.014709004,-0.0026691044,0.19681363,0.98043734,-0.016330233,-0.9803186,0.19674537,0.9998631,-0.015485634,0.0058305846,9.976868,-0.14476013,-0.100494385,9.804444,-0.14982037,-0.14424606,0.019592285,0.033218384,0.022872925,-23.039246,-8.21991,0.7797241,0,0.0,0.0,0.0,0.0
1.162109375,0.015758958,0.094548926,0.9953955,-0.014019889,-0.9954003,0.09477134,0.9997775,-0.015448831,-0.014360904,-0.0023147205,0.1939354,0.9810116,-0.01623858,-0.9808921,0.19387347,0.9998655,-0.015481471,0.0054197265,9.976868,-0.14476013,-0.100494385,9.804468,-0.15150128,-0.14083236,0.020202637,0.033828735,0.021957397,-22.679138,-8.21991,1.1398315,0,0.0,0.0,0.0,0.0
1.170410156,0.015099709,0.06846705,0.9975391,-0.014627536,-0.997531,0.068687916,0.99977905,-0.015628707,-0.014060924,-0.0016105229,0.19003025,0.98177695,-0.01607916,-0.98165625,0.1899805,0.99986947,-0.015480178,0.004636506,9.931412,-0.102890015,-0.0993042,9.804483,-0.15326527,-0.13789056,0.026931763,0.016571045,0.023773193,-22.918701,-8.039856,0.8987427,0,0.0,0.0,0.0,0.0
1.178710937,0.01491116,0.06900073,0.9975052,-0.014761951,-0.99749213,0.0692205,0.9997798,-0.01575728,-0.013855181,-9.5982593E-4,0.18525863,0.9826894,-0.015939767,-0.9825678,0.18522015,0.9998725,-0.01548606,0.0038960732,9.931412,-0.102890015,-0.0993042,9.804491,-0.15452613,-0.13587292,0.03715515,0.0019226074,0.020263672,-22.918701,-8.039856,0.8987427,0,0.0,0.0,0.0,0.0
1.187011718,0.014741249,0.06948163,0.9974743,-0.014934504,-0.99745613,0.06970108,0.9997798,-0.015924266,-0.013666077,-6.472084E-4,0.18295321,0.9831214,-0.015877869,-0.98299956,0.18292007,0.99987376,-0.015491485,0.0035411126,9.931412,-0.14356995,-0.046661377,9.80449,-0.15616369,-0.13401842,0.040359497,0.004211426,0.019348145,-22.918701,-8.039856,0.8987427,0,0.0,0.0,0.0,0.0
1.1953125,0.014589688,0.068684585,0.9975318,-0.015112697,-0.9975088,0.06890404,0.99977934,-0.016080683,-0.013515333,-4.5422E-5,0.17849553,0.9839407,-0.015769983,-0.9838185,0.17847262,0.9998756,-0.015508622,0.0028595587,9.936203,-0.14715576,-0.0382843,9.804486,-0.15769763,-0.13254014,0.03074646,-0.005569458,0.019042969,-23.039246,-8.1588745,0.8987427,0,0.0,0.0,0.0,0.0
1.203613281,0.014488065,0.068969555,0.99751353,-0.015265688,-0.99748665,0.069189414,0.99977845,-0.016230153,-0.013398784,2.4412526E-4,0.17631622,0.9843335,-0.015723353,-0.9842112,0.17629822,0.9998763,-0.015520064,0.0025320116,9.936203,-0.14715576,-0.0382843,9.804478,-0.15916343,-0.13139719,0.03303528,-0.004196167,0.018585205,-23.039246,-8.1588745,0.8987427,0,0.0,0.0,0.0,0.0
1.211914062,0.0147884125,0.08542636,0.9962347,-0.015095074,-0.99621105,0.08564841,0.9997767,-0.016304841,-0.013442863,8.031329E-4,0.17209618,0.9850798,-0.015643377,-0.98495746,0.17208755,0.99987733,-0.015548184,0.0019011135,9.913467,-0.11126709,-0.1531372,9.804461,-0.15989588,-0.13182946,0.03807068,0.005432129,0.010955811,-22.918701,-7.9193115,1.0192871,0,0.0,0.0,0.0,0.0
1.220214843,0.013290015,-0.008687085,0.999874,-0.016466806,-0.9998286,-0.008467818,0.99977607,-0.016352192,-0.0134307835,0.0013529197,0.1686846,0.98566914,-0.015573105,-0.98554695,0.16868508,0.9998778,-0.015578147,0.0012935773,9.899109,-0.15074158,-0.11843872,9.804455,-0.16036023,-0.131711,0.02798462,0.015045166,0.007904053,-23.278809,-8.039856,0.23956299,0,0.0,0.0,0.0,0.0
1.228515625,0.013140736,-0.008254695,0.99987954,-0.016532158,-0.999831,-0.008037023,0.999777,-0.016424555,-0.013274984,0.0015903701,0.16517112,0.98626363,-0.015544462,-0.9861416,0.16517577,0.9998779,-0.015593628,9.99166E-4,9.899109,-0.15074158,-0.11843872,9.804463,-0.16106987,-0.13018313,0.020812988,0.03199768,0.00881958,-23.278809,-8.039856,0.23956299,0,0.0,0.0,0.0,0.0
1.236816406,0.012896343,-0.00754681,0.99988836,-0.016582923,-0.9998356,-0.007332529,0.99977934,-0.016486509,-0.013019372,0.002046469,0.15836436,0.9873786,-0.015498027,-0.98725706,0.15837699,0.99987775,-0.015626535,4.339443E-4,9.911072,-0.15074158,-0.122039795,9.804486,-0.16167742,-0.12767643,0.028457642,0.03993225,0.012481689,-23.278809,-8.039856,0.23956299,0,0.0,0.0,0.0,0.0
1.245117187,0.013660139,0.06083544,0.9980544,-0.015803345,-0.9980097,0.061049014,0.9997818,-0.016606534,-0.012671546,0.0024759152,0.15184744,0.9884008,-0.0154639445,-0.9882799,0.1518676,0.9998774,-0.015660588,-9.87369E-5,9.976868,-0.18066406,-0.0993042,9.80451,-0.16285448,-0.124265425,0.03868103,0.032455444,0.015075684,-23.039246,-7.6187134,0.7797241,0,0.0,0.0,0.0,0.0
1.253417968,0.013365547,0.06172114,0.99800396,-0.015951281,-0.99795294,0.061931606,0.99978346,-0.016747192,-0.012353656,0.0026991107,0.15003707,0.98867667,-0.015449412,-0.988556,0.15006092,0.99987704,-0.015679507,-3.5023756E-4,9.976868,-0.18066406,-0.0993042,9.804527,-0.16423386,-0.12114799,0.03135681,0.024215698,0.016143799,-23.039246,-7.6187134,0.7797241,0,0.0,0.0,0.0,0.0
1.26171875,0.012276738,0.009679242,0.99987775,-0.016739506,-0.99981093,0.009884127,0.99978447,-0.016858805,-0.012112391,0.003121317,0.1465575,0.9891972,-0.015430935,-0.98907715,0.1465884,0.999876,-0.015721787,-8.2570425E-4,9.957733,-0.1531372,-0.095718384,9.804537,-0.1653284,-0.118781984,0.02279663,0.012908936,0.016448975,-23.339844,-7.4386597,0.35858154,0,0.0,0.0,0.0,0.0
1.270019531,0.012383882,0.026264267,0.99957836,-0.01666236,-0.9995108,0.026468923,0.99978447,-0.01698312,-0.011940198,0.0034862063,0.14117256,0.9899788,-0.015429143,-0.98985946,0.14120986,0.9998749,-0.015766812,-0.0012726828,9.962524,-0.1603241,-0.07777405,9.804537,-0.16654752,-0.11709335,0.015014648,-0.001449585,0.017669678,-23.278809,-7.258606,0.47912598,0,0.0,0.0,0.0,0.0
1.278320312,0.012318347,0.026474128,0.9995737,-0.016783934,-0.99950325,0.026679099,0.9997832,-0.01710542,-0.0118678855,0.0036652826,0.13888764,0.9903013,-0.015431594,-0.9901822,0.13892804,0.9998742,-0.01579114,-0.0014860401,9.962524,-0.1603241,-0.07777405,9.804524,-0.16774686,-0.1163842,0.0070648193,-0.007247925,0.012786865,-23.278809,-7.258606,0.47912598,0,0.0,0.0,0.0,0.0
1.286621093,0.012319743,0.026469653,0.99957365,-0.016820462,-0.9995026,0.026675085,0.9997826,-0.017141923,-0.011868384,0.0038397447,0.13665205,0.9906117,-0.015437482,-0.9904928,0.13669549,0.99987346,-0.015817426,-0.0016936759,9.992432,-0.13160706,-0.086135864,9.804519,-0.16810484,-0.11638909,0.0066070557,-0.007858276,0.007293701,-23.278809,-7.258606,0.47912598,0,0.0,0.0,0.0,0.0
1.294921875,0.013226203,0.076100364,0.9970125,-0.016243365,-0.9969518,0.076311216,0.9997806,-0.017204143,-0.011949759,0.004342707,0.13020517,0.99147755,-0.015461419,-0.99135965,0.1302574,0.999871,-0.015895318,-0.0022920275,9.996017,-0.18424988,-0.13519287,9.804499,-0.16871502,-0.117187105,0.006454468,-0.0049591064,0.008972168,-23.2193,-6.9595337,0.8392334,0,0.0,0.0,0.0,0.0
1.303222656,0.013285374,0.07590465,0.99702656,-0.016305916,-0.99696547,0.07611728,0.99977875,-0.017268678,-0.012007364,0.004520879,0.12912628,0.9916178,-0.01546713,-0.9915003,0.1291815,0.9998701,-0.015921496,-0.0024852399,9.996017,-0.18424988,-0.13519287,9.804481,-0.16934788,-0.11775202,0.0069122314,0.0020599365,0.004699707,-23.2193,-6.9595337,0.8392334,0,0.0,0.0,0.0,0.0
1.311523437,0.013791955,0.09781654,0.9951089,-0.016020533,-0.9950542,0.098033205,0.99977654,-0.017294245,-0.012156669,0.0048688706,0.12702484,0.9918876,-0.015481672,-0.99177086,0.1270859,0.9998683,-0.015974844,-0.0028622472,9.9673,-0.16151428,-0.21296692,9.804459,-0.16959861,-0.1192162,0.004623413,-0.007095337,8.69751E-4,-23.339844,-7.0785522,1.0192871,0,0.0,0.0,0.0,0.0
1.319824218,0.014852022,0.1545669,0.9878707,-0.015176359,-0.987831,0.15478885,0.9997745,-0.017291207,-0.012325523,0.0052227257,0.12587003,0.992033,-0.015492792,-0.99191725,0.12593691,0.9998663,-0.016027095,-0.0032304334,9.949356,-0.15792847,-0.2536316,9.80444,-0.16956884,-0.12087211,0.008590698,-0.0061798096,-0.0021820068,-23.278809,-6.9595337,1.4389038,0,0.0,0.0,0.0,0.0
1.328125,0.0150706135,0.15385795,0.9879781,-0.015128301,-0.9879421,0.1540831,0.99977195,-0.017268555,-0.012561282,0.0056041977,0.1270088,0.9918858,-0.015490657,-0.99177134,0.12708166,0.99986434,-0.016077153,-0.0035906327,9.949356,-0.15792847,-0.2536316,9.804414,-0.16934668,-0.1231841,0.007980347,-0.004196167,2.593994E-4,-23.278809,-6.9595337,1.4389038,0,0.0,0.0,0.0,0.0
1.336425781,0.015304345,0.15309973,0.98809224,-0.015092119,-0.98806,0.1533285,0.999769,-0.017258998,-0.012811012,0.005793581,0.12754667,0.9918157,-0.0154883545,-0.9917019,0.12762251,0.99986327,-0.016100982,-0.0037700166,9.934998,-0.16870117,-0.2763672,9.804385,-0.16925296,-0.12563312,0.007980347,-0.0035858154,-0.0021820068,-23.278809,-6.9595337,1.4389038,0,0.0,0.0,0.0,0.0
1.344726562,0.014367505,0.076883525,0.9969365,-0.016183417,-0.99689096,0.07711324,0.9997658,-0.017241767,-0.013078597,0.0061703166,0.12856036,0.99168247,-0.015481848,-0.99157023,0.12864213,0.9998611,-0.01614684,-0.00412795,9.908676,-0.1651001,-0.29551697,9.804354,-0.16908398,-0.12825723,-0.012008667,-0.004348755,-0.0017242432,-23.519897,-7.258606,0.8987427,0,0.0,0.0,0.0,0.0
1.353027343,0.014617803,0.076079674,0.9969946,-0.016156148,-0.996953,0.07631338,0.9997626,-0.017223127,-0.013344106,0.006334603,0.12752974,0.9918145,-0.015487121,-0.991703,0.1276143,0.99986,-0.01616874,-0.0043069758,9.908676,-0.1651001,-0.29551697,9.804322,-0.16890119,-0.13086098,-0.012008667,-0.0035858154,0.0019378662,-23.519897,-7.258606,0.8987427,0,0.0,0.0,0.0,0.0
1.361328125,0.015189923,0.110478945,0.99376243,-0.015622524,-0.9937296,0.11071409,0.9997626,-0.017206814,-0.013368713,0.006663257,0.12549813,0.99207145,-0.0154965315,-0.99196136,0.12558828,0.99985766,-0.016210495,-0.0046649077,9.94696,-0.1483612,-0.12921143,9.804322,-0.16874121,-0.1311023,-0.027130127,-9.918213E-4,0.003479004,-23.519897,-7.019043,1.1398315,0,0.0,0.0,0.0,0.0
1.369628906,0.015203785,0.11043325,0.9937672,-0.015615856,-0.9937346,0.11066854,0.9997624,-0.017201107,-0.01338402,0.006833853,0.12519796,0.9921083,-0.015496496,-0.991999,0.12529093,0.9998566,-0.016230421,-0.004839046,9.94696,-0.1483612,-0.12921143,9.804321,-0.16868526,-0.13125241,-0.018432617,-0.0023651123,0.0010223389,-23.519897,-7.019043,1.1398315,0,0.0,0.0,0.0,0.0
1.377929687,0.013894797,0.02979859,0.9994594,-0.016787812,-0.99940807,0.030030448,0.99976254,-0.017196001,-0.013386318,0.0071653016,0.12461345,0.9921795,-0.015496452,-0.992072,0.124711856,0.99985427,-0.01626886,-0.0051774294,10.017548,-0.16870117,-0.10169983,9.804321,-0.16863517,-0.13127494,-0.0045318604,-0.009994507,-0.004470825,-23.81897,-6.9595337,0.53863525,0,0.0,0.0,0.0,0.0
1.386230468,0.013828612,0.030024657,0.9994535,-0.016737748,-0.99940205,0.030254697,0.99976426,-0.01714698,-0.013317798,0.0074341134,0.120874636,0.99263996,-0.015520444,-0.99253386,0.12097795,0.99985194,-0.016305577,-0.005502581,10.022339,-0.15074158,-0.028717041,9.804338,-0.16815443,-0.13060299,0.0052337646,-0.009384155,-0.0011138916,-23.81897,-6.9595337,0.53863525,0,0.0,0.0,0.0,0.0
1.39453125,0.014940704,0.10279978,0.99458987,-0.015644398,-0.9945551,0.103031196,0.999766,-0.017099118,-0.013251114,0.007562979,0.11906507,0.99285764,-0.015532054,-0.9927523,0.11917075,0.99985075,-0.016322406,-0.00565884,10.022339,-0.15074158,-0.028717041,9.804356,-0.16768508,-0.12994903,0.017913818,-0.0104522705,-0.0027923584,-23.519897,-7.019043,1.0787964,0,0.0,0.0,0.0,0.0
1.402832031,0.014978857,0.10267387,0.9946023,-0.0155649455,-0.99456936,0.10290488,0.9997666,-0.017022327,-0.013299398,0.007855073,0.11842143,0.9929323,-0.015531861,-0.9928288,0.11853194,0.99984854,-0.016353164,-0.0059594377,10.031906,-0.15074158,-0.08494568,9.804361,-0.166932,-0.13042255,0.03807068,-0.02420044,-0.01499939,-23.519897,-7.019043,1.0787964,0,0.0,0.0,0.0,0.0
1.411132812,0.015879126,0.15550081,0.9877082,-0.014600417,-0.98769134,0.1557329,0.9997673,-0.01689385,-0.013413297,0.008137049,0.11779856,0.99300414,-0.015528828,-0.9929024,0.11791374,0.9998463,-0.016379662,-0.0062500224,10.00679,-0.14955139,-0.095718384,9.804368,-0.16567208,-0.13153951,0.050445557,-0.022369385,-0.015914917,-23.519897,-6.3598633,1.3793945,0,0.0,0.0,0.0,0.0
1.419433593,0.015971292,0.15517089,0.9877586,-0.014436575,-0.9877458,0.1554023,0.9997682,-0.016741823,-0.013535439,0.008292366,0.118554614,0.9929129,-0.015515834,-0.9928122,0.118672185,0.9998452,-0.016389946,-0.0063932887,10.00679,-0.14955139,-0.095718384,9.804377,-0.16418119,-0.13273731,0.05456543,-0.020843506,-0.018066406,-23.519897,-6.3598633,1.3793945,0,0.0,0.0,0.0,0.0
1.427734375,0.014763037,0.06443022,0.997813,-0.015689714,-0.9977839,0.064660475,0.99976784,-0.016609987,-0.013719429,0.008597698,0.120008305,0.9927356,-0.015483513,-0.99263734,0.12013052,0.9998432,-0.01640388,-0.0066762464,9.985245,-0.16870117,-0.16630554,9.804374,-0.16288833,-0.13454165,0.059295654,-0.013046265,-0.015304565,-23.638916,-6.6589355,0.7797241,0,0.0,0.0,0.0,0.0
1.436035156,0.014893463,0.063970454,0.9978407,-0.015552964,-0.9978158,0.064201,0.9997681,-0.016475555,-0.013866002,0.008841407,0.117813654,0.99299634,-0.015477685,-0.9929001,0.11794004,0.9998411,-0.01641204,-0.006955151,9.88356,-0.15434265,-0.17347717,9.804377,-0.16157001,-0.13597904,0.06448364,0.0017547607,-0.006454468,-23.638916,-6.6589355,0.7797241,0,0.0,0.0,0.0,0.0
1.444335937,0.0160595,0.13674514,0.99047613,-0.014337783,-0.9904704,0.13697682,0.99976814,-0.01640101,-0.013945836,0.008962021,0.116739556,0.99312216,-0.015472353,-0.9930269,0.11686799,0.99984014,-0.01641331,-0.0070932927,9.88356,-0.15434265,-0.17347717,9.804377,-0.16083896,-0.13676193,0.05029297,0.0013122559,0.002090454,-22.979736,-6.4193726,1.2588501,0,0.0,0.0,0.0,0.0
1.452636718,0.016080374,0.1366723,0.9904858,-0.014328641,-0.9904807,0.13690422,0.9997681,-0.016393786,-0.01396897,0.0092438655,0.117532656,0.993026,-0.015432768,-0.9929334,0.11766535,0.9998382,-0.016412823,-0.0073646884,9.902695,-0.14117432,-0.16749573,9.804376,-0.16076812,-0.1369888,0.029830933,0.001449585,0.008666992,-22.979736,-6.4193726,1.2588501,0,0.0,0.0,0.0,0.0
1.4609375,0.014557607,0.029807044,0.9994496,-0.015990105,-0.99942076,0.03003909,0.9997662,-0.016418602,-0.014072557,0.009515386,0.11829159,0.99293333,-0.015393963,-0.9928433,0.11842838,0.9998362,-0.01641207,-0.0076263105,9.930206,-0.12802124,-0.21774292,9.804357,-0.16101149,-0.13800463,0.030593872,-0.008468628,0.012939453,-23.098755,-6.77948,0.53863525,0,0.0,0.0,0.0,0.0
1.469238281,0.014712614,0.029279966,0.99946296,-0.01604991,-0.9994355,0.029515425,0.99976295,-0.01647554,-0.014234367,0.009616154,0.11652861,0.99314076,-0.015395915,-0.9930517,0.116667226,0.9998352,-0.0164122,-0.0077552735,9.930206,-0.12802124,-0.21774292,9.804326,-0.16156986,-0.13959147,0.028762817,-0.021759033,0.020111084,-23.098755,-6.77948,0.53863525,0,0.0,0.0,0.0,0.0
1.477539062,0.015337302,0.062112816,0.9979514,-0.015620243,-0.99793214,0.06235168,0.9997604,-0.016544545,-0.014335368,0.0098179,0.113086104,0.9935366,-0.015402596,-0.9934496,0.11322839,0.99983317,-0.016414711,-0.0080117695,9.968506,-0.11366272,-0.11843872,9.8043,-0.16224657,-0.14058194,0.027069092,-0.015182495,0.015686035,-23.278809,-6.77948,0.7797241,0,0.0,0.0,0.0,0.0
1.485839843,0.015412991,0.061854616,0.99796605,-0.015723445,-0.99794614,0.062096223,0.9997575,-0.016648557,-0.014408771,0.0099281,0.11206921,0.99365085,-0.015401027,-0.9935648,0.11221338,0.9998321,-0.01641731,-0.008138228,10.009171,-0.1268158,-0.08734131,9.804273,-0.16326658,-0.14130178,0.029373169,-0.012741089,0.017211914,-23.278809,-6.77948,0.7797241,0,0.0,0.0,0.0,0.0
1.494140625,0.01598827,0.096871406,0.99516845,-0.015257571,-0.99515605,0.09711532,0.9997557,-0.01673656,-0.014432802,0.010145131,0.1100853,0.9938704,-0.01540255,-0.9937864,0.110233225,0.9998299,-0.016426468,-0.008386498,9.978073,-0.1375885,-0.0993042,9.804255,-0.16412959,-0.14153744,0.029678345,-0.0066375732,0.015838623,-23.458862,-6.5994263,1.0192871,0,0.0,0.0,0.0,0.0
1.502441406,0.016028065,0.096731946,0.9951814,-0.015359569,-0.99516803,0.09697802,0.9997536,-0.016839927,-0.014464857,0.010376285,0.10956211,0.9939258,-0.015393834,-0.99384403,0.1097138,0.9998277,-0.016438749,-0.008625828,9.955338,-0.13877869,-0.12562561,9.804234,-0.16514328,-0.1418518,0.016540527,-0.0075531006,0.021957397,-23.458862,-6.5994263,1.0192871,0,0.0,0.0,0.0,0.0
1.510742187,0.016498253,0.12468713,0.99205893,-0.0150626255,-0.99205035,0.12493654,0.99975044,-0.017004248,-0.014488984,0.0106000295,0.10905451,0.9939793,-0.015389666,-0.99389964,0.109209895,0.9998254,-0.016454635,-0.008857053,9.985245,-0.17228699,-0.122039795,9.804203,-0.16675471,-0.1420884,0.008590698,-0.016860962,0.011871338,-23.098755,-6.9595337,1.2588501,0,0.0,0.0,0.0,0.0
1.519042968,0.01657786,0.12442854,0.99209005,-0.015184694,-0.9920806,0.124681085,0.9997472,-0.01713153,-0.014557165,0.010718049,0.10936752,0.99394363,-0.015384914,-0.9938651,0.10952477,0.9998242,-0.016465629,-0.008969683,9.985245,-0.17228699,-0.122039795,9.804172,-0.16800292,-0.14275703,0.007843018,-0.018707275,0.009124756,-23.098755,-6.9595337,1.2588501,0,0.0,0.0,0.0,0.0
1.52734375,0.01649487,0.10856812,0.9939521,-0.015494351,-0.9939402,0.10882395,0.9997438,-0.017195681,-0.014712724,0.011062606,0.110254094,0.9938419,-0.01537799,-0.9937664,0.1104169,0.9998206,-0.016504789,-0.00929816,9.964905,-0.15074158,-0.21894836,9.804138,-0.16863203,-0.14428253,0.014404297,-0.020233154,0.013702393,-23.278809,-6.8984985,1.1398315,0,0.0,0.0,0.0,0.0
1.535644531,0.016806325,0.107534856,0.9940593,-0.015514127,-0.994052,0.107796356,0.9997384,-0.01723362,-0.015038049,0.011171303,0.110220425,0.99384445,-0.015380136,-0.9937699,0.11038505,0.99981934,-0.016518606,-0.0094065,9.870392,-0.12083435,-0.2679901,9.804085,-0.16900408,-0.14747289,0.014404297,-0.0020599365,0.009429932,-23.278809,-6.8984985,1.1398315,0,0.0,0.0,0.0,0.0
1.543945312,0.015794007,0.029271582,0.99944663,-0.016807714,-0.99942225,0.029536478,0.999734,-0.017264916,-0.015292897,0.0112840105,0.110166855,0.9938491,-0.015382522,-0.9937756,0.11033336,0.999818,-0.016532907,-0.00951913,9.870392,-0.12083435,-0.2679901,9.804041,-0.16931097,-0.14997208,-1.0681152E-4,-6.866455E-4,0.012634277,-23.15979,-7.978821,0.5996704,0,0.0,0.0,0.0,0.0
1.552246093,0.015954016,0.028807957,0.99945766,-0.016838314,-0.9994353,0.029076098,0.9997309,-0.017293062,-0.015459931,0.011465073,0.10697378,0.99419576,-0.015423002,-0.9941239,0.10714391,0.99981534,-0.016561894,-0.009747845,9.877579,-0.13040161,-0.25723267,9.804011,-0.16958702,-0.15161014,-0.009414673,3.8146973E-4,0.0071411133,-23.15979,-7.978821,0.5996704,0,0.0,0.0,0.0,0.0
1.560546875,0.017002884,0.08163505,0.9965173,-0.015982058,-0.9965119,0.0819073,0.9997277,-0.017319055,-0.015638877,0.011645298,0.10388797,0.99452084,-0.015463749,-0.9944506,0.1040617,0.9998126,-0.016590849,-0.009974177,9.954147,-0.14237976,-0.25483704,9.80398,-0.16984192,-0.153365,-0.012924194,0.0022277832,0.009277344,-23.15979,-7.6187134,1.0192871,0,0.0,0.0,0.0,0.0
1.568847656,0.017126104,0.08126424,0.99654543,-0.015998513,-0.99654174,0.08153888,0.99972534,-0.017339688,-0.01576677,0.011752643,0.10344338,0.9945659,-0.0154716885,-0.9944967,0.103619,0.99981123,-0.016605413,-0.010087522,9.954147,-0.14237976,-0.25483704,9.803957,-0.17004426,-0.1546192,-0.015380859,0.00390625,0.0066833496,-23.15979,-7.6187134,1.0192871,0,0.0,0.0,0.0,0.0
1.577148437,0.015413963,-0.024177058,0.9995889,-0.017735856,-0.999557,-0.023902794,0.9997239,-0.017360125,-0.015835937,0.01196572,0.10256599,0.9946543,-0.015487864,-0.9945871,0.10274539,0.9998085,-0.016634492,-0.010312422,9.944565,-0.1603241,-0.21296692,9.803943,-0.17024466,-0.15529749,-0.01828003,-0.0048065186,-0.0026397705,-23.999023,-7.9193115,0.17852783,0,0.0,0.0,0.0,0.0
1.585449218,0.015468629,-0.024342827,0.9995841,-0.017770264,-0.9995525,-0.024067061,0.9997224,-0.017390585,-0.015894283,0.012108204,0.097564824,0.9951555,-0.015555036,-0.9950897,0.097747624,0.9998057,-0.016663227,-0.010531124,9.899109,-0.1986084,-0.19262695,9.803928,-0.17054337,-0.15586968,-0.033706665,-3.8146973E-4,0.0023956299,-23.999023,-7.9193115,0.17852783,0,0.0,0.0,0.0,0.0
1.59375,0.016908899,0.056119986,0.9982808,-0.016498467,-0.99827194,0.056398936,0.9997209,-0.017423749,-0.015953787,0.012178365,0.095134854,0.9953899,-0.015588807,-0.99532473,0.095319346,0.9998043,-0.016677774,-0.010638388,9.899109,-0.1986084,-0.19262695,9.803913,-0.1708686,-0.1564532,-0.032318115,5.340576E-4,0.004699707,-24.058533,-7.6797485,0.8392334,0,0.0,0.0,0.0,0.0
1.602050781,0.016876651,0.056220435,0.99827576,-0.016624967,-0.99826413,0.056500837,0.9997193,-0.017549846,-0.015912691,0.01236654,0.09359222,0.99553376,-0.015617327,-0.9954704,0.09378026,0.9998015,-0.016707314,-0.010848865,9.870392,-0.24406433,-0.13998413,9.803898,-0.17210521,-0.1560502,-0.030960083,0.013214111,0.008666992,-24.058533,-7.6797485,0.8392334,0,0.0,0.0,0.0,0.0
1.610351562,0.017971708,0.13403457,0.9908136,-0.015393628,-0.99081916,0.13431454,0.99972004,-0.01766608,-0.015743434,0.012546183,0.092114635,0.99566936,-0.015650364,-0.9956077,0.09230614,0.99979883,-0.016740678,-0.011049448,9.94577,-0.22013855,-0.09451294,9.803905,-0.17324506,-0.15439035,-0.022705078,0.019927979,0.011413574,-23.699951,-7.019043,1.3793945,0,0.0,0.0,0.0,0.0
1.618652343,0.017773274,0.13468787,0.9907287,-0.015546919,-0.99072814,0.13496672,0.99972117,-0.017801577,-0.015514502,0.012654511,0.09295487,0.99559,-0.015649458,-0.9955293,0.09314811,0.99979746,-0.016759187,-0.011143244,9.94577,-0.22013855,-0.09451294,9.803916,-0.17457384,-0.1521453,-0.018127441,0.02192688,0.006072998,-23.699951,-7.019043,1.3793945,0,0.0,0.0,0.0,0.0
1.626953125,0.016495546,0.06889518,0.9974875,-0.01677092,-0.9974639,0.0691709,0.9997233,-0.017869795,-0.015298278,0.012856858,0.09461115,0.99543124,-0.015653048,-0.99537253,0.094807744,0.9997948,-0.016800465,-0.011316411,9.963715,-0.18304443,-0.110076904,9.803937,-0.17524283,-0.15002486,0.0011138916,0.010620117,0.0066833496,-23.278809,-7.4386597,0.8987427,0,0.0,0.0,0.0,0.0
1.635253906,0.016394058,0.06921037,0.9974674,-0.016892176,-0.99743986,0.0694861,0.99972284,-0.017988553,-0.015182973,0.013001825,0.09359367,0.99552554,-0.015693543,-0.99546796,0.09379322,0.9997923,-0.016842809,-0.011474084,9.950546,-0.22851563,-0.15434265,9.803932,-0.17640746,-0.1488941,0.008285522,0.0017547607,0.0065307617,-23.278809,-7.4386597,0.8987427,0,0.0,0.0,0.0,0.0
1.643554687,0.016592769,0.08338161,0.9963796,-0.01678277,-0.9963532,0.08365888,0.99972147,-0.01811014,-0.015132883,0.013070099,0.09310661,0.99557036,-0.0157158,-0.99551326,0.09330759,0.9997911,-0.016865725,-0.011548213,9.950546,-0.22851563,-0.15434265,9.803919,-0.1775998,-0.14840288,0.017913818,-0.004501343,0.003616333,-23.519897,-7.499695,1.0192871,0,0.0,0.0,0.0,0.0
1.651855468,0.016610038,0.08332803,0.9963837,-0.01686801,-0.996356,0.08360691,0.99971974,-0.018195724,-0.015143931,0.01314079,0.092912175,0.9955876,-0.015736451,-0.995531,0.0931146,0.99978983,-0.016890613,-0.011619957,9.964905,-0.22253418,-0.14955139,9.803902,-0.17843911,-0.14851123,0.0206604,-0.006942749,-0.0024871826,-23.519897,-7.499695,1.0192871,0,0.0,0.0,0.0,0.0
1.66015625,0.016708726,0.08302177,0.9964077,-0.01690431,-0.9963809,0.083303005,0.9997175,-0.01823547,-0.0152448295,0.013278679,0.0925328,0.99562114,-0.015779957,-0.9955655,0.09273809,0.99978733,-0.016942298,-0.01175963,9.948166,-0.20936584,-0.17945862,9.80388,-0.17882887,-0.14950071,0.026931763,-0.009994507,-5.0354004E-4,-23.519897,-7.499695,1.0192871,0,0.0,0.0,0.0,0.0
1.668457031,0.015087351,-0.0146781495,0.99977845,-0.018515624,-0.999725,-0.014397951,0.9997148,-0.018294295,-0.015354975,0.013414875,0.092156254,0.99565417,-0.015823217,-0.9955995,0.09236439,0.99978477,-0.01699351,-0.011897635,9.960129,-0.22851563,-0.17945862,9.803853,-0.17940575,-0.15058087,0.039596558,-0.008468628,-0.002029419,-23.579407,-7.9193115,0.23956299,0,0.0,0.0,0.0,0.0
1.676757812,0.015804464,0.013569685,0.99978304,-0.018078899,-0.99974054,0.013854898,0.99971163,-0.018293945,-0.015555038,0.013452186,0.09002586,0.99584854,-0.01587155,-0.995794,0.090235315,0.9997835,-0.017019525,-0.011966757,9.931412,-0.19262695,-0.25483704,9.8038225,-0.17940232,-0.15254281,0.039596558,-0.0046539307,-0.0041656494,-23.81897,-7.559204,0.47912598,0,0.0,0.0,0.0,0.0
1.685058593,0.015921507,0.013201078,0.9997861,-0.018078161,-0.99974555,0.013488436,0.9997098,-0.01828905,-0.015678804,0.013549924,0.087005205,0.99611574,-0.015950162,-0.9960616,0.08721744,0.999781,-0.017069995,-0.012108813,9.9062805,-0.19142151,-0.25004578,9.803804,-0.17935432,-0.15375654,0.046936035,0.010925293,-0.003250122,-23.81897,-7.559204,0.47912598,0,0.0,0.0,0.0,0.0
1.693359375,0.01513324,-0.03194966,0.9993749,-0.018777842,-0.9993222,-0.031663626,0.9997091,-0.01828693,-0.015722927,0.013648223,0.08408899,0.9963648,-0.016025929,-0.99631125,0.08430399,0.99977845,-0.017118271,-0.0122502735,9.9062805,-0.19142151,-0.25004578,9.803798,-0.17933354,-0.15418924,0.040359497,0.01626587,0.0027008057,-23.81897,-7.559204,0.119018555,0,0.0,0.0,0.0,0.0
1.701660156,0.015005885,-0.03154814,0.9993896,-0.018754516,-0.9993351,-0.03126482,0.99971145,-0.018273912,-0.015587578,0.013682122,0.081773914,0.99655694,-0.01607519,-0.9965035,0.08199022,0.99977714,-0.017141644,-0.012319751,9.958923,-0.16749573,-0.15911865,9.803821,-0.17920586,-0.15286192,0.04295349,0.023910522,0.0033111572,-23.81897,-7.559204,0.119018555,0,0.0,0.0,0.0,0.0
1.709960937,0.014724347,-0.030660518,0.9994214,-0.018760769,-0.9993623,-0.030382304,0.99971557,-0.018302552,-0.015290172,0.013742182,0.077296704,0.99691343,-0.016171163,-0.99685997,0.07751548,0.9997748,-0.017186482,-0.012449054,9.933807,-0.17228699,-0.06700134,9.803861,-0.17948672,-0.14994536,0.043411255,0.023605347,0.0071411133,-23.81897,-7.559204,0.119018555,0,0.0,0.0,0.0,0.0
1.718261718,0.015136958,0.008496113,0.9998493,-0.018160885,-0.9997966,0.008770607,0.9997205,-0.01829091,-0.014979583,0.013788194,0.07303049,0.99723446,-0.016265659,-0.9971809,0.07325146,0.9997726,-0.017230678,-0.012561434,9.964905,-0.13519287,-0.059814453,9.803909,-0.17937256,-0.14689954,0.04005432,0.024368286,0.0017852783,-23.339844,-7.798767,0.4196167,0,0.0,0.0,0.0,0.0
1.7265625,0.015120702,0.025383413,0.9995634,-0.0178865,-0.9995108,0.025652653,0.99972564,-0.01826658,-0.014659285,0.013816955,0.07174182,0.9973275,-0.016301127,-0.997274,0.0719638,0.99977165,-0.017251883,-0.012609818,10.005585,-0.086135864,-0.10887146,9.80396,-0.17913395,-0.14375848,0.035476685,0.025436401,0.0042266846,-23.2193,-7.3791504,0.53863525,0,0.0,0.0,0.0,0.0
1.734863281,0.014875708,0.026153132,0.99954724,-0.017762778,-0.99949324,0.026416073,0.9997316,-0.018147694,-0.014403617,0.013870862,0.06990798,0.99745697,-0.016360883,-0.9974035,0.07013175,0.99976987,-0.017292066,-0.012691091,9.973282,-0.050247192,-0.15911865,9.804018,-0.17796808,-0.14125124,0.03883362,0.021011353,-0.003250122,-23.2193,-7.3791504,0.53863525,0,0.0,0.0,0.0,0.0
1.743164062,0.013506461,-0.046450257,0.99882925,-0.018598737,-0.9987592,-0.0461955,0.9997358,-0.017953025,-0.01435362,0.013912551,0.068177365,0.9975762,-0.016414082,-0.9975228,0.06840263,0.9997685,-0.01732595,-0.012759018,9.973282,-0.050247192,-0.20698547,9.804059,-0.17605904,-0.14076093,0.026306152,-0.0011444092,-0.0110321045,-23.039246,-7.978821,-0.059509277,0,0.0,0.0,0.0,0.0
1.751464843,0.013509847,-0.046460032,0.99882877,-0.018482912,-0.9987609,-0.04620688,0.9997379,-0.017837018,-0.014351825,0.013907438,0.065888554,0.9977301,-0.016456364,-0.9976763,0.066114396,0.99976784,-0.017338492,-0.012790835,9.9756775,-0.14237976,-0.1603241,9.80408,-0.1749214,-0.14074333,0.02218628,-0.008468628,-0.015609741,-23.039246,-7.978821,-0.059509277,0,0.0,0.0,0.0,0.0
1.759765625,0.013620851,-0.046780437,0.9988123,-0.018336065,-0.99874866,-0.046527404,0.99973905,-0.017680546,-0.014461577,0.013896993,0.061446015,0.9980137,-0.016534006,-0.99795943,0.06167291,0.9997667,-0.017358232,-0.012852686,9.9756775,-0.14237976,-0.1603241,9.804091,-0.17338693,-0.14181963,0.0107421875,-0.020080566,-0.013626099,-23.039246,-7.978821,-0.059509277,0,0.0,0.0,0.0,0.0
1.768066406,0.014584675,0.0033974547,0.9998878,-0.01753948,-0.9998394,0.0036531268,0.99973977,-0.017590793,-0.014522746,0.013890233,0.057165533,0.99826807,-0.016602542,-0.9982136,0.05739342,0.9997657,-0.017370995,-0.0129163265,9.976868,-0.18424988,-0.098098755,9.804099,-0.17250676,-0.1424195,-0.0011749268,-0.0046539307,-0.0035552979,-22.738647,-7.9193115,0.35858154,0,0.0,0.0,0.0,0.0
1.776367187,0.013394487,-0.06306763,0.9979193,-0.018430572,-0.9978549,-0.06281617,0.9997404,-0.017550835,-0.014528129,0.013904736,0.05609119,0.9983288,-0.016620059,-0.99827445,0.05631962,0.99976516,-0.017375391,-0.012948505,9.980469,-0.21176147,-0.049057007,9.804105,-0.17211491,-0.14247228,-0.009887695,-0.0020599365,0.002090454,-22.859192,-7.6797485,-0.17852783,0,0.0,0.0,0.0,0.0
1.784667968,0.013372686,-0.06300283,0.99792373,-0.01840097,-0.99785954,-0.0627522,0.9997413,-0.0175236,-0.014503377,0.013889072,0.051376607,0.9985827,-0.016689232,-0.998528,0.05160592,0.9997642,-0.017382337,-0.013011193,9.98645,-0.15434265,-0.107681274,9.804113,-0.17184782,-0.14222954,-0.010025024,-0.0032806396,0.0037841797,-22.859192,-7.6797485,-0.17852783,0,0.0,0.0,0.0,0.0
1.79296875,0.01486759,0.017727405,0.9997324,-0.017256178,-0.9996894,0.01798327,0.99974054,-0.017518925,-0.014557062,0.013872481,0.04684995,0.9988056,-0.016754825,-0.9987506,0.047080077,0.99976337,-0.017387932,-0.013070186,9.970886,-0.1483612,-0.15194702,9.804106,-0.17180197,-0.14275602,-0.0040740967,-0.011062622,0.011108398,-22.918701,-7.798767,0.47912598,0,0.0,0.0,0.0,0.0
1.801269531,0.0149411,0.017511537,0.999735,-0.017203284,-0.9996941,0.017767925,0.99974036,-0.0174642,-0.014635275,0.013892485,0.046267975,0.99883246,-0.016764142,-0.9987777,0.046498604,0.99976295,-0.01739055,-0.013099861,9.92543,-0.09211731,-0.13877869,9.804104,-0.1712653,-0.14352302,0.003250122,-0.017028809,0.006225586,-22.918701,-7.798767,0.47912598,0,0.0,0.0,0.0,0.0
1.809570312,0.015085445,0.017087659,0.9997401,-0.017181221,-0.99970186,0.01734626,0.9997386,-0.017438434,-0.014787361,0.013934236,0.045129932,0.99888396,-0.016780116,-0.9988297,0.045361564,0.9997621,-0.017393466,-0.013160643,9.92543,-0.09211731,-0.17706299,9.804087,-0.17101263,-0.14501448,0.012268066,-0.008468628,0.01965332,-22.918701,-7.798767,0.47912598,0,0.0,0.0,0.0,0.0
1.817871093,0.015202521,0.017225774,0.999736,-0.017234668,-0.9996985,0.017487207,0.9997359,-0.01749597,-0.014901058,0.0139573645,0.044569343,0.9989087,-0.016787373,-0.9988549,0.0448015,0.99976164,-0.017394366,-0.01319318,9.9266205,-0.13639832,-0.17706299,9.80406,-0.17157684,-0.14612946,0.004623413,-0.0022125244,0.011413574,-22.738647,-7.739258,0.47912598,0,0.0,0.0,0.0,0.0
1.826171875,0.015345632,0.023834705,0.9995981,-0.017194197,-0.9995617,0.024097798,0.9997344,-0.017557083,-0.014929089,0.014006984,0.04348718,0.9989558,-0.016803544,-0.9989025,0.043720473,0.9997607,-0.017398389,-0.013260873,9.9218445,-0.15911865,-0.19142151,9.804046,-0.17217617,-0.14640436,-0.014770508,0.017333984,0.01171875,-22.31903,-8.21991,0.53863525,0,0.0,0.0,0.0,0.0
1.834472656,0.01532087,0.023901869,0.9995969,-0.01729054,-0.9995584,0.02416596,0.9997331,-0.017653815,-0.014900827,0.014060254,0.042709105,0.9989886,-0.016817885,-0.99893594,0.04294356,0.99975973,-0.017404672,-0.0133270165,9.973282,-0.16390991,-0.21894836,9.804033,-0.1731248,-0.14612721,-0.02407837,0.03276062,0.015533447,-22.31903,-8.21991,0.53863525,0,0.0,0.0,0.0,0.0
1.842773437,0.015193797,0.024246477,0.9995905,-0.017382327,-0.99954844,0.024509666,0.99973345,-0.017747607,-0.014765476,0.014085573,0.042333033,0.9990043,-0.016826816,-0.99895185,0.04256807,0.9997592,-0.017409654,-0.013358479,9.993622,-0.13639832,-0.21057129,9.804036,-0.17404458,-0.14479986,-0.021484375,0.034591675,0.012023926,-22.31903,-8.21991,0.53863525,0,0.0,0.0,0.0,0.0
1.851074218,0.015177871,0.03824985,0.999153,-0.017263446,-0.99910915,0.038510416,0.9997358,-0.017833328,-0.014504024,0.014129683,0.04161708,0.9990337,-0.016847942,-0.99898165,0.0418532,0.9997582,-0.017423036,-0.013414133,10.072586,-0.17108154,-0.13519287,9.804059,-0.17488521,-0.14223589,-0.025299072,0.018554688,0.008514404,-22.37854,-8.338928,0.6591797,0,0.0,0.0,0.0,0.0
1.859375,0.015004549,0.038713768,0.99913764,-0.017321091,-0.9990901,0.038972043,0.9997373,-0.017890913,-0.014320333,0.01417134,0.041483693,0.99903864,-0.016864253,-0.99898696,0.041720763,0.99975735,-0.017439282,-0.013457393,10.073776,-0.19381714,-0.093322754,9.804074,-0.17544992,-0.14043449,-0.036453247,0.01473999,0.006072998,-22.37854,-8.338928,0.6591797,0,0.0,0.0,0.0,0.0
1.867675781,0.013054668,-0.05965775,0.99813354,-0.018771991,-0.99805725,-0.05940767,0.9997385,-0.017961405,-0.0141492,0.014188046,0.04142819,0.9990407,-0.016873347,-0.9989891,0.041665677,0.99975693,-0.017448315,-0.013474671,10.073776,-0.19381714,-0.093322754,9.804086,-0.17614122,-0.13875626,-0.036453247,0.0061950684,0.0071411133,-22.259521,-8.879089,-0.23956299,0,0.0,0.0,0.0,0.0
1.875976562,0.012878684,-0.06441943,0.9978398,-0.018885804,-0.9977602,-0.06417055,0.9997387,-0.018018575,-0.014066453,0.014147789,0.03742647,0.9991992,-0.016949337,-0.9991467,0.03766449,0.9997562,-0.017468633,-0.013501363,10.04985,-0.2141571,-0.044265747,9.804088,-0.17670187,-0.13794479,-0.022857666,-0.012588501,0.003479004,-22.439575,-9.118652,-0.29907227,0,0.0,0.0,0.0,0.0
1.884277343,0.012700902,-0.06398293,0.9978701,-0.018968282,-0.99778634,-0.06373613,0.99973935,-0.018118378,-0.013886436,0.014102395,0.033393897,0.99934274,-0.017027304,-0.9992892,0.03363239,0.99975556,-0.01749041,-0.013523764,9.988831,-0.22851563,0.044265747,9.804094,-0.1776806,-0.13617942,0.00920105,-0.01763916,0.0051574707,-22.439575,-9.118652,-0.29907227,0,0.0,0.0,0.0,0.0
1.892578125,0.0125708515,-0.063663624,0.9978922,-0.019050933,-0.9978051,-0.06341808,0.99973947,-0.01821356,-0.013756113,0.014076847,0.03144638,0.99940634,-0.017067077,-0.99935216,0.03168507,0.99975526,-0.01750297,-0.01353103,9.936203,-0.21774292,0.046661377,9.804095,-0.17861402,-0.13490139,0.00920105,-0.018081665,0.006378174,-22.439575,-9.118652,-0.29907227,0,0.0,0.0,0.0,0.0
1.900878906,0.012231141,-0.07418328,0.9971697,-0.01922846,-0.99707735,-0.07394056,0.99974036,-0.018269658,-0.013621823,0.014022138,0.02767967,0.9995186,-0.017147886,-0.99946314,0.027918704,0.99975467,-0.017531108,-0.0135399625,9.854843,-0.1758728,0.056228638,9.804104,-0.17916414,-0.13358445,0.037612915,-0.008468628,0.011108398,-22.918701,-9.4192505,-0.4196167,0,0.0,0.0,0.0,0.0
1.909179687,0.012057309,-0.073761806,0.99720305,-0.019290734,-0.9971071,-0.073521465,0.9997412,-0.018350307,-0.013445348,0.013956586,0.023644468,0.999623,-0.017233517,-0.9995662,0.023883736,0.9997541,-0.017560355,-0.0135430535,9.908676,-0.1531372,0.0047912598,9.804112,-0.17995504,-0.13185382,0.055633545,-0.005722046,0.009124756,-22.918701,-9.4192505,-0.4196167,0,0.0,0.0,0.0,0.0
1.917480468,0.012074927,-0.06543148,0.99778396,-0.019229908,-0.9976873,-0.06519243,0.9997421,-0.018400101,-0.013305244,0.013921393,0.021695478,0.99966764,-0.017276533,-0.9996101,0.021934822,0.9997538,-0.017576156,-0.013541142,9.908676,-0.1531372,0.0047912598,9.804121,-0.18044336,-0.13047987,0.06616211,-0.008163452,0.00881958,-23.039246,-9.719849,-0.35858154,0,0.0,0.0,0.0,0.0
1.92578125,0.0121428855,-0.05324205,0.99850786,-0.0190994,-0.9984116,-0.053004652,0.9997438,-0.01842727,-0.013140487,0.013852843,0.018244151,0.99973756,-0.01735729,-0.9996785,0.018483585,0.99975336,-0.017608786,-0.01353172,9.937393,-0.13279724,-0.051452637,9.804138,-0.18070978,-0.12886415,0.062042236,0.0036010742,0.0028686523,-22.918701,-9.719849,-0.23956299,0,0.0,0.0,0.0,0.0
1.934082031,0.012086504,-0.053109296,0.9985156,-0.019050708,-0.9984195,-0.05287359,0.9997455,-0.01838337,-0.01307917,0.01378875,0.015412572,0.99978614,-0.017429106,-0.9997256,0.015652016,0.999753,-0.0176412,-0.013516339,9.960129,-0.10887146,-0.09211731,9.804154,-0.18027928,-0.12826285,0.062194824,-0.0020599365,0.008666992,-22.918701,-9.719849,-0.23956299,0,0.0,0.0,0.0,0.0
1.942382812,0.012073075,-0.05307768,0.9985174,-0.01904412,-0.99842125,-0.052842308,0.9997458,-0.018377915,-0.013064833,0.013756223,0.014041547,0.99980676,-0.017462963,-0.9997455,0.014280957,0.9997529,-0.017656041,-0.013507516,9.985245,-0.14237976,-0.11366272,9.804157,-0.18022579,-0.12812226,0.05532837,-0.009689331,-0.0014190674,-22.918701,-9.719849,-0.23956299,0,0.0,0.0,0.0,0.0
1.950683593,0.011827392,-0.07023625,0.9974603,-0.019274654,-0.9973607,-0.07000069,0.99974424,-0.018397775,-0.013149954,0.013692539,0.01138285,0.99984145,-0.01752827,-0.9997788,0.011622181,0.9997526,-0.017684627,-0.013489989,9.973282,-0.18185425,-0.14237976,9.804142,-0.18042053,-0.128957,0.046020508,-0.012435913,5.645752E-4,-23.039246,-9.838867,-0.4196167,0,0.0,0.0,0.0,0.0
1.958984375,0.011931522,-0.07047931,0.99744195,-0.01929781,-0.99734336,-0.0702415,0.99974257,-0.018410355,-0.01325992,0.013657231,0.00974955,0.99985915,-0.017564943,-0.9997958,0.009988855,0.9997524,-0.017698891,-0.013483193,9.973282,-0.18185425,-0.14237976,9.804126,-0.18054391,-0.1300354,0.046936035,-0.01121521,0.0037841797,-23.039246,-9.838867,-0.4196167,0,0.0,0.0,0.0,0.0
1.967285156,0.011843874,-0.08387641,0.9964058,-0.019492894,-0.9963057,-0.08363628,0.9997398,-0.018432254,-0.013435113,0.01359279,0.006570126,0.99988604,-0.017636515,-0.9998213,0.0068094567,0.99975204,-0.017727066,-0.013474486,9.957733,-0.17706299,-0.20100403,9.804099,-0.18075867,-0.13175346,0.039749146,-0.0063323975,0.0040893555,-23.519897,-9.719849,-0.53863525,0,0.0,0.0,0.0,0.0
1.975585937,0.011342783,-0.118157715,0.99293005,-0.01993143,-0.99282336,-0.11791734,0.999737,-0.018453006,-0.013616433,0.013527866,0.002984438,0.99990404,-0.01771308,-0.9998379,0.003223884,0.99975157,-0.017754992,-0.01347281,9.974487,-0.15672302,-0.17945862,9.804071,-0.18096218,-0.1335316,0.019744873,-0.016860962,0.0014801025,-23.399353,-9.298706,-0.8392334,0,0.0,0.0,0.0,0.0
1.983886718,0.011510075,-0.11857403,0.99287844,-0.01994537,-0.9927739,-0.11833033,0.9997348,-0.01844134,-0.013791907,0.0134877935,5.560553E-4,0.99990886,-0.01775984,-0.9998419,7.9558097E-4,0.99975127,-0.017768953,-0.013475787,9.974487,-0.15672302,-0.17945862,9.8040495,-0.18084776,-0.1352524,0.007217407,-0.013809204,0.0053100586,-23.399353,-9.298706,-0.8392334,0,0.0,0.0,0.0,0.0
1.9921875,0.011685788,-0.119011305,0.99282414,-0.019993925,-0.9927212,-0.11876364,0.9997318,-0.018462604,-0.013980231,0.013416052,-0.004172757,0.9999013,-0.017850103,-0.9998329,-0.0039329696,0.9997506,-0.017795578,-0.013488295,9.924225,-0.16989136,-0.19023132,9.80402,-0.1810563,-0.13709924,0.007675171,-0.011520386,0.0069885254,-23.399353,-9.298706,-0.8392334,0,0.0,0.0,0.0,0.0
2.000488281,0.013145937,-0.052081633,0.99855626,-0.019199876,-0.9984716,-0.051824454,0.9997293,-0.018490877,-0.014125806,0.013353842,-0.008731449,0.9998727,-0.017937666,-0.999803,-0.008491273,0.9997499,-0.017821992,-0.013507834,9.897903,-0.16870117,-0.17706299,9.803995,-0.18133356,-0.13852684,0.011047363,-3.8146973E-4,0.003616333,-23.278809,-9.298706,-0.17852783,0,0.0,0.0,0.0,0.0
2.008789062,0.013214145,-0.052252203,0.99854654,-0.019232078,-0.9984623,-0.051993288,0.9997277,-0.018517075,-0.014198744,0.013347286,-0.010448897,0.9998563,-0.017987313,-0.9997861,-0.010208047,0.99974906,-0.017848479,-0.013532378,9.920639,-0.18902588,-0.21534729,9.80398,-0.18159048,-0.13924211,-0.0074310303,-8.392334E-4,0.0152282715,-23.278809,-9.298706,-0.17852783,0,0.0,0.0,0.0,0.0
2.017089843,0.013498096,-0.042357996,0.9990113,-0.019194258,-0.99892926,-0.042095177,0.9997247,-0.018607078,-0.014296673,0.013345431,-0.011285323,0.99984723,-0.018011991,-0.9997767,-0.011044113,0.99974865,-0.01786185,-0.013545723,9.958923,-0.117248535,-0.18664551,9.80395,-0.18247311,-0.14020248,-0.0060577393,0.0060424805,0.012786865,-23.458862,-8.879089,-0.059509277,0,0.0,0.0,0.0,0.0
2.025390625,0.013348953,-0.053793576,0.9984629,-0.019343754,-0.99837893,-0.053530436,0.9997238,-0.018599445,-0.014367883,0.013352672,-0.012516227,0.99983245,-0.018058276,-0.9997616,-0.012274172,0.99974775,-0.01789136,-0.013575511,9.949356,-0.110076904,-0.22970581,9.803942,-0.18239826,-0.1409008,-0.0010223389,0.011993408,0.006225586,-23.638916,-9.1796875,-0.17852783,0,0.0,0.0,0.0,0.0
2.033691406,0.013378067,-0.05386846,0.99845845,-0.019300865,-0.99837565,-0.05360539,0.9997242,-0.018553976,-0.014396043,0.013353407,-0.0133423805,0.9998218,-0.018083673,-0.9997506,-0.013099909,0.9997473,-0.017905522,-0.0135913575,9.949356,-0.110076904,-0.22970581,9.8039465,-0.18195237,-0.14117697,-0.0042266846,0.011077881,0.0033111572,-23.638916,-9.1796875,-0.17852783,0,0.0,0.0,0.0,0.0
2.041992187,0.013390051,-0.053899284,0.9984566,-0.01920925,-0.9983757,-0.053637307,0.9997258,-0.018461397,-0.014403667,0.013355787,-0.014947942,0.9997991,-0.01813124,-0.9997275,-0.014704667,0.99974644,-0.017931202,-0.013623172,9.956528,-0.1040802,-0.20578003,9.803961,-0.18104444,-0.14125171,-0.0011749268,0.0101623535,-0.0021820068,-23.638916,-9.1796875,-0.17852783,0,0.0,0.0,0.0,0.0
2.050292968,0.014111551,-0.016466733,0.99976486,-0.018579282,-0.9996961,-0.016203355,0.9997278,-0.018346258,-0.014413202,0.0133584235,-0.016491259,0.99977475,-0.018173328,-0.9997028,-0.01624725,0.99974555,-0.017952198,-0.013654154,9.948166,-0.12921143,-0.18424988,9.803981,-0.17991534,-0.14134523,-0.012924194,0.012298584,8.69751E-4,-23.2193,-9.059143,0.17852783,0,0.0,0.0,0.0,0.0
2.05859375,0.014078812,-0.016382782,0.99976665,-0.018498264,-0.9996989,-0.016121177,0.99972975,-0.01826698,-0.014377625,0.013373437,-0.01649078,0.9997746,-0.01818145,-0.9997027,-0.01624639,0.99974525,-0.01796008,-0.013669288,9.948166,-0.12921143,-0.18424988,9.804,-0.17913789,-0.14099634,-0.0074310303,0.010772705,-0.002029419,-23.2193,-9.059143,0.17852783,0,0.0,0.0,0.0,0.0
2.066894531,0.013175837,-0.0638061,0.99787533,-0.019040486,-0.9977971,-0.06354969,0.9997319,-0.01816271,-0.014361709,0.013401323,-0.016486485,0.9997743,-0.018193996,-0.9997025,-0.016241424,0.99974465,-0.017972233,-0.013697292,9.98764,-0.122039795,-0.19023132,9.804021,-0.17811535,-0.14084026,-0.0016326904,0.0020599365,-0.00843811,-23.399353,-8.578491,-0.23956299,0,0.0,0.0,0.0,0.0
2.075195312,0.013442808,-0.049978618,0.9986598,-0.01872614,-0.9985875,-0.04972293,0.9997343,-0.018032629,-0.014359727,0.013393493,-0.018361533,0.9997417,-0.018227119,-0.99966973,-0.018116023,0.9997441,-0.017979776,-0.013723748,9.943375,-0.13877869,-0.21774292,9.804045,-0.1768397,-0.14082082,0.017608643,0.012145996,-0.009963989,-23.278809,-8.639526,-0.119018555,0,0.0,0.0,0.0,0.0
2.083496093,0.013473712,-0.050061822,0.9986552,-0.018608699,-0.99858546,-0.049807258,0.9997361,-0.017912587,-0.0143862385,0.01339457,-0.018994084,0.9997299,-0.018236885,-0.99965787,-0.018748377,0.999744,-0.017980833,-0.01373638,9.943375,-0.13877869,-0.21774292,9.804062,-0.17566247,-0.14108081,0.011810303,0.008026123,-0.0070648193,-23.278809,-8.639526,-0.119018555,0,0.0,0.0,0.0,0.0
2.091796875,0.013450824,-0.0500002,0.9986586,-0.018526694,-0.99858993,-0.04974723,0.99973786,-0.017832702,-0.0143581955,0.013397902,-0.020224841,0.9997057,-0.018251175,-0.9996338,-0.019978788,0.99974364,-0.01797813,-0.013762123,9.907486,-0.16630554,-0.17706299,9.80408,-0.17487909,-0.14080581,0.02279663,0.005279541,-0.009048462,-23.278809,-8.639526,-0.119018555,0,0.0,0.0,0.0,0.0
2.100097656,0.013382413,-0.049984664,0.9986603,-0.018447919,-0.9985921,-0.04973404,0.99974024,-0.017757643,-0.014285683,0.013400073,-0.021404568,0.99968106,-0.018261716,-0.99960935,-0.021158246,0.9997434,-0.017972369,-0.013785723,9.912262,-0.15911865,-0.12921143,9.804103,-0.17414299,-0.1400947,0.015472412,-8.392334E-4,-0.0027923584,-23.15979,-8.578491,-0.119018555,0,0.0,0.0,0.0,0.0
2.108398437,0.013338217,-0.049865436,0.9986669,-0.018386502,-0.9985991,-0.04961648,0.999742,-0.017700193,-0.014236383,0.013399727,-0.02197655,0.99966866,-0.018265307,-0.9995971,-0.021730144,0.9997434,-0.017968075,-0.013795735,9.912262,-0.15911865,-0.12921143,9.80412,-0.1735796,-0.13961123,0.017303467,0.0061950684,-0.004776001,-23.15979,-8.578491,-0.119018555,0,0.0,0.0,0.0,0.0
2.116699218,0.012994951,-0.060853552,0.99806213,-0.018495928,-0.9979903,-0.060608353,0.99974453,-0.017672483,-0.014094377,0.013397288,-0.023081642,0.9996438,-0.018269904,-0.99957234,-0.022835135,0.99974334,-0.017957468,-0.013813256,9.908676,-0.17228699,-0.07777405,9.804145,-0.17330785,-0.13821863,0.015930176,0.010009766,-0.0023345947,-23.458862,-8.938599,-0.23956299,0,0.0,0.0,0.0,0.0
2.125,0.012832963,-0.06042917,0.9980899,-0.018465785,-0.99801624,-0.060187288,0.99974716,-0.017658135,-0.01392338,0.013389203,-0.023837576,0.99962616,-0.018274467,-0.99955463,-0.0235911,0.99974334,-0.017951768,-0.013818858,9.908676,-0.17228699,-0.07777405,9.804171,-0.17316715,-0.13654171,0.020507813,0.009094238,0.0013275146,-23.458862,-8.938599,-0.23956299,0,0.0,0.0,0.0,0.0
2.133300781,0.01209042,-0.09320798,0.99557316,-0.018875942,-0.9954898,-0.09297094,0.9997487,-0.017668325,-0.013795281,0.013367031,-0.025287211,0.9995909,-0.01828234,-0.9995192,-0.025040919,0.9997435,-0.017940138,-0.013822914,9.9039,-0.15792847,-0.10887146,9.804186,-0.17326708,-0.1352855,0.026000977,0.010620117,0.010040283,-23.638916,-8.81958,-0.53863525,0,0.0,0.0,0.0,0.0
2.141601562,0.012036859,-0.09306529,0.9955873,-0.018963806,-0.9955016,-0.092828,0.9997477,-0.017762765,-0.013747584,0.0133170495,-0.027981386,0.99951977,-0.01830752,-0.99944764,-0.027735448,0.9997437,-0.017929373,-0.013821963,9.937393,-0.17108154,-0.11366272,9.804175,-0.17419322,-0.13481773,0.03425598,0.0034484863,0.020874023,-23.638916,-8.81958,-0.53863525,0,0.0,0.0,0.0,0.0
2.149902343,0.01194502,-0.09281402,0.9956118,-0.019088551,-0.99552256,-0.09257668,0.99974644,-0.017898956,-0.013663223,0.013291821,-0.029285269,0.99948275,-0.018321505,-0.99941033,-0.029039497,0.99974376,-0.017926041,-0.013820534,9.937393,-0.17108154,-0.11366272,9.804164,-0.17552881,-0.13399045,0.035476685,0.007873535,0.015380859,-23.15979,-8.758545,-0.53863525,0,0.0,0.0,0.0,0.0
2.158203125,0.011782931,-0.092387974,0.9956534,-0.019262359,-0.99555874,-0.09215123,0.999745,-0.01809282,-0.01351021,0.013239306,-0.031804964,0.99940646,-0.018353693,-0.9993333,-0.031559505,0.9997439,-0.01792497,-0.013814217,9.96611,-0.19979858,-0.093322754,9.80415,-0.17742996,-0.1324899,0.047546387,0.024520874,0.023483276,-23.15979,-8.758545,-0.53863525,0,0.0,0.0,0.0,0.0
2.166503906,0.011637124,-0.083935015,0.9964033,-0.019353757,-0.9963029,-0.08370052,0.9997449,-0.018310113,-0.013218559,0.013182872,-0.03420795,0.9993278,-0.018391708,-0.99925387,-0.033962805,0.9997439,-0.017931618,-0.013802178,9.964905,-0.20100403,-0.06460571,9.804149,-0.17956087,-0.12962979,0.04096985,0.029556274,0.024993896,-22.918701,-8.1588745,-0.4196167,0,0.0,0.0,0.0,0.0
2.174804687,0.011296751,-0.082983196,0.99648696,-0.019548835,-0.9963785,-0.08275254,0.99974513,-0.018545322,-0.012878063,0.013152596,-0.035203777,0.99929357,-0.018411994,-0.9992191,-0.034958817,0.99974394,-0.017939188,-0.013790498,9.964905,-0.20100403,-0.06460571,9.804151,-0.18186748,-0.12629066,0.042648315,0.027572632,0.027297974,-22.918701,-8.1588745,-0.4196167,0,0.0,0.0,0.0,0.0
2.183105468,0.01014122,-0.12083288,0.9926211,-0.020109372,-0.9924961,-0.12061221,0.9997464,-0.01873783,-0.012494993,0.013080682,-0.03709812,0.999226,-0.018459547,-0.99915016,-0.036853652,0.999744,-0.01796319,-0.013754381,10.076172,-0.18424988,0.0047912598,9.804163,-0.18375534,-0.12253403,0.060668945,0.008178711,0.017974854,-23.039246,-8.338928,-0.7797241,0,0.0,0.0,0.0,0.0
2.19140625,0.009880746,-0.12012154,0.99271,-0.020263813,-0.99257857,-0.119903944,0.9997458,-0.01893135,-0.012241537,0.01296804,-0.040422667,0.9990985,-0.018531619,-0.99902064,-0.04017898,0.9997442,-0.01799387,-0.013704437,10.015152,-0.20817566,-0.020339966,9.804157,-0.18565312,-0.12004847,0.059448242,5.340576E-4,0.019042969,-23.039246,-8.338928,-0.7797241,0,0.0,0.0,0.0,0.0
2.199707031,0.009713719,-0.11839202,0.9929194,-0.02040662,-0.9927829,-0.11817612,0.9997446,-0.0191142,-0.012059595,0.01290841,-0.042020824,0.99903333,-0.018569851,-0.9989543,-0.041777562,0.99974424,-0.018012619,-0.013675233,10.015152,-0.20817566,-0.020339966,9.804145,-0.18744625,-0.11826423,0.07197571,7.6293945E-5,0.018127441,-23.15979,-8.938599,-0.8392334,0,0.0,0.0,0.0,0.0
2.208007812,0.0096355565,-0.118191816,0.992944,-0.02059105,-0.99280304,-0.11797521,0.99974155,-0.019309005,-0.011999904,0.0127860755,-0.045052722,0.9989028,-0.018649653,-0.99882144,-0.044810336,0.9997443,-0.01805624,-0.013611224,9.98764,-0.2141571,-0.07058716,9.804116,-0.18935667,-0.11767887,0.07182312,-0.006790161,0.01965332,-23.15979,-8.938599,-0.8392334,0,0.0,0.0,0.0,0.0
2.216308593,0.008950999,-0.15264569,0.9882405,-0.02102854,-0.9880903,-0.15243201,0.9997388,-0.019416833,-0.01205431,0.012665611,-0.047956098,0.99876916,-0.018733244,-0.99868536,-0.047714513,0.9997443,-0.018105851,-0.013547332,9.974487,-0.15194702,-0.107681274,9.804089,-0.1904141,-0.1182124,0.076553345,-0.026641846,0.020263672,-23.519897,-8.758545,-1.1398315,0,0.0,0.0,0.0,0.0
2.224609375,0.009069761,-0.15295818,0.98819095,-0.02115089,-0.98803985,-0.15274067,0.9997352,-0.019515801,-0.01219649,0.012594936,-0.050059147,0.9986669,-0.018784571,-0.99858165,-0.049817972,0.99974424,-0.018132072,-0.013517412,9.974487,-0.15194702,-0.107681274,9.804053,-0.19138464,-0.1196067,0.084198,-0.02923584,0.012939453,-23.519897,-8.758545,-1.1398315,0,0.0,0.0,0.0,0.0
2.232910156,0.009722866,-0.13032189,0.991424,-0.02097347,-0.9912793,-0.1300972,0.99973273,-0.019528687,-0.012371381,0.012462624,-0.05415126,0.998455,-0.018887918,-0.9983671,-0.05391074,0.99974394,-0.018186867,-0.013465079,9.955338,-0.110076904,-0.110076904,9.804029,-0.191511,-0.121321805,0.07624817,-0.023590088,0.011108398,-23.339844,-8.578491,-0.8987427,0,0.0,0.0,0.0,0.0
2.241210937,0.010052389,-0.13120589,0.9913042,-0.020923553,-0.9911648,-0.13097526,0.9997305,-0.01942499,-0.012708868,0.012359204,-0.05717678,0.99828756,-0.018976191,-0.9981975,-0.056936685,0.9997435,-0.018240003,-0.013421923,9.940979,-0.051452637,-0.23928833,9.804008,-0.19049408,-0.12463142,0.06478882,-0.019470215,0.006225586,-23.339844,-8.578491,-0.8987427,0,0.0,0.0,0.0,0.0
2.249511718,0.011448693,-0.08013753,0.9967181,-0.020264722,-0.99659723,-0.07989505,0.99972904,-0.01928352,-0.013033701,0.0123152835,-0.058661982,0.9982019,-0.01901738,-0.99811083,-0.058422,0.9997433,-0.018263703,-0.013407616,9.940979,-0.051452637,-0.23928833,9.803993,-0.18910673,-0.12781695,0.05670166,-0.020690918,-0.00340271,-23.098755,-8.518982,-0.4196167,0,0.0,0.0,0.0,0.0
2.2578125,0.011751345,-0.080954716,0.99664843,-0.020083865,-0.9965353,-0.08070872,0.9997293,-0.019068118,-0.013336515,0.012281908,-0.059512887,0.998152,-0.019067306,-0.9980597,-0.05927277,0.99974275,-0.018304087,-0.0133928275,9.927826,-0.046661377,-0.24406433,9.803995,-0.18699436,-0.13078654,0.049072266,-0.0066375732,-0.007217407,-23.098755,-8.518982,-0.4196167,0,0.0,0.0,0.0,0.0
2.266113281,0.012328027,-0.061751176,0.9980154,-0.019694895,-0.99791265,-0.061501537,0.99973005,-0.018897617,-0.013518478,0.012261702,-0.060362574,0.99810123,-0.019107826,-0.99800813,-0.060122203,0.9997422,-0.018334344,-0.013390675,9.923035,-0.10887146,-0.23449707,9.804003,-0.18532233,-0.13257098,0.02279663,0.022994995,-0.008285522,-22.979736,-8.459473,-0.23956299,0,0.0,0.0,0.0,0.0
2.274414062,0.012363582,-0.06184758,0.99800897,-0.019519467,-0.99791,-0.061599635,0.99973303,-0.018719012,-0.013544975,0.012262986,-0.0603904,0.9980995,-0.019119564,-0.99800617,-0.060149852,0.999742,-0.018345611,-0.013393175,9.923035,-0.10887146,-0.23449707,9.804032,-0.1835708,-0.13283083,0.020812988,0.019317627,-0.0137786865,-22.979736,-8.459473,-0.23956299,0,0.0,0.0,0.0,0.0
2.282714843,0.012962287,-0.028438423,0.9995114,-0.018847667,-0.9994247,-0.028191527,0.9997383,-0.018473035,-0.013490831,0.012267053,-0.060448203,0.998096,-0.019135399,-0.99800247,-0.060207356,0.9997416,-0.018360397,-0.013399249,10.001999,-0.08494568,-0.18902588,9.804084,-0.18115859,-0.13229986,0.020812988,-7.6293945E-5,-0.0206604,-23.278809,-8.518982,0.059509277,0,0.0,0.0,0.0,0.0
2.291015625,0.012852895,-0.028139431,0.9995214,-0.018707428,-0.9994357,-0.02789646,0.9997424,-0.018339925,-0.013372059,0.012294867,-0.059181824,0.99817145,-0.019124497,-0.9980783,-0.05894073,0.9997415,-0.01836486,-0.013403063,9.999603,-0.19381714,-0.07777405,9.804124,-0.17985323,-0.1311351,0.015777588,-0.008010864,-0.016845703,-23.278809,-8.518982,0.059509277,0,0.0,0.0,0.0,0.0
2.299316406,0.012299208,-0.054706123,0.99842674,-0.01891205,-0.9983364,-0.0544682,0.9997455,-0.018212382,-0.013313352,0.012306185,-0.05856145,0.998208,-0.019116318,-0.9981149,-0.05832032,0.99974155,-0.01836436,-0.013402467,9.999603,-0.19381714,-0.07777405,9.804154,-0.17860246,-0.13055938,0.021881104,0.0016174316,-0.008895874,-23.399353,-8.518982,-0.17852783,0,0.0,0.0,0.0,0.0
2.307617187,0.0121962875,-0.054423776,0.9984434,-0.018867327,-0.9983525,-0.05418835,0.99974763,-0.018177062,-0.013203024,0.012306012,-0.05840868,0.9982169,-0.019108227,-0.998124,-0.05816767,0.9997417,-0.018358342,-0.013399011,9.934998,-0.22253418,-0.061019897,9.804175,-0.1782561,-0.12947744,0.019592285,0.011077881,-0.0055389404,-23.399353,-8.518982,-0.17852783,0,0.0,0.0,0.0,0.0
2.315917968,0.012146925,-0.054629557,0.99843276,-0.018814065,-0.99834216,-0.054395705,0.9997492,-0.01812384,-0.013154591,0.012301716,-0.058250915,0.99822617,-0.019098664,-0.9981333,-0.058010127,0.9997419,-0.018351164,-0.013391267,9.957733,-0.18185425,-0.15074158,9.804191,-0.17773417,-0.12900248,0.019439697,0.012451172,-0.0041656494,-23.638916,-8.518982,-0.17852783,0,0.0,0.0,0.0,0.0
2.32421875,0.012082578,-0.05445122,0.9984433,-0.018772436,-0.9983525,-0.054219097,0.99975073,-0.018088108,-0.013084855,0.012298604,-0.058178574,0.99823046,-0.019092958,-0.9981376,-0.05793793,0.99974203,-0.018346617,-0.0133865,9.957733,-0.18185425,-0.15074158,9.804206,-0.17738375,-0.1283186,0.016693115,0.010925293,-0.0040130615,-23.638916,-8.518982,-0.17852783,0,0.0,0.0,0.0,0.0
2.332519531,0.013321852,0.013619068,0.9998185,-0.017764442,-0.99974626,0.013854782,0.9997535,-0.017945789,-0.013076537,0.012290003,-0.058031037,0.99823916,-0.019080225,-0.99814636,-0.057790738,0.9997424,-0.01833638,-0.013374466,9.982849,-0.10887146,-0.17826843,9.804233,-0.17598808,-0.12823702,0.011199951,-0.0017547607,-9.613037E-4,-23.519897,-7.798767,0.4196167,0,0.0,0.0,0.0,0.0
2.340820312,0.0133779785,0.01344989,0.9998201,-0.017639538,-0.9997508,0.013684981,0.99975485,-0.01781944,-0.013137392,0.012333194,-0.055197,0.9983993,-0.01902917,-0.99830735,-0.054956853,0.99974287,-0.018320916,-0.013362671,9.9266205,-0.14356995,-0.2141571,9.804247,-0.17474903,-0.12883382,0.002029419,-0.017333984,-0.0030975342,-23.519897,-7.798767,0.4196167,0,0.0,0.0,0.0,0.0
2.349121093,0.014084605,0.042611748,0.9989925,-0.017176237,-0.9989339,0.04285141,0.9997533,-0.017762475,-0.013337677,0.012355341,-0.053825513,0.99847394,-0.019001953,-0.99838245,-0.05358545,0.9997431,-0.018310888,-0.013358145,9.9266205,-0.14356995,-0.2141571,9.804231,-0.17419037,-0.13079794,0.00340271,-0.017028809,-4.5776367E-5,-23.15979,-7.798767,0.6591797,0,0.0,0.0,0.0,0.0
2.357421875,0.014294826,0.04198943,0.9990158,-0.017157817,-0.99896044,0.04223261,0.99975055,-0.017744638,-0.013559518,0.012428227,-0.050010435,0.9986714,-0.018932885,-0.9985813,-0.049770307,0.9997435,-0.018289171,-0.013357435,9.889542,-0.16749573,-0.1986084,9.804205,-0.17401548,-0.13297346,-0.0034637451,-0.011672974,0.0071411133,-23.15979,-7.798767,0.6591797,0,0.0,0.0,0.0,0.0
2.365722656,0.014443934,0.04854182,0.99871665,-0.017092863,-0.9986629,0.048786417,0.9997496,-0.017775597,-0.013594902,0.01250613,-0.046370354,0.99884605,-0.018866286,-0.99875724,-0.04613002,0.99974376,-0.018267605,-0.013365425,9.888336,-0.1878357,-0.1040802,9.804194,-0.17431906,-0.13332045,-0.0042266846,0.010772705,0.009124756,-23.278809,-7.8598022,0.71868896,0,0.0,0.0,0.0,0.0
2.374023437,0.014392782,0.048692714,0.9987101,-0.01718373,-0.99865395,0.04893762,0.9997487,-0.017865913,-0.013536687,0.012547022,-0.0444734,0.99893177,-0.018832875,-0.9988437,-0.04423293,0.9997439,-0.018257765,-0.013370075,9.888336,-0.1878357,-0.1040802,9.804186,-0.17520475,-0.13274956,4.5776367E-5,0.016113281,0.008514404,-23.278809,-7.8598022,0.71868896,0,0.0,0.0,0.0,0.0
2.382324218,0.013047582,-0.017190227,0.99976707,-0.018115966,-0.9996921,-0.016952515,0.99975073,-0.017890558,-0.013354983,0.012623636,-0.040786188,0.9990881,-0.018771198,-0.9990013,-0.040545467,0.99974406,-0.01824225,-0.013376634,9.923035,-0.1531372,-0.09211731,9.804206,-0.17544644,-0.13096765,0.011352539,0.020233154,0.010192871,-23.638916,-7.559204,0.17852783,0,0.0,0.0,0.0,0.0
2.390625,0.012825707,-0.01649604,0.99978167,-0.01815332,-0.999703,-0.01626186,0.999753,-0.017940786,-0.013121354,0.012641017,-0.039852273,0.9991256,-0.018745441,-0.99903923,-0.039611664,0.99974436,-0.01822832,-0.013375922,9.913467,-0.16989136,-0.08375549,9.804228,-0.17593901,-0.12867653,0.019134521,0.01260376,-9.613037E-4,-23.638916,-7.559204,0.17852783,0,0.0,0.0,0.0,0.0
2.398925781,0.012772117,-0.008024119,0.9998862,-0.018073885,-0.9998063,-0.0077926093,0.99975514,-0.017972302,-0.012914672,0.012644886,-0.039385185,0.9991441,-0.018733582,-0.9990579,-0.039144706,0.99974453,-0.018222569,-0.0133708,9.913467,-0.16989136,-0.08375549,9.804249,-0.17624807,-0.12664966,0.026153564,0.012145996,-0.004470825,-23.579407,-7.6797485,0.23956299,0,0.0,0.0,0.0,0.0
2.407226562,0.012527026,-0.0072713266,0.99989516,-0.0180411,-0.9998124,-0.0070447,0.9997587,-0.017950958,-0.012655858,0.0126477815,-0.038758256,0.9991686,-0.018720297,-0.99908257,-0.038517952,0.9997448,-0.018217564,-0.013361744,10.010376,-0.17826843,0.0011901855,9.804285,-0.17603877,-0.12411158,0.033493042,-0.001449585,-0.006454468,-23.579407,-7.6797485,0.23956299,0,0.0,0.0,0.0,0.0
2.415527343,0.012297284,-0.006565703,0.9999028,-0.017885521,-0.9998199,-0.0063451943,0.99976444,-0.017805755,-0.0124125,0.01264353,-0.037511732,0.9992162,-0.018692909,-0.9991303,-0.037271976,0.9997453,-0.018207006,-0.013333738,10.055832,-0.12083435,0.058624268,9.804339,-0.1746148,-0.12172504,0.04096985,-0.009841919,-0.010726929,-23.579407,-7.6797485,0.23956299,0,0.0,0.0,0.0,0.0
2.423828125,0.011442619,-0.05182358,0.99859077,-0.018265272,-0.9985003,-0.051609587,0.99976766,-0.01764898,-0.012372031,0.012630564,-0.036286835,0.99926156,-0.018660199,-0.99917585,-0.036047857,0.9997461,-0.018191116,-0.013297274,10.000809,-0.11843872,-0.028717041,9.804372,-0.17307737,-0.121328175,0.04663086,-0.018859863,-0.008132935,-23.579407,-7.499695,-0.119018555,0,0.0,0.0,0.0,0.0
2.432128906,0.012112037,-0.014899869,0.9998157,-0.017670851,-0.9997361,-0.014684614,0.99977046,-0.017489733,-0.012372132,0.012606692,-0.036597718,0.99925053,-0.018652624,-0.9991647,-0.036359247,0.9997465,-0.018180273,-0.013278804,9.908676,-0.11366272,-0.114852905,9.8043995,-0.1715157,-0.12132917,0.05319214,-0.019317627,-0.014862061,-23.519897,-7.1395874,0.17852783,0,0.0,0.0,0.0,0.0
2.440429687,0.012262769,-0.015396663,0.9998063,-0.017459895,-0.9997323,-0.015181376,0.9997723,-0.017270347,-0.01252831,0.01258784,-0.03573894,0.9992819,-0.018613184,-0.9991963,-0.03550141,0.99974746,-0.01815293,-0.013242937,9.8524475,-0.0993042,-0.12921143,9.804418,-0.16936426,-0.12286075,0.050598145,-0.018081665,-0.018829346,-23.519897,-7.1395874,0.17852783,0,0.0,0.0,0.0,0.0
2.448730468,0.013647119,0.056453746,0.9983119,-0.01629835,-0.9982596,0.05667359,0.999774,-0.017044269,-0.012703267,0.012575823,-0.034933742,0.9993105,-0.018567126,-0.9992254,-0.03469711,0.9997485,-0.01811798,-0.0132147,9.8524475,-0.0993042,-0.12921143,9.804434,-0.16714717,-0.124576494,0.039901733,-0.027709961,-0.009963989,-23.039246,-7.1395874,0.71868896,0,0.0,0.0,0.0,0.0
2.45703125,0.013818402,0.05590389,0.9983405,-0.016234268,-0.9982917,0.056125857,0.9997727,-0.016982898,-0.0128872385,0.01260022,-0.03310645,0.9993724,-0.0185223,-0.999288,-0.03287012,0.99974906,-0.018096505,-0.013204456,9.839279,-0.19023132,-0.117248535,9.804421,-0.16654535,-0.12638064,0.04310608,-0.022064209,-0.0096588135,-23.039246,-7.1395874,0.71868896,0,0.0,0.0,0.0,0.0
2.465332031,0.013962786,0.055440385,0.9983643,-0.016216785,-0.99831784,0.055664606,0.99977106,-0.016967494,-0.013040233,0.012654258,-0.029582094,0.9994823,-0.018433306,-0.9993993,-0.029346261,0.99975,-0.018052407,-0.013191952,9.839279,-0.19023132,-0.117248535,9.804405,-0.16639428,-0.127881,0.042800903,-0.016113281,-0.005844116,-23.039246,-7.1395874,0.71868896,0,0.0,0.0,0.0,0.0
2.473632812,0.01323552,-2.5092502E-4,0.99991244,-0.017015122,-0.9998552,-2.5686953E-5,0.99976754,-0.01701329,-0.013237871,0.0127114495,-0.026215361,0.9995755,-0.018347474,-0.9994941,-0.025979904,0.99975085,-0.018009443,-0.013186003,9.94577,-0.22851563,-0.1758728,9.804371,-0.1668434,-0.12981917,0.051361084,-0.017944336,-0.0011138916,-22.738647,-7.6187134,0.29907227,0,0.0,0.0,0.0,0.0
2.481933593,0.013815236,0.022267973,0.9996566,-0.016790887,-0.9996059,0.022498894,0.9997636,-0.017095948,-0.01343589,0.012722563,-0.025696116,0.9995888,-0.01832098,-0.9995079,-0.02546085,0.9997512,-0.01798952,-0.013187081,9.919449,-0.2679901,-0.19262695,9.804332,-0.16765398,-0.13176107,0.048309326,-0.013809204,0.005004883,-22.679138,-7.4386597,0.47912598,0,0.0,0.0,0.0,0.0
2.490234375,0.014006715,0.021684837,0.9996668,-0.01693104,-0.9996164,0.02192097,0.99975854,-0.017232439,-0.013634194,0.012768078,-0.023797302,0.9996353,-0.01826164,-0.9995556,-0.023562152,0.99975175,-0.017954135,-0.0131969815,9.893127,-0.23091125,-0.23330688,9.804282,-0.1689925,-0.13370577,0.04081726,0.012298584,0.012481689,-22.679138,-7.4386597,0.47912598,0,0.0,0.0,0.0,0.0
2.498535156,0.013399324,-0.016642554,0.9997717,-0.017626831,-0.99971,-0.016405286,0.99975485,-0.017402988,-0.013688793,0.012818983,-0.021996584,0.9996758,-0.01821042,-0.9995973,-0.021761343,0.999752,-0.017925559,-0.013214389,9.893127,-0.23091125,-0.23330688,9.804246,-0.17066501,-0.13424121,0.03791809,0.031082153,0.009277344,-22.859192,-7.6797485,0.17852783,0,0.0,0.0,0.0,0.0
2.506835937,0.013273018,-0.016266419,0.9997796,-0.017737815,-0.99971414,-0.016029866,0.99975455,-0.017521141,-0.013557755,0.012830695,-0.02188958,0.9996781,-0.018198805,-0.9995999,-0.021654291,0.99975204,-0.017915105,-0.013223925,9.951752,-0.2033844,-0.1878357,9.804243,-0.1718237,-0.13295616,0.04005432,0.028335571,0.0037841797,-22.859192,-7.6797485,0.17852783,0,0.0,0.0,0.0,0.0
2.515136718,0.013098622,-0.015747067,0.99979013,-0.017685276,-0.99972314,-0.0155143095,0.99975777,-0.01747835,-0.013373488,0.012848319,-0.021666754,0.99968266,-0.018180631,-0.999605,-0.021431407,0.99975216,-0.017899506,-0.013237158,9.968506,-0.112457275,-0.16151428,9.804275,-0.17140406,-0.13114911,0.04081726,0.021453857,0.002243042,-22.859192,-7.6797485,0.17852783,0,0.0,0.0,0.0,0.0
2.5234375,0.014169064,0.050372235,0.99863005,-0.01668927,-0.99857926,0.050606467,0.99976027,-0.01738345,-0.013308257,0.012858413,-0.021432728,0.99968755,-0.018161068,-0.99961036,-0.021197474,0.99975234,-0.017882828,-0.013242644,9.992432,-0.09451294,-0.17945862,9.804299,-0.17047341,-0.13050942,0.049987793,-0.0046539307,-5.0354004E-4,-22.499084,-7.9193115,0.71868896,0,0.0,0.0,0.0,0.0
2.531738281,0.015119659,0.106489755,0.99419886,-0.015749466,-0.9941638,0.106725514,0.99976164,-0.017271753,-0.01335426,0.012886003,-0.019996557,0.99971694,-0.018132618,-0.9996403,-0.0197613,0.9997525,-0.017872842,-0.013243957,10.067795,-0.055038452,-0.1483612,9.804313,-0.16937804,-0.13096055,0.0574646,-0.0046539307,-0.004776001,-22.558594,-7.4386597,1.1398315,0,0.0,0.0,0.0,0.0
2.540039062,0.015176277,0.10632068,0.994216,-0.015551382,-0.99418515,0.10655476,0.99976385,-0.01707854,-0.013434598,0.012981469,-0.014980619,0.9998035,-0.018044,-0.99972844,-0.014745211,0.9997529,-0.01784904,-0.013248254,10.052246,-0.052642822,-0.1651001,9.804335,-0.16748327,-0.13174841,0.055023193,-0.01411438,-0.009506226,-22.558594,-7.4386597,1.1398315,0,0.0,0.0,0.0,0.0
2.548339843,0.015974479,0.14877136,0.9887426,-0.014686882,-0.98872715,0.14900632,0.99976456,-0.016901843,-0.013609413,0.013075851,-0.010169536,0.99986273,-0.017950885,-0.9997895,-0.009934035,0.9997533,-0.017818527,-0.01325565,10.041473,-0.090927124,-0.17826843,9.804341,-0.16575047,-0.13346276,0.056396484,-0.020233154,-0.011795044,-22.439575,-7.559204,1.499939,0,0.0,0.0,0.0,0.0
2.556640625,0.01611224,0.14837381,0.98880005,-0.014529759,-0.9887893,0.14860897,0.9997647,-0.01676145,-0.013775775,0.013140212,-0.006979884,0.9998893,-0.017890794,-0.9998172,-0.006744266,0.9997536,-0.017800193,-0.013262686,10.031906,-0.12562561,-0.15194702,9.804342,-0.16437368,-0.13509421,0.048614502,-0.019317627,-0.005844116,-22.439575,-7.559204,1.499939,0,0.0,0.0,0.0,0.0
2.564941406,0.01624312,0.1479961,0.9888545,-0.014385826,-0.98884803,0.14823143,0.99976456,-0.016633231,-0.013932934,0.013270726,-8.063554E-4,0.9999116,-0.0177682,-0.999842,-5.704814E-4,0.999754,-0.01775906,-0.013282956,10.031906,-0.12562561,-0.15194702,9.804341,-0.16311628,-0.13663541,0.03211975,-0.01335144,-0.009048462,-22.439575,-7.559204,1.499939,0,0.0,0.0,0.0,0.0
2.573242187,0.016546875,0.1613584,0.9867571,-0.014047027,-0.98675734,0.16159399,0.99976444,-0.01653488,-0.014061147,0.013336692,0.002180621,0.9999087,-0.01770593,-0.9998403,0.002416632,0.9997543,-0.017736545,-0.013295952,9.98764,-0.18424988,-0.16989136,9.80434,-0.16215178,-0.13789275,0.016845703,-0.012435913,7.171631E-4,-22.37854,-7.978821,1.6799927,0,0.0,0.0,0.0,0.0
2.581542968,0.01532779,0.06884579,0.99750954,-0.015554352,-0.9974896,0.06908342,0.9997615,-0.016574511,-0.014218461,0.01347841,0.00851169,0.9998729,-0.017573286,-0.9998073,0.008748022,0.9997547,-0.017688962,-0.013326235,9.949356,-0.22492981,-0.1651001,9.804312,-0.16254044,-0.13943547,0.007369995,-0.015792847,0.0028686523,-22.918701,-7.9193115,0.8987427,0,0.0,0.0,0.0,0.0
2.58984375,0.015459268,0.06846803,0.9975335,-0.015754784,-0.9975122,0.06871072,0.9997564,-0.016778141,-0.014342112,0.013555203,0.010903026,0.99984866,-0.017496478,-0.9997848,0.011139535,0.999755,-0.017644828,-0.013361523,9.997208,-0.2644043,-0.15074158,9.804261,-0.16453737,-0.14064807,-0.0028533936,-0.0060272217,0.019958496,-22.918701,-7.9193115,0.8987427,0,0.0,0.0,0.0,0.0
2.598144531,0.015456674,0.06847548,0.997533,-0.015990326,-0.9975077,0.06872151,0.9997527,-0.017013086,-0.014323207,0.013594697,0.012055289,0.99983484,-0.01746327,-0.9997719,0.012291977,0.999755,-0.017627494,-0.013381072,10.021133,-0.2416687,-0.07417297,9.804225,-0.16684139,-0.14046268,-0.003921509,-0.008773804,0.022567749,-22.918701,-7.9193115,0.8987427,0,0.0,0.0,0.0,0.0
2.606445312,0.0155169945,0.07436368,0.9971104,-0.016188279,-0.99708104,0.07461341,0.9997485,-0.01729928,-0.014267882,0.013670679,0.014291358,0.9998044,-0.017407956,-0.99974287,0.014528505,0.99975497,-0.017603165,-0.013418381,10.021133,-0.2416687,-0.07417297,9.804184,-0.16964798,-0.13992013,-0.0069732666,-0.008926392,0.025466919,-22.859192,-8.099365,0.95977783,0,0.0,0.0,0.0,0.0
2.614746093,0.015489512,0.074440606,0.9971051,-0.016466495,-0.9970705,0.07469382,0.9997444,-0.017575799,-0.01421836,0.013745635,0.016672747,0.99976647,-0.01736274,-0.9997062,0.016910458,0.9997547,-0.017591132,-0.013452113,9.984055,-0.2416687,-0.059814453,9.804144,-0.1723597,-0.13943449,-0.009719849,-0.005874634,0.018585205,-22.859192,-8.099365,0.95977783,0,0.0,0.0,0.0,0.0
2.623046875,0.0146728065,0.03199756,0.99938023,-0.01736876,-0.9993289,0.032250926,0.9997415,-0.017831206,-0.014107201,0.013781084,0.017829442,0.999746,-0.017346239,-0.99968624,0.018067487,0.99975455,-0.017590825,-0.013467487,9.984055,-0.2416687,-0.059814453,9.804115,-0.1748644,-0.13834439,-0.009719849,0.014587402,0.020111084,-22.918701,-8.21991,0.5996704,0,0.0,0.0,0.0,0.0
2.631347656,0.014831572,0.05567609,0.9983387,-0.017219247,-0.9982862,0.055928975,0.9997417,-0.018020157,-0.013847454,0.013816258,0.018390495,0.9997354,-0.017347546,-0.9996759,0.018629145,0.999754,-0.017600343,-0.01349275,9.974487,-0.19142151,0.0047912598,9.804117,-0.17671737,-0.13579714,0.001876831,-0.0046539307,0.024993896,-22.979736,-7.8598022,0.7797241,0,0.0,0.0,0.0,0.0
2.639648437,0.014633146,0.056253314,0.99830925,-0.017432261,-0.99824995,0.056505494,0.9997409,-0.018229641,-0.013626918,0.013856156,0.019867947,0.99970657,-0.017343447,-0.9996474,0.020107154,0.99975353,-0.017616967,-0.013506691,9.969696,-0.19023132,0.011962891,9.80411,-0.1787717,-0.13363442,0.011505127,-0.008621216,0.027297974,-22.979736,-7.8598022,0.7797241,0,0.0,0.0,0.0,0.0
2.647949218,0.01451524,0.0565963,0.9982917,-0.017662514,-0.9982266,0.056849428,0.9997387,-0.01845752,-0.013489864,0.013871425,0.02059629,0.99969167,-0.017345548,-0.9996325,0.020835752,0.99975336,-0.017629221,-0.013509072,9.968506,-0.19740295,0.0143585205,9.804088,-0.18100645,-0.13229038,0.016693115,-0.016418457,0.022705078,-22.979736,-7.8598022,0.7797241,0,0.0,0.0,0.0,0.0
