Time,Rot1,Rot2,Rot3,Rot4,Rot5,Rot6,Rot7,Rot8,Rot9,FRot1,FRot2,FRot3,FRot4,FRot5,FRot6,FRot7,FRot8,FRot9,AccX,AccY,AccZ,GravX,GravY,GravZ,GyroX,GyroY,GyroZ,MagX,MagY,MagZ,Imid
0.0,0.0,0.0,0.0,0.0,0.0,0.0,0.0,0.0,0.0,0.0,0.0,0.0,0.0,0.0,0.0,0.0,0.0,0.0,0.0,0.0,0.0,0.21104425,9.7721195,-0.79468536,0.0,0.0,0.0,0.0,0.0,0.0,0,0.0,0.0,0.0,0.0
0.008300781,0.93758416,0.007642135,0.3476743,0.34707046,-0.08341161,-0.93412226,0.02186139,0.9964858,-0.080857776,1.0,0.0,0.0,0.0,1.0,0.0,0.0,0.0,1.0,0.38523865,10.019943,-0.65802,0.214387,9.772188,-0.7929439,0.0040130615,-0.08253479,0.002090454,6.7199707,-35.639954,-17.338562,0,0.0,0.0,0.0,0.0
0.016601562,0.9374129,0.0073825805,0.34814146,0.34752077,-0.083147645,-0.93397844,0.022051977,0.99650985,-0.08050928,0.9963831,0.060939718,-0.059221737,-0.062572844,0.9976985,-0.026123134,0.0574935,0.029734321,0.997903,0.35533142,10.040283,-0.5252228,0.21625602,9.772424,-0.7895264,0.0055389404,-0.095062256,-0.004928589,6.7199707,-35.639954,-17.338562,0,0.0,0.0,0.0,0.0
0.024902344,0.9461356,0.0053607174,0.3237265,0.32303524,-0.08299396,-0.9427409,0.021813573,0.99653566,-0.08025523,0.96727806,0.17784436,-0.18095426,-0.19044316,0.9801747,-0.054671057,0.16764386,0.08734362,0.9819708,0.13400269,10.016357,-0.58384705,0.21391809,9.772676,-0.787035,0.009063721,-0.08528137,-0.018676758,6.239319,-35.998535,-17.63916,0,0.0,0.0,0.0,0.0
0.033203125,0.94625133,0.005548288,0.32338464,0.32271597,-0.082701445,-0.9428758,0.02151303,0.9965589,-0.08004687,0.9094614,0.2870507,-0.30080196,-0.31618688,0.9472701,-0.05201169,0.27001074,0.14241228,0.9522673,0.13400269,10.016357,-0.58384705,0.21097076,9.772904,-0.7849917,0.018676758,-0.06802368,-0.018981934,6.239319,-35.998535,-17.63916,0,0.0,0.0,0.0,0.0
0.041503906,0.95082605,0.00464681,0.3096905,0.30899745,-0.08274313,-0.94745666,0.021222113,0.99656004,-0.08011018,0.87056214,0.33781952,-0.3577702,-0.37563002,0.92591745,-0.039735787,0.31784216,0.16898169,0.9329639,0.14117432,10.015152,-0.7405853,0.20811783,9.772916,-0.7856125,0.018676758,-0.04496765,-0.013931274,6.059265,-36.299133,-18.058777,0,0.0,0.0,0.0,0.0
0.049804687,0.9509479,0.0048548807,0.30931318,0.30863792,-0.08275346,-0.94757295,0.020996377,0.9965582,-0.08019262,0.7748527,0.43145636,-0.46200508,-0.48436394,0.8748542,0.0046551228,0.4061956,0.22017159,0.8868651,0.1531372,10.019943,-0.7621155,0.20590413,9.772898,-0.78642094,0.011657715,-0.048477173,-0.0067596436,6.059265,-36.299133,-18.058777,0,0.0,0.0,0.0,0.0
0.058105469,0.94942635,0.0054237624,0.31394264,0.3132988,-0.0826465,-0.94605136,0.020815102,0.99656415,-0.080166034,0.6594147,0.51336616,-0.54920626,-0.5750571,0.8149954,0.07135753,0.4842331,0.26877072,0.8326348,0.13877869,10.019943,-0.7046814,0.20412643,9.772956,-0.7861603,0.009811401,-0.05366516,0.0013275146,6.1798096,-36.479187,-18.058777,0,0.0,0.0,0.0,0.0
0.06640625,0.94948065,0.005514863,0.31377718,0.31314287,-0.082568064,-0.94611,0.020690307,0.99657017,-0.080123715,0.5959746,0.54975724,-0.5853043,-0.6124969,0.7825848,0.11139345,0.5192897,0.29210946,0.8031253,0.14356995,10.02713,-0.73698425,0.2029026,9.773015,-0.78574526,0.009811401,-0.05734253,0.0068359375,6.1798096,-36.479187,-18.058777,0,0.0,0.0,0.0,0.0
0.074707031,0.9487172,0.0057585733,0.31607354,0.31545162,-0.08251774,-0.9453471,0.020637825,0.996573,-0.080102555,0.4609114,0.6136648,-0.6410742,-0.6704188,0.7140855,0.20154524,0.58146304,0.3368937,0.7405426,0.15672302,10.000809,-0.72143555,0.20238793,9.773043,-0.7855377,0.014862061,-0.06237793,0.011108398,6.239319,-36.71875,-18.058777,0,0.0,0.0,0.0,0.0
0.083007812,0.9487254,0.0057722568,0.31604853,0.31542814,-0.08249962,-0.94535637,0.020617051,0.99657434,-0.08009023,0.39065745,0.64123625,-0.66045654,-0.6906234,0.6785273,0.25027996,0.60862637,0.35835302,0.7079245,0.15672302,10.000809,-0.72143555,0.2021842,9.773056,-0.7854169,0.007369995,-0.055343628,0.012634277,6.239319,-36.71875,-18.058777,0,0.0,0.0,0.0,0.0
0.091308594,0.9578349,0.003280759,0.28730035,0.28657943,-0.08261207,-0.95448804,0.02060303,0.99657637,-0.08006892,0.24782637,0.6880188,-0.68206465,-0.7135078,0.60586435,0.3519022,0.655354,0.39944777,0.64105594,0.14955139,9.988831,-0.7310028,0.20204672,9.773076,-0.7852079,0.004776001,-0.04725647,0.014160156,5.5786133,-36.71875,-18.179321,0,0.0,0.0,0.0,0.0
0.099609375,0.9577881,0.0031957447,0.28745767,0.2867306,-0.0825541,-0.95444775,0.020680634,0.99658144,-0.07998563,0.10492417,0.7248596,-0.6808594,-0.71382403,0.5315833,0.4559325,0.69242054,0.43817547,0.57319814,0.20458984,10.00679,-0.72143555,0.20280775,9.773126,-0.78439116,-0.003768921,-0.04084778,0.014312744,5.5786133,-36.71875,-18.179321,0,0.0,0.0,0.0,0.0
0.107910156,0.95890707,0.0027597994,0.2837068,0.28295967,-0.08247103,-0.9555795,0.020760385,0.9965896,-0.07986297,0.035102308,0.73949385,-0.6722474,-0.70581436,0.49456385,0.5071811,0.70752656,0.4566787,0.5393057,0.20458984,10.00679,-0.72143555,0.20358984,9.773206,-0.78318816,-0.006362915,-0.045578003,0.011871338,5.519104,-36.419678,-18.299866,0,0.0,0.0,0.0,0.0
0.116210937,0.9588377,0.0026307434,0.28394273,0.2831877,-0.08231657,-0.95552534,0.020859448,0.9966027,-0.079673216,-0.09912756,0.7618081,-0.64017344,-0.67474955,0.4213831,0.6059284,0.73135954,0.492021,0.472259,0.23091125,10.017548,-0.72143555,0.20456131,9.7733345,-0.78132737,-0.015075684,-0.034423828,0.008514404,5.519104,-36.419678,-18.299866,0,0.0,0.0,0.0,0.0
0.124511719,0.9611159,0.0016993366,0.27614018,0.2753463,-0.08191675,-0.95784867,0.0209928,0.99663776,-0.079199396,-0.22351143,0.7755066,-0.59045076,-0.62569237,0.3503285,0.6969785,0.74736315,0.5252232,0.4069261,0.27397156,10.011566,-0.5276184,0.20586905,9.773678,-0.77668077,-0.016143799,-0.022216797,0.0031738281,5.3390503,-36.299133,-18.359375,0,0.0,0.0,0.0,0.0
0.1328125,0.961008,0.0014931402,0.2765165,0.27571416,-0.08148628,-0.9577795,0.021102203,0.99667335,-0.078720644,-0.28136992,0.7794832,-0.5596757,-0.5952436,0.31569517,0.7389328,0.7526726,0.5410568,0.3751552,0.27397156,10.011566,-0.5276184,0.20694192,9.774027,-0.7719858,-0.010025024,-0.014266968,7.171631E-4,5.3390503,-36.299133,-18.359375,0,0.0,0.0,0.0,0.0
0.141113281,0.9666181,-2.8059605E-4,0.2562216,0.25535613,-0.08107485,-0.9634419,0.02104346,0.996708,-0.07829675,-0.3870864,0.7821283,-0.48830274,-0.52434,0.24889776,0.81432027,0.7584403,0.57124895,0.31375617,0.16870117,10.039093,-0.5539398,0.20636585,9.774366,-0.7678288,-0.010803223,-0.0077056885,7.171631E-4,4.9194336,-36.479187,-18.598938,0,0.0,0.0,0.0,0.0
0.149414062,0.9666415,-2.3243685E-4,0.25613332,0.25527832,-0.080770716,-0.96348804,0.020912018,0.99673265,-0.07801698,-0.47887385,0.77860796,-0.40552375,-0.4420552,0.18522933,0.8776545,0.7584637,0.59954965,0.25548622,0.11366272,10.00798,-0.6089783,0.20507684,9.774609,-0.7650852,0.0066070557,0.0019226074,0.0066833496,4.9194336,-36.479187,-18.598938,0,0.0,0.0,0.0,0.0
0.157714844,0.9629663,9.4091764E-4,0.26962006,0.26881725,-0.08054056,-0.9598179,0.020812241,0.99675083,-0.07781078,-0.51912475,0.7747218,-0.36099267,-0.39763156,0.15495758,0.9043657,0.75657034,0.61302066,0.22761151,0.11366272,10.00798,-0.6089783,0.20409837,9.774787,-0.76306313,0.0066070557,0.005584717,0.0069885254,5.1589966,-36.05957,-18.299866,0,0.0,0.0,0.0,0.0
0.166015625,0.9629223,8.5465633E-4,0.2697776,0.26897097,-0.08037809,-0.9597885,0.020863922,0.99676406,-0.07762774,-0.5880192,0.7632072,-0.26785854,-0.30427495,0.09811397,0.94751805,0.7494332,0.63866144,0.17453194,0.18066406,10.012772,-0.63409424,0.20460519,9.774917,-0.7612681,0.017608643,0.0048217773,0.002090454,5.1589966,-36.05957,-18.299866,0,0.0,0.0,0.0,0.0
0.174316406,0.9548642,0.0030809725,0.29702684,0.29630482,-0.0803217,-0.9517099,0.020925507,0.9967642,-0.07760921,-0.6419128,0.7475428,-0.17066845,-0.20667416,0.045662887,0.9773437,0.7383995,0.6626422,0.12518619,0.22732544,10.010376,-0.6652069,0.20520914,9.774918,-0.7610864,0.01638794,0.017181396,0.0065307617,5.6396484,-35.699463,-17.759705,0,0.0,0.0,0.0,0.0
0.182617187,0.95482886,0.0030185985,0.29714105,0.2964137,-0.080327995,-0.95167553,0.020996014,0.9967639,-0.077594236,-0.66328555,0.73838353,-0.12182781,-0.15738268,0.02152176,0.98730314,0.7316303,0.6740375,0.1019337,0.22732544,10.010376,-0.6652069,0.20590056,9.774915,-0.76093954,0.02218628,0.022842407,0.007446289,5.6396484,-35.699463,-17.759705,0,0.0,0.0,0.0,0.0
0.190917969,0.95663184,0.0025116066,0.29128894,0.2905398,-0.08041117,-0.9534782,0.02102812,0.99675864,-0.07765361,-0.6956857,0.7179524,-0.023789052,-0.058387574,-0.023507852,0.9980172,0.71596956,0.6956952,0.058273572,0.20578003,9.999603,-0.7046814,0.20621543,9.774863,-0.76152176,0.018676758,0.01763916,-0.0017242432,5.519104,-35.51941,-17.819214,0,0.0,0.0,0.0,0.0
0.19921875,0.95662457,0.0024985694,0.29131266,0.29056,-0.0805264,-0.95346236,0.021076072,0.9967494,-0.07775953,-0.71503836,0.69520885,0.073517844,0.0398854,-0.06442224,0.9971254,0.69794655,0.7159151,0.018335685,0.23330688,10.00679,-0.7417755,0.20668566,9.774773,-0.7625605,0.008590698,-0.001449585,0.0042266846,5.519104,-35.51941,-17.819214,0,0.0,0.0,0.0,0.0
0.207519531,0.9583768,0.0019662173,0.28549963,0.28472304,-0.08060724,-0.9552148,0.021135181,0.996744,-0.07781194,-0.7201304,0.68314856,0.12132762,0.08820457,-0.08330915,0.9926125,0.6882095,0.725512,-2.633816E-4,0.23330688,10.00679,-0.7417755,0.20726535,9.77472,-0.7630746,0.0066070557,-0.009231567,0.0045318604,5.3985596,-35.339355,-17.878723,0,0.0,0.0,0.0,0.0
0.215820312,0.9577427,0.002109323,0.28761855,0.28684792,-0.080520995,-0.9545861,0.021145802,0.99675065,-0.07772346,-0.7218154,0.6579396,0.21470472,0.18257338,-0.118217915,0.9760592,0.66756994,0.7437338,-0.03479074,0.22253418,10.016357,-0.69869995,0.20736949,9.774785,-0.7622068,-0.0030059814,-0.0049591064,-0.0021820068,5.519104,-35.21881,-18.119812,0,0.0,0.0,0.0,0.0
0.224121094,0.957697,0.002023436,0.28777155,0.28699914,-0.08026823,-0.954562,0.021167414,0.9967713,-0.07745336,-0.71320957,0.6316913,0.3038064,0.27273744,-0.14917831,0.95045257,0.6457139,0.7607312,-0.065890454,0.25004578,10.00679,-0.5934143,0.20758143,9.774987,-0.759558,-0.002090454,-0.004348755,-0.0069122314,5.519104,-35.21881,-18.119812,0,0.0,0.0,0.0,0.0
0.232421875,0.9576567,0.0019479995,0.2879059,0.2871326,-0.080015,-0.95454305,0.021177342,0.9967918,-0.07718625,-0.70542896,0.6182969,0.34652388,0.31599176,-0.16327716,0.93460673,0.63444394,0.7687974,-0.0801963,0.25004578,10.00679,-0.5934143,0.20767878,9.7751875,-0.75693846,-0.0034637451,-0.016723633,-0.00843811,5.519104,-35.21881,-18.119812,0,0.0,0.0,0.0,0.0
0.240722656,0.9587728,0.0016350246,0.28416923,0.283389,-0.07977365,-0.9556813,0.021106655,0.9968116,-0.07694815,-0.6836712,0.5911903,0.42788768,0.39843747,-0.18885158,0.8975426,0.6114257,0.7841104,-0.10643997,0.22492981,10.02713,-0.6017914,0.20698558,9.775383,-0.7546036,-7.171631E-4,-0.015335083,-0.006149292,5.519104,-35.1593,-18.418884,0,0.0,0.0,0.0,0.0
0.249023437,0.9650198,-2.1633545E-4,0.26217648,0.26132834,-0.0795823,-0.96196353,0.02107272,0.99682826,-0.07674198,-0.6545586,0.5638954,0.5035624,0.47518694,-0.21118723,0.85416466,0.5880055,0.7983871,-0.12972131,0.18544006,10.018753,-0.66041565,0.20665279,9.775546,-0.7525817,0.013183594,-0.02053833,-0.00340271,5.1589966,-35.51941,-19.018555,0,0.0,0.0,0.0,0.0
0.257324219,0.9650445,-1.6435294E-4,0.2620861,0.26124403,-0.07949671,-0.96199375,0.02099309,0.9968352,-0.07667492,-0.6373887,0.55016935,0.53948987,0.51156795,-0.22143608,0.8302194,0.5762238,0.8051582,-0.14030816,0.18544006,10.018753,-0.66041565,0.20587188,9.775614,-0.75192416,0.011810303,-0.025115967,-0.008743286,5.1589966,-35.51941,-19.018555,0,0.0,0.0,0.0,0.0
0.265625,0.965077,-9.5498275E-5,0.26196632,0.26113147,-0.079422005,-0.96203035,0.020897765,0.9968411,-0.07662342,-0.59888995,0.52290195,0.60655123,0.5795751,-0.23967531,0.7788763,0.5526513,0.81800324,-0.15952183,0.15434265,10.02832,-0.71784973,0.20493707,9.775672,-0.75141907,0.0107421875,-0.015792847,7.171631E-4,5.1589966,-35.51941,-19.018555,0,0.0,0.0,0.0,0.0
0.273925781,0.97092825,-0.0018492874,0.23936325,0.2384654,-0.07939945,-0.96789974,0.02079524,0.9968412,-0.076650195,-0.5778247,0.5094143,0.6376642,0.6111778,-0.2477268,0.75172675,0.5409069,0.8240925,-0.16820008,0.15434265,10.02832,-0.71784973,0.20393163,9.775672,-0.7516816,0.014404297,-0.015792847,0.0053100586,4.73938,-35.57892,-19.499207,0,0.0,0.0,0.0,0.0
0.282226562,0.970941,-0.0018195232,0.23931204,0.238415,-0.07947607,-0.9679058,0.020780709,0.99683505,-0.07673278,-0.53206354,0.48260748,0.69569993,0.67007065,-0.26228958,0.69441307,0.5176038,0.83563995,-0.18382639,0.18424988,10.000809,-0.7537384,0.20378914,9.775613,-0.7524915,0.006454468,-0.012283325,7.171631E-4,4.73938,-35.57892,-19.499207,0,0.0,0.0,0.0,0.0
0.290527344,0.9794507,-0.004901485,0.20162383,0.20061056,-0.079300284,-0.9764562,0.020774916,0.99683875,-0.07668744,-0.48297915,0.45644704,0.7472532,0.7225149,-0.27436724,0.63458246,0.49467507,0.8463916,-0.19727613,0.20578003,10.025925,-0.69511414,0.20373233,9.775648,-0.7520469,-0.0011749268,-0.016555786,-1.9836426E-4,4.019165,-35.998535,-20.399475,0,0.0,0.0,0.0,0.0
0.298828125,0.9794473,-0.004911151,0.20164022,0.20062843,-0.07919145,-0.9764614,0.020763732,0.99684733,-0.07657854,-0.45688418,0.44342864,0.77112114,0.74672127,-0.2798944,0.60337913,0.4833881,0.851487,-0.20323826,0.20578003,10.025925,-0.69511414,0.20362265,9.775733,-0.75097895,-0.0042266846,-0.013198853,4.119873E-4,4.019165,-35.998535,-20.399475,0,0.0,0.0,0.0,0.0
0.307128906,0.9847891,-0.0071573765,0.17360662,0.17251484,-0.078842856,-0.9818464,0.020715086,0.99686134,-0.076408826,-0.40317267,0.41800144,0.8140801,0.79039156,-0.28930134,0.53998697,0.4612298,0.8611501,-0.21374643,0.17347717,10.017548,-0.66041565,0.20314561,9.77587,-0.74931467,-4.119873E-4,-0.0061798096,0.0028686523,3.479004,-36.479187,-21.238708,0,0.0,0.0,0.0,0.0
0.315429687,0.9847775,-0.0071955062,0.17367022,0.17257833,-0.07869863,-0.9818468,0.020732496,0.9968725,-0.07625886,-0.34710264,0.39312625,0.8514525,0.82836854,-0.2971371,0.47488418,0.43968758,0.87015015,-0.22251634,0.21296692,10.003189,-0.6616211,0.20331632,9.775979,-0.7478439,0.0050811768,-0.016860962,0.0011749268,3.479004,-36.479187,-21.238708,0,0.0,0.0,0.0,0.0
0.323730469,0.98599637,-0.007794638,0.16658425,0.16547152,-0.07851637,-0.983084,0.020742377,0.9968823,-0.076127075,-0.31872967,0.38103923,0.8678827,0.84511757,-0.3003433,0.4422332,0.429171,0.8744158,-0.22629462,0.21296692,10.003189,-0.6616211,0.20341325,9.776076,-0.7465516,-0.003921509,-0.014572144,-6.5612793E-4,3.2989502,-36.59973,-21.238708,0,0.0,0.0,0.0,0.0
0.33203125,0.9873107,-0.00844176,0.15857613,0.15744266,-0.07827918,-0.9844208,0.020723453,0.99689573,-0.07595678,-0.23276216,0.34613678,0.90885156,0.8870479,-0.30756205,0.34431332,0.39870778,0.88633794,-0.23545109,0.1986084,10.022339,-0.64486694,0.20322765,9.776208,-0.7448816,0.0024871826,-0.039779663,-0.0014190674,3.1799316,-37.1994,-21.77887,0,0.0,0.0,0.0,0.0
0.340332031,0.98731184,-0.008437449,0.15856893,0.15743935,-0.07810824,-0.9844348,0.020691661,0.99690914,-0.07578881,-0.20401639,0.33496508,0.9198781,0.8983942,-0.30924347,0.31185967,0.38892838,0.8900376,-0.23783994,0.1986084,10.022339,-0.64486694,0.20291588,9.77634,-0.7432344,0.0014190674,-0.04878235,-0.0024871826,3.1799316,-37.1994,-21.77887,0,0.0,0.0,0.0,0.0
0.348632812,0.9873151,-0.0084254835,0.15854898,0.1574226,-0.07799997,-0.98444605,0.020661252,0.9969177,-0.0756842,-0.1753943,0.32405415,0.92963743,0.9084809,-0.31056762,0.27966076,0.37934053,0.89360875,-0.23992524,0.21894836,10.022339,-0.68434143,0.20261766,9.776423,-0.7422084,-0.0071258545,-0.049850464,-0.004928589,3.1799316,-37.1994,-21.77887,0,0.0,0.0,0.0,0.0
0.356933594,0.9889754,-0.00926245,0.1477903,0.14663754,-0.0777201,-0.9861323,0.020620275,0.99693215,-0.07550503,-0.118715614,0.30302775,0.9455584,0.92507684,-0.31223038,0.21620613,0.36074853,0.90038127,-0.24325733,0.22851563,10.003189,-0.6412811,0.20221585,9.776566,-0.7404515,-0.0011749268,-0.044662476,-0.0037078857,2.9388428,-37.55951,-22.019958,0,0.0,0.0,0.0,0.0
0.365234375,0.98900574,-0.0091451,0.14759418,0.14645214,-0.07765716,-0.98616487,0.020480322,0.99693817,-0.07546406,-0.06267178,0.28292614,0.957092,0.93726367,-0.3128365,0.15385106,0.3429418,0.90668964,-0.24557038,0.15672302,10.016357,-0.727417,0.20084335,9.776624,-0.74004966,0.0043182373,-0.03993225,-0.0041656494,2.9388428,-37.55951,-22.019958,0,0.0,0.0,0.0,0.0
0.373535156,0.9907585,-0.010003603,0.13526857,0.13410021,-0.07750126,-0.9879325,0.020366369,0.99694204,-0.07544354,-0.035129875,0.27328297,0.96129197,0.9418024,-0.31272954,0.123322606,0.3343264,0.9096794,-0.24639241,0.15672302,10.016357,-0.727417,0.19972585,9.776662,-0.73984843,-0.004837036,-0.04374695,0.0040893555,2.6397705,-37.919617,-22.138977,0,0.0,0.0,0.0,0.0
0.381835937,0.99077785,-0.009922551,0.13513206,0.13397203,-0.07741198,-0.9879568,0.020263894,0.9969498,-0.07536874,0.019302875,0.25464764,0.9668412,0.9480041,-0.31191447,0.06322557,0.31767204,0.91534907,-0.24742787,0.14715576,10.013962,-0.71784973,0.19872092,9.776738,-0.7391149,-0.008346558,-0.049240112,0.0013275146,2.6397705,-37.919617,-22.138977,0,0.0,0.0,0.0,0.0
0.390136719,0.9918566,-0.010590361,0.1269191,0.12574033,-0.07700496,-0.98907006,0.020248009,0.9969744,-0.075046234,0.07206753,0.2370634,0.9688175,0.95064807,-0.31022784,0.005194813,0.30178565,0.92063004,-0.24772121,0.23808289,10.005585,-0.5922241,0.19856514,9.776979,-0.73595214,-0.009887695,-0.039474487,-0.001876831,2.3986816,-37.799072,-21.899414,0,0.0,0.0,0.0,0.0
0.3984375,0.9918547,-0.010597993,0.12693207,0.12575914,-0.07668736,-0.9890923,0.02021648,0.99699885,-0.074729934,0.09792736,0.22859357,0.9685841,0.9507351,-0.30913785,-0.023163736,0.29413092,0.9231353,-0.24760498,0.20698547,10.016357,-0.56829834,0.19825596,9.777219,-0.7328503,-0.0013275146,-0.03656006,-0.0037078857,2.3986816,-37.799072,-21.899414,0,0.0,0.0,0.0,0.0
0.406738281,0.99048626,-0.0097172065,0.1372683,0.13613363,-0.07662362,-0.9877229,0.020115899,0.99701273,-0.0745718,0.14819932,0.21239062,0.96588147,0.94867283,-0.30644503,-0.07817373,0.27938625,0.92789096,-0.24690416,0.1603241,10.00798,-0.6508484,0.19726959,9.777355,-0.7312996,4.5776367E-5,-0.026489258,-9.613037E-4,2.6397705,-37.739563,-21.71936,0,0.0,0.0,0.0,0.0
0.415039062,0.9904991,-0.009665254,0.13717957,0.13605304,-0.07642239,-0.98774964,0.02003044,0.9970287,-0.074381314,0.19607541,0.19729297,0.96053624,0.9439988,-0.30306622,-0.1304501,0.2653692,0.9323231,-0.24566813,0.17108154,10.025925,-0.6017914,0.19643152,9.777512,-0.7294315,-0.0030059814,-0.025115967,0.0011749268,2.6397705,-37.739563,-21.71936,0,0.0,0.0,0.0,0.0
0.423339844,0.9877494,-0.0082016215,0.15583315,0.15476418,-0.076386884,-0.984994,0.019982155,0.9970445,-0.07418177,0.219251,0.19009486,0.9569707,0.9407664,-0.30118582,-0.15571028,0.25862628,0.93442553,-0.24487017,0.17108154,10.025925,-0.6017914,0.19595799,9.777666,-0.72747463,0.0037078857,-0.023284912,0.010192871,3.0593872,-37.379456,-21.359253,0,0.0,0.0,0.0,0.0
0.431640625,0.98774314,-0.008224084,0.15587159,0.15480325,-0.076266795,-0.9849972,0.019988524,0.99705356,-0.07405888,0.26335046,0.17659384,0.94839925,0.93289685,-0.2969671,-0.2037499,0.24566239,0.9384163,-0.24295026,0.19023132,10.022339,-0.6305084,0.19602045,9.777756,-0.72626954,0.009811401,-0.011672974,0.002243042,3.0593872,-37.379456,-21.359253,0,0.0,0.0,0.0,0.0
0.439941406,0.98551583,-0.007178298,0.16943169,0.16840154,-0.07633877,-0.98275805,0.019988732,0.9970561,-0.074024215,0.30540922,0.16393928,0.9380027,0.92317843,-0.29240888,-0.24947682,0.23338129,0.9421364,-0.2406496,0.19023132,9.992432,-0.6687927,0.19602251,9.777781,-0.7259296,0.005996704,-0.009231567,0.0037841797,3.2989502,-37.078857,-20.759583,0,0.0,0.0,0.0,0.0
0.448242187,0.98551357,-0.007185915,0.16944492,0.16841502,-0.07629533,-0.9827592,0.019989876,0.99705935,-0.073979855,0.3254219,0.15799853,0.9322752,0.91779613,-0.2899797,-0.2712231,0.22748804,0.9439005,-0.2393762,0.19023132,9.992432,-0.6687927,0.19603372,9.777812,-0.72549456,0.0069122314,-0.010299683,0.006378174,3.2989502,-37.078857,-20.759583,0,0.0,0.0,0.0,0.0
0.456542969,0.9817088,-0.005559297,0.19030772,0.18933779,-0.076382205,-0.9789367,0.01997832,0.9970631,-0.073932484,0.36395624,0.14669514,0.9197915,0.9059814,-0.28495783,-0.3130445,0.21617967,0.94724846,-0.23661523,0.16989136,10.016357,-0.653244,0.1959204,9.777849,-0.72503,0.007522583,-0.01777649,0.0045318604,3.8391113,-36.779785,-20.878601,0,0.0,0.0,0.0,0.0
0.46484375,0.98169404,-0.005603281,0.19038251,0.1894108,-0.07629925,-0.97892904,0.020011256,0.99706924,-0.07384119,0.3997779,0.13636604,0.9064115,0.89328265,-0.27964482,-0.35191584,0.20548391,0.95036995,-0.23360923,0.2033844,10.02832,-0.624527,0.19624336,9.777908,-0.7241347,0.0029449463,-0.01763916,0.0016326904,3.8391113,-36.779785,-20.878601,0,0.0,0.0,0.0,0.0
0.473144531,0.9831493,-0.006276446,0.18269673,0.18169978,-0.076155595,-0.9804007,0.020066809,0.99707615,-0.07373189,0.4169848,0.13145506,0.89935714,0.88655484,-0.2769459,-0.37056908,0.20036007,0.9518511,-0.23202436,0.22970581,10.021133,-0.63290405,0.19678819,9.777978,-0.72306293,0.008148193,-0.013046265,0.002090454,3.6590576,-36.358643,-20.939636,0,0.0,0.0,0.0,0.0
0.481445312,0.98314244,-0.006297911,0.1827328,0.18173563,-0.07608241,-0.9803996,0.020077221,0.9970816,-0.073655285,0.45029664,0.12202708,0.88450116,0.8723104,-0.27152625,-0.40663022,0.19054537,0.95466375,-0.22871284,0.20698547,10.004395,-0.6520386,0.19689028,9.77803,-0.7223116,0.004623413,8.392334E-4,-6.5612793E-4,3.6590576,-36.358643,-20.939636,0,0.0,0.0,0.0,0.0
0.489746094,0.9824219,-0.0060419547,0.18657637,0.18558855,-0.07602298,-0.9796824,0.020103287,0.99708784,-0.07356532,0.481804,0.11322533,0.86893326,0.85732365,-0.26604474,-0.44070002,0.18127671,0.95728797,-0.22525215,0.22253418,10.010376,-0.6400757,0.19714591,9.778091,-0.72142935,0.005996704,0.0031433105,7.171631E-4,3.718567,-36.419678,-20.759583,0,0.0,0.0,0.0,0.0
0.498046875,0.98240817,-0.0060835998,0.18664698,0.18565743,-0.07594676,-0.9796751,0.020135188,0.9970933,-0.07348126,0.49683332,0.10906614,0.86096525,0.84963775,-0.26328245,-0.4569442,0.1768399,0.9585337,-0.2234742,0.22253418,10.010376,-0.6400757,0.19745873,9.778145,-0.720605,0.011962891,0.0011444092,0.0030059814,3.718567,-36.419678,-20.759583,0,0.0,0.0,0.0,0.0
0.506347656,0.9808025,-0.0054910667,0.19492662,0.19395573,-0.07603526,-0.97805923,0.020191886,0.99709004,-0.07351055,0.52562356,0.10116559,0.84468055,0.8338943,-0.25775206,-0.48804116,0.1683452,0.9609003,-0.21984199,0.24287415,10.0247345,-0.69750977,0.19801474,9.778112,-0.7208922,0.0121154785,0.0010070801,-0.007522583,3.8986206,-36.299133,-20.639038,0,0.0,0.0,0.0,0.0
0.514648437,0.9808118,-0.0054640085,0.19488077,0.1939134,-0.07596594,-0.978073,0.0201485,0.9970954,-0.07344874,0.5525089,0.09388211,0.82820284,0.8179405,-0.2522066,-0.5170735,0.16033427,0.9631085,-0.21613638,0.19979858,10.005585,-0.61854553,0.1975893,9.778166,-0.72028613,0.0038604736,0.0022277832,-0.0024871826,3.8986206,-36.299133,-20.639038,0,0.0,0.0,0.0,0.0
0.522949219,0.9764377,-0.003809005,0.21576586,0.2148615,-0.07596153,-0.9736859,0.02009868,0.99710345,-0.07335329,0.56537044,0.090430096,0.819865,0.80985475,-0.2494458,-0.5309538,0.15649767,0.9641572,-0.21426453,0.19979858,10.005585,-0.61854553,0.19710073,9.778245,-0.7193501,0.005996704,3.8146973E-4,0.0016326904,4.3792725,-36.299133,-20.458984,0,0.0,0.0,0.0,0.0
0.53125,0.97643673,-0.0038114716,0.21577004,0.21486726,-0.07587236,-0.9736916,0.020082181,0.99711025,-0.073265605,0.58930063,0.08409155,0.80352557,0.7940278,-0.24388713,-0.5568114,0.14914641,0.96615094,-0.21049388,0.20698547,10.001999,-0.6520386,0.19693893,9.778312,-0.7184902,-0.0013275146,-7.6293945E-5,-0.006454468,4.3792725,-36.299133,-20.458984,0,0.0,0.0,0.0,0.0
0.539550781,0.97717744,-0.0040946193,0.21238519,0.2114735,-0.075757444,-0.9744433,0.020079732,0.9971179,-0.07316256,0.61184895,0.078184225,0.787101,0.7780854,-0.23840421,-0.58115965,0.14221068,0.96801376,-0.20670138,0.21774292,10.009171,-0.66041565,0.19691491,9.778386,-0.71747965,-0.0025482178,-0.018554688,-0.0029449463,4.319763,-36.538696,-20.579529,0,0.0,0.0,0.0,0.0
0.547851562,0.9771704,-0.004113494,0.21241723,0.21150634,-0.07564517,-0.974445,0.02007671,0.99712634,-0.0730482,0.6226795,0.07536558,0.778839,0.77005136,-0.2356999,-0.5928459,0.13889211,0.96889913,-0.20480089,0.21774292,10.009171,-0.66041565,0.19688529,9.778469,-0.7163581,-7.171631E-4,-0.033050537,-8.087158E-4,4.319763,-36.538696,-20.579529,0,0.0,0.0,0.0,0.0
0.556152344,0.980506,-0.0052977013,0.19641778,0.1954686,-0.075456314,-0.97780293,0.020001069,0.9971351,-0.072949834,0.6331871,0.072643414,0.7705823,0.7620157,-0.2330176,-0.60418123,0.13566944,0.96975553,-0.20289916,0.17228699,10.015152,-0.67836,0.1961435,9.778555,-0.7153935,-0.0074310303,-0.044509888,-0.0037078857,4.019165,-36.898804,-21.058655,0,0.0,0.0,0.0,0.0
0.564453125,0.98051566,-0.005269647,0.19637047,0.19542576,-0.07534096,-0.9778204,0.019947506,0.9971439,-0.07284316,0.65375257,0.06733843,0.75370634,0.74554634,-0.22776581,-0.6263254,0.12949276,0.9713847,-0.1991064,0.18664551,10.0295105,-0.6915283,0.19561821,9.778642,-0.71434736,-0.012481689,-0.045578003,8.69751E-4,4.019165,-36.898804,-21.058655,0,0.0,0.0,0.0,0.0
0.572753906,0.98396844,-0.006679974,0.17821744,0.17722647,-0.074998945,-0.9813083,0.019921236,0.9971612,-0.072612725,0.67308855,0.06240292,0.7369245,0.7291498,-0.22260872,-0.6471368,0.12366259,0.9729087,-0.19533645,0.17945862,10.025925,-0.6197357,0.19536059,9.778811,-0.71208763,-0.0060577393,-0.06100464,0.0056152344,3.6590576,-37.25891,-21.598816,0,0.0,0.0,0.0,0.0
0.581054687,0.9839486,-0.0067439876,0.1783245,0.17733437,-0.074710816,-0.9813107,0.019940719,0.9971824,-0.07231567,0.68258274,0.05998058,0.7283427,0.72074306,-0.22008865,-0.6573359,0.12087257,0.97363406,-0.1934593,0.20219421,10.0247345,-0.55633545,0.19555166,9.779019,-0.7091745,-0.0040740967,-0.053207397,0.0037841797,3.6590576,-37.25891,-21.598816,0,0.0,0.0,0.0,0.0
0.589355469,0.9839232,-0.006825949,0.17846161,0.17746893,-0.074524164,-0.9813006,0.019998008,0.99719584,-0.072114654,0.70069253,0.055379756,0.7113108,0.7040464,-0.21511896,-0.67678833,0.11553606,0.97501636,-0.18972217,0.22970581,10.009171,-0.57188416,0.19611347,9.779151,-0.7072032,0.011352539,-0.04283142,0.0069885254,3.6590576,-37.25891,-21.598816,0,0.0,0.0,0.0,0.0
0.59765625,0.9890267,-0.0092609,0.14744611,0.14636615,-0.07420515,-0.9864433,0.020076612,0.99719995,-0.072035395,0.71768683,0.05109004,0.69448936,0.6875414,-0.21025454,-0.69503945,0.11050993,0.97631085,-0.18602341,0.22970581,10.009171,-0.61135864,0.1968843,9.779191,-0.7064259,0.0107421875,-0.027557373,0.00881958,2.9388428,-37.678528,-22.079468,0,0.0,0.0,0.0,0.0
0.605957031,0.9893794,-0.009540775,0.145043,0.1439498,-0.07417321,-0.9868014,0.020173153,0.9971998,-0.072012044,0.72621495,0.04892329,0.68572474,0.67891407,-0.20789574,-0.7041698,0.10810894,0.97692674,-0.1841917,0.23568726,10.037888,-0.6412811,0.19783105,9.779189,-0.70619696,0.0093688965,-0.022979736,0.007293701,2.8793335,-37.979126,-22.138977,0,0.0,0.0,0.0,0.0
0.614257812,0.98935807,-0.009623929,0.14518288,0.14408381,-0.07414836,-0.9867837,0.020261806,0.9972008,-0.071972616,0.74252313,0.044793144,0.6683211,0.6617724,-0.20326388,-0.72162396,0.10352173,0.97809887,-0.180571,0.23568726,10.037888,-0.6412811,0.19870044,9.7792,-0.70581025,0.0067596436,-3.8146973E-4,0.0043945313,2.8793335,-37.979126,-22.138977,0,0.0,0.0,0.0,0.0
0.622558594,0.9911564,-0.010669605,0.13226928,0.13113283,-0.07393194,-0.9886042,0.020326938,0.99720615,-0.07187898,0.75779295,0.040949624,0.6512088,0.6449099,-0.19874024,-0.7379658,0.099201985,0.9791963,-0.17701279,0.22851563,10.018753,-0.604187,0.19933918,9.779252,-0.704892,0.013336182,0.002532959,0.0013275146,2.6397705,-38.15918,-22.859192,0,0.0,0.0,0.0,0.0
0.630859375,0.9911548,-0.010676448,0.13228051,0.13114426,-0.07389658,-0.98860526,0.020329872,0.9972087,-0.071842805,0.7652258,0.039076317,0.6425749,0.63639116,-0.19653,-0.7459103,0.09713781,0.97971886,-0.17525764,0.1986084,10.021133,-0.6269226,0.19936794,9.779277,-0.7045373,0.015167236,3.8146973E-4,-0.003250122,2.6397705,-38.15918,-22.859192,0,0.0,0.0,0.0,0.0
0.639160156,0.9911506,-0.010694407,0.13231,0.13117298,-0.07386741,-0.98860365,0.02034593,0.99721074,-0.07181092,0.7793693,0.035532393,0.6255565,0.6195967,-0.19219014,-0.76102746,0.093184665,0.9807142,-0.17180285,0.21894836,10.022339,-0.62094116,0.19952542,9.779297,-0.7042246,0.011352539,0.001449585,-0.0023345947,2.6397705,-38.15918,-22.859192,0,0.0,0.0,0.0,0.0
0.647460937,0.99293214,-0.011729483,0.1181018,0.11692837,-0.07378984,-0.9903951,0.02033154,0.9972048,-0.071896814,0.7925987,0.032242414,0.6088906,0.6031461,-0.18796155,-0.7751679,0.08945474,0.981647,-0.16842498,0.20817566,9.98764,-0.7166443,0.19938429,9.779239,-0.7050669,0.012573242,0.002670288,0.0014801025,2.279663,-38.398743,-22.979736,0,0.0,0.0,0.0,0.0
0.655761719,0.99437135,-0.01259521,0.10520001,0.10399908,-0.07369619,-0.9918433,0.020245314,0.9972012,-0.07197148,0.79905957,0.030636605,0.60047084,0.5948262,-0.18589981,-0.7820633,0.087667644,0.98209095,-0.16676846,0.15074158,10.00679,-0.7118683,0.1985387,9.779203,-0.70579916,0.0107421875,-0.0031280518,0.0014801025,1.979065,-38.69934,-23.339844,0,0.0,0.0,0.0,0.0
0.6640625,0.9943826,-0.012534414,0.10510016,0.10390414,-0.07368233,-0.9918542,0.020176338,0.99720293,-0.07196605,0.8116409,0.02751788,0.58350825,0.57805145,-0.1818747,-0.7954736,0.08423564,0.9829366,-0.1635237,0.15074158,10.00679,-0.6628113,0.1978623,9.779221,-0.70574594,9.613037E-4,-0.005722046,-0.0021820068,1.979065,-38.69934,-23.339844,0,0.0,0.0,0.0,0.0
0.672363281,0.9960202,-0.013789341,0.0880542,0.08681693,-0.073387966,-0.9935174,0.020162072,0.9972081,-0.07189875,0.82338977,0.024632312,0.56694126,0.5616672,-0.17795718,-0.80799824,0.0809884,0.9837299,-0.16036329,0.20100403,10.017548,-0.6628113,0.19772239,9.779271,-0.70508593,-0.012313843,-0.020233154,-0.0056915283,1.5594482,-38.69934,-23.699951,0,0.0,0.0,0.0,0.0
0.680664062,0.9960234,-0.0137693295,0.08802174,0.08678994,-0.073191985,-0.9935343,0.020122787,0.9972228,-0.071705885,0.82915807,0.023208862,0.5585323,0.5533421,-0.17604667,-0.8141377,0.07943253,0.9841082,-0.15881294,0.19023132,10.035492,-0.62094116,0.19733714,9.779415,-0.70319456,-0.0069732666,-0.026489258,0.0054626465,1.5594482,-38.69934,-23.699951,0,0.0,0.0,0.0,0.0
0.688964844,0.99602777,-0.013741393,0.0879764,0.086750805,-0.072989285,-0.9935526,0.020074131,0.99723804,-0.07150728,0.8401071,0.020517668,0.54203236,0.5370063,-0.17229916,-0.825795,0.076448336,0.984831,-0.15576786,0.18304443,10.022339,-0.60658264,0.19685999,9.779565,-0.7012469,3.5095215E-4,-0.024658203,-0.0024871826,1.5594482,-38.69934,-23.699951,0,0.0,0.0,0.0,0.0
0.697265625,0.99620634,-0.0139046,0.08590375,0.08467528,-0.07280761,-0.9937449,0.020072075,0.99724907,-0.07135404,0.8503163,0.018023005,0.52596325,0.52109635,-0.16865246,-0.8366689,0.073625706,0.98551077,-0.15279965,0.20578003,9.997208,-0.6053772,0.19683982,9.779673,-0.6997441,0.0011138916,-0.013656616,0.0045318604,1.499939,-38.578796,-23.638916,0,0.0,0.0,0.0,0.0
0.705566406,0.9955472,-0.013385497,0.09330859,0.09209956,-0.072771706,-0.993087,0.020083189,0.9972588,-0.07121488,0.8551799,0.016836645,0.5180577,0.51326776,-0.1668683,-0.84184974,0.07227349,0.98583543,-0.15134414,0.20578003,9.997208,-0.6053772,0.19694881,9.779768,-0.6983794,0.0041656494,-0.009689331,-0.0041656494,1.739502,-38.75885,-24.119568,0,0.0,0.0,0.0,0.0
0.713867187,0.9955384,-0.0134400865,0.09339568,0.0921862,-0.072591096,-0.9930923,0.020126939,0.99727124,-0.071028225,0.8642613,0.014639892,0.5028299,0.49819335,-0.16337243,-0.8515355,0.06968215,0.98645586,-0.14848998,0.24406433,10.00798,-0.55752563,0.19737785,9.77989,-0.69654894,0.007369995,3.8146973E-4,-0.004928589,1.739502,-38.75885,-24.119568,0,0.0,0.0,0.0,0.0
0.722167969,0.9955338,-0.013467903,0.09344004,0.09223148,-0.07244236,-0.99309903,0.020143978,0.99728173,-0.07087665,0.8685685,0.013599166,0.49538252,0.49082017,-0.16166273,-0.85613126,0.06844222,0.9867524,-0.1470899,0.24406433,10.00798,-0.55752563,0.19754495,9.779993,-0.6950625,0.011810303,0.005279541,-0.006454468,1.739502,-38.75885,-24.119568,0,0.0,0.0,0.0,0.0
0.73046875,0.99628663,-0.014041695,0.0849455,0.08372048,-0.072268814,-0.9938652,0.020094462,0.9972863,-0.07082488,0.8767431,0.011629025,0.48081833,0.47639987,-0.15832046,-0.86485714,0.06606594,0.9873193,-0.14434643,0.19979858,10.019943,-0.6006012,0.19705938,9.780039,-0.6945548,0.020812988,0.015350342,-0.004470825,1.499939,-38.75885,-23.999023,0,0.0,0.0,0.0,0.0
0.738769531,0.99629414,-0.013992709,0.08486685,0.0836457,-0.07225857,-0.99387234,0.02003932,0.99728775,-0.07082034,0.88452214,0.009755073,0.46639615,0.46211278,-0.15508741,-0.87315506,0.06381448,0.9878526,-0.1416862,0.18902588,10.00798,-0.5922241,0.1965186,9.780052,-0.6945103,0.028457642,0.031692505,-0.0055389404,1.499939,-38.75885,-23.999023,0,0.0,0.0,0.0,0.0
0.747070312,0.99737674,-0.0149026625,0.07083305,0.069581226,-0.07226905,-0.994955,0.019946521,0.99727386,-0.07104254,0.88821137,0.008872919,0.4593493,0.45513204,-0.15351051,-0.8770914,0.062732585,0.9881072,-0.14038813,0.15074158,10.015152,-0.72262573,0.19560856,9.779916,-0.6966893,0.026306152,0.037338257,-0.0038604736,1.1398315,-38.63983,-24.179077,0,0.0,0.0,0.0,0.0
0.755371094,0.9973835,-0.0148250675,0.07075602,0.06950582,-0.07247358,-0.99494547,0.019878076,0.99726015,-0.07125352,0.8954577,0.0071358862,0.4450894,0.44099584,-0.15044576,-0.88481003,0.060647912,0.9885925,-0.13786472,0.1483612,10.003189,-0.702301,0.19493733,9.779781,-0.69875836,0.024780273,0.009399414,0.0017852783,1.1398315,-38.99994,-24.238586,0,0.0,0.0,0.0,0.0
0.763671875,0.9973863,-0.0148027325,0.07072022,0.06946813,-0.07265238,-0.994935,0.01986575,0.9972474,-0.07143418,0.90220433,0.0055377483,0.43127328,0.42729998,-0.14749028,-0.8919985,0.05866895,0.989048,-0.13543265,0.16870117,10.011566,-0.707077,0.19481646,9.779656,-0.70053,0.013336182,7.6293945E-5,0.006378174,1.1398315,-38.99994,-24.238586,0,0.0,0.0,0.0,0.0
0.771972656,0.9973854,-0.014809679,0.07073136,0.0694769,-0.07274512,-0.9949276,0.019879922,0.9972406,-0.071526,0.90540093,0.0047861855,0.42453063,0.42061588,-0.14605339,-0.89540535,0.057718556,0.98926514,-0.13425002,0.16870117,10.011566,-0.707077,0.19495544,9.77959,-0.70143044,0.0035552979,-0.007247925,0.011566162,1.1398315,-38.99994,-24.238586,0,0.0,0.0,0.0,0.0
0.780273437,0.996979,-0.014439876,0.076317534,0.075073324,-0.07286671,-0.9945121,0.019921638,0.9972371,-0.07156253,0.91146034,0.0033683446,0.41137418,0.40757316,-0.14325728,-0.90186554,0.055894554,0.98967975,-0.13194618,0.20219421,10.016357,-0.70947266,0.19536453,9.779555,-0.7017887,0.006454468,-0.013046265,0.0068359375,1.3198853,-38.879395,-24.598694,0,0.0,0.0,0.0,0.0
0.788574219,0.9969585,-0.014591583,0.076556206,0.075300924,-0.07284842,-0.99449635,0.020088274,0.9972363,-0.071528085,0.91701317,0.0020846513,0.39885136,0.3951612,-0.14055935,-0.90779436,0.054169852,0.99007004,-0.12971854,0.275177,10.00798,-0.66400146,0.19699867,9.779548,-0.7014509,-0.0027008057,-0.025115967,0.0045318604,1.3198853,-38.879395,-24.598694,0,0.0,0.0,0.0,0.0
0.796875,0.9970475,-0.01475946,0.07535583,0.07409437,-0.07270587,-0.9945974,0.02015853,0.9972442,-0.07139761,0.9196431,0.0014732478,0.39275247,0.38911524,-0.13924664,-0.910604,0.053347915,0.9902566,-0.12863047,0.23568726,10.0247345,-0.6161499,0.19768764,9.779625,-0.7001714,-0.0027008057,-0.03488159,0.0037841797,1.3198853,-38.578796,-25.019836,0,0.0,0.0,0.0,0.0
0.805175781,0.9954733,-0.0134634925,0.09408305,0.09286684,-0.072758004,-0.99301666,0.020214768,0.9972588,-0.07117834,0.9246488,3.0479147E-4,0.38082072,0.37728494,-0.13668726,-0.9159544,0.05177417,0.9906142,-0.12650271,0.24047852,10.021133,-0.5742798,0.19823916,9.779768,-0.6980211,-0.003768921,-0.035812378,-0.0011138916,1.7990112,-38.879395,-24.598694,0,0.0,0.0,0.0,0.0
0.813476562,0.9954679,-0.013497006,0.09413562,0.09292197,-0.07250744,-0.99302983,0.020228462,0.99727654,-0.07092466,0.92903805,-6.8505324E-4,0.36998343,0.3665507,-0.13421203,-0.9206669,0.05028694,0.9909524,-0.12443699,0.24047852,10.021133,-0.5742798,0.19837345,9.7799425,-0.69553334,-1.0681152E-4,-0.024963379,-0.009048462,1.7990112,-38.879395,-24.598694,0,0.0,0.0,0.0,0.0
0.821777344,0.9954727,-0.0134671,0.0940887,0.092883036,-0.07222345,-0.9930541,0.020168971,0.9972975,-0.07064561,0.93112135,-0.0011548854,0.36470786,0.36132482,-0.13300386,-0.92290545,0.0495734,0.99111485,-0.12342543,0.21176147,10.022339,-0.5084686,0.19779003,9.780148,-0.6927967,0.0017242432,-0.025268555,-0.013931274,1.7990112,-38.879395,-24.598694,0,0.0,0.0,0.0,0.0
0.830078125,0.99567944,-0.013472621,0.091874674,0.09067725,-0.07206181,-0.9932697,0.020002602,0.99730915,-0.0705288,0.93507934,-0.0020433464,0.35443267,0.35114613,-0.13064264,-0.92716175,0.048198532,0.9914274,-0.12144371,0.16151428,10.011566,-0.5898285,0.19615851,9.780262,-0.6916513,0.016693115,-0.009841919,-0.009963989,1.7990112,-39.29901,-25.2594,0,0.0,0.0,0.0,0.0
0.838378906,0.9956982,-0.013352405,0.09168898,0.09050164,-0.07200373,-0.99329,0.019864757,0.997315,-0.07048557,0.938805,-0.0028680302,0.34443724,0.34124357,-0.12836248,-0.9311691,0.046883438,0.9917232,-0.11952864,0.16151428,10.011566,-0.5898285,0.19480672,9.780319,-0.6912273,0.021270752,-0.008468628,-0.0038604736,1.7990112,-39.29901,-25.2594,0,0.0,0.0,0.0,0.0
0.846679687,0.99655855,-0.0140005015,0.08170116,0.080493525,-0.07193778,-0.99415576,0.019796079,0.9973108,-0.07056325,0.9405753,-0.0032532997,0.33956966,0.33642143,-0.12725292,-0.9330742,0.0462468,0.991865,-0.11859647,0.16151428,10.011566,-0.5898285,0.19413324,9.780279,-0.6919892,0.02279663,0.0031433105,-0.006149292,1.499939,-39.239502,-25.019836,0,0.0,0.0,0.0,0.0
0.854980469,0.9962143,-0.0137208635,0.085842006,0.084642455,-0.072021864,-0.99380505,0.019818366,0.9973087,-0.07058784,0.944069,-0.0040245024,0.32972357,0.32666075,-0.12509704,-0.9368263,0.045017697,0.99213636,-0.11678558,0.2416687,10.015152,-0.6029968,0.19435178,9.780257,-0.6922303,0.01928711,0.0020599365,-0.0038604736,1.6189575,-39.35852,-25.079346,0,0.0,0.0,0.0,0.0
0.86328125,0.996211,-0.013742753,0.08587615,0.08467458,-0.072041504,-0.9938008,0.01984421,0.99730694,-0.07060488,0.9456999,-0.0043785386,0.32501173,0.32199067,-0.12405038,-0.9385806,0.044427436,0.99226624,-0.11590458,0.2416687,10.015152,-0.6029968,0.19460523,9.780241,-0.6923975,0.021118164,0.0032958984,-0.004776001,1.6189575,-39.35852,-25.079346,0,0.0,0.0,0.0,0.0
0.871582031,0.9962342,-0.013586088,0.08563179,0.0844381,-0.072232455,-0.9938071,0.019687345,0.99729526,-0.07081326,0.9487974,-0.005048225,0.31584486,0.31290433,-0.12201766,-0.9419143,0.043293647,0.9925151,-0.11419044,0.107681274,10.005585,-0.727417,0.19306691,9.780126,-0.6944409,0.027069092,0.0060424805,-0.0012664795,1.6189575,-39.35852,-25.079346,0,0.0,0.0,0.0,0.0
0.879882812,0.9951449,-0.012586855,0.09761216,0.09645289,-0.07259168,-0.99268687,0.019580638,0.9972823,-0.07102521,0.9516922,-0.005656282,0.3070015,0.30413902,-0.1200685,-0.94503075,0.04220657,0.9927495,-0.11254796,0.117248535,10.012772,-0.72502136,0.19202048,9.779999,-0.6965194,0.01928711,0.0049743652,0.008514404,1.979065,-39.419556,-25.2594,0,0.0,0.0,0.0,0.0
0.888183594,0.9951558,-0.012521029,0.097510286,0.09635247,-0.07276934,-0.9926837,0.019525178,0.99727017,-0.071210384,0.95299464,-0.005909496,0.3029295,0.3001066,-0.1191267,-0.94643795,0.041679963,0.99286145,-0.11175363,0.117248535,10.012772,-0.72502136,0.1914766,9.779881,-0.6983354,0.017913818,0.0020599365,0.00881958,1.979065,-39.419556,-25.2594,0,0.0,0.0,0.0,0.0
0.896484375,0.9941926,-0.011908656,0.106954396,0.105811805,-0.07301739,-0.9917017,0.019619366,0.99725956,-0.071333274,0.9554738,-0.006381922,0.29500696,0.29226077,-0.117304854,-0.94911706,0.04066294,0.99307543,-0.11021653,0.21655273,10.023529,-0.7130585,0.19240026,9.779776,-0.6995405,0.012573242,2.2888184E-4,0.0045318604,2.218628,-38.938904,-24.958801,0,0.0,0.0,0.0,0.0
0.904785156,0.9937269,-0.011645577,0.111225806,0.11009013,-0.07307552,-0.99123156,0.019671345,0.99725837,-0.07133505,0.95768577,-0.006779717,0.28773615,0.28506452,-0.11556123,-0.95151657,0.039702155,0.9932772,-0.108738676,0.21057129,10.012772,-0.66400146,0.19291,9.779764,-0.69955784,0.00340271,0.001449585,0.0019378662,2.3391724,-39.35852,-25.019836,0,0.0,0.0,0.0,0.0
0.913085937,0.9937216,-0.011674351,0.11127056,0.11013346,-0.07303843,-0.9912296,0.019698989,0.9972608,-0.07129413,0.9587145,-0.0069590644,0.284285,0.28164965,-0.11471588,-0.9526351,0.03924146,0.993374,-0.10801976,0.21057129,10.012772,-0.66400146,0.1931811,9.779788,-0.6991566,6.5612793E-4,0.0011444092,7.171631E-4,2.3391724,-39.35852,-25.019836,0,0.0,0.0,0.0,0.0
0.921386719,0.9937169,-0.011699683,0.11130997,0.110173434,-0.07291341,-0.99123436,0.019713117,0.9972697,-0.07116629,0.9606752,-0.0072994875,0.2775786,0.27501273,-0.11307246,-0.9547684,0.038355812,0.99355996,-0.10661846,0.18304443,10.022339,-0.57188416,0.19331965,9.779875,-0.6979029,-0.004837036,0.0029754639,-0.0041656494,2.3391724,-39.35852,-25.019836,0,0.0,0.0,0.0,0.0
0.9296875,0.99401903,-0.011926279,0.10855377,0.107413225,-0.07264826,-0.99155664,0.019711824,0.9972863,-0.07093271,0.9625139,-0.007616866,0.27112532,0.2686254,-0.11148793,-0.9567711,0.037514795,0.9937366,-0.1052626,0.20100403,10.023529,-0.5790558,0.19330697,9.780038,-0.69561225,0.0021820068,-0.0034332275,0.003616333,2.218628,-39.538574,-24.659729,0,0.0,0.0,0.0,0.0
0.937988281,0.99401367,-0.011955469,0.10860008,0.107461125,-0.072457105,-0.99156547,0.019723477,0.99729985,-0.0707386,0.96340495,-0.007774224,0.26793745,0.26546893,-0.1107138,-0.9577415,0.03711007,0.9938219,-0.10459842,0.20100403,10.023529,-0.5790558,0.19342126,9.780171,-0.6937088,0.006454468,7.6293945E-5,8.69751E-4,2.218628,-39.538574,-24.659729,0,0.0,0.0,0.0,0.0
0.946289062,0.9954009,-0.01296519,0.094915494,0.093746,-0.07208655,-0.992983,0.019716345,0.9973141,-0.070539586,0.9651035,-0.0080743,0.26174408,0.25933602,-0.10920386,-0.9595933,0.03633151,0.9939866,-0.103299074,0.17347717,10.018753,-0.5252228,0.1933513,9.780311,-0.691757,0.016540527,-0.0016021729,0.004852295,1.9195557,-39.29901,-25.498962,0,0.0,0.0,0.0,0.0
0.954589844,0.99565256,-0.013184187,0.092206314,0.091031544,-0.07190467,-0.9932486,0.019725243,0.99732435,-0.0703919,0.9668358,-0.008413052,0.25526023,0.2529068,-0.10774071,-0.96147287,0.035590835,0.9941434,-0.10203985,0.16151428,9.994827,-0.57307434,0.19343856,9.780411,-0.69030875,0.015319824,-3.8146973E-4,0.00881958,1.7990112,-39.538574,-25.079346,0,0.0,0.0,0.0,0.0
0.962890625,0.995651,-0.013194726,0.09222282,0.091048196,-0.07185786,-0.9932506,0.019732604,0.9973276,-0.07034399,0.967674,-0.00858008,0.25205827,0.24973087,-0.10702713,-0.9623823,0.035234388,0.99421906,-0.10142466,0.16151428,9.994827,-0.57307434,0.19351073,9.780442,-0.6898389,0.019592285,-0.0016021729,0.006378174,1.7990112,-39.538574,-25.079346,0,0.0,0.0,0.0,0.0
0.971191406,0.9956285,-0.013336239,0.0924443,0.091257215,-0.071956456,-0.9932242,0.01989784,0.9973186,-0.07042488,0.9692704,-0.008896824,0.24583687,0.24355978,-0.105640315,-0.96411556,0.03454785,0.9943646,-0.100227125,0.275177,10.012772,-0.6508484,0.19513118,9.780355,-0.69063216,0.016693115,6.866455E-4,0.0051574707,1.7990112,-39.538574,-25.079346,0,0.0,0.0,0.0,0.0
0.979492187,0.9959674,-0.013711379,0.08866121,0.08745573,-0.072010964,-0.99356216,0.02000769,0.99730957,-0.070521444,0.970764,-0.009197867,0.23985995,0.23762994,-0.10431124,-0.9657387,0.03390282,0.9945022,-0.0990759,0.25004578,10.039093,-0.6652069,0.19620842,9.780266,-0.6915791,0.014862061,0.0048217773,-0.002029419,1.6799927,-39.35852,-24.958801,0,0.0,0.0,0.0,0.0
0.987792969,0.9959593,-0.013764815,0.08874493,0.087533884,-0.072089896,-0.99354964,0.020073641,0.9973031,-0.070593715,0.97149307,-0.009350541,0.23688363,0.23467568,-0.10366773,-0.9665301,0.033594765,0.99456805,-0.098518126,0.25004578,10.039093,-0.6652069,0.19685517,9.780203,-0.69228786,0.01776123,0.0046691895,-0.00843811,1.6799927,-39.35852,-24.958801,0,0.0,0.0,0.0,0.0
0.99609375,0.9965784,-0.014248771,0.08141473,0.080189995,-0.07195177,-0.9941793,0.020023767,0.99730635,-0.07056297,0.97288114,-0.0096419435,0.231105,0.22893935,-0.10242182,-0.96803755,0.033003952,0.99469435,-0.09743682,0.19502258,10.012772,-0.6053772,0.19636607,9.780234,-0.6919864,0.010894775,0.0011444092,-0.0012664795,1.499939,-39.419556,-25.2594,0,0.0,0.0,0.0,0.0
1.004394531,0.996687,-0.014286147,0.08006787,0.07884498,-0.07188972,-0.99429137,0.019960651,0.99731034,-0.07052516,0.9742471,-0.009939954,0.2252638,0.22313753,-0.10121995,-0.9695175,0.03243815,0.9948144,-0.09639527,0.16151428,10.025925,-0.6460571,0.19574712,9.780273,-0.6916156,0.007522583,0.004058838,-0.00920105,1.4389038,-39.839172,-25.019836,0,0.0,0.0,0.0,0.0
1.012695312,0.9967001,-0.014193102,0.07992047,0.07870446,-0.07189126,-0.99430233,0.019857818,0.9973115,-0.07053698,0.9749031,-0.010082326,0.22240102,0.22029382,-0.10063569,-0.97022843,0.03216364,0.9948723,-0.09588897,0.16151428,10.025925,-0.6460571,0.19473869,9.780285,-0.6917315,0.012878418,0.0057373047,0.003921509,1.4389038,-39.839172,-25.019836,0,0.0,0.0,0.0,0.0
1.020996094,0.99670017,-0.014193302,0.07992078,0.078704506,-0.07190415,-0.99430144,0.019859057,0.9973105,-0.0705498,0.9761536,-0.010347133,0.21683404,0.2147643,-0.099501215,-0.9715841,0.03162836,0.9949836,-0.09490628,0.19979858,10.000809,-0.63768005,0.19475083,9.780275,-0.6918572,0.017303467,0.0061950684,0.0057678223,1.4389038,-39.839172,-25.019836,0,0.0,0.0,0.0,0.0
1.029296875,0.99797857,-0.015556694,0.06161762,0.06035363,-0.07166869,-0.9956008,0.019904314,0.9973072,-0.07058492,0.9767489,-0.010472559,0.21413094,0.21207935,-0.09895112,-0.97222996,0.03137023,0.9950372,-0.09442938,0.19979858,10.000809,-0.63768005,0.19519465,9.780243,-0.6922017,0.014251709,0.0019226074,0.0057678223,0.95977783,-40.13977,-25.679016,0,0.0,0.0,0.0,0.0
1.037597656,0.9979824,-0.015523492,0.06156586,0.060304757,-0.07164743,-0.99560535,0.019866304,0.99730915,-0.070566714,0.9780328,-0.010783471,0.20817173,0.20615174,-0.097876176,-0.97361267,0.030873977,0.9951402,-0.09350308,0.13639832,10.025925,-0.60658264,0.1948219,9.780262,-0.6920231,0.015930176,-7.6293945E-5,0.003616333,0.95977783,-40.13977,-25.679016,0,0.0,0.0,0.0,0.0
1.045898437,0.99790895,-0.01552635,0.062742725,0.06147868,-0.0716443,-0.99553376,0.019952165,0.99730945,-0.070539944,0.97923243,-0.0110720275,0.20243856,0.20044917,-0.096842304,-0.974906,0.030398803,0.9952381,-0.09261174,0.21057129,10.003189,-0.60658264,0.1956639,9.780265,-0.69176054,0.015014648,0.0048217773,0.009429932,0.95977783,-39.419556,-25.019836,0,0.0,0.0,0.0,0.0
1.054199219,0.99789804,-0.015621643,0.062892444,0.061621785,-0.07162111,-0.99552655,0.020056188,0.99730957,-0.070507936,0.9797975,-0.011209088,0.19967787,0.19770324,-0.09634065,-0.97551626,0.030171745,0.99528533,-0.09217825,0.21057129,10.003189,-0.60658264,0.19668402,9.780266,-0.69144666,0.011962891,0.0046691895,0.01171875,0.95977783,-39.419556,-25.019836,0,0.0,0.0,0.0,0.0
1.0625,0.99851876,-0.016498039,0.05184784,0.05054636,-0.07138129,-0.9961676,0.020135775,0.99731266,-0.07044163,0.98087054,-0.011474413,0.19432257,0.19237609,-0.09536535,-0.97667646,0.02973843,0.9953762,-0.091333665,0.20698547,10.012772,-0.5850525,0.1974645,9.780296,-0.69079643,0.013336182,0.0016174316,0.0056152344,0.6591797,-39.29901,-25.19989,0,0.0,0.0,0.0,0.0
1.070800781,0.99850863,-0.016600898,0.052007984,0.050697386,-0.07145451,-0.9961545,0.020253267,0.99730563,-0.07050633,0.98195595,-0.011768378,0.18874326,0.18682162,-0.09442101,-0.9778457,0.02932899,0.9954628,-0.09051868,0.2536316,10.016357,-0.65802,0.1986167,9.780228,-0.69143087,0.022338867,0.0020599365,0.0051574707,0.6591797,-39.29901,-25.19989,0,0.0,0.0,0.0,0.0
1.079101562,0.99878275,-0.017114328,0.04625975,0.044926275,-0.07146367,-0.9964308,0.020359138,0.99729633,-0.07060781,0.9824704,-0.011910563,0.1860379,0.1841281,-0.09396455,-0.9784005,0.02913427,0.9955043,-0.09012432,0.2536316,10.016357,-0.65802,0.19965495,9.780136,-0.6924261,0.019592285,6.866455E-4,0.0027008057,0.47912598,-39.179993,-24.839783,0,0.0,0.0,0.0,0.0
1.087402344,0.99878144,-0.017129634,0.046283856,0.044947673,-0.071540415,-0.9964244,0.02037955,0.99729055,-0.0706833,0.9834882,-0.012206634,0.18056042,0.17867222,-0.09307894,-0.97949606,0.02876272,0.9955839,-0.08936105,0.20458984,10.000809,-0.65802,0.19985513,9.78008,-0.69316643,0.013031006,0.006500244,-0.004470825,0.47912598,-39.179993,-24.839783,0,0.0,0.0,0.0,0.0
1.095703125,0.9979305,-0.016003842,0.062276952,0.06097748,-0.07178341,-0.9955545,0.020403152,0.99729186,-0.07065899,0.98443675,-0.012484319,0.17529523,0.17342785,-0.09223107,-0.9805182,0.028408771,0.99565935,-0.088630535,0.19262695,9.997208,-0.63290405,0.20008658,9.780092,-0.692928,0.012268066,0.0023651123,-0.008743286,0.8987427,-38.279724,-24.238586,0,0.0,0.0,0.0,0.0
1.104003906,0.9979316,-0.015994966,0.06226298,0.06096484,-0.07175049,-0.9955577,0.020391311,0.99729437,-0.07062695,0.98483187,-0.01258777,0.17305432,0.17119826,-0.09182324,-0.9809484,0.028238362,0.99569577,-0.08827545,0.24765015,10.02713,-0.6077728,0.19997045,9.780117,-0.6926138,0.012420654,-0.0023651123,-0.0067596436,0.8987427,-38.279724,-24.238586,0,0.0,0.0,0.0,0.0
1.112304687,0.99798864,-0.016024817,0.061334055,0.060035005,-0.07179993,-0.99561054,0.020358257,0.99729025,-0.070693456,0.9855841,-0.012784376,0.16870263,0.16686864,-0.09103007,-0.981768,0.027908303,0.9957661,-0.08758448,0.22253418,10.009171,-0.6687927,0.19964631,9.780077,-0.693266,0.018981934,-0.005569458,-0.0067596436,0.8987427,-38.63983,-24.719238,0,0.0,0.0,0.0,0.0
1.120605469,0.99799687,-0.015951356,0.06121953,0.059923757,-0.071907796,-0.9956095,0.020283483,0.9972837,-0.07080789,0.9862946,-0.012969602,0.16448319,0.16267039,-0.090269975,-0.9825424,0.027591076,0.99583286,-0.08692302,0.18544006,10.000809,-0.6855469,0.19891304,9.780013,-0.6943883,0.018066406,-0.0051116943,0.0017852783,0.8987427,-38.63983,-24.719238,0,0.0,0.0,0.0,0.0
1.12890625,0.9970434,-0.014876581,0.07538716,0.07412717,-0.072218046,-0.99463046,0.020241013,0.9972779,-0.07090176,0.9866332,-0.013055712,0.16243312,0.16063076,-0.08990358,-0.9829115,0.027435929,0.9958649,-0.0866047,0.18544006,10.000809,-0.6855469,0.19849654,9.779956,-0.69530874,0.0038604736,-0.0035858154,0.002243042,1.2588501,-38.459778,-24.238586,0,0.0,0.0,0.0,0.0
1.137207031,0.9970508,-0.014821497,0.075300135,0.07404388,-0.072237395,-0.9946353,0.020181468,0.9972773,-0.070926905,0.9871895,-0.013166515,0.15900801,0.15722811,-0.08920224,-0.98352545,0.027133472,0.9959265,-0.08598936,0.15074158,10.00679,-0.6999054,0.19791259,9.77995,-0.6955553,-0.0046844482,-0.0077056885,0.0011749268,1.2588501,-38.459778,-24.238586,0,0.0,0.0,0.0,0.0
1.145507812,0.9978861,-0.015703067,0.06306254,0.061779357,-0.07193689,-0.9954941,0.020168832,0.99728554,-0.07081469,0.9877132,-0.013267335,0.15571277,0.15395458,-0.088530056,-0.9841038,0.026841696,0.99598515,-0.08539974,0.17228699,10.00798,-0.6687927,0.19778867,9.78003,-0.6944549,-0.010498047,-0.016723633,0.007293701,0.95977783,-38.279724,-24.719238,0,0.0,0.0,0.0,0.0
1.153808594,0.9978866,-0.015698725,0.063055836,0.061775655,-0.07180384,-0.9955039,0.02015579,0.99729514,-0.07068227,0.98800087,-0.013336981,0.15387169,0.15212317,-0.088198386,-0.9844184,0.026700402,0.99601364,-0.085111216,0.17228699,10.00798,-0.6687927,0.19766077,9.780125,-0.6931563,-0.0059051514,-0.020385742,0.0068359375,0.95977783,-38.279724,-24.719238,0,0.0,0.0,0.0,0.0
1.162109375,0.99701774,-0.014874959,0.07572478,0.07447402,-0.07172883,-0.9946399,0.020226879,0.99731326,-0.07040713,0.9885492,-0.0134700425,0.1502968,0.1485672,-0.08754931,-0.98501927,0.026426634,0.99606913,-0.08454559,0.22492981,10.0295105,-0.54914856,0.19835792,9.780302,-0.6904581,-1.0681152E-4,-0.018554688,0.009429932,1.2588501,-38.09967,-24.058533,0,0.0,0.0,0.0,0.0
1.170410156,0.9970086,-0.014942764,0.07583168,0.07457962,-0.071545996,-0.9946451,0.020288201,0.99732536,-0.07021756,0.9889902,-0.013556206,0.14735883,0.14564891,-0.08692218,-0.98551047,0.026168535,0.99612284,-0.08399074,0.21894836,10.025925,-0.5778656,0.19895929,9.780421,-0.68859905,0.0024871826,-0.017333984,-0.004623413,1.2588501,-38.09967,-24.058533,0,0.0,0.0,0.0,0.0
1.178710937,0.9968185,-0.0148003,0.07831871,0.077073194,-0.071426265,-0.9944637,0.020312374,0.9973361,-0.070058316,0.9892007,-0.013599102,0.14593513,0.14423463,-0.08661474,-0.98574555,0.026045388,0.99614906,-0.0837179,0.21894836,10.025925,-0.5778656,0.19919635,9.780526,-0.6870374,0.001876831,-0.016860962,-0.0037078857,1.3198853,-38.09967,-23.999023,0,0.0,0.0,0.0,0.0
1.187011719,0.99681646,-0.014814472,0.0783411,0.077097386,-0.07128609,-0.99447185,0.020317206,0.9973459,-0.069917,0.9895892,-0.013674199,0.14326969,0.14158788,-0.08601269,-0.98618186,0.02580826,0.9962002,-0.08318113,0.22612,10.015152,-0.5862427,0.19924374,9.7806225,-0.6856516,0.0027923584,-0.0023651123,-0.0027923584,1.3198853,-38.09967,-23.999023,0,0.0,0.0,0.0,0.0
1.1953125,0.99498755,-0.013292583,0.09911153,0.09792101,-0.071486376,-0.99262345,0.020279652,0.997353,-0.069826424,0.9899555,-0.013745273,0.1407094,0.13904552,-0.08542872,-0.9865943,0.025581634,0.9962495,-0.082659416,0.18544006,10.036697,-0.62571716,0.19887546,9.780692,-0.6847633,-2.593994E-4,0.0013122559,4.119873E-4,1.8585205,-38.038635,-23.75946,0,0.0,0.0,0.0,0.0
1.203613281,0.9949895,-0.013280938,0.09909304,0.09790532,-0.071390346,-0.9926318,0.02025737,0.99736,-0.069732375,0.990073,-0.0137427505,0.13988008,0.13822635,-0.08514908,-0.9867335,0.025471093,0.99627346,-0.0824042,0.18544006,10.036697,-0.62571716,0.19865695,9.780761,-0.68384105,0.0043182373,-3.8146973E-4,0.0054626465,1.8585205,-38.038635,-23.75946,0,0.0,0.0,0.0,0.0
1.211914062,0.9942994,-0.012828611,0.10584988,0.10467723,-0.07141211,-0.99193907,0.020284163,0.9973644,-0.069662146,0.9902994,-0.013736906,0.13826935,0.1366354,-0.084603325,-0.9870021,0.0252564,0.99632,-0.08190567,0.21774292,10.012772,-0.6305084,0.19891968,9.780804,-0.6831523,0.007980347,0.003753662,-0.007827759,2.0385742,-38.038635,-23.75946,0,0.0,0.0,0.0,0.0
1.220214844,0.99430305,-0.012808399,0.10581782,0.104649834,-0.0712554,-0.9919532,0.020245427,0.99737585,-0.06950907,0.9904778,-0.013709345,0.1369882,0.13537392,-0.08408025,-0.9872205,0.025052147,0.99636465,-0.08142374,0.24526978,10.022339,-0.5970154,0.19853982,9.780916,-0.6816511,0.0040130615,-0.0020599365,-0.007522583,2.0385742,-38.038635,-23.75946,0,0.0,0.0,0.0,0.0
1.228515625,0.9956111,-0.013705915,0.092577845,0.09138534,-0.07092408,-0.9932866,0.020179901,0.9973875,-0.069360286,0.9905638,-0.01369543,0.13636622,0.13476156,-0.08382365,-0.9873261,0.02495257,0.99638647,-0.08118706,0.1986084,10.016357,-0.55633545,0.19789723,9.781031,-0.68019205,0.009979248,0.002532959,-0.0052337646,1.739502,-38.578796,-24.41864,0,0.0,0.0,0.0,0.0
1.236816406,0.9956185,-0.013659868,0.092505634,0.091319345,-0.07078251,-0.9933029,0.020116167,0.9973982,-0.06922496,0.9908001,-0.013709983,0.13463716,0.13304973,-0.083312474,-0.98760146,0.024756957,0.99642915,-0.0807219,0.20219421,10.012772,-0.5467529,0.19727221,9.781136,-0.678865,0.016082764,0.004211426,-0.010574341,1.739502,-38.578796,-24.41864,0,0.0,0.0,0.0,0.0
1.245117187,0.99439746,-0.012710943,0.10493915,0.10378762,-0.07087785,-0.99207085,0.020048017,0.99740404,-0.06916151,0.9910246,-0.01372103,0.13297358,0.13140285,-0.08281583,-0.9878638,0.024566827,0.9964704,-0.080269545,0.20219421,10.018753,-0.5659027,0.19660388,9.781193,-0.67824274,0.022949219,0.005584717,-0.0035552979,2.0385742,-38.15918,-23.939514,0,0.0,0.0,0.0,0.0
1.253417969,0.994405,-0.012668275,0.10487177,0.10372385,-0.07085323,-0.9920791,0.019998442,0.9974063,-0.06914282,0.9910246,-0.01372103,0.13297358,0.13140285,-0.08281583,-0.9878638,0.024566827,0.9964704,-0.080269545,0.20219421,10.018753,-0.5659027,0.19611773,9.781215,-0.67805946,0.022949219,0.005584717,-0.0035552979,2.0385742,-38.15918,-23.939514,0,0.0,0.0,0.0,0.0
1.26171875,0.9960556,-0.013782318,0.08765468,0.08647239,-0.070722684,-0.9937408,0.019895224,0.99740076,-0.06925193,0.9912452,-0.013667517,0.13132413,0.12978013,-0.08211148,-0.988137,0.024288597,0.9965294,-0.079618834,0.15194702,10.023529,-0.63290405,0.19510551,9.78116,-0.6791295,0.028152466,-0.004043579,0.0013275146,1.6189575,-37.919617,-24.35913,0,0.0,0.0,0.0,0.0
1.270019531,0.99606335,-0.013730339,0.08757429,0.0863913,-0.07094818,-0.9937318,0.01985751,0.9973855,-0.0694827,0.991472,-0.0136839,0.1295996,0.12807067,-0.08166009,-0.9883975,0.024108246,0.9965663,-0.07921118,0.17468262,10.00679,-0.7118683,0.19473566,9.781011,-0.68139255,0.019897461,-0.005569458,0.008972168,1.6189575,-37.919617,-24.35913,0,0.0,0.0,0.0,0.0
1.278320312,0.9946946,-0.012683121,0.10208752,0.100935146,-0.07135244,-0.9923311,0.019870047,0.99737054,-0.06969371,0.991581,-0.013690025,0.12876153,0.12723988,-0.08144548,-0.9885224,0.02401994,0.99658376,-0.07901788,0.17468262,10.00679,-0.7118683,0.1948586,9.780864,-0.6834618,0.022644043,-0.008010864,0.0068359375,1.9195557,-37.799072,-23.399353,0,0.0,0.0,0.0,0.0
1.286621094,0.9946793,-0.01276918,0.10222529,0.101064585,-0.071452975,-0.9923106,0.019975295,0.99736226,-0.06978229,0.991718,-0.013653763,0.12770718,0.12620126,-0.08104558,-0.98868847,0.02384942,0.9966169,-0.078651235,0.23449707,10.013962,-0.6472626,0.19589074,9.780783,-0.68433046,0.007217407,-0.017166138,0.010345459,1.9195557,-37.799072,-23.399353,0,0.0,0.0,0.0,0.0
1.294921875,0.994824,-0.012979298,0.1007807,0.099609196,-0.07143119,-0.99245936,0.020080313,0.99736106,-0.06976861,0.9918477,-0.013622358,0.12669913,0.12520781,-0.08066533,-0.9888459,0.02369064,0.99664813,-0.07830209,0.23210144,10.023529,-0.61016846,0.1969206,9.780771,-0.68419635,0.009811401,-0.016418457,0.0066833496,1.8585205,-37.379456,-23.15979,0,0.0,0.0,0.0,0.0
1.303222656,0.9948076,-0.013073185,0.100930914,0.09975335,-0.07138913,-0.992448,0.020179825,0.99736285,-0.06971435,0.9919138,-0.013611765,0.12618147,0.124696895,-0.08048059,-0.98892546,0.02361618,0.9966632,-0.07813246,0.23210144,10.023529,-0.61016846,0.19789648,9.780788,-0.68366426,3.5095215E-4,-0.014724731,0.0011749268,1.8585205,-37.379456,-23.15979,0,0.0,0.0,0.0,0.0
1.311523437,0.9962221,-0.01424778,0.08566515,0.084448025,-0.071078435,-0.99388945,0.020249665,0.99736893,-0.069606714,0.99197793,-0.013603435,0.12567714,0.12419905,-0.080298714,-0.9890028,0.023545548,0.996678,-0.07796502,0.23330688,10.018753,-0.59461975,0.19858138,9.7808485,-0.68260866,0.0011138916,-0.0049591064,0.0028686523,1.499939,-37.61902,-23.699951,0,0.0,0.0,0.0,0.0
1.319824219,0.99621487,-0.014296527,0.085742064,0.08452292,-0.07100164,-0.9938887,0.020296982,0.9973737,-0.0695245,0.99217635,-0.013639306,0.124096945,0.122629404,-0.079933465,-0.9892283,0.023411887,0.9967069,-0.07763551,0.23449707,10.019943,-0.62213135,0.19904539,9.780895,-0.68180245,0.0056915283,0.0023651123,-9.613037E-4,1.499939,-37.61902,-23.699951,0,0.0,0.0,0.0,0.0
1.328125,0.9965561,-0.014598598,0.08162621,0.08039927,-0.07082417,-0.9942434,0.020295668,0.997382,-0.06940654,0.9923642,-0.013675154,0.12258178,0.12112425,-0.07957919,-0.9894423,0.023285735,0.99673474,-0.077315144,0.20936584,10.018753,-0.5790558,0.19903253,9.780976,-0.68064564,0.0107421875,0.0023651123,-8.087158E-4,1.3793945,-37.678528,-23.579407,0,0.0,0.0,0.0,0.0
1.336425781,0.9965668,-0.014524179,0.081507914,0.08028618,-0.07083591,-0.9942516,0.020214377,0.9973822,-0.06942664,0.9923642,-0.013675154,0.12258178,0.12112425,-0.07957919,-0.9894423,0.023285735,0.99673474,-0.077315144,0.20936584,10.018753,-0.5790558,0.19823535,9.780979,-0.6808428,0.0107421875,0.0023651123,-8.087158E-4,1.3793945,-37.678528,-23.579407,0,0.0,0.0,0.0,0.0
1.344726562,0.99656945,-0.014506099,0.08147919,0.080257006,-0.070923544,-0.99424773,0.020201452,0.99737626,-0.069516025,0.9926579,-0.013740193,0.12017253,0.118728966,-0.07906451,-0.98977375,0.023101065,0.9967748,-0.07685266,0.18544006,10.010376,-0.6963043,0.19810857,9.78092,-0.68171936,0.007980347,-0.004196167,0.0040893555,1.3793945,-37.678528,-23.579407,0,0.0,0.0,0.0,0.0
1.353027344,0.9968132,-0.014714314,0.078402705,0.077172674,-0.070949815,-0.99449015,0.020195898,0.9973714,-0.06958817,0.99284124,-0.013779513,0.11864373,0.11720903,-0.07874199,-0.98998064,0.022983693,0.99679977,-0.07656321,0.18544006,10.010376,-0.6963043,0.19805409,9.780871,-0.6824268,0.009063721,-0.008010864,0.0033111572,1.3198853,-38.459778,-23.999023,0,0.0,0.0,0.0,0.0
1.361328125,0.9970774,-0.015039637,0.07490322,0.07365923,-0.07092322,-0.99475837,0.02027318,0.9973684,-0.06960813,0.99293655,-0.013802917,0.11784102,0.116410434,-0.07858648,-0.99008733,0.022926806,0.99681175,-0.076424584,0.25004578,9.994827,-0.6616211,0.198812,9.780843,-0.68262255,0.008148193,-0.005569458,7.171631E-4,1.1993408,-38.21869,-23.638916,0,0.0,0.0,0.0,0.0
1.369628906,0.9970757,-0.015053175,0.07492502,0.07368174,-0.0708391,-0.99476284,0.020281956,0.9973742,-0.069522776,0.9931355,-0.013861854,0.11614478,0.11472148,-0.07828336,-0.9903084,0.022819713,0.99683475,-0.07615574,0.21176147,10.003189,-0.604187,0.19889805,9.7809,-0.6817855,0.0014190674,0.0013122559,-0.0035552979,1.1993408,-38.21869,-23.638916,0,0.0,0.0,0.0,0.0
1.377929687,0.9974797,-0.015450098,0.069250196,0.06799709,-0.07061102,-0.99518365,0.020265508,0.99738425,-0.069382496,0.99332386,-0.01391846,0.11451633,0.11310007,-0.07798894,-0.99051815,0.022717495,0.99685705,-0.075894095,0.20458984,10.02713,-0.5766754,0.19873677,9.780999,-0.6804099,0.0055389404,0.0036010742,-0.00340271,1.0787964,-38.459778,-24.119568,0,0.0,0.0,0.0,0.0
1.386230469,0.99748534,-0.015404586,0.06917788,0.067929134,-0.070559695,-0.9951919,0.020211691,0.9973886,-0.069335856,0.9934271,-0.013954551,0.11361334,0.112200275,-0.07784184,-0.99063206,0.022667697,0.9968681,-0.075764485,0.16749573,9.996017,-0.62571716,0.19820899,9.781041,-0.6799525,0.0093688965,-0.0022125244,0.00592041,1.0787964,-38.459778,-24.119568,0,0.0,0.0,0.0,0.0
1.39453125,0.9974902,-0.015366833,0.069117896,0.06787194,-0.07055804,-0.995196,0.02016983,0.99738926,-0.06933797,0.9936253,-0.014022011,0.111857906,0.11045116,-0.07755379,-0.9908511,0.022568729,0.99688953,-0.07551065,0.16270447,10.021133,-0.6281128,0.19779846,9.781048,-0.67997324,0.016845703,0.0011444092,0.003479004,1.0787964,-38.459778,-24.119568,0,0.0,0.0,0.0,0.0
1.402832031,0.9963001,-0.014269598,0.08475024,0.08353773,-0.070881635,-0.9939805,0.020190937,0.99738264,-0.06942732,0.99381304,-0.014084444,0.110169485,0.108768985,-0.07727721,-0.9910588,0.022472102,0.99691015,-0.07526715,0.19262695,10.011566,-0.67237854,0.19800545,9.780983,-0.68084943,0.016235352,-0.0061798096,0.008514404,1.499939,-38.879395,-24.179077,0,0.0,0.0,0.0,0.0
1.411132812,0.9966904,-0.014688481,0.0799541,0.07872315,-0.07090586,-0.9943717,0.020275021,0.99737483,-0.069514856,0.99386907,-0.014090434,0.10966173,0.10826509,-0.07714928,-0.991124,0.02242569,0.99692,-0.07515078,0.22851563,10.022339,-0.6759796,0.19883005,9.780907,-0.6817079,0.013641357,-0.011672974,0.003479004,1.3793945,-38.339233,-24.238586,0,0.0,0.0,0.0,0.0
1.419433594,0.996682,-0.014747929,0.08004765,0.07881113,-0.07096539,-0.99436045,0.02034537,0.9973697,-0.06956761,0.9939976,-0.014119646,0.10848759,0.10709749,-0.07690229,-0.99127,0.022339325,0.99693865,-0.07492851,0.22851563,10.022339,-0.6759796,0.19951992,9.780856,-0.6822253,0.0037078857,-0.008773804,0.003479004,1.3793945,-38.339233,-24.238586,0,0.0,0.0,0.0,0.0
1.427734375,0.99642295,-0.0145647945,0.08324068,0.0820108,-0.07089983,-0.99410623,0.020380706,0.9973771,-0.06945176,0.99411917,-0.01414969,0.1073634,0.10597941,-0.07666728,-0.99140835,0.02225938,0.99695635,-0.074716836,0.22732544,10.001999,-0.5862427,0.19986646,9.780929,-0.6810891,0.0055389404,-0.008010864,-0.00340271,1.499939,-38.99994,-24.778748,0,0.0,0.0,0.0,0.0
1.436035156,0.9964261,-0.014543805,0.08320783,0.081980966,-0.07082733,-0.99411404,0.020351589,0.9973826,-0.06938188,0.9941709,-0.014160166,0.1068818,0.10550089,-0.076551616,-0.99146825,0.02222133,0.99696505,-0.07461148,0.1986084,10.005585,-0.61135864,0.19958091,9.780982,-0.6804038,0.011047363,-0.007247925,-0.0011138916,1.499939,-38.99994,-24.778748,0,0.0,0.0,0.0,0.0
1.444335937,0.99642974,-0.014519118,0.083169185,0.081943356,-0.07086458,-0.9941145,0.020327412,0.99738026,-0.06942182,0.9942708,-0.014179576,0.105946034,0.10457127,-0.076325126,-0.99158424,0.022146588,0.99698216,-0.07440507,0.21176147,10.023529,-0.6855469,0.19934382,9.780959,-0.6807955,-0.0043792725,-0.006790161,-0.005844116,1.499939,-38.99994,-24.778748,0,0.0,0.0,0.0,0.0
1.452636719,0.99598616,-0.014137265,0.088384405,0.08717363,-0.07083145,-0.9936719,0.020308198,0.9973881,-0.06931474,0.99436605,-0.01419678,0.105045214,0.10367639,-0.07610879,-0.9916948,0.022073736,0.9969984,-0.07420813,0.22851563,10.042679,-0.6161499,0.19915539,9.781036,-0.67974544,-0.0010223389,0.003753662,-0.008285522,1.6189575,-39.35852,-24.539185,0,0.0,0.0,0.0,0.0
1.4609375,0.99624646,-0.014318186,0.085369825,0.08415761,-0.07062974,-0.99394614,0.020261154,0.9973998,-0.06915964,0.9944012,-0.014196911,0.10471234,0.103346735,-0.07600334,-0.9917373,0.022038095,0.9970065,-0.07411061,0.21296692,10.023529,-0.6006012,0.19869407,9.781152,-0.67822444,-0.0010223389,-0.0031280518,-0.004928589,1.5594482,-38.879395,-24.719238,0,0.0,0.0,0.0,0.0
1.469238281,0.996261,-0.014219939,0.085216224,0.08401454,-0.07046242,-0.99397016,0.020138735,0.9974131,-0.06900428,0.9944813,-0.0142047815,0.10394721,0.10258776,-0.07579026,-0.99183244,0.021966947,0.99702257,-0.07391477,0.15553284,10.023529,-0.5790558,0.19749354,9.781281,-0.6767009,0.0011138916,-0.011978149,-0.0070648193,1.5594482,-38.879395,-24.719238,0,0.0,0.0,0.0,0.0
1.477539062,0.99627364,-0.014134287,0.0850823,0.08388988,-0.0703108,-0.9939913,0.020031564,0.99742496,-0.06886308,0.9945204,-0.014206588,0.1035731,0.102216855,-0.075683996,-0.99187887,0.021930039,0.9970306,-0.07381712,0.15553284,10.023529,-0.5790558,0.19644254,9.781398,-0.67531615,0.0015716553,-0.0118255615,-9.613037E-4,1.5594482,-38.879395,-24.719238,0,0.0,0.0,0.0,0.0
1.485839844,0.994732,-0.012922542,0.101691104,0.100542344,-0.070388936,-0.99243975,0.019982776,0.997436,-0.06871887,0.9945963,-0.0142063815,0.10284144,0.101491824,-0.0754713,-0.99196947,0.021853875,0.99704677,-0.073621646,0.16749573,10.022339,-0.5694885,0.1959641,9.781506,-0.673902,0.0027923584,-3.8146973E-4,0.0068359375,1.979065,-38.398743,-24.238586,0,0.0,0.0,0.0,0.0
1.494140625,0.99243575,-0.011470904,0.1222285,0.12112894,-0.070536494,-0.9901275,0.019979225,0.99744326,-0.06861347,0.9946018,-0.0141546745,0.10279597,0.101454675,-0.07527035,-0.99198854,0.021778762,0.9970627,-0.07342795,0.17468262,10.016357,-0.58743286,0.19592927,9.781577,-0.6728683,0.008758545,-8.392334E-4,0.0043945313,2.519226,-38.398743,-24.058533,0,0.0,0.0,0.0,0.0
1.502441406,0.9924189,-0.011552456,0.12235689,0.12125275,-0.07047072,-0.99011695,0.020060861,0.99744695,-0.06853571,0.9945623,-0.014098658,0.103184536,0.101848334,-0.07517662,-0.99195534,0.021742303,0.99707055,-0.07333191,0.22851563,10.02832,-0.59580994,0.19672985,9.781613,-0.6721057,0.007980347,0.005432129,0.006378174,2.519226,-38.398743,-24.058533,0,0.0,0.0,0.0,0.0
1.510742187,0.9916439,-0.011182781,0.12851925,0.12742503,-0.070525125,-0.98933756,0.020127386,0.99744725,-0.068510845,0.9944847,-0.013993577,0.10394412,0.102617696,-0.074991554,-0.9918901,0.021675022,0.997086,-0.07314196,0.23330688,10.02713,-0.6460571,0.19738223,9.781616,-0.6718619,0.01852417,8.392334E-4,-0.0040130615,2.6992798,-38.519287,-24.179077,0,0.0,0.0,0.0,0.0
1.519042969,0.9916461,-0.011172725,0.12850349,0.1274084,-0.070604004,-0.98933417,0.02012642,0.99744177,-0.06859069,0.99438405,-0.0138774915,0.10491797,0.10360129,-0.07481669,-0.99180096,0.021613324,0.9971007,-0.07295879,0.20698547,10.001999,-0.64486694,0.19737275,9.781563,-0.6726449,0.011962891,0.0020599365,-0.0014190674,2.6992798,-38.519287,-24.179077,0,0.0,0.0,0.0,0.0
1.52734375,0.99165004,-0.011154503,0.12847489,0.12737998,-0.07066061,-0.9893338,0.02011364,0.997438,-0.06864974,0.99433494,-0.01382122,0.10539,0.10407798,-0.07473378,-0.9917574,0.02158349,0.99710774,-0.07287192,0.20698547,10.001999,-0.64486694,0.19724743,9.781526,-0.673224,0.01272583,0.002532959,-0.002029419,2.6992798,-38.519287,-24.179077,0,0.0,0.0,0.0,0.0
1.535644531,0.9920692,-0.011414723,0.12517358,0.12406881,-0.07064631,-0.9897556,0.020140838,0.99743617,-0.06866982,0.9942391,-0.013711385,0.106305,0.105002105,-0.0745743,-0.991672,0.021524819,0.9971212,-0.072704956,0.23808289,10.015152,-0.6388855,0.19751415,9.7815075,-0.6734209,0.009063721,0.0060424805,-0.0052337646,2.5787354,-38.398743,-23.939514,0,0.0,0.0,0.0,0.0
1.543945312,0.99209,-0.011316028,0.12501752,0.123919174,-0.07068173,-0.98977166,0.020036742,0.9974347,-0.06872036,0.9941601,-0.013617014,0.10705267,0.105758026,-0.07441952,-0.99160326,0.021469483,0.99713403,-0.072544806,0.1603241,9.999603,-0.6807556,0.19649331,9.781493,-0.6739166,0.004623413,5.340576E-4,-0.008743286,2.5787354,-38.398743,-23.939514,0,0.0,0.0,0.0,0.0
1.552246094,0.99193585,-0.011140082,0.12625042,0.12516007,-0.0707426,-0.9896112,0.019955631,0.99743235,-0.06877783,0.994122,-0.013569346,0.10741241,0.10612187,-0.07434571,-0.99156994,0.021440605,0.9971402,-0.07246869,0.16749573,10.001999,-0.7010956,0.1956979,9.78147,-0.6744801,0.004623413,-0.0025177002,0.0051574707,2.6992798,-39.118958,-24.659729,0,0.0,0.0,0.0,0.0
1.560546875,0.99259675,-0.011515984,0.12090998,0.11981024,-0.07054401,-0.9902874,0.019933607,0.9974422,-0.06864201,0.9940424,-0.0134696225,0.108158305,0.10687609,-0.074204005,-0.9914995,0.021380901,0.9971521,-0.072322346,0.18304443,10.02832,-0.6053772,0.19548191,9.781567,-0.6731482,-0.009277344,-0.0011444092,0.0025634766,2.519226,-39.239502,-24.41864,0,0.0,0.0,0.0,0.0
1.568847656,0.9925961,-0.011519181,0.120915025,0.11981879,-0.07035679,-0.99029976,0.019914635,0.9974554,-0.06845566,0.99398845,-0.013389777,0.108663306,0.10738872,-0.07406022,-0.9914549,0.021322988,0.9971639,-0.07217709,0.1758728,10.015152,-0.5970154,0.19529586,9.781696,-0.67132074,-0.003616333,-8.392334E-4,-0.0040130615,2.519226,-39.239502,-24.41864,0,0.0,0.0,0.0,0.0
1.577148437,0.9925919,-0.011539444,0.12094717,0.11985164,-0.07024773,-0.9903034,0.019923812,0.9974628,-0.0683443,0.9939621,-0.013351072,0.10890837,0.107637525,-0.07398628,-0.9914334,0.021294422,0.9971699,-0.07210247,0.20458984,10.004395,-0.63648987,0.19538586,9.781769,-0.67022866,-0.0057525635,-0.0034332275,0.0014801025,2.519226,-39.239502,-24.41864,0,0.0,0.0,0.0,0.0
1.585449219,0.99372095,-0.0122357365,0.11121541,0.11009917,-0.07002221,-0.9914509,0.019918682,0.9974704,-0.0682354,0.9939108,-0.013276968,0.10938515,0.108121544,-0.073838614,-0.9913917,0.021239525,0.99718183,-0.07195347,0.18544006,9.994827,-0.6352997,0.19533555,9.781843,-0.66916066,-0.003616333,-0.009994507,0.004699707,2.279663,-38.99994,-24.659729,0,0.0,0.0,0.0,0.0
1.59375,0.9937164,-0.0122601,0.11125352,0.110137776,-0.06990972,-0.9914546,0.019933036,0.99747795,-0.06812014,0.99390334,-0.013235032,0.109457776,0.10820018,-0.07368769,-0.9913944,0.021186827,0.9971935,-0.0718064,0.18544006,9.994827,-0.6352997,0.19547631,9.781918,-0.6680303,-0.008346558,-0.02709961,0.011108398,2.279663,-38.99994,-24.659729,0,0.0,0.0,0.0,0.0
1.602050781,0.99391025,-0.012439648,0.10948872,0.10836898,-0.06969873,-0.9916644,0.01996718,0.9974905,-0.067926206,0.9938996,-0.013215276,0.10949378,0.108239144,-0.073612496,-0.9913957,0.021161677,0.99719936,-0.07173302,0.18902588,10.003189,-0.5862427,0.19581115,9.782041,-0.6661286,-0.009109497,-0.024810791,0.009429932,2.218628,-39.779663,-24.659729,0,0.0,0.0,0.0,0.0
1.610351562,0.9940419,-0.012667456,0.10825967,0.107133165,-0.06940415,-0.99181926,0.0200775,0.99750817,-0.06763353,0.99390006,-0.013184464,0.109493315,0.10824418,-0.073457874,-0.9914067,0.02111431,0.99721116,-0.071582645,0.24287415,10.019943,-0.5156555,0.196893,9.782213,-0.6632583,-0.004989624,-0.016555786,0.003921509,2.1591187,-39.779663,-24.479675,0,0.0,0.0,0.0,0.0
1.618652344,0.9940217,-0.0127747,0.10843216,0.107303284,-0.06914386,-0.991819,0.020167612,0.9975249,-0.06735974,0.9939057,-0.0131645175,0.10944466,0.10820046,-0.0732978,-0.9914232,0.021073662,0.9972232,-0.07142669,0.23210144,10.016357,-0.5395813,0.19777672,9.782378,-0.6605734,0.008758545,-0.013656616,0.0040893555,2.1591187,-39.779663,-24.479675,0,0.0,0.0,0.0,0.0
1.626953125,0.9940069,-0.012854022,0.10855975,0.10742771,-0.06902221,-0.99181414,0.020241832,0.9975323,-0.06722766,0.9939081,-0.013157146,0.10942441,0.108182535,-0.073214814,-0.9914314,0.021055896,0.9972294,-0.071345426,0.2416687,10.005585,-0.5647125,0.19850457,9.782451,-0.65927815,0.010284424,-0.0104522705,-0.0015716553,2.1591187,-39.779663,-24.479675,0,0.0,0.0,0.0,0.0
1.635253906,0.9948003,-0.01343312,0.10095427,0.099802904,-0.06888061,-0.9926201,0.020287778,0.99753445,-0.067181796,0.9939119,-0.013146232,0.10939026,0.10815276,-0.07304913,-0.9914468,0.021024654,0.9972417,-0.0711826,0.23928833,10.013962,-0.55513,0.19895515,9.782472,-0.6588284,0.02218628,-0.008163452,-0.0069122314,1.979065,-39.65912,-24.778748,0,0.0,0.0,0.0,0.0
1.643554687,0.9947986,-0.013443324,0.100970455,0.09981844,-0.06887675,-0.99261886,0.020298613,0.9975346,-0.0671766,0.9939304,-0.01315318,0.1092217,0.107985854,-0.07296598,-0.9914711,0.021010466,0.9972477,-0.07110275,0.23928833,10.013962,-0.55513,0.1990614,9.782473,-0.6587775,0.016998291,-0.004196167,-0.007522583,1.979065,-39.65912,-24.778748,0,0.0,0.0,0.0,0.0
1.651855469,0.99458283,-0.013264346,0.10309729,0.10195122,-0.06894645,-0.9923972,0.020271692,0.9975321,-0.06722064,0.99396604,-0.013166859,0.10889503,0.10766247,-0.07280393,-0.99151826,0.020983169,0.9972594,-0.07094706,0.23330688,10.0247345,-0.5970154,0.19879739,9.782449,-0.6592093,0.017608643,-0.001449585,-0.010574341,1.979065,-39.538574,-24.179077,0,0.0,0.0,0.0,0.0
1.66015625,0.9941993,-0.012887904,0.10677858,0.10564651,-0.06910512,-0.9919996,0.020163743,0.9975261,-0.0673427,0.9939911,-0.013172263,0.1086653,0.10743612,-0.07265072,-0.991554,0.020955624,0.99727046,-0.07079899,0.18066406,10.030716,-0.63768005,0.19773878,9.78239,-0.6604063,0.02798462,0.0032958984,-0.0027923584,2.0996094,-39.35852,-24.299622,0,0.0,0.0,0.0,0.0
1.668457031,0.9942161,-0.012797444,0.1066335,0.10550516,-0.06923887,-0.99200547,0.020078316,0.99751806,-0.06748819,0.9939953,-0.013166908,0.10862769,0.10740046,-0.07257968,-0.991563,0.020939983,0.9972757,-0.07072973,0.18066406,10.030716,-0.63768005,0.19690102,9.7823105,-0.6618331,0.01928711,0.0032958984,-0.0053863525,2.0996094,-39.35852,-24.299622,0,0.0,0.0,0.0,0.0
1.676757812,0.99421865,-0.012782926,0.106610216,0.10547898,-0.06943395,-0.9919944,0.02008296,0.9975046,-0.0676842,0.9940041,-0.013152686,0.108548805,0.107325554,-0.07244729,-0.9915808,0.02090602,0.9972855,-0.070601285,0.22732544,9.999603,-0.6927185,0.19694656,9.782179,-0.6637553,0.017913818,0.0032958984,-0.0017242432,2.0996094,-39.35852,-24.299622,0,0.0,0.0,0.0,0.0
1.685058594,0.9940543,-0.012678213,0.108144656,0.10701387,-0.069593325,-0.99181896,0.020100638,0.9974949,-0.06782281,0.99401265,-0.013138393,0.10847241,0.10725285,-0.07232834,-0.9915974,0.020873627,0.99729437,-0.07048615,0.23210144,10.001999,-0.68673706,0.19711992,9.7820835,-0.6651145,1.9836426E-4,-0.0051116943,-0.0030975342,2.0996094,-39.05945,-23.878479,0,0.0,0.0,0.0,0.0
1.693359375,0.9940522,-0.0126892,0.10816244,0.107029796,-0.06964622,-0.99181336,0.020118427,0.997491,-0.06787386,0.9940135,-0.013129147,0.10846582,0.10724807,-0.072273225,-0.991602,0.020858062,0.9972985,-0.070432484,0.23210144,10.001999,-0.68673706,0.19729438,9.782046,-0.66561526,-0.0057525635,-0.011520386,-0.0035552979,2.0996094,-39.05945,-23.878479,0,0.0,0.0,0.0,0.0
1.701660156,0.9937188,-0.012404256,0.11121655,0.11009735,-0.06959729,-0.99148107,0.020038955,0.997498,-0.06779446,0.994015,-0.013111677,0.10845409,0.10723975,-0.07216874,-0.9916104,0.02082867,0.9973062,-0.07033072,0.17108154,10.011566,-0.6305084,0.19651502,9.782114,-0.6648365,-0.0045318604,-0.012741089,-0.0035552979,2.218628,-38.519287,-24.119568,0,0.0,0.0,0.0,0.0
1.709960937,0.9924612,-0.011554889,0.12201329,0.120926924,-0.06961529,-0.9902173,0.019935843,0.997507,-0.06769318,0.9940035,-0.013083461,0.10856338,0.10735291,-0.072067656,-0.9916055,0.02079754,0.9973139,-0.070230946,0.14476013,10.023529,-0.6269226,0.19550383,9.782202,-0.66384333,-0.011108398,-0.021453857,0.007751465,2.519226,-38.938904,-24.179077,0,0.0,0.0,0.0,0.0
1.718261719,0.9924672,-0.011525351,0.12196636,0.120884836,-0.06947762,-0.990232,0.019886706,0.9975169,-0.06756103,0.9939744,-0.0130521925,0.10883261,0.107624695,-0.07201919,-0.99157965,0.020780325,0.99731785,-0.07018049,0.14476013,10.023529,-0.6269226,0.19502197,9.782299,-0.6625474,-0.0046844482,-0.023895264,0.011871338,2.519226,-38.938904,-24.179077,0,0.0,0.0,0.0,0.0
1.7265625,0.9924567,-0.011576307,0.12204732,0.120965995,-0.06928692,-0.99023557,0.019919556,0.9975296,-0.06736393,0.9939182,-0.012990207,0.109353095,0.10815033,-0.07191901,-0.99152976,0.020744741,0.9973259,-0.070076704,0.19023132,10.025925,-0.4737854,0.19534412,9.782424,-0.6606145,0.0021820068,-0.037643433,0.004852295,2.519226,-38.938904,-24.179077,0,0.0,0.0,0.0,0.0
1.734863281,0.9904051,-0.0104976855,0.13779545,0.13675235,-0.06923795,-0.9881826,0.019914305,0.99754494,-0.06713803,0.9938634,-0.0129328165,0.1098554,0.10865764,-0.071814835,-0.9914818,0.020711899,0.9973341,-0.06996889,0.17228699,10.013962,-0.49890137,0.1952926,9.782574,-0.6583991,0.013183594,-0.028015137,0.0043945313,2.8793335,-38.63983,-23.638916,0,0.0,0.0,0.0,0.0
1.743164062,0.9904039,-0.010502944,0.13780391,0.1367637,-0.069074996,-0.98819244,0.019897733,0.99755615,-0.06697572,0.9938021,-0.012882645,0.11041491,0.109220386,-0.07176418,-0.99142367,0.020695996,0.9973384,-0.069912344,0.17228699,10.013962,-0.49890137,0.19513011,9.782684,-0.6568075,0.01272583,-0.02557373,0.0025634766,2.8793335,-38.63983,-23.638916,0,0.0,0.0,0.0,0.0
1.751464844,0.99257076,-0.011654168,0.12110916,0.120033175,-0.06886098,-0.99037874,0.019881738,0.9975582,-0.06695051,0.99374163,-0.012833602,0.11096354,0.10977225,-0.07171137,-0.9913665,0.02068015,0.9973429,-0.0698538,0.18066406,10.018753,-0.5623169,0.19497325,9.782704,-0.6565602,0.01776123,-0.02557373,0.0025634766,2.519226,-38.578796,-24.35913,0,0.0,0.0,0.0,0.0
1.759765625,0.99247265,-0.011583494,0.121917285,0.12084421,-0.06886372,-0.99028003,0.019866578,0.9975589,-0.06694556,0.9936757,-0.012762662,0.1115599,0.11037558,-0.07154384,-0.9913116,0.020633198,0.9973558,-0.069682695,0.22851563,10.040283,-0.54914856,0.19482459,9.782711,-0.65651166,0.027542114,0.0034484863,0.002090454,2.519226,-38.63983,-24.179077,0,0.0,0.0,0.0,0.0
1.768066406,0.99246293,-0.011631005,0.12199219,0.12091532,-0.06888532,-0.9902698,0.019921303,0.99755675,-0.06695975,0.99365276,-0.012738489,0.11176719,0.11058517,-0.071490064,-0.9912921,0.020617807,0.99736,-0.069627605,0.22851563,10.040283,-0.54914856,0.19536126,9.78269,-0.6566509,0.029678345,0.005584717,-6.5612793E-4,2.519226,-38.63983,-24.179077,0,0.0,0.0,0.0,0.0
1.776367187,0.9924558,-0.011665853,0.122047134,0.12096576,-0.06898789,-0.9902565,0.01997196,0.99754924,-0.06705626,0.99360764,-0.012693727,0.112172276,0.11099455,-0.07138717,-0.9912538,0.020590367,0.9973679,-0.069521904,0.23210144,10.019943,-0.5659027,0.19585802,9.782617,-0.6575973,0.032730103,0.0060424805,2.593994E-4,2.519226,-38.63983,-24.179077,0,0.0,0.0,0.0,0.0
1.784667969,0.9922238,-0.011557059,0.12392852,0.122847445,-0.06912887,-0.990015,0.020008704,0.9975408,-0.06717156,0.99358565,-0.01267276,0.11236952,0.111193776,-0.07133921,-0.99123496,0.020578036,0.9973716,-0.069472484,0.23210144,10.019943,-0.5659027,0.19621836,9.782534,-0.658728,0.03227234,0.0058898926,-0.0038604736,2.5787354,-38.519287,-24.238586,0,0.0,0.0,0.0,0.0
1.79296875,0.99223375,-0.011509473,0.123853974,0.12277147,-0.069368415,-0.99000776,0.019986019,0.99752474,-0.06741664,0.9935343,-0.012627653,0.11282748,0.11165558,-0.0712517,-0.99118924,0.020555545,0.9973784,-0.06938106,0.20219421,10.015152,-0.6616211,0.1959959,9.782376,-0.6611314,0.036697388,0.007873535,-0.0052337646,2.5787354,-38.519287,-24.238586,0,0.0,0.0,0.0,0.0
1.801269531,0.9924681,-0.011571938,0.12195531,0.120866746,-0.06967468,-0.99022055,0.019955967,0.9975027,-0.067751236,0.9934852,-0.012582593,0.11326416,0.11209591,-0.07117757,-0.9911449,0.020533042,0.9973843,-0.06930341,0.19502258,10.005585,-0.7381897,0.19570118,9.78216,-0.6644127,0.025238037,-0.0012969971,0.006072998,2.519226,-38.75885,-24.179077,0,0.0,0.0,0.0,0.0
1.809570312,0.992473,-0.011548409,0.12191808,0.12082553,-0.06995704,-0.99020565,0.019964328,0.99748313,-0.068035126,0.9934657,-0.012562023,0.11343782,0.11227119,-0.07114739,-0.99112725,0.020521369,0.9973867,-0.06927214,0.19502258,10.005585,-0.7381897,0.19578318,9.781968,-0.6671967,0.01638794,-0.0031280518,0.0042266846,2.519226,-38.75885,-24.179077,0,0.0,0.0,0.0,0.0
1.817871094,0.99250376,-0.011625921,0.12165955,0.12056085,-0.070030235,-0.99023265,0.020032214,0.9974771,-0.06810365,0.99342775,-0.012521313,0.11377393,0.11261028,-0.07110036,-0.99109215,0.020499142,0.99739057,-0.06922305,0.22612,10.019943,-0.65802,0.19644892,9.781909,-0.6678687,-0.0017852783,-0.0048065186,0.0037841797,2.519226,-38.578796,-24.238586,0,0.0,0.0,0.0,0.0
1.826171875,0.9924916,-0.011685616,0.1217533,0.12065044,-0.0700239,-0.9902223,0.020097,0.9974769,-0.06808826,0.9933924,-0.012485505,0.114086255,0.1129252,-0.0710585,-0.99105936,0.020480674,0.997394,-0.06917904,0.23091125,10.017548,-0.65682983,0.19708425,9.781907,-0.66771775,-0.0033111572,0.0034484863,4.119873E-4,2.519226,-38.578796,-24.238586,0,0.0,0.0,0.0,0.0
1.834472656,0.99261516,-0.011815731,0.120729454,0.11962135,-0.069961086,-0.99035156,0.020148091,0.99747974,-0.06803102,0.9933749,-0.012469278,0.114240006,0.113080174,-0.07103768,-0.99104315,0.020472938,0.9973957,-0.06915703,0.23091125,10.017548,-0.65682983,0.19758528,9.781935,-0.66715646,-0.008346558,0.0017547607,-0.0012664795,2.4597168,-38.578796,-23.999023,0,0.0,0.0,0.0,0.0
1.842773437,0.99262,-0.011791912,0.12069166,0.11958657,-0.06989588,-0.99036026,0.020114092,0.99748456,-0.067969896,0.99334556,-0.012443157,0.11449748,0.11333968,-0.07099543,-0.9910165,0.020460172,0.99739903,-0.06911269,0.18304443,10.010376,-0.6628113,0.19725187,9.781982,-0.666557,6.5612793E-4,-0.008163452,-0.001876831,2.4597168,-38.578796,-23.999023,0,0.0,0.0,0.0,0.0
1.851074219,0.991553,-0.011249877,0.12921268,0.12812598,-0.069847316,-0.9892951,0.020154608,0.9974942,-0.06781592,0.99331754,-0.012417074,0.11474334,0.11358769,-0.07095196,-0.9909913,0.020446477,0.9974024,-0.069067396,0.23568726,10.022339,-0.5970154,0.1976492,9.782077,-0.66504705,-0.0084991455,-0.015792847,0.004699707,2.6397705,-38.15918,-23.579407,0,0.0,0.0,0.0,0.0
1.859375,0.99154943,-0.011266834,0.12923974,0.12815708,-0.06958777,-0.9893096,0.020139888,0.9975122,-0.06755578,0.99328434,-0.012393443,0.115033224,0.113878965,-0.07093025,-0.9909594,0.020440733,0.9974043,-0.069042556,0.17706299,10.023529,-0.5264282,0.19750483,9.782253,-0.6624959,-0.0014801025,-0.015640259,0.007446289,2.6397705,-38.15918,-23.579407,0,0.0,0.0,0.0,0.0
1.867675781,0.9926011,-0.011836056,0.12084268,0.119745344,-0.06934596,-0.9903798,0.020102143,0.9975224,-0.067415565,0.9932195,-0.012348113,0.115596384,0.114445016,-0.07087721,-0.990898,0.020428868,0.9974086,-0.06898345,0.14117432,10.0295105,-0.59461975,0.1971347,9.782354,-0.6611209,0.0038604736,-0.009384155,0.010498047,2.519226,-38.038635,-24.41864,0,0.0,0.0,0.0,0.0
1.875976562,0.9925766,-0.01195909,0.121031806,0.1199268,-0.06929437,-0.99036145,0.020230645,0.99752456,-0.06734575,0.9931955,-0.012327518,0.11580488,0.11465567,-0.07081611,-0.9908779,0.020415917,0.9974132,-0.06892082,0.24645996,10.022339,-0.59939575,0.19839486,9.782374,-0.6604363,0.011810303,-0.005874634,0.00881958,2.519226,-38.038635,-24.41864,0,0.0,0.0,0.0,0.0
1.884277344,0.9909672,-0.011211044,0.13363506,0.13254926,-0.06943967,-0.9887409,0.020364393,0.99752307,-0.06732642,0.9931834,-0.012320113,0.1159091,0.1147608,-0.07078566,-0.990868,0.020412307,0.9974155,-0.068889275,0.24645996,10.022339,-0.59939575,0.19970648,9.78236,-0.6602467,0.011047363,-0.005874634,0.00881958,2.758789,-37.919617,-23.638916,0,0.0,0.0,0.0,0.0
1.892578125,0.99094397,-0.011314443,0.1337982,0.13270664,-0.069363855,-0.98872524,0.020467639,0.9975273,-0.067234196,0.9931017,-0.01227556,0.11661194,0.11546618,-0.07073282,-0.9907898,0.020410791,0.9974198,-0.068827465,0.23808289,10.02713,-0.54437256,0.20071897,9.782401,-0.6593422,0.007980347,6.866455E-4,0.0033111572,2.758789,-37.919617,-23.638916,0,0.0,0.0,0.0,0.0
1.900878906,0.99210465,-0.012006456,0.12483681,0.12372001,-0.069300644,-0.9898944,0.020536395,0.9975236,-0.06726805,0.99302197,-0.01223684,0.11729288,0.11614932,-0.07067823,-0.9907139,0.020413259,0.9974241,-0.06876373,0.23210144,10.025925,-0.63409424,0.20139323,9.782365,-0.6596743,0.016082764,0.00970459,0.0010223389,2.519226,-37.61902,-23.638916,0,0.0,0.0,0.0,0.0
1.909179687,0.992097,-0.012042311,0.124893054,0.123772606,-0.06935441,-0.98988384,0.020582376,0.9975194,-0.0673158,0.9930042,-0.0122322,0.11744362,0.11630058,-0.07065043,-0.99069804,0.020415861,0.99742615,-0.068733566,0.23210144,10.025925,-0.63409424,0.20184417,9.782324,-0.66014254,0.011047363,0.010772705,-0.0035552979,2.519226,-37.61902,-23.638916,0,0.0,0.0,0.0,0.0
1.917480469,0.9929777,-0.012631348,0.117625654,0.116482124,-0.06933422,-0.9907697,0.020670239,0.9975135,-0.067376,0.99296933,-0.012224601,0.11773875,0.11659661,-0.07059853,-0.990667,0.020422691,0.9974299,-0.06867683,0.27876282,10.02832,-0.6508484,0.2027058,9.782266,-0.66073287,0.0093688965,0.015350342,-0.004928589,2.3391724,-37.919617,-23.81897,0,0.0,0.0,0.0,0.0
1.92578125,0.99298096,-0.012614738,0.11759953,0.116456926,-0.06934644,-0.99077183,0.020653438,0.9975129,-0.06739062,0.9929697,-0.01224115,0.11773425,0.11659202,-0.07054871,-0.99067116,0.020432955,0.99743325,-0.06862552,0.22013855,10.013962,-0.62571716,0.20254104,9.78226,-0.6608763,0.005844116,0.010467529,-0.010574341,2.3391724,-37.919617,-23.81897,0,0.0,0.0,0.0,0.0
1.934082031,0.9920657,-0.012046669,0.1251416,0.124018654,-0.06943447,-0.98984754,0.020613508,0.9975138,-0.06738955,0.9929699,-0.012248732,0.11773153,0.11658925,-0.07052423,-0.99067307,0.020437414,0.99743485,-0.068600364,0.22013855,10.013962,-0.62571716,0.20214947,9.782269,-0.6608657,0.004470825,0.00680542,-0.007522583,2.519226,-38.09967,-23.638916,0,0.0,0.0,0.0,0.0
1.942382812,0.99208945,-0.011935046,0.12496423,0.12384959,-0.069415376,-0.98987013,0.020488586,0.99751645,-0.06738811,0.9929351,-0.012240679,0.11802527,0.116883755,-0.07048085,-0.99064153,0.020444645,0.997438,-0.06855218,0.15434265,9.999603,-0.6508484,0.2009244,9.782295,-0.66085166,0.003250122,0.0022277832,-0.0014190674,2.519226,-38.09967,-23.638916,0,0.0,0.0,0.0,0.0
1.950683594,0.9923802,-0.012103289,0.12261763,0.12149804,-0.06935957,-0.9901653,0.020488964,0.99751824,-0.067360535,0.99290264,-0.012228486,0.11829963,0.1171592,-0.07043844,-0.99061203,0.020446528,0.9974412,-0.06850583,0.2416687,10.013962,-0.66041565,0.20092812,9.782313,-0.6605813,-0.008804321,-0.004348755,-0.00340271,2.519226,-38.398743,-24.179077,0,0.0,0.0,0.0,0.0
1.958984375,0.99237496,-0.012128444,0.12265702,0.12153682,-0.06930271,-0.9901645,0.020509621,0.99752194,-0.06730022,0.9928923,-0.012226011,0.118386105,0.11724609,-0.070416905,-0.9906032,0.02044751,0.9974427,-0.06848296,0.2416687,10.013962,-0.66041565,0.20113069,9.782349,-0.6599898,-0.014160156,-0.0075531006,-0.006149292,2.519226,-38.398743,-24.179077,0,0.0,0.0,0.0,0.0
1.967285156,0.9917918,-0.011773022,0.12731946,0.12621664,-0.06911444,-0.98959196,0.020450106,0.9975392,-0.0670612,0.99287224,-0.012222181,0.11855474,0.11741549,-0.07037255,-0.99058634,0.020450125,0.9974459,-0.068435885,0.19262695,10.019943,-0.5766754,0.20054704,9.782518,-0.65764576,-0.011703491,-0.021148682,-0.004776001,2.6397705,-38.459778,-24.119568,0,0.0,0.0,0.0,0.0
1.975585937,0.99179703,-0.011749112,0.12728192,0.12618609,-0.0688559,-0.989614,0.020391196,0.9975574,-0.06680849,0.99283105,-0.012204249,0.118902,0.117764205,-0.07032281,-0.9905485,0.020450424,0.99744964,-0.06838144,0.19740295,10.02832,-0.5659027,0.19996932,9.782697,-0.6551675,-0.009277344,-0.037643433,-0.00340271,2.6397705,-38.459778,-24.119568,0,0.0,0.0,0.0,0.0
1.983886719,0.9910951,-0.011346087,0.1326713,0.13159369,-0.06869975,-0.9889204,0.020334858,0.9975729,-0.06659491,0.99281096,-0.012195052,0.119069815,0.117932886,-0.07029339,-0.99053055,0.020449392,0.99745184,-0.068349846,0.19740295,10.02832,-0.5659027,0.19941685,9.782848,-0.653073,-0.0027008057,-0.04084778,-1.9836426E-4,2.8198242,-38.519287,-24.35913,0,0.0,0.0,0.0,0.0
1.9921875,0.99110824,-0.011286821,0.13257909,0.13150978,-0.06849594,-0.9889457,0.020243179,0.99758756,-0.06640255,0.9927466,-0.012160886,0.11960891,0.11847435,-0.07023016,-0.9904703,0.020445151,0.99745667,-0.068280004,0.1603241,10.005585,-0.56111145,0.19851778,9.782992,-0.6511866,-0.0042266846,-0.04283142,2.593994E-4,2.8198242,-38.519287,-24.35913,0,0.0,0.0,0.0,0.0
2.000488281,0.99275815,-0.012188484,0.11951023,0.11841616,-0.06816425,-0.9906217,0.0202205,0.99759966,-0.0662273,0.99268496,-0.012125675,0.12012309,0.11899117,-0.07016144,-0.99041337,0.020437438,0.997462,-0.06820536,0.20458984,10.022339,-0.5623169,0.19829538,9.783112,-0.64946806,-0.0011749268,-0.03366089,0.0016326904,2.3986816,-38.75885,-23.878479,0,0.0,0.0,0.0,0.0
2.008789062,0.9927567,-0.012195564,0.11952157,0.118430115,-0.06801031,-0.9906305,0.020209996,0.99761003,-0.066073366,0.9926864,-0.012127093,0.12011081,0.11897968,-0.070121124,-0.9904175,0.020433191,0.9974648,-0.068165414,0.20458984,10.022339,-0.5623169,0.19819236,9.783213,-0.6479584,0.0035552979,-0.030914307,0.0071411133,2.3986816,-38.75885,-23.878479,0,0.0,0.0,0.0,0.0
2.017089844,0.993336,-0.012553388,0.1145685,0.11346598,-0.067912415,-0.9912181,0.02022377,0.9976123,-0.06603547,0.99268925,-0.012130358,0.12008746,0.11895785,-0.07003778,-0.99042606,0.020424882,0.99747056,-0.06808275,0.19262695,10.025925,-0.62213135,0.19832744,9.783235,-0.64758676,-1.0681152E-4,-0.015640259,0.0027008057,2.279663,-38.63983,-23.999023,0,0.0,0.0,0.0,0.0
2.025390625,0.9933227,-0.012621195,0.11467641,0.11357135,-0.0678057,-0.9912134,0.020286014,0.99761873,-0.06591954,0.9927154,-0.012148077,0.11986886,0.11874023,-0.06995409,-0.990458,0.020417476,0.9974762,-0.06800204,0.22253418,10.02713,-0.5659027,0.19893786,9.7832985,-0.6464499,0.0037078857,-0.0118255615,0.005004883,2.279663,-38.63983,-23.999023,0,0.0,0.0,0.0,0.0
2.033691406,0.99142385,-0.011626136,0.13016765,0.12909377,-0.06787376,-0.98930687,0.020336783,0.9976262,-0.0657908,0.9927279,-0.012158083,0.11976501,0.11863679,-0.06991144,-0.9904735,0.020415202,0.9974791,-0.067960635,0.22253418,10.02713,-0.5659027,0.19943571,9.783371,-0.6451874,-0.006210327,-0.0020599365,0.004852295,2.6992798,-39.179993,-24.058533,0,0.0,0.0,0.0,0.0
2.041992187,0.99139595,-0.011751364,0.13036844,0.12929147,-0.06760048,-0.9892996,0.02043859,0.9976432,-0.0654995,0.9926783,-0.012136896,0.12017731,0.11905128,-0.069831245,-0.9904294,0.02041287,0.997485,-0.06787504,0.25483704,10.0295105,-0.4630127,0.20043409,9.783538,-0.64233065,-0.0040740967,-5.340576E-4,1.0681152E-4,2.6992798,-39.179993,-24.058533,0,0.0,0.0,0.0,0.0
2.050292969,0.9913138,-0.011742252,0.13099241,0.12991947,-0.06736955,-0.98923314,0.020440722,0.99765897,-0.065258816,0.9926294,-0.012121611,0.120581195,0.11945708,-0.069742896,-0.9903868,0.020414764,0.99749136,-0.06778084,0.20100403,10.030716,-0.4905243,0.20045501,9.783692,-0.63997036,0.014404297,0.0077209473,-0.0035552979,2.6992798,-39.179993,-23.939514,0,0.0,0.0,0.0,0.0
2.05859375,0.9913148,-0.011738019,0.13098559,0.12991619,-0.06721046,-0.98924446,0.020415371,0.99766976,-0.06510176,0.9926042,-0.012114028,0.12078963,0.11966658,-0.06969533,-0.99036485,0.020415781,0.99749476,-0.06773023,0.20100403,10.030716,-0.4905243,0.2002064,9.783798,-0.6384302,0.01776123,0.008636475,-0.0023345947,2.6992798,-39.179993,-23.939514,0,0.0,0.0,0.0,0.0
2.066894531,0.9928162,-0.012526085,0.11899196,0.11790121,-0.066965245,-0.99076486,0.02037873,0.9976767,-0.065007344,0.99257946,-0.012106547,0.12099402,0.119871974,-0.0696457,-0.9903436,0.020416353,0.99749833,-0.067677654,0.1986084,10.016357,-0.5647125,0.19984707,9.783866,-0.6375043,0.018371582,0.0048217773,-0.0069122314,2.4597168,-39.29901,-24.659729,0,0.0,0.0,0.0,0.0
2.075195312,0.9928236,-0.012489474,0.11893435,0.11784575,-0.06698204,-0.9907703,0.020340666,0.99767596,-0.06502951,0.9925888,-0.012124386,0.120914906,0.11979404,-0.0695394,-0.99036044,0.020415863,0.99750555,-0.0675716,0.19381714,9.996017,-0.624527,0.1994738,9.783859,-0.63772166,0.014099121,0.004211426,-0.0026397705,2.4597168,-39.29901,-24.659729,0,0.0,0.0,0.0,0.0
2.083496094,0.991469,-0.011733205,0.12981348,0.12874809,-0.06714985,-0.9894013,0.020325804,0.9976739,-0.06506637,0.9925982,-0.012139933,0.12083651,0.11971682,-0.06943806,-0.99037683,0.02041376,0.9975124,-0.06747074,0.20698547,10.005585,-0.5850525,0.19932805,9.783839,-0.6380831,0.017608643,0.008483887,-0.0026397705,2.6992798,-39.419556,-24.179077,0,0.0,0.0,0.0,0.0
2.091796875,0.99148005,-0.011683474,0.12973362,0.12867036,-0.06721195,-0.9894072,0.020279363,0.99767035,-0.06513599,0.9925764,-0.012131774,0.121016026,0.119897425,-0.06939217,-0.9903582,0.020412365,0.9975157,-0.067422464,0.1878357,10.010376,-0.6029968,0.19887263,9.783804,-0.63876593,0.020965576,0.009094238,-0.005996704,2.6992798,-39.419556,-24.179077,0,0.0,0.0,0.0,0.0
2.100097656,0.99179953,-0.011682515,0.12726848,0.1262082,-0.067323245,-0.98971677,0.020130506,0.99766284,-0.06529673,0.9925345,-0.012113937,0.12136139,0.120244965,-0.06930583,-0.99032205,0.020407751,0.9975219,-0.06733179,0.112457275,10.001999,-0.6903229,0.19741283,9.7837305,-0.64034224,0.001876831,0.001449585,-0.0014190674,2.6397705,-39.29901,-24.179077,0,0.0,0.0,0.0,0.0
2.108398437,0.99182403,-0.011569528,0.12708752,0.12603356,-0.06739583,-0.989734,0.020015921,0.99765927,-0.06538665,0.9925061,-0.012096812,0.12159555,0.1204814,-0.06922771,-0.99029887,0.02039724,0.99752754,-0.06725147,0.112457275,10.001999,-0.6903229,0.19628914,9.783695,-0.641224,0.0067596436,-7.6293945E-5,0.007293701,2.6397705,-39.29901,-24.179077,0,0.0,0.0,0.0,0.0
2.116699219,0.9935412,-0.012540198,0.112777665,0.11169349,-0.067233026,-0.9914658,0.020015556,0.9976585,-0.06539811,0.99249274,-0.012086158,0.12170528,0.12059231,-0.06919105,-0.9902879,0.020389691,0.9975302,-0.067214124,0.17228699,10.013962,-0.64486694,0.19628556,9.783688,-0.6413364,0.0014190674,-0.004501343,0.0042266846,2.279663,-39.538574,-24.479675,0,0.0,0.0,0.0,0.0
2.125,0.9935268,-0.0126140015,0.112895526,0.111808464,-0.06712441,-0.99146014,0.020084325,0.99766487,-0.06527955,0.9925358,-0.012105047,0.12135187,0.12024002,-0.06911399,-0.9903362,0.020375177,0.99753535,-0.0671426,0.23210144,10.035492,-0.5659027,0.19695996,9.783751,-0.64017373,-0.0017852783,-0.008773804,5.645752E-4,2.279663,-39.538574,-24.479675,0,0.0,0.0,0.0,0.0
2.133300781,0.991641,-0.011661315,0.1284997,0.12744297,-0.067087986,-0.9895744,0.020160526,0.9976789,-0.06504104,0.9925763,-0.012126038,0.12101723,0.119906336,-0.06903498,-0.990382,0.020363834,0.99754053,-0.067068495,0.2416687,10.02713,-0.48454285,0.19770724,9.783888,-0.6378348,0.007217407,-0.010910034,0.00592041,2.6992798,-39.538574,-24.41864,0,0.0,0.0,0.0,0.0
2.141601562,0.99163175,-0.0117037855,0.12856746,0.12750936,-0.06701281,-0.989571,0.020197392,0.99768347,-0.06495968,0.9925582,-0.012116716,0.12116696,0.120057136,-0.06899629,-0.99036646,0.02036006,0.99754333,-0.06702813,0.20936584,10.015152,-0.5659027,0.19806875,9.783933,-0.6370369,0.007980347,-0.012893677,-5.0354004E-4,2.6992798,-39.538574,-24.41864,0,0.0,0.0,0.0,0.0
2.14989615,0.99163723,-0.011678972,0.12852788,0.1274727,-0.06695177,-0.98957986,0.02016244,0.9976878,-0.064903095,0.99252254,-0.012100244,0.121460095,0.12035234,-0.06891744,-0.9903361,0.020354029,0.997549,-0.06694582,0.17826843,10.035492,-0.56111145,0.197726,9.783976,-0.63648194,0.009674072,-0.024658203,-0.0037078857,2.6992798,-39.538574,-24.41864,0,0.0,0.0,0.0,0.0
2.158196931,0.9909857,-0.011290493,0.1334907,0.13244915,-0.067015,-0.98892176,0.020111294,0.9976881,-0.0649155,0.9924885,-0.01208352,0.12173973,0.120634034,-0.06883972,-0.9903073,0.020346927,0.99755454,-0.06686495,0.17826843,10.001999,-0.59939575,0.19722444,9.783978,-0.6366036,0.0107421875,-0.013809204,0.0025634766,2.8793335,-39.538574,-24.719238,0,0.0,0.0,0.0,0.0
2.166497712,0.99320954,-0.0124514615,0.115670286,0.11459431,-0.06681375,-0.9911629,0.020069795,0.99768776,-0.064933196,0.9924599,-0.012067443,0.12197466,0.12087028,-0.06880343,-0.9902809,0.020342436,0.9975572,-0.066826046,0.22372437,10.013962,-0.5922241,0.19681746,9.783975,-0.6367771,0.010437012,-0.0031280518,-0.0029449463,2.3986816,-39.419556,-24.839783,0,0.0,0.0,0.0,0.0
2.174798493,0.9932067,-0.01246606,0.115693174,0.11461626,-0.066810876,-0.9911606,0.020085433,0.99768776,-0.06492821,0.9924903,-0.012083549,0.121725306,0.120622024,-0.068725385,-0.99031675,0.02033216,0.9975624,-0.06675173,0.22372437,10.013962,-0.5922241,0.19697084,9.783976,-0.6367283,0.008590698,0.0016174316,-0.0037078857,2.3986816,-39.419556,-24.839783,0,0.0,0.0,0.0,0.0
2.183099275,0.992899,-0.012263567,0.11832685,0.11725862,-0.06676297,-0.9908548,0.020051265,0.9976935,-0.064850874,0.9925193,-0.012099427,0.12148659,0.12038432,-0.06864965,-0.9903509,0.020322692,0.9975675,-0.06667952,0.18902588,10.025925,-0.54556274,0.19663574,9.784031,-0.6359698,0.018066406,0.0036010742,-0.0041656494,2.519226,-39.179993,-25.19989,0,0.0,0.0,0.0,0.0
2.191400056,0.9928936,-0.012291413,0.1183696,0.11729931,-0.06677121,-0.9908494,0.020082619,0.9976926,-0.06485492,0.992527,-0.01210293,0.12142354,0.120321944,-0.06861172,-0.9903611,0.02031735,0.99757004,-0.06664274,0.23928833,10.018753,-0.5862427,0.19694322,9.784022,-0.6360095,0.007980347,0.005279541,-0.0066070557,2.519226,-39.179993,-25.19989,0,0.0,0.0,0.0,0.0
2.199700837,0.99290395,-0.012237993,0.118287586,0.11721976,-0.06682965,-0.9908548,0.020031191,0.9976893,-0.064920895,0.99254173,-0.012110816,0.12130292,0.120202556,-0.06853836,-0.99038064,0.02030822,0.997575,-0.06657143,0.18664551,10.019943,-0.6352997,0.1964389,9.78399,-0.6366565,0.005996704,0.005584717,-0.0023345947,2.519226,-39.179993,-25.19989,0,0.0,0.0,0.0,0.0
2.208001618,0.99272394,-0.012121359,0.119800195,0.11873586,-0.06687781,-0.9906709,0.020020254,0.9976875,-0.06495198,0.9925561,-0.012116179,0.12118387,0.12008476,-0.06847038,-0.99039966,0.020297365,0.9975796,-0.06650573,0.19621277,10.001999,-0.63290405,0.19633164,9.783973,-0.63696134,0.010437012,0.0061950684,0.0037841797,2.519226,-39.179993,-24.839783,0,0.0,0.0,0.0,0.0
2.2163024,0.99272287,-0.012127287,0.119809434,0.118743986,-0.06691309,-0.9906678,0.020030933,0.99768513,-0.06498611,0.99255955,-0.012116402,0.12115626,0.120057836,-0.06843846,-0.9904052,0.020291895,0.9975818,-0.06647457,0.20458984,10.011566,-0.6029968,0.19643635,9.783949,-0.6372961,0.005996704,0.004211426,-0.0012664795,2.519226,-39.179993,-24.839783,0,0.0,0.0,0.0,0.0
2.224603181,0.9944493,-0.013114349,0.10439711,0.10330358,-0.06669668,-0.9924112,0.019977763,0.99768704,-0.0649717,0.99256605,-0.012117053,0.12110266,0.12000555,-0.06837784,-0.99041563,0.02028166,0.9975859,-0.066415414,0.15911865,10.018753,-0.60658264,0.19591494,9.783968,-0.63715476,0.0012664795,-9.918213E-4,0.0042266846,2.0996094,-38.99994,-24.899292,0,0.0,0.0,0.0,0.0
2.232903962,0.9944552,-0.0130804,0.104344435,0.1032541,-0.066652946,-0.99241924,0.019936102,0.99769044,-0.064932756,0.9926065,-0.012137618,0.120768726,0.11967167,-0.0683446,-0.99045837,0.020275695,0.9975879,-0.06638677,0.15911865,10.018753,-0.60658264,0.19550638,9.784001,-0.6367728,0.0029449463,-0.005722046,0.0057678223,2.0996094,-38.99994,-24.899292,0,0.0,0.0,0.0,0.0
2.241204743,0.9957591,-0.013993516,0.09092705,0.08980969,-0.06640611,-0.9937425,0.019944066,0.99769455,-0.06486775,0.99268484,-0.012176049,0.12011899,0.119022116,-0.06827797,-0.9905413,0.020262359,0.99759203,-0.066329286,0.17228699,10.017548,-0.59939575,0.19558448,9.784041,-0.63613534,-5.645752E-4,-0.0060272217,0.0082092285,1.739502,-39.179993,-25.079346,0,0.0,0.0,0.0,0.0
2.249505525,0.995746,-0.014078624,0.09105909,0.08993744,-0.0663315,-0.9937361,0.02003052,0.9976983,-0.064783126,0.9928229,-0.012249943,0.11896497,0.11786716,-0.06820458,-0.99068433,0.020249782,0.99759614,-0.0662712,0.21296692,10.001999,-0.59820557,0.19643229,9.784078,-0.6353054,-7.171631E-4,-0.007247925,0.010955811,1.739502,-39.179993,-25.079346,0,0.0,0.0,0.0,0.0
2.257806306,0.9945978,-0.013449176,0.10292922,0.10182363,-0.066366345,-0.99258626,0.020180503,0.9977046,-0.06463837,0.99288905,-0.012287548,0.11840753,0.11730923,-0.068167605,-0.9907532,0.020245485,0.99759823,-0.06624143,0.25602722,10.022339,-0.5659027,0.19790314,9.784141,-0.63388586,-0.0068206787,-0.019165039,0.007446289,2.0385742,-38.879395,-24.778748,0,0.0,0.0,0.0,0.0
2.266107087,0.9965456,-0.015068773,0.08166759,0.08051192,-0.06577896,-0.9945807,0.020359123,0.9977204,-0.064338535,0.9929613,-0.012334898,0.11779551,0.11669679,-0.06809657,-0.9908303,0.020243263,0.99760246,-0.066177815,0.2907257,10.017548,-0.45822144,0.1996548,9.784295,-0.6309455,-0.0031585693,-0.024963379,0.0051574707,1.499939,-38.99994,-25.498962,0,0.0,0.0,0.0,0.0
2.274407868,0.9965289,-0.0151883755,0.08184954,0.08068902,-0.065622695,-0.9945767,0.02047719,0.9977289,-0.064169385,0.9931281,-0.012446692,0.116368085,0.11526683,-0.06800719,-0.99100375,0.020248586,0.9976072,-0.06610517,0.26560974,10.0247345,-0.5276184,0.20081265,9.784378,-0.6292867,0.0105896,-0.01335144,0.004699707,1.499939,-38.99994,-25.498962,0,0.0,0.0,0.0,0.0
2.28270865,0.99651617,-0.015279685,0.08198844,0.08082322,-0.06555322,-0.9945705,0.02057133,0.9977321,-0.06408989,0.99320793,-0.012503451,0.11567891,0.11457631,-0.067960866,-0.991087,0.020253647,0.9976096,-0.066066675,0.26560974,10.0247345,-0.5276184,0.20173584,9.7844095,-0.62850714,0.020355225,-0.005569458,-0.0011138916,1.499939,-38.99994,-25.498962,0,0.0,0.0,0.0,0.0
2.291009431,0.9962252,-0.015069781,0.08548849,0.0843273,-0.06567867,-0.9942712,0.02059822,0.99772704,-0.06415996,0.99336076,-0.01261708,0.11434704,0.1132417,-0.06786765,-0.99124694,0.020267105,0.99761456,-0.06598828,0.23808289,10.017548,-0.59103394,0.20199953,9.78436,-0.62919426,0.014862061,7.6293945E-5,-0.00340271,1.5594482,-39.179993,-25.079346,0,0.0,0.0,0.0,0.0
2.299310212,0.9962258,-0.015065154,0.0854813,0.084319375,-0.065729074,-0.99426836,0.020597417,0.9977237,-0.06421073,0.9934901,-0.01271721,0.11320624,0.11209844,-0.067782655,-0.99138254,0.02028104,0.99761903,-0.065915816,0.22492981,10.017548,-0.673584,0.20199166,9.7843275,-0.62969214,0.004928589,3.8146973E-4,-0.007369995,1.5594482,-39.179993,-25.079346,0,0.0,0.0,0.0,0.0
2.307610993,0.99587375,-0.014751136,0.08954306,0.088389866,-0.06589631,-0.9939039,0.020561766,0.9977174,-0.06432055,0.9935524,-0.012765638,0.11265254,0.111543536,-0.06774282,-0.99144787,0.020287866,0.9976211,-0.06588212,0.24526978,10.013962,-0.6807556,0.20164205,9.7842655,-0.63076913,0.004928589,-0.001449585,-0.009811401,1.6799927,-39.179993,-25.138855,0,0.0,0.0,0.0,0.0
2.315911775,0.99615985,-0.014931804,0.086271025,0.085112475,-0.06590632,-0.99418926,0.020530842,0.9977141,-0.064382344,0.99365467,-0.012846353,0.11173861,0.11062771,-0.067670904,-0.9915555,0.020299325,0.997625,-0.06582034,0.19979858,10.013962,-0.61735535,0.20133878,9.784233,-0.63137513,-0.005142212,-0.0020599365,-0.0056915283,1.5594482,-39.479065,-24.839783,0,0.0,0.0,0.0,0.0
2.324212556,0.9961702,-0.014862817,0.08616202,0.08500971,-0.06582971,-0.9942031,0.02044868,0.99772024,-0.06431412,0.99376625,-0.012930971,0.110731855,0.10961889,-0.06760236,-0.9916721,0.020309018,0.99762857,-0.06576346,0.10647583,10.0295105,-0.52163696,0.20053305,9.784293,-0.6307061,-0.00819397,-0.014266968,-0.0053863525,1.5594482,-39.479065,-24.839783,0,0.0,0.0,0.0,0.0
2.332513337,0.99619174,-0.014720353,0.085936956,0.08479958,-0.06556688,-0.99423826,0.02027016,0.99773955,-0.06406892,0.99382025,-0.012970527,0.110241055,0.10912718,-0.06756704,-0.9917288,0.020311905,0.9976304,-0.06573406,0.10647583,10.0295105,-0.52163696,0.19878237,9.784483,-0.6283015,-0.017211914,-0.01777649,-0.0011138916,1.5594482,-39.479065,-24.839783,0,0.0,0.0,0.0,0.0
2.340814118,0.99547696,-0.014165296,0.093940794,0.09282661,-0.06540146,-0.993532,0.020217543,0.9977585,-0.06379074,0.9939255,-0.013041959,0.1092796,0.10816467,-0.06748886,-0.9918395,0.020310685,0.99763477,-0.06566822,0.17108154,10.017548,-0.52163696,0.19826637,9.784669,-0.62557346,-0.00819397,-0.027862549,0.0045318604,1.739502,-39.29901,-24.35913,0,0.0,0.0,0.0,0.0
2.3491149,0.99547535,-0.014175153,0.09395659,0.092846625,-0.065160446,-0.9935459,0.02020592,0.99777406,-0.0635495,0.9939914,-0.013088135,0.10867292,0.10755791,-0.06740674,-0.99191105,0.020307552,0.9976397,-0.06559399,0.19023132,10.023529,-0.5623169,0.1981524,9.7848215,-0.62320775,-0.005142212,-0.024505615,0.0082092285,1.739502,-39.29901,-24.35913,0,0.0,0.0,0.0,0.0
2.357415681,0.9948852,-0.013861413,0.10005639,0.0989552,-0.06512765,-0.9929583,0.020280244,0.9977807,-0.06342288,0.9940232,-0.0131108435,0.10837878,0.1072638,-0.06736223,-0.991946,0.020305885,0.99764246,-0.0655533,0.22132874,10.033112,-0.5670929,0.19888124,9.784885,-0.62196594,4.5776367E-5,-0.019165039,0.0071411133,1.9195557,-39.35852,-24.539185,0,0.0,0.0,0.0,0.0
2.365716462,0.99394095,-0.013354121,0.10910137,0.1080145,-0.065142445,-0.9920128,0.02035459,0.99778664,-0.0633053,0.9940586,-0.013141936,0.10804929,0.106934786,-0.067273654,-0.99198747,0.020305507,0.997648,-0.065468624,0.21774292,10.035492,-0.5001068,0.19961034,9.784945,-0.62081295,-0.002243042,-0.0029754639,0.0069885254,2.1591187,-39.779663,-24.539185,0,0.0,0.0,0.0,0.0
2.374017243,0.99393123,-0.013405326,0.10918353,0.10809693,-0.06496242,-0.99201554,0.020391118,0.9977976,-0.0631191,0.994054,-0.013151117,0.10809076,0.106977254,-0.06718945,-0.9919886,0.020308316,0.99765354,-0.06538307,0.20100403,10.023529,-0.5084686,0.19996856,9.785052,-0.6189869,0.004470825,0.0101623535,-8.087158E-4,2.1591187,-39.779663,-24.539185,0,0.0,0.0,0.0,0.0
2.382318025,0.9939266,-0.013429871,0.10922292,0.10813653,-0.064873144,-0.99201715,0.020408295,0.99780315,-0.063026875,0.9940516,-0.0131566655,0.10811289,0.10699992,-0.0671451,-0.99198914,0.020310521,0.99765646,-0.06533793,0.20219421,10.017548,-0.5539398,0.20013702,9.785107,-0.6180825,0.0041656494,0.0048217773,0.0019378662,2.1591187,-39.779663,-24.539185,0,0.0,0.0,0.0,0.0
2.390618806,0.9946784,-0.01399133,0.102074884,0.10097029,-0.06470226,-0.9927833,0.020494832,0.9978065,-0.06294522,0.9940466,-0.013168405,0.10815704,0.107044995,-0.06705529,-0.9919904,0.020315433,0.99766237,-0.06524648,0.26081848,10.021133,-0.5288086,0.20098564,9.785139,-0.61728173,0.014251709,0.011688232,-0.0011138916,1.979065,-40.078735,-24.778748,0,0.0,0.0,0.0,0.0
2.398919587,0.99466455,-0.014068608,0.10219878,0.10108991,-0.06466296,-0.9927737,0.020575419,0.99780804,-0.06289575,0.9940596,-0.013185685,0.10803543,0.106923506,-0.067008264,-0.99200666,0.020319553,0.9976653,-0.065200344,0.26081848,10.021133,-0.5288086,0.20177594,9.785154,-0.6167966,0.010437012,0.022842407,-0.0015716553,1.979065,-40.078735,-24.778748,0,0.0,0.0,0.0,0.0
2.407220368,0.9942689,-0.013894811,0.10600228,0.10489862,-0.064589486,-0.99238324,0.020635609,0.99781513,-0.06276176,0.9940842,-0.013222276,0.10780446,0.10669248,-0.06691534,-0.9920379,0.02033077,0.99767107,-0.06510876,0.24765015,10.033112,-0.48335266,0.20236622,9.785225,-0.6154827,0.006454468,0.05154419,-3.5095215E-4,2.0385742,-39.959717,-24.35913,0,0.0,0.0,0.0,0.0
2.41552115,0.994257,-0.013958057,0.106105044,0.104998946,-0.06450651,-0.9923781,0.020696135,0.9978197,-0.06267046,0.99409163,-0.013250277,0.10773291,0.106621146,-0.06682311,-0.9920517,0.020344008,0.99767685,-0.06501553,0.15672302,10.000809,-0.6137543,0.20295976,9.785269,-0.6145873,0.029830933,0.042999268,0.0010223389,2.0385742,-39.959717,-24.35913,0,0.0,0.0,0.0,0.0
2.423821931,0.9947655,-0.014205268,0.10119195,0.10007761,-0.06460394,-0.99288005,0.020641526,0.9978099,-0.06284414,0.9940949,-0.013265161,0.107700616,0.106588915,-0.066776745,-0.9920584,0.02035171,0.99767977,-0.064968504,0.15672302,10.000809,-0.6137543,0.20242423,9.785172,-0.6162905,0.022949219,0.042999268,0.0010223389,1.9195557,-39.959717,-24.479675,0,0.0,0.0,0.0,0.0
2.432122712,0.99477065,-0.01417733,0.10114676,0.10002996,-0.064811766,-0.9928714,0.02063176,0.9977968,-0.063054666,0.9941222,-0.013303953,0.10744318,0.106331244,-0.06669093,-0.99209166,0.020364227,0.99768496,-0.06488431,0.19381714,10.005585,-0.62571716,0.20232847,9.785045,-0.6183551,0.015777588,0.020706177,0.0066833496,1.9195557,-39.959717,-24.479675,0,0.0,0.0,0.0,0.0
2.440423493,0.9953513,-0.014594267,0.09519892,0.094066575,-0.06484037,-0.9934522,0.020671438,0.99778897,-0.06316611,0.9941487,-0.013339842,0.10719375,0.1060815,-0.06661706,-0.99212337,0.020375703,0.9976894,-0.064812146,0.19381714,10.010376,-0.6388855,0.20271757,9.784967,-0.61944795,0.0029449463,0.0023651123,0.002243042,1.739502,-40.25879,-24.35913,0,0.0,0.0,0.0,0.0
2.448724275,0.99534893,-0.014607629,0.09522084,0.09408664,-0.06488683,-0.99344724,0.02069049,0.99778575,-0.063210666,0.9941741,-0.013365713,0.10695398,0.105841264,-0.066581905,-0.9921515,0.020382013,0.99769145,-0.06477936,0.19381714,10.010376,-0.6388855,0.20290437,9.784935,-0.61988485,-0.0046844482,-3.8146973E-4,0.0033111572,1.739502,-40.25879,-24.35913,0,0.0,0.0,0.0,0.0
2.457025056,0.9949002,-0.014372298,0.099834606,0.09870572,-0.06492235,-0.9929966,0.020753141,0.9977868,-0.06317263,0.9942233,-0.013416198,0.10648961,0.105375916,-0.06651497,-0.99220544,0.020394778,0.9976952,-0.06471699,0.22013855,10.0295105,-0.63409424,0.2035188,9.784946,-0.6195119,-0.007736206,-0.007095337,0.012176514,1.8585205,-40.13977,-24.299622,0,0.0,0.0,0.0,0.0
2.465325837,0.99610305,-0.015308856,0.08685774,0.08569984,-0.06466041,-0.9942205,0.020836636,0.99778986,-0.06309647,0.99425095,-0.013455155,0.10622591,0.10511151,-0.06645238,-0.9922377,0.020409675,0.99769884,-0.06465605,0.23330688,10.018753,-0.6029968,0.20433763,9.784977,-0.61876506,-0.016906738,-0.028167725,0.009429932,1.5594482,-40.13977,-24.958801,0,0.0,0.0,0.0,0.0
2.473626618,0.9960879,-0.01540714,0.087014854,0.08585339,-0.064520374,-0.9942165,0.020932263,0.9977974,-0.0629452,0.9942917,-0.01349333,0.10583907,0.10472369,-0.06641757,-0.9922811,0.020418748,0.9977007,-0.06462537,0.23330688,10.018753,-0.6029968,0.20527537,9.78505,-0.6172816,-0.018737793,-0.043289185,0.009124756,1.5594482,-40.13977,-24.958801,0,0.0,0.0,0.0,0.0
2.4819274,0.9960767,-0.015478864,0.0871295,0.08596981,-0.06421135,-0.9942264,0.0209842,0.9978163,-0.06262872,0.9943697,-0.013571164,0.10509424,0.103976876,-0.06634308,-0.9923646,0.020439817,0.99770457,-0.064558454,0.21774292,10.037888,-0.5001068,0.20578471,9.785235,-0.614178,-0.012481689,-0.042373657,0.0042266846,1.5594482,-40.13977,-24.958801,0,0.0,0.0,0.0,0.0
2.490228181,0.9956003,-0.015223631,0.092457786,0.091310374,-0.06391783,-0.9937691,0.021038473,0.99783903,-0.06224653,0.9944434,-0.01364921,0.10438396,0.10326466,-0.06625991,-0.9924445,0.020462554,0.99770904,-0.06448225,0.23449707,10.045074,-0.43669128,0.20631695,9.785459,-0.61042994,-0.012924194,-0.03060913,1.0681152E-4,1.6799927,-40.25879,-24.719238,0,0.0,0.0,0.0,0.0
2.498528962,0.9955896,-0.015287583,0.09256122,0.091417134,-0.06356323,-0.993782,0.021076016,0.9978607,-0.061885346,0.9944679,-0.013681969,0.104145914,0.10302596,-0.06621344,-0.9924724,0.020474834,0.99771166,-0.06443754,0.23449707,10.045074,-0.43669128,0.20668511,9.785671,-0.60688794,-0.011703491,-0.015792847,0.0013275146,1.6799927,-40.25879,-24.719238,0,0.0,0.0,0.0,0.0
2.506829743,0.9947706,-0.014878009,0.1010457,0.09991532,-0.063384466,-0.992975,0.021178216,0.99787825,-0.061566457,0.9945149,-0.013748524,0.10368779,0.1025666,-0.06610927,-0.9925269,0.020500503,0.9977177,-0.06433651,0.29431152,10.015152,-0.4175415,0.20768736,9.785843,-0.6037607,0.0035552979,5.340576E-4,-0.009353638,1.9195557,-39.538574,-24.719238,0,0.0,0.0,0.0,0.0
2.515130525,0.99531525,-0.015210219,0.09547984,0.09434345,-0.063175604,-0.99353325,0.02114385,0.9978865,-0.061444648,0.99452513,-0.013795677,0.10358326,0.10246149,-0.06600139,-0.99254495,0.020529468,0.9977242,-0.064226516,0.22612,10.013962,-0.48693848,0.20735034,9.785924,-0.6025662,0.020202637,0.0061950684,-0.007980347,1.739502,-39.839172,-24.479675,0,0.0,0.0,0.0,0.0
2.523431306,0.99532324,-0.01516263,0.09540295,0.094270945,-0.06311322,-0.993544,0.021085931,0.9978912,-0.061388664,0.9945416,-0.0138254855,0.10342114,0.1022989,-0.06594496,-0.9925654,0.0205428,0.99772745,-0.06417067,0.22612,10.013962,-0.48693848,0.20678234,9.78597,-0.60201716,0.015777588,0.0019226074,-0.00843811,1.739502,-39.839172,-24.479675,0,0.0,0.0,0.0,0.0
2.531732087,0.9953439,-0.01504091,0.09520633,0.09407939,-0.06324446,-0.9935537,0.020965226,0.99788463,-0.06153495,0.9945737,-0.013881404,0.10310392,0.10198106,-0.065833546,-0.9926056,0.020566454,0.99773407,-0.06406067,0.17347717,10.015152,-0.6388855,0.20559864,9.785906,-0.6034517,0.009063721,-0.0020599365,-0.008743286,1.739502,-39.839172,-24.479675,0,0.0,0.0,0.0,0.0
2.540032868,0.99365556,-0.013883832,0.11160644,0.11051391,-0.063584976,-0.9918386,0.020867009,0.9978798,-0.0616472,0.9945897,-0.013905774,0.10294615,0.10182309,-0.06578185,-0.9926252,0.020575209,0.9977371,-0.06401002,0.17347717,10.015152,-0.6388855,0.20463547,9.785859,-0.60455257,0.011505127,8.392334E-4,0.0010223389,2.1591187,-39.839172,-24.179077,0,0.0,0.0,0.0,0.0
2.54833365,0.99367136,-0.013803325,0.11147519,0.110385455,-0.06370083,-0.99184537,0.020791829,0.99787354,-0.061774008,0.99455416,-0.013905444,0.10328913,0.10216722,-0.06569474,-0.9925956,0.020588037,0.9977429,-0.0639163,0.14356995,10.017548,-0.65682983,0.20389819,9.785797,-0.6057961,0.008453369,-0.006942749,0.006072998,2.1591187,-39.839172,-24.179077,0,0.0,0.0,0.0,0.0
2.556634431,0.9942088,-0.0141465515,0.10653048,0.1054332,-0.063480034,-0.99239814,0.020801568,0.9978828,-0.06162089,0.99452055,-0.013901599,0.103613555,0.1024929,-0.06561495,-0.9925673,0.020596871,0.9977482,-0.06383061,0.17108154,10.02832,-0.48693848,0.20399371,9.785888,-0.60429454,-0.0011749268,-0.014419556,0.012939453,2.0385742,-39.718628,-24.299622,0,0.0,0.0,0.0,0.0
2.564935212,0.9942005,-0.014190972,0.10660238,0.10550568,-0.06331539,-0.992401,0.020832703,0.9978926,-0.06145096,0.99451435,-0.0139069,0.103671744,0.10255152,-0.06557213,-0.9925641,0.020601466,0.99775094,-0.063786246,0.17108154,10.02832,-0.48693848,0.20429903,9.785984,-0.60262805,0.00630188,-0.015640259,0.013397217,2.0385742,-39.718628,-24.299622,0,0.0,0.0,0.0,0.0
2.573235993,0.99386036,-0.014105743,0.109738566,0.10864538,-0.063127115,-0.99207413,0.02092142,0.9979058,-0.06120702,0.994502,-0.013919086,0.10378818,0.10266875,-0.06548272,-0.9925579,0.02061183,0.9977566,-0.06369365,0.20698547,10.02832,-0.4175415,0.20516905,9.786113,-0.6002358,0.0038604736,-0.021911621,0.010803223,2.1591187,-39.718628,-24.659729,0,0.0,0.0,0.0,0.0
2.581536775,0.9938319,-0.0142556485,0.10997751,0.10887721,-0.063009456,-0.99205625,0.021072026,0.9979111,-0.061068688,0.9944773,-0.013927415,0.104023695,0.10290523,-0.06538951,-0.9925395,0.020625567,0.9977626,-0.063595176,0.25004578,10.033112,-0.45942688,0.206646,9.786165,-0.5988793,0.027374268,0.002670288,0.010955811,2.1591187,-39.718628,-24.659729,0,0.0,0.0,0.0,0.0
2.589837556,0.99466425,-0.014892525,0.10208451,0.10096225,-0.062872715,-0.9929016,0.021205144,0.99791044,-0.061033662,0.99446476,-0.013934553,0.10414283,0.103024706,-0.06534189,-0.99253035,0.020635355,0.99776566,-0.0635446,0.25004578,10.033112,-0.45942688,0.20795143,9.786159,-0.5985358,0.03211975,0.005279541,7.171631E-4,1.979065,-40.13977,-25.138855,0,0.0,0.0,0.0,0.0
2.598138337,0.99464464,-0.015002672,0.10225884,0.10112572,-0.063052095,-0.9928736,0.021343391,0.9978975,-0.06119728,0.9944727,-0.013974469,0.1040616,0.10294308,-0.06524433,-0.9925451,0.02065972,0.99777144,-0.06344513,0.30389404,10.012772,-0.53479004,0.20930718,9.786032,-0.60014033,0.036087036,0.0022277832,-0.008132935,1.979065,-40.13977,-25.138855,0,0.0,0.0,0.0,0.0
2.606439118,0.9936114,-0.014274361,0.111950055,0.11083605,-0.063434,-0.99181235,0.021258922,0.997884,-0.06144662,0.9944796,-0.014016974,0.10398997,0.1028707,-0.06515795,-0.99255836,0.020688439,0.9977765,-0.06335632,0.27876282,10.005585,-0.57188416,0.2084788,9.785898,-0.60258543,0.029373169,0.008483887,-0.008132935,2.218628,-39.89868,-24.778748,0,0.0,0.0,0.0,0.0
2.6147399,0.993632,-0.014167446,0.11177976,0.110668324,-0.06363717,-0.99181795,0.021164872,0.99787253,-0.06166404,0.9944628,-0.014022457,0.104149014,0.10302976,-0.06512356,-0.99254405,0.02070046,0.99777865,-0.06331823,0.18664551,10.015152,-0.59461975,0.2075565,9.785787,-0.6047177,0.030899048,0.008331299,-0.004470825,2.218628,-39.89868,-24.778748,0,0.0,0.0,0.0,0.0
2.623040681,0.995469,-0.015179803,0.093867265,0.09272482,-0.063688666,-0.99365276,0.021061733,0.99785435,-0.061992552,0.994431,-0.014028629,0.10445154,0.10333258,-0.06506492,-0.99251646,0.020719778,0.9977824,-0.06325296,0.15672302,10.021133,-0.6771698,0.20654507,9.785609,-0.6079393,0.02998352,-0.0023651123,-0.0011138916,1.7990112,-40.078735,-25.559998,0,0.0,0.0,0.0,0.0
2.631341462,0.9954571,-0.01525272,0.09398077,0.09282909,-0.06390098,-0.99362934,0.021161016,0.9978396,-0.062194794,0.9944743,-0.014075318,0.104032755,0.102912724,-0.06501126,-0.9925636,0.020733949,0.9977853,-0.0632035,0.29193115,10.00679,-0.6149597,0.20751868,9.785464,-0.6099226,0.017150879,-0.0016021729,-0.010116577,1.7990112,-40.078735,-25.559998,0,0.0,0.0,0.0,0.0
2.639642243,0.99735874,-0.016795618,0.07066359,0.06946353,-0.06365773,-0.9955512,0.021219185,0.9978304,-0.062322915,0.9944949,-0.014099222,0.10383178,0.10271108,-0.064989045,-0.99258596,0.020742618,0.99778634,-0.06318313,0.29193115,10.00679,-0.6149597,0.20808913,9.785375,-0.61117905,0.007980347,0.0010070801,-0.010116577,1.1398315,-40.859985,-25.79956,0,0.0,0.0,0.0,0.0
2.647943025,0.9973624,-0.016768474,0.07062077,0.06942354,-0.06360746,-0.9955574,0.021185983,0.9978341,-0.06227555,0.9946295,-0.014207704,0.10252015,0.10139622,-0.064938754,-0.9927244,0.020761866,0.99778813,-0.06314939,0.24047852,10.023529,-0.5240326,0.20776352,9.78541,-0.61071455,0.011962891,0.0057373047,-0.004776001,1.1398315,-40.859985,-25.79956,0,0.0,0.0,0.0,0.0
2.656243806,0.9983316,-0.017613033,0.05498894,0.053771928,-0.06338636,-0.9965394,0.02103763,0.9978336,-0.062333513,0.9947572,-0.014310743,0.10125895,0.10013196,-0.06488811,-0.9928561,0.02077901,0.9977899,-0.06311495,0.13400269,10.016357,-0.604187,0.20630868,9.785405,-0.61128294,0.011962891,-0.004348755,-5.0354004E-4,0.71868896,-40.559387,-26.039124,0,0.0,0.0,0.0,0.0
2.664544587,0.9983425,-0.017506571,0.05482341,0.053612098,-0.06344558,-0.9965442,0.020924378,0.99783176,-0.062401865,0.99484974,-0.014377939,0.100335315,0.09920645,-0.06485985,-0.99295086,0.02078432,0.9977908,-0.06309942,0.13400269,10.016357,-0.604187,0.20519805,9.785387,-0.61195326,0.011810303,-0.004043579,0.003479004,0.71868896,-40.559387,-26.039124,0,0.0,0.0,0.0,0.0
2.672845368,0.99933815,-0.019029547,0.031001886,0.029745527,-0.0630884,-0.99756455,0.02093906,0.9978265,-0.06248061,0.9950278,-0.014503674,0.0985363,0.09740399,-0.06480637,-0.9931327,0.020789852,0.9977924,-0.06307142,0.19740295,10.018753,-0.624527,0.20534202,9.785336,-0.6127255,0.0066070557,0.006652832,0.0011749268,0.059509277,-40.859985,-26.998901,0,0.0,0.0,0.0,0.0
2.68114615,0.9993343,-0.019089192,0.031092148,0.029833224,-0.06302552,-0.9975659,0.021002324,0.9978293,-0.06241406,0.99528563,-0.01468607,0.09586868,0.09473126,-0.064745285,-0.99339515,0.020796118,0.99779373,-0.06304882,0.23449707,10.04866,-0.5407715,0.20596245,9.785363,-0.6120729,0.007522583,0.0049743652,0.0016326904,0.059509277,-40.859985,-26.998901,0,0.0,0.0,0.0,0.0
2.689446931,0.9990365,-0.01858648,0.039758515,0.038513694,-0.06311601,-0.99726284,0.021045003,0.99783313,-0.06233935,0.99540794,-0.014775727,0.09457621,0.093436226,-0.06471414,-0.9935199,0.020800399,0.99779445,-0.06303638,0.23449707,10.04866,-0.5407715,0.206381,9.7854,-0.6113402,0.0030975342,0.0063476563,0.003479004,0.29907227,-41.038513,-26.69983,0,0.0,0.0,0.0,0.0
2.697747712,0.9990363,-0.018587714,0.03976041,0.038517784,-0.06300805,-0.99726945,0.021042185,0.9978399,-0.062231377,0.9956091,-0.014929133,0.092410445,0.091266125,-0.064655244,-0.9937254,0.02081028,0.997796,-0.06300882,0.19142151,10.031906,-0.5240326,0.20635335,9.785467,-0.61028135,0.004470825,0.0023651123,1.0681152E-4,0.29907227,-41.038513,-26.69983,0,0.0,0.0,0.0,0.0
