Time,Rot1,Rot2,Rot3,Rot4,Rot5,Rot6,Rot7,Rot8,Rot9,FRot1,FRot2,FRot3,FRot4,FRot5,FRot6,FRot7,FRot8,FRot9,AccX,AccY,AccZ,GravX,GravY,GravZ,GyroX,GyroY,GyroZ,MagX,MagY,MagZ,Imid
0.0,0.0,0.0,0.0,0.0,0.0,0.0,0.0,0.0,0.0,1.0,0.0,0.0,0.0,1.0,0.0,0.0,0.0,1.0,9.961319,-0.090927124,0.3744812,9.798235,-0.066556625,0.40070367,0.0,0.0,0.0,0.0,0.0,0.0,0,0.0,0.0,0.0,0.0
0.008300781,0.0,0.0,0.0,0.0,0.0,0.0,0.0,0.0,0.0,1.0,0.0,0.0,0.0,1.0,0.0,0.0,0.0,1.0,10.009171,-0.04547119,0.38404846,9.798258,-0.0646295,0.40043086,0.04937744,0.004211426,-0.014083862,0.0,0.0,0.0,0,0.0,0.0,0.0,0.0
0.016601563,-6.645295E-4,0.98564786,0.16881317,-0.04134216,-0.16869594,0.9848007,0.9991448,-0.006324672,0.040860917,1.0,0.0,0.0,0.0,1.0,0.0,0.0,0.0,1.0,10.08934,0.025131226,0.40797424,9.798264,-0.06202385,0.40070873,0.03715515,0.008178711,-0.013320923,-47.579956,-2.1591187,12.419128,0,0.0,0.0,0.0,0.0
0.024902344,-8.789379E-4,0.985784,0.16801539,-0.041284617,-0.16790798,0.9849378,0.99914706,-0.0060707517,0.040845294,0.995797,0.068861514,-0.060386907,-0.06872005,0.9976262,0.0044188225,0.060547844,-2.5045846E-4,0.99816525,10.065414,0.029907227,0.36968994,9.7982855,-0.059533738,0.4005555,0.036849976,0.0063476563,-0.009963989,-47.579956,-2.1591187,12.419128,0,0.0,0.0,0.0,0.0
0.033203125,-0.0012092377,0.98530275,0.17081244,-0.04124362,-0.17071638,0.98445654,0.99914837,-0.005854483,0.040843897,0.9907488,0.10214934,-0.0893433,-0.10170338,0.99476904,0.009541652,0.08985061,-3.6686496E-4,0.99595517,10.065414,0.029907227,0.36968994,9.798299,-0.05741287,0.4005418,0.034713745,0.010772705,-0.0014190674,-47.45941,-2.1591187,12.11853,0,0.0,0.0,0.0,0.0
0.041503906,-0.0013596325,0.9854015,0.17024106,-0.041349843,-0.17015103,0.9845501,0.99914384,-0.005700815,0.04097754,0.975423,0.16649388,-0.14432535,-0.16461402,0.9860423,0.024955481,0.14646582,-5.841757E-4,0.98921555,9.981659,0.04307556,0.39242554,9.798254,-0.055905897,0.40185243,0.025543213,0.046966553,0.010345459,-47.45941,-2.1591187,12.11853,0,0.0,0.0,0.0,0.0
0.049804688,-0.0014176689,0.9855841,0.16918012,-0.041641377,-0.16909173,0.98472023,0.9991316,-0.0056488863,0.0412808,0.9540371,0.2276107,-0.1949528,-0.22284053,0.9737519,0.04636107,0.20038792,-7.867957E-4,0.9797163,9.940979,0.01914978,0.3912201,9.798135,-0.055396657,0.40482637,0.0066070557,0.045898438,0.0030059814,-47.579956,-2.1591187,12.179565,0,0.0,0.0,0.0,0.0
0.058105469,-0.001557959,0.9856751,0.1686482,-0.04195107,-0.16856436,0.98479754,0.99911845,-0.0055406983,0.04161274,0.94140285,0.25693062,-0.21851143,-0.25007015,0.9664294,0.058983482,0.22633053,-8.8403793E-4,0.9740501,10.015152,0.047851563,0.38883972,9.798005,-0.05433569,0.4080816,-0.0028533936,0.030929565,-0.0030975342,-47.579956,-2.1591187,12.179565,0,0.0,0.0,0.0,0.0
0.06640625,-0.0017311154,0.9859231,0.16719037,-0.042134885,-0.16711406,0.98503685,0.99911046,-0.0053393357,0.041831054,0.91286945,0.31310973,-0.26197654,-0.300651,0.9497164,0.08745168,0.27618536,-0.0010684425,0.96110374,10.167099,0.08135986,0.4247284,9.797927,-0.052360997,0.4102225,-0.014160156,-0.015487671,-0.0037078857,-47.639465,-2.1591187,12.239075,0,0.0,0.0,0.0,0.0
0.074707031,-0.0018996887,0.9860306,0.16655318,-0.042032894,-0.16648501,0.9851476,0.99911433,-0.0051292395,0.041761994,0.8972096,0.33995613,-0.2818595,-0.3239605,0.9404406,0.103058636,0.3001075,-0.0011538607,0.95390475,10.167099,0.08135986,0.4247284,9.797965,-0.050300658,0.40954527,-0.0027008057,-0.041610718,-0.0024871826,-47.639465,-2.1591187,12.239075,0,0.0,0.0,0.0,0.0
0.083007813,-0.0015865992,0.98766536,0.15657166,-0.04153437,-0.15650183,0.98680407,0.99913585,-0.0049374425,0.04127036,0.86363673,0.39122403,-0.31792364,-0.36664537,0.9202946,0.13648854,0.345981,-0.0013112864,0.93824065,10.009171,0.06341553,0.35891724,9.798176,-0.04841977,0.404724,0.025848389,-0.080093384,-0.0035552979,-47.81952,-1.979065,11.999512,0,0.0,0.0,0.0,0.0
0.091308594,-0.0016217072,0.9876869,0.15643531,-0.040736727,-0.15637091,0.986858,0.99916863,-0.0047722673,0.04048872,0.82786393,0.43898618,-0.34918827,-0.40384802,0.89849263,0.17209817,0.3892918,-0.0014548827,0.9211133,9.968506,0.033493042,0.30389404,9.798497,-0.046799958,0.39705873,0.029678345,-0.085739136,-0.012710571,-47.81952,-1.979065,11.999512,0,0.0,0.0,0.0,0.0
0.099609375,-0.0017673803,0.9873826,0.15834314,-0.03989335,-0.15828694,0.9865869,0.9992024,-0.0045731636,0.039669752,0.8093232,0.46172306,-0.36305344,-0.4205748,0.88702285,0.19054483,0.4100156,-0.0015212306,0.91207725,9.968506,0.033493042,0.30389404,9.798828,-0.044847414,0.3890274,0.01776123,-0.07765198,-0.013473511,-47.698975,-2.0385742,12.179565,0,0.0,0.0,0.0,0.0
0.107910156,-0.0017941148,0.9873989,0.15824115,-0.039155982,-0.15818942,0.9866321,0.99923146,-0.004425956,0.03894638,0.7712934,0.5050407,-0.3873503,-0.45046803,0.8630939,0.228358,0.44964978,-0.0016420875,0.8932034,9.937393,-0.010772705,0.3146515,9.799113,-0.0434038,0.3819335,0.0105896,-0.052139282,-0.003250122,-47.698975,-2.0385742,12.179565,0,0.0,0.0,0.0,0.0
0.116210938,-0.002036093,0.9862473,0.16526417,-0.038585126,-0.16521893,0.98550195,0.9992533,-0.0043701646,0.03839087,0.7325207,0.5454767,-0.40726984,-0.47572863,0.83812416,0.26688975,0.48692483,-0.0017523288,0.8734421,9.936203,-0.052642822,0.33738708,9.799328,-0.04285668,0.37648588,0.010894775,-0.038101196,-0.007217407,-47.999573,-2.0996094,11.938477,0,0.0,0.0,0.0,0.0
0.124511719,-0.0020188375,0.9862359,0.16533156,-0.038197316,-0.16528729,0.98550534,0.9992681,-0.004325647,0.03800526,0.71294314,0.56476957,-0.41562888,-0.48680928,0.8252467,0.28632954,0.50470656,-0.0018046857,0.8632891,9.936203,-0.052642822,0.33738708,9.799473,-0.042420104,0.37270427,-0.010025024,-0.01763916,-0.007980347,-47.999573,-2.0996094,11.938477,0,0.0,0.0,0.0,0.0
0.1328125,-0.0019022258,0.9864276,0.16418603,-0.03800225,-0.16413903,0.98570496,0.9992758,-0.004364404,0.03779869,0.67381537,0.6013318,-0.42938676,-0.50583506,0.7989972,0.32516828,0.53861284,-0.0019045159,0.8425513,9.944565,-0.100494385,0.2979126,9.799548,-0.042800184,0.37067854,-0.016448975,0.013824463,-5.0354004E-4,-47.938538,-2.0996094,12.059021,0,0.0,0.0,0.0,0.0
0.141113281,-0.0018773675,0.98641163,0.16428205,-0.03801123,-0.16423401,0.98568875,0.9992755,-0.004394063,0.037803046,0.63507056,0.63526434,-0.43945932,-0.5209115,0.77229214,0.36361524,0.57038283,-0.0020019277,0.8213765,9.939789,-0.08494568,0.3134613,9.799545,-0.043091036,0.37072125,-0.027740479,0.033981323,-0.0096588135,-47.938538,-2.0996094,12.059021,0,0.0,0.0,0.0,0.0
0.149414063,-0.0015247865,0.9879453,0.15479554,-0.038172673,-0.1547404,0.98721737,0.99926996,-0.0044036643,0.037948463,0.6159354,0.65130204,-0.44320336,-0.52708423,0.75881577,0.38259742,0.58549625,-0.0020497707,0.8106726,9.939789,-0.08494568,0.3134613,9.799491,-0.043185197,0.37214732,-0.028198242,0.04925537,-0.006454468,-47.81952,-2.0385742,12.539673,0,0.0,0.0,0.0,0.0
0.157714844,-0.0015337811,0.9879506,0.1547621,-0.038480017,-0.15470596,0.9872109,0.99925816,-0.004441082,0.03825364,0.5785178,0.68132144,-0.44846204,-0.5366809,0.73198116,0.4197347,0.61424,-0.0021429851,0.7891163,9.98764,-0.102890015,0.32901,9.799376,-0.043552138,0.37514004,-0.035995483,0.048339844,-0.00340271,-47.81952,-2.0385742,12.539673,0,0.0,0.0,0.0,0.0
0.166015625,-0.0011421477,0.9895282,0.14433537,-0.038847525,-0.14427042,0.98877543,0.99924445,-0.004477744,0.038605496,0.5421501,0.70911187,-0.45081437,-0.5432095,0.7050924,0.4558159,0.6410903,-0.00223399,0.76746225,10.113266,-0.08734131,0.37088013,9.799241,-0.04391167,0.37859058,-0.03477478,0.017486572,-0.0041656494,-48.11859,-1.9195557,12.779236,0,0.0,0.0,0.0,0.0
0.174316406,-0.0011353953,0.9895246,0.14436027,-0.03901845,-0.14429426,0.9887653,0.99923784,-0.004510074,0.03877354,0.52453256,0.72206616,-0.45109415,-0.54531115,0.6918202,0.47330812,0.65383583,-0.0022788653,0.756633,10.113266,-0.08734131,0.37088013,9.799176,-0.044228718,0.38023856,-0.03187561,-0.008773804,-0.008743286,-48.11859,-1.9195557,12.779236,0,0.0,0.0,0.0,0.0
0.182617188,-0.0012378772,0.98875266,0.14955498,-0.038891923,-0.14948954,0.9879981,0.9992426,-0.0045934613,0.03863954,0.49027914,0.7464909,-0.4498641,-0.54762334,0.66539145,0.50730956,0.67803764,-0.0023672213,0.7350233,10.083359,-0.14117432,0.3756714,9.799223,-0.045046467,0.3789245,0.0053863525,-0.04801941,-0.007522583,-48.059082,-2.0385742,13.079834,0,0.0,0.0,0.0,0.0
0.190917969,-0.0011318249,0.9886952,0.14993569,-0.038524225,-0.1498676,0.9879554,0.999257,-0.004657963,0.038258333,0.45730284,0.76917166,-0.44637325,-0.5477364,0.6390375,0.5400147,0.7006132,-0.0024553803,0.713537,10.04985,-0.12921143,0.3672943,9.799364,-0.045679014,0.3751861,0.028289795,-0.048477173,0.007904053,-48.059082,-2.0385742,13.079834,0,0.0,0.0,0.0,0.0
0.19921875,-8.1913837E-4,0.9891855,0.14666808,-0.03812811,-0.14659236,0.9884619,0.99927247,-0.004782489,0.037835848,0.4413565,0.77984446,-0.4438998,-0.5470109,0.62596834,0.5558261,0.71132517,-0.002499432,0.7028586,10.04985,-0.12921143,0.3672943,9.799516,-0.046900198,0.37104294,0.030441284,-0.043441772,0.011260986,-47.938538,-1.979065,13.079834,0,0.0,0.0,0.0,0.0
0.207519531,-5.715319E-4,0.98905355,0.14755562,-0.037789907,-0.1474716,0.988344,0.9992855,-0.0050112433,0.037460532,0.41066235,0.7998392,-0.43773693,-0.54409236,0.6002087,0.5862704,0.7316556,-0.0025898414,0.6816696,10.084549,-0.14955139,0.37088013,9.7996435,-0.04914351,0.36736232,0.04219055,-0.035339355,0.028823853,-47.938538,-1.979065,13.079834,0,0.0,0.0,0.0,0.0
0.215820313,-7.43907E-4,0.98695123,0.1610175,-0.03763395,-0.16093113,0.9862479,0.99929136,-0.0053260494,0.037262596,0.3814802,0.8182619,-0.43002352,-0.53951573,0.57483923,0.6152094,0.7505968,-0.002685729,0.660755,10.085754,-0.15434265,0.45703125,9.799701,-0.052230705,0.36542127,0.057617188,-0.022521973,0.03126526,-47.639465,-2.218628,13.378906,0,0.0,0.0,0.0,0.0
0.224121094,-4.031036E-4,0.986758,0.162199,-0.037573557,-0.16209944,0.98605883,0.9992938,-0.0056969095,0.037141353,0.35356003,0.8354947,-0.42064708,-0.5336824,0.54949147,0.64283913,0.7682307,-0.0027902862,0.640167,10.0247345,-0.17826843,0.45703125,9.799725,-0.055867597,0.36423224,0.0574646,-0.007247925,0.035842896,-47.639465,-2.218628,13.378906,0,0.0,0.0,0.0,0.0
0.232421875,1.4317916E-4,0.98714644,0.15981841,-0.03760338,-0.15970007,0.9864492,0.99929273,-0.006150951,0.037097175,0.34017655,0.8435844,-0.41550615,-0.53028184,0.5369891,0.6560822,0.77658296,-0.002848419,0.6300086,9.978073,-0.20219421,0.42712402,9.799714,-0.06032023,0.363799,0.050598145,0.0019226074,0.033706665,-47.698975,-2.1591187,13.378906,0,0.0,0.0,0.0,0.0
0.240722656,5.244213E-4,0.9869309,0.16114286,-0.03777462,-0.16100833,0.9862299,0.9992862,-0.006604311,0.037196506,0.3272125,0.8513053,-0.41013578,-0.5265688,0.5246627,0.6689204,0.78463835,-0.0029144702,0.6199469,9.978073,-0.20219421,0.42712402,9.79965,-0.06476617,0.36477312,0.044631958,0.019622803,0.030807495,-47.698975,-2.1591187,13.378906,0,0.0,0.0,0.0,0.0
0.249023438,0.0012642042,0.9888708,0.14877175,-0.037993193,-0.14861695,0.9881648,0.99927723,-0.0069015548,0.037382472,0.3024201,0.86579794,-0.3986678,-0.5183745,0.5003844,0.6934719,0.7998937,-0.003060589,0.6001339,9.94577,-0.112457275,0.38285828,9.799562,-0.067681134,0.36659682,0.033187866,0.031845093,0.024246216,-47.579956,-1.979065,13.55896,0,0.0,0.0,0.0,0.0
0.257324219,0.0014062392,0.988797,0.1492594,-0.03821409,-0.1490974,0.9880837,0.9992686,-0.0070932955,0.037576318,0.27939686,0.87882835,-0.3867792,-0.50914407,0.47712725,0.7163253,0.8140698,-0.0032126922,0.5807581,9.992432,-0.08375549,0.35533142,9.799478,-0.06956147,0.3684978,0.027069092,0.020233154,0.0027008057,-47.579956,-1.979065,13.55896,0,0.0,0.0,0.0,0.0
0.265625,6.9615815E-4,0.98563176,0.16890728,-0.038379557,-0.16875654,0.98491037,0.999263,-0.0071682404,0.037710626,0.26842847,0.88492876,-0.38058794,-0.50425607,0.4657147,0.7272109,0.8207752,-0.0032903051,0.5712418,9.992432,-0.08375549,0.35533142,9.799423,-0.07029643,0.36981493,0.024932861,0.009857178,-0.0040130615,-47.758484,-2.279663,13.499451,0,0.0,0.0,0.0,0.0
0.273925781,5.878016E-4,0.98569554,0.16853474,-0.038401388,-0.1683882,0.9849724,0.99926215,-0.0070509356,0.037753098,0.24716355,0.8966918,-0.36722472,-0.49421236,0.44264203,0.74821264,0.8334652,-0.0034438726,0.55256116,10.035492,-0.037094116,0.3744812,9.799415,-0.06914606,0.37023142,0.029220581,-0.013809204,-0.022949219,-47.758484,-2.279663,13.499451,0,0.0,0.0,0.0,0.0
0.282226563,6.220766E-5,0.984481,0.17549111,-0.03829114,-0.17536007,0.9837594,0.9992666,-0.006780952,0.037685994,0.22729939,0.9074166,-0.35345444,-0.48361593,0.42021686,0.76781076,0.8452518,-0.003586713,0.5343562,10.054642,-0.007171631,0.38404846,9.7994585,-0.06649843,0.36957335,0.04447937,-0.018859863,-0.032562256,-47.698975,-2.3391724,13.139343,0,0.0,0.0,0.0,0.0
0.290527344,-2.1742449E-4,0.98465586,0.17450711,-0.03809234,-0.17438862,0.9839398,0.9992742,-0.0064334525,0.037545767,0.21780041,0.9124751,-0.3463411,-0.47818086,0.40911594,0.77715325,0.8508267,-0.003650598,0.5254337,10.054642,-0.007171631,0.38404846,9.799532,-0.063090615,0.3681982,0.046020508,-0.02633667,-0.034866333,-47.698975,-2.3391724,13.139343,0,0.0,0.0,0.0,0.0
0.298828125,2.2503764E-4,0.9878351,0.15550455,-0.037837848,-0.15538478,0.98712903,0.99928385,-0.006106099,0.03734259,0.19978957,0.92188734,-0.33197558,-0.46702495,0.3874397,0.7948447,0.8613778,-0.0037608,0.50795084,10.013962,-0.032302856,0.40678406,9.799627,-0.05988038,0.36620572,0.066467285,-0.047409058,-0.030883789,-47.579956,-2.0385742,13.018799,0,0.0,0.0,0.0,0.0
0.307128906,1.0724514E-4,0.9879013,0.1550844,-0.037419003,-0.15497181,0.98721,0.9992996,-0.005908977,0.036949653,0.18336833,0.9301625,-0.31807837,-0.45544094,0.36712793,0.81104296,0.87117714,-0.0038536743,0.49095368,9.942184,-0.117248535,0.33738708,9.799782,-0.057947267,0.36235234,0.07106018,-0.042526245,-0.031036377,-47.579956,-2.0385742,13.018799,0,0.0,0.0,0.0,0.0
0.315429688,4.0007118E-4,0.989571,0.14404501,-0.03699852,-0.14393176,0.98889565,0.99931526,-0.0057250815,0.036555085,0.17559479,0.9340124,-0.31110644,-0.44957435,0.35721925,0.8187046,0.87581354,-0.0038947805,0.4826339,9.942184,-0.117248535,0.33738708,9.799934,-0.05614387,0.3584829,0.06448364,-0.036727905,-0.025238037,-47.51892,-1.8585205,12.89978,0,0.0,0.0,0.0,0.0
0.323730469,3.56493E-4,0.989594,0.14388777,-0.036709134,-0.14377786,0.98892903,0.999326,-0.0056345426,0.03627588,0.1610693,0.941032,-0.29751557,-0.4376719,0.33829442,0.83306676,0.88459027,-0.0039672605,0.4663521,9.936203,-0.14117432,0.37806702,9.80004,-0.055255987,0.35574487,0.059295654,-0.027557373,-0.0096588135,-47.51892,-1.8585205,12.89978,0,0.0,0.0,0.0,0.0
0.33203125,0.0011232711,0.9922686,0.124103166,-0.036504276,-0.12397984,0.991613,0.99933285,-0.0056441473,0.03608279,0.147589,0.94741064,-0.2839552,-0.42571518,0.319995,0.8463863,0.8927397,-0.004033285,0.45055485,9.934998,-0.15553284,0.39601135,9.800108,-0.055350177,0.3538513,0.045547485,-0.020080566,-0.013168335,-47.639465,-1.5594482,12.89978,0,0.0,0.0,0.0,0.0
0.340332031,0.0011557767,0.99225396,0.124221444,-0.036369875,-0.12409763,0.9916034,0.99933773,-0.005663989,0.035944715,0.14138995,0.95025223,-0.27754197,-0.41967887,0.31145486,0.8525641,0.8965927,-0.004065502,0.44283736,9.934998,-0.15553284,0.39601135,9.800156,-0.05554476,0.35249725,0.03425598,-0.020996094,-0.01928711,-47.639465,-1.5594482,12.89978,0,0.0,0.0,0.0,0.0
0.348632813,8.6712063E-4,0.9913413,0.13130811,-0.03628379,-0.1311905,0.99069303,0.99934113,-0.0056234063,0.03585586,0.12967637,0.95554763,-0.26478806,-0.40765548,0.2948078,0.8642369,0.90388113,-0.004128803,0.42776385,9.948166,-0.13639832,0.4019928,9.800189,-0.055146776,0.35162586,0.038528442,-0.012283325,-0.020050049,-47.999573,-1.6189575,12.539673,0,0.0,0.0,0.0,0.0
0.356933594,7.517695E-4,0.99139875,0.130874,-0.036149148,-0.13076155,0.9907546,0.99934614,-0.0054758023,0.035739914,0.11871791,0.96043783,-0.25192323,-0.3957702,0.27846313,0.8751139,0.91064376,-0.00418799,0.4131712,9.92543,-0.0657959,0.35055542,9.800239,-0.05369928,0.35048887,0.046325684,-0.005264282,-0.013015747,-47.999573,-1.6189575,12.539673,0,0.0,0.0,0.0,0.0
0.365234375,3.968215E-4,0.9904993,0.13751686,-0.036073968,-0.13741317,0.98985666,0.999349,-0.005353574,0.035676714,0.113551915,0.9627068,-0.24556378,-0.3898744,0.27051404,0.8802386,0.9138402,-0.004213746,0.40605214,9.92543,-0.0657959,0.35055542,9.800266,-0.05250063,0.34986904,0.044784546,-0.0012969971,-0.01210022,-47.999573,-1.6799927,12.239075,0,0.0,0.0,0.0,0.0
0.373535156,2.9730366E-4,0.9905525,0.13713385,-0.036020074,-0.13703427,0.98991126,0.9993511,-0.0052338755,0.035639033,0.10370643,0.9669896,-0.23275779,-0.378229,0.25478044,0.8899605,0.9198847,-0.004258883,0.39216587,9.876373,-0.033493042,0.34934998,9.800286,-0.051326785,0.34949952,0.04937744,0.0017547607,0.0011749268,-47.999573,-1.6799927,12.239075,0,0.0,0.0,0.0,0.0
0.381835938,-0.0010608973,0.98546535,0.16987297,-0.035983384,-0.16980067,0.98482126,0.99935186,-0.0050678113,0.035640523,0.094617896,0.9708571,-0.22019081,-0.3667595,0.23962067,0.8989268,0.92549175,-0.004297493,0.37874347,9.833298,0.055038452,0.35533142,9.800294,-0.049698252,0.34951416,0.027374268,0.0029754639,0.007293701,-48.239136,-2.0996094,11.878967,0,0.0,0.0,0.0,0.0
0.390136719,-0.0011588817,0.9855317,0.1694868,-0.03597917,-0.16941828,0.9848872,0.99935186,-0.0049566273,0.035654955,0.090098545,0.9728013,-0.21340068,-0.36116004,0.23160094,0.9032854,0.92814094,-0.0043128994,0.3722039,9.833298,0.055038452,0.35533142,9.800294,-0.048607912,0.34965566,0.024932861,-0.010147095,0.002243042,-48.239136,-2.0996094,11.878967,0,0.0,0.0,0.0,0.0
0.3984375,-0.0011275938,0.98633814,0.1647296,-0.035888035,-0.16466351,0.98569673,0.9993552,-0.004800356,0.03558341,0.081601866,0.9763815,-0.20005082,-0.3501048,0.21601011,0.9114638,0.9331494,-0.004338391,0.35946268,9.885941,0.07058716,0.36849976,9.800326,-0.04707541,0.34895405,0.0053863525,-0.041305542,-0.00340271,-48.35968,-1.979065,11.51886,0,0.0,0.0,0.0,0.0
0.406738281,-0.0012955772,0.98645216,0.16404393,-0.035740785,-0.16398494,0.98581505,0.9993602,-0.00458586,0.035469033,0.07384226,0.9795463,-0.18717997,-0.3392437,0.20117168,0.91893613,0.9377958,-0.004356684,0.34715992,10.02713,0.086135864,0.46780396,9.800376,-0.044971924,0.34783238,0.0070648193,-0.06542969,-0.011947632,-48.35968,-1.979065,11.51886,0,0.0,0.0,0.0,0.0
0.415039063,-0.0018611908,0.9847357,0.17404649,-0.03538937,-0.17400263,0.98410916,0.9993719,-0.004327781,0.03517303,0.07019969,0.98099756,-0.18087476,-0.33389658,0.19397075,0.9224361,0.9399921,-0.0043612677,0.34116843,10.02713,0.086135864,0.46780396,9.80049,-0.042441033,0.3449296,0.019439697,-0.07597351,-0.018676758,-48.35968,-2.1591187,11.698914,0,0.0,0.0,0.0,0.0
0.423339844,-0.0020293987,0.98485416,0.17337301,-0.034824714,-0.1733378,0.9842465,0.9993913,-0.0040402366,0.034649037,0.063218564,0.9837351,-0.16813341,-0.32340008,0.17957288,0.9290673,0.94414824,-0.0043599415,0.32949233,10.000809,0.06939697,0.4008026,9.800681,-0.03962119,0.33979097,0.02355957,-0.07963562,-0.016525269,-48.35968,-2.1591187,11.698914,0,0.0,0.0,0.0,0.0
0.431640625,-0.0028648302,0.9811416,0.19326869,-0.034179173,-0.19325264,0.9805535,0.99941164,-0.0037966445,0.034088247,0.056804053,0.9861607,-0.15575723,-0.31313023,0.16573508,0.9351371,0.94800985,-0.0043472815,0.31821114,9.994827,0.03111267,0.40318298,9.80088,-0.037232365,0.33429152,0.021728516,-0.064208984,-0.011947632,-48.41919,-2.3986816,11.459351,0,0.0,0.0,0.0,0.0
0.439941406,-0.0029798367,0.9812332,0.19280191,-0.03366664,-0.19279191,0.980662,0.9994287,-0.00356878,0.033609312,0.053667206,0.9873316,-0.1493188,-0.3081032,0.15861107,0.9380378,0.949838,-0.0043362686,0.31271222,9.994827,0.03111267,0.40318298,9.801047,-0.034997776,0.32959476,0.012878418,-0.043441772,-0.020202637,-48.41919,-2.3986816,11.459351,0,0.0,0.0,0.0,0.0
0.448242188,-0.0033212097,0.9797128,0.20037903,-0.03326871,-0.20037746,0.9791537,0.9994409,-0.0034143776,0.03325928,0.047785915,0.9894541,-0.1367373,-0.2982205,0.14478274,0.9434525,0.95330006,-0.004305876,0.30199406,9.957733,0.0,0.36131287,9.8011675,-0.033483606,0.32616213,0.012420654,-0.014724731,0.0011749268,-48.658752,-2.4597168,11.219788,0,0.0,0.0,0.0,0.0
0.456542969,-0.003235356,0.9796401,0.20073543,-0.033114627,-0.20073135,0.9790864,0.9994463,-0.0034795855,0.033089854,0.04230662,0.9913505,-0.12423519,-0.28859764,0.13117163,0.94842255,0.9565153,-0.004270573,0.29165083,9.919449,-0.09690857,0.3397827,9.801221,-0.03412308,0.32450065,-0.0013275146,-0.00541687,0.008361816,-48.658752,-2.4597168,11.219788,0,0.0,0.0,0.0,0.0
0.46484375,-0.00399145,0.973801,0.22736704,-0.032999694,-0.22737327,0.9732484,0.99944735,-0.0036183698,0.03304268,0.03974443,0.9922038,-0.11811871,-0.28388122,0.12455339,0.9507354,0.95803535,-0.0042547532,0.28661832,9.919449,-0.09690857,0.3397827,9.80123,-0.035484087,0.324038,-0.0043792725,-0.004196167,0.00592041,-48.838806,-2.8198242,11.219788,0,0.0,0.0,0.0,0.0
0.473144531,-0.0038003807,0.97361785,0.22815272,-0.03287613,-0.22815268,0.97307,0.9994522,-0.0038027435,0.032875862,0.034663305,0.9938535,-0.10513629,-0.27468264,0.1106223,0.9551503,0.96090996,-0.0042295526,0.27682886,9.918243,-0.12083435,0.2368927,9.801278,-0.037292175,0.3224021,-0.011398315,-0.004196167,0.019348145,-48.838806,-2.8198242,11.219788,0,0.0,0.0,0.0,0.0
0.481445313,-0.0031248515,0.9767134,0.21452531,-0.032834705,-0.21451089,0.9761695,0.99945587,-0.0039934907,0.03274041,0.030028643,0.9952569,-0.092531346,-0.2657354,0.097190656,0.95913434,0.96357816,-0.004212651,0.26739344,9.915863,-0.08375549,0.24287415,9.801314,-0.039162766,0.32107377,-0.027740479,0.008636475,0.022262573,-48.719788,-2.6992798,11.579895,0,0.0,0.0,0.0,0.0
0.489746094,-0.0028991667,0.97651535,0.21542867,-0.0328191,-0.21540643,0.9759729,0.99945706,-0.004240666,0.03267285,0.027945459,0.99584675,-0.0866502,-0.2613488,0.09094777,0.9609502,0.96483976,-0.0042082677,0.26280496,9.915863,-0.08375549,0.24287415,9.801326,-0.04158673,0.3204112,-0.033096313,0.025283813,0.018127441,-48.719788,-2.6992798,11.579895,0,0.0,0.0,0.0,0.0
0.498046875,-0.0026909928,0.97666806,0.2147377,-0.032964367,-0.2147084,0.9761217,0.9994529,-0.004451955,0.03277302,0.024062125,0.9968825,-0.07514156,-0.25277418,0.07878781,0.9643121,0.967226,-0.004209551,0.25388193,9.88475,-0.0657959,0.27397156,9.801285,-0.043658767,0.32139355,-0.03263855,0.035354614,0.016601563,-48.599243,-2.758789,11.938477,0,0.0,0.0,0.0,0.0
0.506347656,-0.0026599718,0.9766417,0.21485789,-0.033233102,-0.21482632,0.97608674,0.9994441,-0.004544032,0.033028267,0.020547157,0.99773556,-0.0640436,-0.24447009,0.0671265,0.9673306,0.96943915,-0.00421915,0.24529576,9.938583,-0.0023956299,0.31944275,9.801199,-0.044561733,0.32389668,-0.024383545,0.02696228,0.012786865,-48.599243,-2.758789,11.938477,0,0.0,0.0,0.0,0.0
0.514648438,-0.0017242645,0.98220056,0.18782763,-0.033534218,-0.18777907,0.9816387,0.9994361,-0.0046060476,0.033261105,0.01891432,0.9981003,-0.058634274,-0.24042311,0.061464407,0.9687202,0.97048384,-0.004225648,0.24112895,9.938583,-0.0023956299,0.31944275,9.80112,-0.045169897,0.32618,-0.015075684,0.010620117,0.013549805,-48.298645,-2.4597168,12.419128,0,0.0,0.0,0.0,0.0
0.522949219,-0.0017285639,0.9822036,0.18781152,-0.033640053,-0.18776263,0.98163825,0.99943256,-0.004621165,0.03336594,0.01613523,0.9986606,-0.049158078,-0.23251943,0.051564313,0.9712239,0.9724579,-0.004240712,0.23304002,10.0247345,0.015548706,0.3254242,9.801085,-0.04531815,0.3272081,-0.007736206,-0.007858276,-4.5776367E-5,-48.298645,-2.4597168,12.419128,0,0.0,0.0,0.0,0.0
0.53125,-9.965465E-4,0.986017,0.1666419,-0.03362071,-0.16658081,0.98545444,0.9994341,-0.004620569,0.033316597,0.013615611,0.99910635,-0.040014047,-0.22488856,0.042052314,0.9734766,0.97428936,-0.0042557777,0.22526015,10.047455,-0.011962891,0.31225586,9.801101,-0.0453123,0.32672423,0.0040130615,-0.021759033,-0.0026397705,-48.298645,-2.218628,12.838745,0,0.0,0.0,0.0,0.0
0.539550781,-0.0010236765,0.98603374,0.16654274,-0.03347291,-0.16648328,0.98547596,0.99943906,-0.004565862,0.033175845,0.012541203,0.9992737,-0.03598352,-0.22116616,0.037867162,0.9745007,0.97515553,-0.004263073,0.22148041,10.047455,-0.011962891,0.31225586,9.801149,-0.04477581,0.3253439,0.003250122,-0.021759033,-0.0026397705,-48.298645,-2.218628,12.838745,0,0.0,0.0,0.0,0.0
0.547851563,-8.18237E-4,0.9872589,0.15912028,-0.033272587,-0.1590591,0.9867082,0.999446,-0.004486982,0.032978803,0.011517874,0.9994206,-0.032027725,-0.21750726,0.033767007,0.9754745,0.9759908,-0.004269129,0.21777017,9.980469,-0.08375549,0.3409729,9.801217,-0.04400226,0.32341158,0.003250122,-0.021759033,-0.007522583,-48.179626,-2.0996094,12.779236,0,0.0,0.0,0.0,0.0
0.556152344,-7.059404E-4,0.98719233,0.15953274,-0.03317524,-0.15946808,0.9866454,0.99944925,-0.0045960248,0.032862924,0.0096775815,0.99964994,-0.024622068,-0.21037522,0.026107518,0.97727203,0.97757274,-0.0042777564,0.21055424,9.964905,-0.14596558,0.34336853,9.8012495,-0.045071606,0.3222752,-0.015075684,-0.0037384033,-0.0014190674,-48.179626,-2.0996094,12.779236,0,0.0,0.0,0.0,0.0
0.564453125,-1.6130187E-4,0.9890956,0.14727479,-0.033162948,-0.14719908,0.98855084,0.99944997,-0.0047246106,0.032825068,0.008014102,0.99981534,-0.01746771,-0.20349638,0.018733382,0.9788965,0.9790429,-0.0042903596,0.20360895,9.964905,-0.14596558,0.34336853,9.801256,-0.046332605,0.32190394,-0.023925781,-3.8146973E-4,0.0027008057,-48.35968,-1.9195557,12.838745,0,0.0,0.0,0.0,0.0
0.572753906,1.9175333E-5,0.9889964,0.14793977,-0.033149064,-0.14785784,0.988453,0.99945045,-0.004923019,0.03278147,0.0072960425,0.9998721,-0.014231814,-0.20014891,0.015404383,0.9796443,0.9797383,-0.0042990446,0.20023571,9.982849,-0.1878357,0.3146515,9.801261,-0.048278324,0.32147643,-0.020568848,-0.00541687,-0.002029419,-48.35968,-1.9195557,12.838745,0,0.0,0.0,0.0,0.0
0.581054688,1.6188137E-4,0.9889176,0.14846551,-0.033061195,-0.14837906,0.98837775,0.99945325,-0.005068447,0.032670777,0.0059690042,0.9999509,-0.007911844,-0.19363797,0.0089180395,0.98103255,0.9810549,-0.004323754,0.19368169,10.02832,-0.15911865,0.2871399,9.801289,-0.04970449,0.32039088,-0.024230957,-0.008926392,-0.0055389404,-48.35968,-1.9195557,12.838745,0,0.0,0.0,0.0,0.0
0.589355469,7.1004964E-4,0.9907588,0.1356341,-0.0330497,-0.13553677,0.990221,0.9994535,-0.0051857713,0.032648038,0.0047759293,0.99998695,-0.0018044425,-0.1873646,0.002667355,0.9822868,0.9822788,-0.004353244,0.18737489,9.98645,-0.13877869,0.3529358,9.8012905,-0.050855044,0.3201679,-0.009719849,0.0048217773,0.0011749268,-48.298645,-1.739502,12.95929,0,0.0,0.0,0.0,0.0
0.59765625,7.9317926E-4,0.99064904,0.13643302,-0.03314726,-0.13633205,0.99010855,0.99945015,-0.0053077135,0.03272916,0.0042756614,0.99999046,9.087008E-4,-0.18431468,-1.05066094E-4,0.9828673,0.982858,-0.0043698945,0.18431248,9.927826,-0.1268158,0.38046265,9.801258,-0.052050892,0.32096344,0.0030975342,0.006500244,0.0043945313,-48.179626,-1.6799927,12.478638,0,0.0,0.0,0.0,0.0
0.605957031,8.298587E-4,0.9906298,0.13657205,-0.033439003,-0.13646823,0.99007994,0.99944043,-0.005388459,0.033012424,0.0033523068,0.9999751,0.0062141484,-0.17839104,-0.0055164914,0.9839442,0.98395395,-0.0044070315,0.1783681,9.962524,-0.08734131,0.49172974,9.801163,-0.052842736,0.3237413,0.014404297,0.0057373047,0.0023956299,-48.179626,-1.6799927,12.478638,0,0.0,0.0,0.0,0.0
0.614257813,0.0010498851,0.9913698,0.13109133,-0.03369473,-0.13098188,0.99081194,0.99943155,-0.0054573254,0.033266418,0.0025280607,0.99993265,0.011325634,-0.17270288,-0.010718913,0.9849156,0.9849707,-0.004445896,0.17266415,9.962524,-0.08734131,0.49172974,9.801076,-0.05351808,0.3262321,0.037002563,-0.013198853,-0.002029419,-48.239136,-1.5594482,12.179565,0,0.0,0.0,0.0,0.0
0.622558594,9.740936E-4,0.9914088,0.13079613,-0.03381029,-0.13068876,0.99084675,0.9994278,-0.005387433,0.03339252,0.002169718,0.9999038,0.013699459,-0.16994524,-0.013131512,0.985366,0.9854511,-0.0044661243,0.1699004,9.978073,-0.0143585205,0.4749756,9.801039,-0.05283267,0.32746875,0.049682617,-0.023284912,-0.0023345947,-48.239136,-1.5594482,12.179565,0,0.0,0.0,0.0,0.0
0.630861899,9.446786E-4,0.99142396,0.13068156,-0.033798143,-0.13057531,0.9908622,0.9994283,-0.0053528403,0.033384938,0.001511514,0.99983144,0.018299343,-0.16459346,-0.017801043,0.98620087,0.9863603,-0.004502608,0.16453879,9.992432,-0.034698486,0.44267273,9.801043,-0.05249343,0.32739437,0.04876709,-0.021759033,0.0045318604,-48.239136,-1.5594482,12.179565,0,0.0,0.0,0.0,0.0
0.63916268,8.934613E-4,0.9912807,0.1317645,-0.03373902,-0.13165966,0.9907207,0.9994303,-0.005330775,0.033327203,9.2586526E-4,0.99974144,0.022719162,-0.1594465,-0.022280928,0.9869551,0.9872061,-0.004536278,0.15938464,9.981659,-0.021530151,0.40438843,9.801064,-0.052277043,0.3268282,0.044784546,-0.016860962,0.0025634766,-48.239136,-1.5594482,12.059021,0,0.0,0.0,0.0,0.0
0.647463462,0.0011284633,0.99217683,0.12483565,-0.033542775,-0.12472792,0.9916238,0.9994366,-0.0053063445,0.033139613,6.546029E-4,0.99969006,0.024886662,-0.15694658,-0.024475543,0.9873038,0.9876069,-0.004552168,0.15688191,9.96611,-0.020339966,0.29312134,9.801126,-0.052037466,0.32498857,0.03364563,-0.015487671,0.0025634766,-48.298645,-1.3793945,11.399841,0,0.0,0.0,0.0,0.0
0.655764243,0.001111384,0.99218583,0.12476437,-0.033345085,-0.124658294,0.99163926,0.99944323,-0.00526237,0.032945972,2.0097755E-4,0.9995845,0.028822714,-0.15208411,-0.028456884,0.9879578,0.98836756,-0.004582034,0.15201521,9.955338,-0.020339966,0.28474426,9.80119,-0.051606223,0.32308963,0.02798462,-0.017166138,-0.005996704,-48.298645,-1.3793945,11.399841,0,0.0,0.0,0.0,0.0
0.664065024,-1.3761867E-4,0.986935,0.16111898,-0.033069324,-0.16103536,0.9863945,0.99945307,-0.0051923497,0.032659434,-1.9925414E-4,0.9994683,0.03260431,-0.14740223,-0.032277517,0.98854977,0.9890766,-0.0046089753,0.14733028,9.955338,-0.020339966,0.22013855,9.801287,-0.050919555,0.32027966,0.015014648,-0.014419556,-9.613037E-4,-48.179626,-1.7990112,10.978699,0,0.0,0.0,0.0,0.0
0.672365805,-1.4331072E-4,0.9869389,0.16109464,-0.032826167,-0.16101247,0.98640627,0.99946105,-0.0051467572,0.032420497,-4.8833527E-4,0.99938136,0.0351666,-0.14512374,-0.034865137,0.98879904,0.9894134,-0.004620643,0.14505097,9.960129,-0.04307556,0.23928833,9.801365,-0.05047245,0.31793648,6.5612793E-4,-0.0061798096,-0.0053863525,-48.179626,-1.7990112,10.978699,0,0.0,0.0,0.0,0.0
0.680666587,-1.6097378E-4,0.9869513,0.16101916,-0.032653216,-0.16093847,0.98642415,0.9994667,-0.0050990046,0.03225304,-0.0010168734,0.9991935,0.040140968,-0.14068963,-0.039884683,0.98925006,0.99005324,-0.004641476,0.14061671,9.960129,-0.04307556,0.23928833,9.801421,-0.05000416,0.31629428,-0.014465332,0.0034484863,-0.004470825,-48.179626,-1.7990112,10.978699,0,0.0,0.0,0.0,0.0
0.688967368,-0.003965525,0.961866,0.2734922,-0.032426357,-0.2734742,0.9613326,0.9994663,-0.005056167,0.032274283,-0.0014836667,0.9989895,0.044919197,-0.13642038,-0.044701494,0.989642,0.99064994,-0.0046595945,0.13634886,9.934998,-0.051452637,0.3146515,9.801415,-0.049584057,0.31650257,-0.014160156,0.012451172,-0.008285522,-49.079895,-2.999878,9.838867,0,0.0,0.0,0.0,0.0
0.697268149,-0.0049709207,0.9538487,0.30024648,-0.032405294,-0.30024615,0.95331115,0.9994624,-0.0049907407,0.032402247,-0.0020060912,0.998771,0.049521778,-0.13434424,-0.049342122,0.9897055,0.9909327,-0.0046675256,0.13427812,9.976868,-0.044265747,0.35653687,9.801378,-0.04894245,0.3177575,-0.012481689,0.010467529,-0.012710571,-49.079895,-3.239441,9.47876,0,0.0,0.0,0.0,0.0
0.70556893,-0.0051216125,0.9540694,0.29954165,-0.032515887,-0.2995461,0.95352757,0.99945813,-0.004856264,0.03255658,-0.0031118863,0.9982204,0.05955103,-0.13031052,-0.059448324,0.9896894,0.99146837,-0.0046803243,0.13026361,9.985245,-0.011962891,0.3637085,9.801336,-0.047623686,0.31927097,-0.016143799,0.012298584,-0.009811401,-49.079895,-3.239441,9.47876,0,0.0,0.0,0.0,0.0
0.713869712,-0.0052605313,0.95427257,0.29889175,-0.03265556,-0.2989004,0.9537254,0.99945277,-0.004743375,0.032734677,-0.0036198837,0.9979174,0.064402245,-0.12835304,-0.06433361,0.98963964,0.991722,-0.0046838433,0.12831864,10.00679,-0.025131226,0.39482117,9.801284,-0.04651662,0.32101753,-0.012619019,0.005126953,-0.008743286,-49.079895,-3.239441,9.47876,0,0.0,0.0,0.0,0.0
0.722170493,-0.006490379,0.942996,0.3327408,-0.032406878,-0.3327714,0.9424505,0.99945366,-0.0046662297,0.032719366,-0.004552703,0.99726343,0.07379016,-0.12455514,-0.0737818,0.9894656,0.9922022,-0.004686201,0.12455019,10.066605,-0.027511597,0.32183838,9.801293,-0.045760084,0.32086742,-0.0045318604,-0.020233154,-0.0030975342,-49.319458,-3.5995483,9.239197,0,0.0,0.0,0.0,0.0
0.730471274,-0.0064393105,0.94291174,0.33298054,-0.03211094,-0.33301067,0.94237614,0.99946356,-0.0046240664,0.03242214,-0.005554982,0.99643296,0.084205404,-0.12089189,-0.084258266,0.9890833,0.99265015,-0.0046854108,0.12092871,10.066605,-0.04307556,0.23808289,9.80139,-0.045346603,0.3179526,0.0038604736,-0.038101196,-0.0067596436,-49.319458,-3.5995483,9.239197,0,0.0,0.0,0.0,0.0
0.738772055,-0.00692657,0.93653846,0.3504966,-0.031542674,-0.3505352,0.9360183,0.9994784,-0.0045722025,0.03196893,-0.0060144835,0.99599004,0.08926202,-0.11910587,-0.0893417,0.9888538,0.99286336,-0.004684184,0.1191656,10.065414,-0.04307556,0.23808289,9.801536,-0.044837993,0.31350812,0.0038604736,-0.053970337,-0.0050811768,-49.61853,-3.779602,9.118652,0,0.0,0.0,0.0,0.0
0.747072837,-0.00904885,0.9084599,0.4178741,-0.030475572,-0.41794765,0.9079598,0.99949455,-0.0045189597,0.03146778,-0.0069401185,0.9949831,0.09980231,-0.1156121,-0.0999338,0.98825455,0.99327016,-0.0046797493,0.11572563,9.985245,-0.08135986,0.23808289,9.801693,-0.044315852,0.30859348,-8.69751E-4,-0.038864136,-0.007522583,-50.039673,-4.499817,8.699036,0,0.0,0.0,0.0,0.0
0.755373618,-0.0088836355,0.9081077,0.41864228,-0.030062497,-0.4187121,0.9076212,0.9995085,-0.004522457,0.031019675,-0.008084169,0.9935874,0.112777315,-0.1122071,-0.11297007,0.9872423,0.993652,-0.004673382,0.11240083,9.951752,-0.095718384,0.27038574,9.801831,-0.044350155,0.30419913,-0.008651733,-0.028625488,-0.004470825,-50.039673,-4.499817,8.699036,0,0.0,0.0,0.0,0.0
0.763674399,-0.0094935,0.8966379,0.44266292,-0.029626142,-0.44274077,0.8961602,0.999516,-0.0046066977,0.030767078,-0.009101206,0.992082,0.12526143,-0.10890886,-0.12550487,0.98609704,0.99401003,-0.004667406,0.109188765,9.950546,-0.1268158,0.30867004,9.801904,-0.04517627,0.30172196,-0.0152282715,-0.006790161,0.0023956299,-50.39978,-4.73938,8.518982,0,0.0,0.0,0.0,0.0
0.77197518,-0.009353655,0.8963184,0.44331247,-0.029558437,-0.44338596,0.8958433,0.9995193,-0.0047242143,0.030641047,-0.009619805,0.99122465,0.13183764,-0.10729605,-0.13210574,0.9854114,0.99418056,-0.004666192,0.10762532,9.94577,-0.11605835,0.33021545,9.801936,-0.04632872,0.30048603,-0.009414673,8.392334E-4,0.0056152344,-50.39978,-4.73938,8.518982,0,0.0,0.0,0.0,0.0
0.780275962,-0.010875714,0.87050694,0.4920359,-0.029068148,-0.49213225,0.87003493,0.9995182,-0.004840321,0.030656315,-0.010563603,0.9894316,0.14461505,-0.104155794,-0.14492518,0.98394525,0.99450487,-0.0046684896,0.10458597,9.948166,-0.0993042,0.33021545,9.801926,-0.047467336,0.30063576,-0.011566162,0.0029754639,0.0040893555,-50.698853,-5.279541,8.21991,0,0.0,0.0,0.0,0.0
0.788576743,-0.0108258985,0.8703799,0.4922616,-0.02914789,-0.49235594,0.86990565,0.9995165,-0.004930877,0.030699937,-0.011103678,0.9883348,0.15189168,-0.10261844,-0.15222532,0.98300403,0.9946588,-0.004671926,0.10311163,9.948166,-0.0993042,0.33021545,9.8019085,-0.04835539,0.30106354,-0.005142212,-0.0031280518,0.0014801025,-50.698853,-5.279541,8.21991,0,0.0,0.0,0.0,0.0
0.796877524,-0.011038786,0.8645847,0.5023658,-0.029086225,-0.5024615,0.8641101,0.9995159,-0.0050732,0.030694067,-0.012086263,0.9860512,0.16600285,-0.09963081,-0.1663764,0.9810161,0.99495107,-0.00468218,0.10025194,9.933807,-0.13040161,0.30508423,9.801903,-0.0497511,0.301006,-0.008956909,-0.0032806396,0.0065307617,-50.819397,-5.4595947,8.279419,0,0.0,0.0,0.0,0.0
0.805178305,-0.010917999,0.8642742,0.5029025,-0.029156005,-0.5029938,0.86379814,0.99951524,-0.005231682,0.030690467,-0.012990525,0.9835842,0.17998154,-0.09674949,-0.1803886,0.97882557,0.995224,-0.004697664,0.097504616,9.951752,-0.14955139,0.31944275,9.801897,-0.051305283,0.3009707,3.5095215E-4,0.010467529,0.008666992,-50.819397,-5.4595947,8.279419,0,0.0,0.0,0.0,0.0
0.813479087,-0.010814255,0.86400723,0.50336325,-0.029236555,-0.50345063,0.8635291,0.9995139,-0.0053781834,0.030705038,-0.013398538,0.9823135,0.18676361,-0.09535001,-0.1871844,0.9776863,0.99535364,-0.0047083446,0.0961716,9.94696,-0.11366272,0.28355408,9.801884,-0.052741963,0.30111358,1.9836426E-4,0.011077881,0.006225586,-50.819397,-5.4595947,8.279419,0,0.0,0.0,0.0,0.0
0.821779868,-0.008244738,0.9030534,0.429449,-0.030154252,-0.4294928,0.9025666,0.99951124,-0.005508289,0.03077196,-0.014133194,0.9797098,0.19992252,-0.09263304,-0.20036551,0.97533214,0.99560004,-0.00473487,0.09358529,9.998413,-0.08734131,0.29670715,9.801857,-0.054017864,0.30176985,0.0017242432,0.014587402,0.007293701,-50.338745,-4.73938,8.999634,0,0.0,0.0,0.0,0.0
0.830080649,-0.00855453,0.8980113,0.43988934,-0.030164925,-0.439937,0.897522,0.9995083,-0.0055913497,0.030851895,-0.014469493,0.9777428,0.20930733,-0.09007304,-0.20975274,0.9735967,0.99583,-0.004765497,0.09110329,10.009171,-0.07896423,0.31944275,9.801828,-0.05483241,0.30255374,0.002029419,0.0074157715,0.0042266846,-50.579834,-4.9194336,9.059143,0,0.0,0.0,0.0,0.0
0.83838143,-0.008523388,0.8979442,0.4400268,-0.030245312,-0.44007295,0.8974526,0.9995062,-0.005659411,0.030909514,-0.014634707,0.97670656,0.21407938,-0.08883042,-0.21452573,0.9726705,0.99593925,-0.0047820145,0.089900784,10.009171,-0.07896423,0.31944275,9.801807,-0.055499867,0.3031188,0.002029419,-0.008621216,0.0023956299,-50.579834,-4.9194336,9.059143,0,0.0,0.0,0.0,0.0
0.846682212,-0.0092086205,0.88663924,0.4623701,-0.030006196,-0.46242645,0.8861497,0.99950725,-0.00571375,0.03086298,-0.014920011,0.97462815,0.22333236,-0.08642329,-0.22377834,0.9708009,0.9961468,-0.0048167594,0.08756935,10.009171,-0.07896423,0.31944275,9.801819,-0.056032754,0.30266246,-0.004837036,-0.023132324,-1.9836426E-4,-50.579834,-5.218506,8.999634,0,0.0,0.0,0.0,0.0
0.854982993,-0.009027138,0.88623184,0.46315384,-0.029793661,-0.46320543,0.8857499,0.9995153,-0.005803263,0.030585514,-0.015083851,0.9734739,0.22830027,-0.085248284,-0.22874695,0.9697461,0.99624556,-0.0048346994,0.08643736,9.982849,-0.114852905,0.22492981,9.801897,-0.056910567,0.29994145,-0.0014801025,-0.02557373,-1.9836426E-4,-50.579834,-5.218506,8.999634,0,0.0,0.0,0.0,0.0
0.863283774,-0.0087557705,0.8856215,0.4643251,-0.0295211,-0.46436945,0.88514936,0.9995258,-0.0059572216,0.030210437,-0.015365516,0.9711537,0.23795895,-0.08295958,-0.23840474,0.967616,0.99643445,-0.0048730546,0.084229715,10.039093,-0.16270447,0.17706299,9.802,-0.05842039,0.2962632,-0.0042266846,-0.019165039,0.0054626465,-50.579834,-5.218506,8.999634,0,0.0,0.0,0.0,0.0
0.871584555,-0.009288559,0.8721284,0.48918906,-0.029055752,-0.48923898,0.8716657,0.9995346,-0.0061172373,0.029884666,-0.015589213,0.9688222,0.24726607,-0.08075028,-0.24770823,0.96546364,0.9966124,-0.004915987,0.082094245,9.997208,-0.14117432,0.20458984,9.802087,-0.059989613,0.2930685,-0.012481689,-0.0048065186,-0.003250122,-50.579834,-5.519104,8.879089,0,0.0,0.0,0.0,0.0
0.879885337,-0.009121359,0.8717332,0.4898959,-0.028927878,-0.4899413,0.8712753,0.9995399,-0.006224434,0.029686322,-0.015723296,0.9675163,0.25231913,-0.07966538,-0.25276026,0.96424353,0.99669766,-0.0049400125,0.08105178,9.997208,-0.14117432,0.20458984,9.802137,-0.06104084,0.29112336,-0.011245728,-5.340576E-4,-0.003250122,-50.579834,-5.519104,8.879089,0,0.0,0.0,0.0,0.0
0.888186118,-0.008331132,0.8835531,0.46825683,-0.029107023,-0.46828893,0.8830958,0.9995416,-0.0062723756,0.029618979,-0.015948696,0.9648988,0.2621371,-0.07755549,-0.26257437,0.96178997,0.9968605,-0.0049908757,0.079020925,9.949356,-0.098098755,0.2416687,9.802155,-0.06151099,0.29046297,-0.017364502,0.006500244,0.0066833496,-50.279236,-5.3390503,9.1796875,0,0.0,0.0,0.0,0.0
0.896486899,-0.009196094,0.86786735,0.4967107,-0.028846793,-0.4967552,0.867411,0.9995415,-0.0063517173,0.029603403,-0.016049951,0.9625565,0.27060565,-0.07554596,-0.27103433,0.9596005,0.99701315,-0.005041623,0.077067345,9.948166,-0.088531494,0.2715912,9.802155,-0.062289074,0.29031023,-0.0028533936,0.013519287,8.69751E-4,-50.099182,-5.5786133,8.81958,0,0.0,0.0,0.0,0.0
0.90478768,-0.009174283,0.8678155,0.4968018,-0.028928552,-0.49684507,0.86735696,0.9995394,-0.006414379,0.029662846,-0.016133673,0.96121454,0.27532944,-0.07456244,-0.27575517,0.9583316,0.99708587,-0.005067825,0.076119445,9.948166,-0.088531494,0.2715912,9.802134,-0.062903576,0.29089317,-0.0138549805,0.011688232,0.0023956299,-50.099182,-5.5786133,8.81958,0,0.0,0.0,0.0,0.0
0.913088462,-0.009171366,0.8678086,0.49681395,-0.029001562,-0.49685666,0.86734784,0.9995373,-0.006453618,0.02972466,-0.01626825,0.9585435,0.2844815,-0.072659664,-0.28490025,0.9557994,0.99722415,-0.0051211487,0.07428228,9.98764,-0.08375549,0.3409729,9.802113,-0.063288376,0.29149935,-0.0025482178,0.010620117,-0.0015716553,-50.099182,-5.5786133,8.81958,0,0.0,0.0,0.0,0.0
0.921389243,-0.008442447,0.88120705,0.472655,-0.02940544,-0.4726862,0.88074005,0.9995319,-0.0064630285,0.029902913,-0.01639892,0.95458305,0.29749328,-0.06995714,-0.29789954,0.9520304,0.9974152,-0.0051995083,0.07166513,10.041473,-0.093322754,0.36968994,9.80206,-0.06338066,0.2932474,0.010131836,0.0115356445,-0.017150879,-50.099182,-5.3390503,9.059143,0,0.0,0.0,0.0,0.0
0.929690024,-0.008559091,0.881469,0.47216433,-0.029545676,-0.4721984,0.88099706,0.9995268,-0.006409879,0.030085186,-0.01639892,0.95458305,0.29749328,-0.06995714,-0.29789954,0.9520304,0.9974152,-0.0051995083,0.07166513,10.041473,-0.093322754,0.36968994,9.80201,-0.06285944,0.2950349,0.010131836,0.0115356445,-0.017150879,-50.099182,-5.3390503,9.059143,0,0.0,0.0,0.0,0.0
0.937990805,-0.00917997,0.87630475,0.48166978,-0.029574996,-0.4817173,0.8758275,0.9995204,-0.0062053115,0.030338857,-0.01637506,0.9523229,0.30465218,-0.068280764,-0.30504683,0.94988644,0.9975318,-0.005247439,0.0700205,10.041473,-0.026321411,0.42352295,9.801947,-0.060853314,0.29752254,0.020507813,0.0017547607,-0.02218628,-50.099182,-5.3390503,8.758545,0,0.0,0.0,0.0,0.0
0.946291587,-0.009560511,0.8746653,0.4846331,-0.02959153,-0.48469046,0.8741851,0.99951637,-0.005983378,0.030516572,-0.016368687,0.9499681,0.31191784,-0.0666746,-0.31230232,0.94764006,0.99764055,-0.005285371,0.06845072,10.051056,-0.0382843,0.41036987,9.801908,-0.058676895,0.29926535,0.013183594,-0.015792847,-0.015167236,-49.91913,-5.3985596,8.758545,0,0.0,0.0,0.0,0.0
0.954592368,-0.009727178,0.875056,0.48392394,-0.029565344,-0.48398694,0.8745757,0.99951553,-0.005800225,0.030579157,-0.016366899,0.9487845,0.31549975,-0.06589779,-0.31587952,0.9465081,0.99769217,-0.005299331,0.067692764,10.051056,-0.0382843,0.41036987,9.801899,-0.056880776,0.2998791,0.011657715,-0.012588501,-0.017303467,-49.91913,-5.3985596,8.758545,0,0.0,0.0,0.0,0.0
0.962893149,-0.009836775,0.8753126,0.48345748,-0.029497694,-0.48352447,0.87483376,0.9995165,-0.0056553367,0.030576022,-0.016353052,0.9464599,0.32240698,-0.06439394,-0.32277763,0.9442817,0.99779063,-0.0053191665,0.06622468,10.010376,-0.052642822,0.38165283,9.8019085,-0.05545991,0.29984835,0.011352539,-0.01121521,-0.01499939,-49.91913,-5.3985596,8.758545,0,0.0,0.0,0.0,0.0
0.97119393,-0.010168597,0.8699984,0.49294955,-0.029403709,-0.49302202,0.86951977,0.9995159,-0.00565275,0.030594526,-0.016323943,0.9441869,0.32900536,-0.06295121,-0.32936692,0.9421011,0.9978831,-0.0053324793,0.06481427,9.974487,-0.1483612,0.3864441,9.801903,-0.05543454,0.3000298,-0.0057525635,-0.0022125244,-0.0096588135,-49.739075,-5.5786133,8.81958,0,0.0,0.0,0.0,0.0
0.979494712,-0.010166578,0.86999375,0.492958,-0.029477883,-0.49302998,0.86951286,0.99951375,-0.0056913877,0.030658001,-0.016316585,0.94299555,0.3324052,-0.062249433,-0.33276263,0.94095373,0.9979272,-0.005338885,0.064130485,9.974487,-0.1483612,0.3864441,9.801881,-0.055813443,0.30065227,-0.007888794,0.002670288,-0.0015716553,-49.739075,-5.5786133,8.81958,0,0.0,0.0,0.0,0.0
0.987795493,-0.010462438,0.86387044,0.5036053,-0.029377839,-0.50368106,0.8633901,0.9995137,-0.00576167,0.03064838,-0.016287932,0.9406488,0.33899054,-0.06089308,-0.3393394,0.938691,0.9980114,-0.0053528436,0.06280614,10.005585,-0.12562561,0.2871399,9.801881,-0.05650268,0.30055794,-0.005142212,0.010620117,2.593994E-4,-49.798584,-5.6396484,8.639526,0,0.0,0.0,0.0,0.0
0.996096274,-0.010391401,0.8636982,0.50390226,-0.029457781,-0.5039752,0.8632157,0.999512,-0.005873822,0.03067964,-0.01628087,0.9394098,0.34240937,-0.060232602,-0.3427543,0.9374922,0.9980516,-0.00536102,0.062163435,10.005585,-0.12562561,0.2871399,9.801865,-0.05760252,0.3008645,-0.007888794,0.0077209473,0.0054626465,-49.798584,-5.6396484,8.639526,0,0.0,0.0,0.0,0.0
1.004397055,-0.009788595,0.87257046,0.48839027,-0.029703429,-0.48845187,0.8720852,0.9995108,-0.0059703756,0.03069959,-0.016230565,0.935763,0.35225582,-0.05833785,-0.35258833,0.9339583,0.9981649,-0.0053911773,0.06031311,9.963715,-0.090927124,0.29910278,9.801853,-0.058549386,0.30106014,-0.008041382,0.0010070801,-0.0023345947,-49.679565,-5.4595947,8.758545,0,0.0,0.0,0.0,0.0
1.012697837,-0.009771815,0.87253106,0.48846084,-0.029727748,-0.48852172,0.87204504,0.9995102,-0.005999378,0.03071213,-0.016184144,0.9347011,0.35506612,-0.05773984,-0.3553937,0.9329316,0.9982004,-0.0054027615,0.059721235,9.963715,-0.090927124,0.29910278,9.801847,-0.0588338,0.3011831,-0.008804321,-0.0032806396,-0.0035552979,-49.679565,-5.4595947,8.758545,0,0.0,0.0,0.0,0.0
1.020998618,-0.010276881,0.8636149,0.5040472,-0.02953227,-0.5041161,0.8631308,0.999511,-0.0060153655,0.030685252,-0.016134966,0.9336517,0.35781866,-0.05715502,-0.35814133,0.93191636,0.99823487,-0.0054146936,0.05914148,9.963715,-0.090927124,0.29910278,9.801855,-0.058990587,0.30091953,-0.01828003,-0.005874634,-0.0055389404,-49.798584,-5.4595947,8.338928,0,0.0,0.0,0.0,0.0
1.029299399,-0.010241713,0.8635266,0.5041994,-0.029555393,-0.504267,0.8630419,0.99951065,-0.006062783,0.030686421,-0.01606893,0.9313336,0.36381248,-0.05601012,-0.36412656,0.9296637,0.99830085,-0.00543848,0.05801523,9.990036,-0.1268158,0.34695435,9.801851,-0.059455592,0.300931,4.5776367E-5,-0.013809204,-0.012557983,-49.798584,-5.4595947,8.338928,0,0.0,0.0,0.0,0.0
1.03760018,-0.010085693,0.866234,0.4995368,-0.029506514,-0.4996025,0.8657521,0.9995137,-0.00600788,0.03059838,-0.015991027,0.9290686,0.3695617,-0.05491437,-0.36986715,0.9274604,0.998363,-0.005463203,0.05693377,10.034302,-0.09451294,0.3361969,9.801881,-0.058917176,0.3000676,0.011657715,-0.026947021,-0.024780273,-49.91913,-5.4595947,8.459473,0,0.0,0.0,0.0,0.0
1.045900962,-0.010105746,0.8662836,0.49945042,-0.029295415,-0.499518,0.86580807,0.9995197,-0.0058819694,0.030426135,-0.01594306,0.9279974,0.37224543,-0.054383595,-0.3725465,0.92641866,0.9983928,-0.005474096,0.056407362,10.034302,-0.09451294,0.3361969,9.80194,-0.057682417,0.29837847,0.014709473,-0.032592773,-0.023254395,-49.91913,-5.4595947,8.459473,0,0.0,0.0,0.0,0.0
1.054201743,-0.010937005,0.8511331,0.52483594,-0.02867738,-0.52491844,0.85066926,0.99952894,-0.005747145,0.030149305,-0.015843466,0.9258983,0.37744045,-0.05334769,-0.37773293,0.9243765,0.9984503,-0.005490248,0.055379134,9.998413,-0.1040802,0.2859497,9.802031,-0.05636024,0.29566368,0.013946533,-0.027709961,-0.019744873,-50.219727,-5.6396484,8.099365,0,0.0,0.0,0.0,0.0
1.062502524,-0.010886344,0.8509981,0.52505606,-0.02840842,-0.5251385,0.85054266,0.99953717,-0.0056567113,0.029892346,-0.015799342,0.92340624,0.38349873,-0.05232469,-0.38378462,0.921939,0.9985051,-0.005500421,0.054380488,9.955338,-0.119644165,0.2859497,9.802112,-0.055473387,0.29314378,0.010437012,-0.019470215,-0.01638794,-50.219727,-5.6396484,8.099365,0,0.0,0.0,0.0,0.0
1.070803305,-0.011250934,0.84330046,0.53732455,-0.028055673,-0.5374132,0.8428521,0.999543,-0.0055921287,0.029705767,-0.015773294,0.92218125,0.3864363,-0.05182395,-0.38671893,0.92074037,0.99853164,-0.005503547,0.053890906,9.955338,-0.119644165,0.2859497,9.802169,-0.05484005,0.29131407,0.007843018,-0.010299683,-0.01928711,-50.579834,-5.758667,7.978821,0,0.0,0.0,0.0,0.0
1.079104087,-0.011214197,0.8431992,0.53748435,-0.02781321,-0.5375732,0.8427583,0.9995502,-0.005498307,0.029480526,-0.015742835,0.91955227,0.3926523,-0.050837684,-0.39292917,0.9181624,0.99858284,-0.0055070543,0.052933726,9.932602,-0.08734131,0.20458984,9.802239,-0.05391997,0.2891052,-0.0017852783,-0.0038909912,-0.01499939,-50.579834,-5.758667,7.978821,0,0.0,0.0,0.0,0.0
1.087404868,-0.010772516,0.8498382,0.52693367,-0.02765776,-0.5270158,0.8494053,0.99955934,-0.0054235705,0.029181905,-0.015701918,0.91698515,0.39861223,-0.049883246,-0.39888337,0.9156438,0.9986316,-0.0055067074,0.05200543,9.94577,-0.08734131,0.10647583,9.802329,-0.053187057,0.28617674,-0.006210327,0.0017547607,-0.015167236,-50.93994,-5.519104,7.8598022,0,0.0,0.0,0.0,0.0
1.095705649,-0.010707673,0.8496571,0.52722675,-0.027408335,-0.5273083,0.84923184,0.999567,-0.0053571127,0.028933933,-0.015664523,0.9158262,0.40126926,-0.049419146,-0.40153715,0.9145084,0.99865526,-0.005505045,0.051549237,9.94577,-0.08734131,0.10647583,9.802403,-0.05253533,0.28374496,-0.012619019,0.004211426,-0.013168335,-50.93994,-5.519104,7.8598022,0,0.0,0.0,0.0,0.0
1.10400643,-0.011235625,0.83755,0.5462451,-0.02697833,-0.5463346,0.83713233,0.9995729,-0.005331076,0.028734114,-0.015583641,0.91354996,0.4064278,-0.048509955,-0.40668926,0.9122777,0.9987011,-0.0054991865,0.050653968,9.943375,-0.112457275,0.13040161,9.802462,-0.052279998,0.2817854,-0.011566162,0.0019226074,-0.013320923,-51.119995,-5.4595947,7.319641,0,0.0,0.0,0.0,0.0
1.112307212,-0.011224818,0.83751696,0.546296,-0.02687513,-0.54638577,0.83710235,0.9995758,-0.0052854544,0.02864146,-0.015537076,0.9109687,0.41218275,-0.04761778,-0.4124389,0.9097399,0.9987448,-0.00549253,0.0497864,9.932602,-0.08973694,0.21534729,9.80249,-0.051832605,0.2808768,-0.010192871,-0.0035858154,-0.009048462,-51.119995,-5.4595947,7.319641,0,0.0,0.0,0.0,0.0
1.120607993,-0.0115315,0.83042467,0.5570116,-0.026615245,-0.55710614,0.83001465,0.9995792,-0.0052536856,0.028526224,-0.015510735,0.9097031,0.4149695,-0.04718375,-0.415223,0.90849525,0.99876577,-0.0054883882,0.049363617,9.932602,-0.08973694,0.21534729,9.802524,-0.05152106,0.2797467,-0.0095825195,-0.004348755,-0.009963989,-51.119995,-5.5786133,7.258606,0,0.0,0.0,0.0,0.0
1.128908774,-0.011523036,0.8303983,0.557051,-0.026547957,-0.55714566,0.82999027,0.9995811,-0.0052245576,0.02846539,-0.015475305,0.9070088,0.42082712,-0.046330817,-0.42107594,0.90584135,0.99880624,-0.005479094,0.048538737,9.973282,-0.09211731,0.27757263,9.802542,-0.051235404,0.2791501,0.006149292,-0.009536743,-0.009506226,-51.119995,-5.5786133,7.258606,0,0.0,0.0,0.0,0.0
1.137209555,-0.012369865,0.81193835,0.5836122,-0.02613057,-0.58372,0.81153446,0.999582,-0.0052115466,0.028436946,-0.015431694,0.9043849,0.42643842,-0.045511328,-0.4266825,0.90325564,0.9988446,-0.0054690144,0.047744192,9.9756775,-0.10647583,0.30389404,9.802551,-0.051107816,0.27887118,0.015777588,5.340576E-4,-0.0070648193,-51.419067,-5.6991577,6.8389893,0,0.0,0.0,0.0,0.0
1.145510337,-0.012367657,0.8119309,0.58362263,-0.026143879,-0.5837303,0.81152666,0.99958163,-0.005221474,0.028446395,-0.015436254,0.90282166,0.429738,-0.045104004,-0.42998043,0.9017108,0.99886304,-0.0054638656,0.047358163,9.9756775,-0.10647583,0.30389404,9.802548,-0.051205173,0.27896386,0.01852417,0.0010070801,-0.0015716553,-51.419067,-5.6991577,6.8389893,0,0.0,0.0,0.0,0.0
1.153811118,-0.01283386,0.80101097,0.598512,-0.02599624,-0.59862626,0.8006064,0.99957967,-0.0052841906,0.02850596,-0.015437134,0.89975375,0.43612474,-0.04431595,-0.4363638,0.89867836,0.99889827,-0.0054542664,0.04660965,10.003189,-0.11126709,0.3134613,9.802528,-0.05182021,0.279548,0.007522583,0.0071105957,0.010650635,-51.719666,-5.9387207,6.8389893,0,0.0,0.0,0.0,0.0
1.162111899,-0.01275048,0.80072594,0.59889513,-0.026059723,-0.59900653,0.80032,0.99957913,-0.005402576,0.028504318,-0.015465602,0.89481586,0.44616735,-0.043183934,-0.44640213,0.8937898,0.9989474,-0.005444264,0.04554555,10.015152,-0.10647583,0.24765015,9.802523,-0.052981175,0.27953187,-0.007736206,0.02482605,0.009735107,-51.719666,-5.9387207,6.8389893,0,0.0,0.0,0.0,0.0
1.17041268,-0.012686211,0.8005061,0.59919024,-0.026181456,-0.59929895,0.800097,0.9995767,-0.005537475,0.02856125,-0.015465602,0.89481586,0.44616735,-0.043183934,-0.44640213,0.8937898,0.9989474,-0.005444264,0.04554555,10.015152,-0.10647583,0.24765015,9.802499,-0.054304082,0.28009018,-0.007736206,0.02482605,0.009735107,-51.719666,-5.9387207,6.8389893,0,0.0,0.0,0.0,0.0
1.178713462,-0.012756092,0.7991532,0.6009921,-0.02623242,-0.6011015,0.798742,0.9995744,-0.00557665,0.028631426,-0.015465025,0.8916132,0.45253375,-0.04247502,-0.45276517,0.8906176,0.99897784,-0.005447956,0.04487331,10.039093,-0.04547119,0.21774292,9.802477,-0.054688256,0.28077838,-0.014312744,0.019470215,0.003479004,-51.719666,-5.8792114,6.7199707,0,0.0,0.0,0.0,0.0
1.187014243,-0.012856643,0.7978482,0.6027212,-0.026184814,-0.602833,0.79743755,0.9995744,-0.005529771,0.028641917,-0.015459344,0.8884537,0.45870578,-0.041798063,-0.45893383,0.8874867,0.9990065,-0.005453052,0.044230465,10.009171,0.009567261,0.17468262,9.802477,-0.05422853,0.28088126,-0.0054473877,0.0101623535,-8.087158E-4,-51.65863,-6.1798096,7.0785522,0,0.0,0.0,0.0,0.0
1.195315024,-0.012894,0.79797196,0.6025566,-0.026112732,-0.60266995,0.79756325,0.9995759,-0.0054506175,0.028608056,-0.015456123,0.8868858,0.46173003,-0.041469406,-0.46195644,0.88593256,0.99902016,-0.0054545864,0.04391868,10.009171,0.009567261,0.17468262,9.802491,-0.053452298,0.2805492,0.0035552979,0.010925293,-0.002029419,-51.65863,-6.1798096,7.0785522,0,0.0,0.0,0.0,0.0
1.203615805,-0.012786787,0.8029323,0.5959331,-0.026155574,-0.59604645,0.8025239,0.9995761,-0.0053252694,0.028622674,-0.015445933,0.883818,0.4675758,-0.040830825,-0.46779904,0.8828912,0.9990466,-0.005454429,0.043312613,9.969696,0.025131226,0.23928833,9.802493,-0.052223057,0.28069255,-0.0045318604,0.001449585,-0.0040130615,-51.478577,-6.1187744,7.1395874,0,0.0,0.0,0.0,0.0
1.211916587,-0.012886907,0.8032587,0.5954909,-0.02615772,-0.5956073,0.8028497,0.9995747,-0.005230435,0.028686952,-0.015420297,0.8809905,0.47288263,-0.04022254,-0.4731026,0.8800887,0.9990717,-0.0054493137,0.04273106,9.924225,-0.010772705,0.30029297,9.80248,-0.05129305,0.2813229,-5.645752E-4,0.0023651123,-0.010269165,-51.478577,-6.1187744,7.1395874,0,0.0,0.0,0.0,0.0
1.220217368,-0.013063155,0.8020436,0.5971226,-0.02610017,-0.5972436,0.8016351,0.99957395,-0.005113118,0.02873536,-0.0154072605,0.8796127,0.47544095,-0.039928503,-0.47565937,0.87872285,0.9990837,-0.005444936,0.042450227,9.924225,-0.010772705,0.30029297,9.802472,-0.05014256,0.28179762,0.0050811768,0.009552002,-0.005844116,-51.179504,-6.059265,7.019043,0,0.0,0.0,0.0,0.0
1.228518149,-0.013210802,0.80252975,0.59646577,-0.026061608,-0.59659153,0.8021217,0.999573,-0.0049481858,0.028796671,-0.015385587,0.8768794,0.48046416,-0.03935728,-0.48067975,0.8760125,0.9991067,-0.005431796,0.041907128,9.938583,0.009567261,0.2763672,9.802464,-0.04852513,0.2823989,0.007522583,0.013824463,-0.013931274,-51.179504,-6.059265,7.019043,0,0.0,0.0,0.0,0.0
1.23681893,-0.013422857,0.8009772,0.59854436,-0.026027314,-0.5986753,0.8005688,0.99957114,-0.0048325825,0.02888322,-0.015364785,0.87424314,0.4852451,-0.0388097,-0.4854581,0.87339807,0.99912846,-0.005412645,0.041388076,9.954147,-0.032302856,0.2679901,9.802444,-0.04739145,0.28324765,0.0050811768,0.014892578,-0.010116577,-51.298523,-6.239319,7.1990967,0,0.0,0.0,0.0,0.0
1.245119712,-0.013545296,0.80137146,0.59801364,-0.026043467,-0.59814835,0.80096203,0.999569,-0.0047250814,0.028972587,-0.01535759,0.8729297,0.48760417,-0.03854422,-0.48781607,0.8720951,0.99913883,-0.005401044,0.041138075,9.954147,-0.032302856,0.2679901,9.8024235,-0.04633722,0.28412402,0.005844116,0.015655518,-0.007217407,-51.298523,-6.239319,7.1990967,0,0.0,0.0,0.0,0.0
1.253420493,-0.013380747,0.8084642,0.58839315,-0.026259838,-0.588527,0.808051,0.9995656,-0.0046387836,0.029105071,-0.015344331,0.8703758,0.49214882,-0.0380314,-0.49235865,0.86956114,0.99915874,-0.0053742756,0.04065653,10.060623,-0.035888672,0.29551697,9.80239,-0.045490928,0.28542325,0.0069122314,0.012451172,-0.0096588135,-51.239014,-5.999756,7.0785522,0,0.0,0.0,0.0,0.0
1.261721274,-0.013514139,0.80889726,0.5877946,-0.026359886,-0.58793217,0.8084805,0.99956113,-0.0045682816,0.029267838,-0.015314701,0.86813575,0.4960905,-0.03755,-0.49629807,0.86733973,0.99917734,-0.0053451504,0.040199153,10.055832,-0.047851563,0.3254242,9.802346,-0.04479954,0.28701946,0.005996704,0.008331299,-0.0137786865,-51.239014,-5.999756,7.0785522,0,0.0,0.0,0.0,0.0
1.270022055,-0.014410881,0.79183596,0.6105638,-0.026012251,-0.6107175,0.7914213,0.99955773,-0.0044770623,0.029398412,-0.015301119,0.8670501,0.49798593,-0.03731914,-0.49819246,0.866263,0.9991863,-0.0053296136,0.039980467,10.055832,-0.047851563,0.3254242,9.802313,-0.043904983,0.28829995,0.0026397705,0.0077209473,-0.012710571,-51.239014,-6.298828,6.9595337,0,0.0,0.0,0.0,0.0
1.278322837,-0.014530301,0.7922337,0.61004466,-0.026128495,-0.6102016,0.7918151,0.99955297,-0.004434237,0.029566292,-0.015319454,0.8643654,0.50263083,-0.036857393,-0.5028364,0.86359537,0.9992031,-0.0052958527,0.03956143,10.036697,-0.0765686,0.35772705,9.802266,-0.04348501,0.2899463,-0.0034637451,0.013824463,-0.004470825,-51.239014,-6.298828,6.9595337,0,0.0,0.0,0.0,0.0
1.286623618,-0.0136187645,0.8157468,0.5782488,-0.026709607,-0.57839286,0.81532097,0.99955046,-0.0043411334,0.029665273,-0.015336813,0.8617768,0.50705576,-0.03642022,-0.5072603,0.86102295,0.9992189,-0.0052617323,0.03916586,10.0295105,-0.0143585205,0.29551697,9.802242,-0.04257198,0.29091698,-0.0057525635,0.006652832,-0.0023345947,-51.179504,-5.999756,7.258606,0,0.0,0.0,0.0,0.0
1.294924399,-0.013710992,0.81603634,0.5778378,-0.026738804,-0.5779847,0.8156093,0.9995484,-0.004267879,0.029744584,-0.015317683,0.8609157,0.50851697,-0.036221255,-0.5087205,0.8601695,0.9992264,-0.00524332,0.03897587,10.0295105,-0.0143585205,0.29551697,9.802221,-0.041853596,0.29169473,-0.0031585693,-0.0019073486,-0.008590698,-51.179504,-5.999756,7.258606,0,0.0,0.0,0.0,0.0
1.30322518,-0.014510835,0.8014352,0.5979056,-0.02640023,-0.59806716,0.801011,0.9995461,-0.0041615064,0.029836528,-0.015300017,0.86007464,0.5099388,-0.036027186,-0.5101415,0.85933566,0.99923366,-0.005223811,0.038791243,10.005585,-0.0059814453,0.3637085,9.802199,-0.04081044,0.2925964,-0.0055999756,-0.009841919,-0.011184692,-51.179504,-6.1187744,6.9595337,0,0.0,0.0,0.0,0.0
1.311525962,-0.014605895,0.801749,0.5974823,-0.026352853,-0.5976471,0.8013259,0.99954593,-0.004041282,0.029857546,-0.015304619,0.85793114,0.51353675,-0.035637103,-0.5137386,0.8572063,0.9992476,-0.005181744,0.038436756,10.005585,0.0047912598,0.38165283,9.802197,-0.039631438,0.2928025,-0.0043792725,-0.018081665,-0.003250122,-51.179504,-6.1187744,6.9595337,0,0.0,0.0,0.0,0.0
1.319826743,-0.014295494,0.810086,0.58613676,-0.026473233,-0.5862978,0.8096629,0.9995473,-0.0039424025,0.029827014,-0.015309874,0.85586923,0.51696575,-0.035261415,-0.5171669,0.8551579,0.99926084,-0.005136582,0.038096912,9.981659,0.0047912598,0.38165283,9.802211,-0.038661763,0.2925031,0.002029419,-0.012893677,-0.008132935,-51.179504,-5.9387207,6.9595337,0,0.0,0.0,0.0,0.0
1.328127524,-0.014338696,0.81022763,0.5859399,-0.026379026,-0.58610266,0.8098072,0.99954915,-0.0038449434,0.029776964,-0.015302909,0.85501033,0.51838523,-0.035082135,-0.5185858,0.85430557,0.9992673,-0.005112699,0.037931457,9.972092,-0.011962891,0.36131287,9.802229,-0.037706014,0.29201227,0.008453369,-0.016418457,-0.010269165,-51.179504,-5.9387207,6.9595337,0,0.0,0.0,0.0,0.0
1.336428305,-0.014287991,0.81006145,0.5861709,-0.026192043,-0.5863328,0.8096468,0.9995548,-0.0037847876,0.02959468,-0.015289869,0.85334194,0.52112746,-0.03473124,-0.52132714,0.8526499,0.99927974,-0.0050624963,0.037608646,9.9673,-0.047851563,0.26560974,9.802284,-0.037116088,0.29022467,0.015319824,-0.01977539,-0.00843811,-51.179504,-5.9387207,6.9595337,0,0.0,0.0,0.0,0.0
1.344729087,-0.014414236,0.8044848,0.59379834,-0.025830667,-0.5939614,0.8040787,0.9995624,-0.003748026,0.029341878,-0.015273907,0.8517253,0.52376586,-0.03438691,-0.5239645,0.8510456,0.99929184,-0.0050118994,0.037291188,9.98764,-0.071777344,0.19142151,9.802359,-0.03675558,0.28774554,0.016845703,0.004058838,-0.014694214,-51.298523,-5.8792114,6.7199707,0,0.0,0.0,0.0,0.0
1.353029868,-0.014203924,0.80835027,0.5885304,-0.025759323,-0.5886903,0.8079481,0.9995672,-0.0036841119,0.029184267,-0.01526995,0.850839,0.5252045,-0.03421259,-0.5254028,0.85016555,0.99929786,-0.0049866224,0.037132278,9.962524,-0.07298279,0.18544006,9.802406,-0.036128797,0.2861999,0.00630188,0.0060424805,-0.016220093,-51.53961,-6.059265,7.0785522,0,0.0,0.0,0.0,0.0
1.361330649,-0.014189479,0.80830324,0.5885954,-0.02575278,-0.5887548,0.8079014,0.9995676,-0.0036942677,0.029170178,-0.015250668,0.849249,0.52777225,-0.03387175,-0.5279695,0.84858763,0.99930984,-0.0049350434,0.03681744,9.999603,-0.13160706,0.2416687,9.80241,-0.036228392,0.28606173,0.0023345947,0.009094238,-0.010116577,-51.53961,-6.059265,7.0785522,0,0.0,0.0,0.0,0.0
1.36963143,-0.01333325,0.82707375,0.56193525,-0.026258875,-0.56208104,0.8266652,0.99956626,-0.0037336526,0.029212393,-0.01522988,0.84771293,0.53023654,-0.033544607,-0.53043276,0.84706306,0.99932116,-0.004885909,0.036514625,9.999603,-0.13160706,0.2416687,9.802397,-0.036614627,0.28647572,0.0024871826,0.027267456,-0.010116577,-51.298523,-5.758667,7.258606,0,0.0,0.0,0.0,0.0
1.377932212,-0.013342512,0.82710266,0.5618927,-0.026394492,-0.56203824,0.82669014,0.99956256,-0.0038007468,0.02932995,-0.015197155,0.8473119,0.5308782,-0.033397116,-0.5310734,0.84666747,0.99932665,-0.004862864,0.03636858,10.005585,-0.08015442,0.28234863,9.802361,-0.037272595,0.28762856,-0.0027008057,0.027114868,-0.0027923584,-51.298523,-5.758667,7.258606,0,0.0,0.0,0.0,0.0
1.386232993,-0.013453845,0.82744855,0.5613803,-0.026563194,-0.56152874,0.8270308,0.99955666,-0.0037853103,0.029534398,-0.015133253,0.8465335,0.53212035,-0.03311659,-0.53231364,0.84589916,0.9993369,-0.004820804,0.036089938,10.0295105,-0.056228638,0.3026886,9.802302,-0.037121214,0.2896335,0.009674072,0.0184021,-0.0026397705,-51.298523,-5.758667,7.258606,0,0.0,0.0,0.0,0.0
1.394533774,-0.013540295,0.82793456,0.56066114,-0.026738202,-0.5608118,0.8275113,0.9995507,-0.0037863231,0.029731043,-0.015075081,0.8457971,0.53329164,-0.03285414,-0.53348327,0.8451723,0.99934644,-0.0047797984,0.03583024,10.066605,-0.050247192,0.3625183,9.802244,-0.037131146,0.29156193,0.00340271,0.0016174316,0.0010223389,-51.478577,-5.8792114,7.4386597,0,0.0,0.0,0.0,0.0
1.402834555,-0.013187015,0.8375072,0.5462671,-0.027049925,-0.5464134,0.83707863,0.9995471,-0.003737916,0.029860072,-0.015048154,0.8454486,0.5338447,-0.032730557,-0.53403556,0.84482825,0.9993509,-0.004759929,0.035708252,10.033112,-0.0035858154,0.37327576,9.802209,-0.036656436,0.29282728,0.00340271,-0.0025177002,0.0010223389,-51.478577,-5.819702,7.6797485,0,0.0,0.0,0.0,0.0
1.411135337,-0.013207287,0.8375664,0.54617596,-0.027059868,-0.54632294,0.8371374,0.9995465,-0.0037231355,0.029879877,-0.014977569,0.8451376,0.53433895,-0.032504454,-0.53452796,0.84452546,0.99935937,-0.004719457,0.035476666,10.021133,-0.011962891,0.33499146,9.802203,-0.03651149,0.2930215,0.0107421875,-0.010910034,0.007293701,-51.478577,-5.819702,7.6797485,0,0.0,0.0,0.0,0.0
1.419436118,-0.013514069,0.83082503,0.5563697,-0.02687528,-0.55652136,0.8303986,0.9995475,-0.003730526,0.02984952,-0.014910281,0.8448408,0.53480995,-0.032287747,-0.5349973,0.84423655,0.99936736,-0.004680003,0.035254966,10.021133,-0.011962891,0.33499146,9.802213,-0.036583964,0.2927238,0.011657715,-0.0104522705,0.0043945313,-51.53961,-5.819702,7.4386597,0,0.0,0.0,0.0,0.0
1.427736899,-0.0134608615,0.8306635,0.55661196,-0.026836768,-0.55676204,0.83023846,0.99954927,-0.0037619409,0.029786823,-0.014885026,0.8445659,0.5352447,-0.03217867,-0.5354314,0.84396553,0.9993713,-0.004661014,0.03514692,10.030716,-0.032302856,0.32063293,9.80223,-0.036892038,0.29210895,0.0011138916,-0.009994507,0.0013275146,-51.53961,-5.819702,7.4386597,0,0.0,0.0,0.0,0.0
1.43603768,-0.013433064,0.8305792,0.55673856,-0.026824817,-0.5568877,0.8301545,0.9995498,-0.0037828898,0.029760843,-0.014833732,0.8440259,0.5360973,-0.0319656,-0.53628254,0.843433,0.9993789,-0.0046254103,0.034934863,10.02713,-0.04547119,0.33738708,9.802236,-0.037097476,0.29185417,-0.0014801025,-0.011520386,0.0011749268,-51.53961,-5.819702,7.4386597,0,0.0,0.0,0.0,0.0
1.444338462,-0.012937326,0.8399063,0.5425772,-0.02694635,-0.54271835,0.8394823,0.99955314,-0.0037598184,0.029653734,-0.014782907,0.84350306,0.53692096,-0.031760387,-0.5371048,0.84291744,0.9993862,-0.004592046,0.034729954,9.98645,-0.020339966,0.29431152,9.802268,-0.036871225,0.2908038,-0.0068206787,-0.015029907,0.003479004,-51.779175,-5.758667,7.6797485,0,0.0,0.0,0.0,0.0
1.452639243,-0.013039123,0.83649856,0.54781413,-0.026745629,-0.5479564,0.8360793,0.9995572,-0.0037498916,0.029517544,-0.014746626,0.84343153,0.5370343,-0.031663872,-0.5372172,0.8428494,0.99938977,-0.004575402,0.034628447,9.94696,-0.07417297,0.30867004,9.802308,-0.036773875,0.28946823,-0.006210327,-0.018859863,4.119873E-4,-51.779175,-5.6396484,7.3791504,0,0.0,0.0,0.0,0.0
1.460940024,-0.012935081,0.83618075,0.5483013,-0.026725553,-0.54844034,0.8357623,0.99955904,-0.003843003,0.029441517,-0.014681343,0.8431596,0.53746283,-0.031468187,-0.53764415,0.84258443,0.9993969,-0.0045427117,0.034426045,9.933807,-0.09690857,0.3254242,9.802326,-0.037686985,0.28872266,-4.119873E-4,-0.004196167,0.002243042,-51.779175,-5.6396484,7.3791504,0,0.0,0.0,0.0,0.0
1.469240805,-0.012837066,0.83588123,0.5487602,-0.026718164,-0.5488962,0.8354634,0.9995606,-0.003936966,0.02937943,-0.014647644,0.84302133,0.5376807,-0.03137293,-0.53786105,0.84244955,0.99940044,-0.004528718,0.03432645,9.887146,-0.09451294,0.2763672,9.8023405,-0.038608443,0.28811377,0.0021820068,0.0063476563,0.0045318604,-51.779175,-5.6396484,7.3791504,0,0.0,0.0,0.0,0.0
1.477541587,-0.012954194,0.8314948,0.5553814,-0.026755964,-0.5555174,0.8310743,0.9995581,-0.0040938677,0.029443726,-0.014578188,0.84274125,0.5381214,-0.031187544,-0.5383,0.84217596,0.99940723,-0.004505285,0.03413047,9.918243,-0.11843872,0.27757263,9.802317,-0.04014713,0.28874433,0.013641357,0.022994995,0.0095825195,-52.018738,-5.819702,7.499695,0,0.0,0.0,0.0,0.0
1.485842368,-0.0129012065,0.83133364,0.5556239,-0.026988365,-0.55575716,0.83090645,0.9995524,-0.0042756847,0.029606273,-0.014517227,0.8423026,0.53880936,-0.031010548,-0.53898627,0.8417435,0.9994136,-0.0044889934,0.03394485,9.918243,-0.11843872,0.27757263,9.802261,-0.041930143,0.29033837,0.022491455,0.02848816,0.011413574,-52.018738,-5.819702,7.499695,0,0.0,0.0,0.0,0.0
1.494143149,-0.0132484855,0.8225262,0.56857276,-0.026978739,-0.5687097,0.82209563,0.9995482,-0.0044478546,0.029725265,-0.014486391,0.84208655,0.53914785,-0.030929297,-0.5393238,0.8415303,0.9994166,-0.0044847275,0.033857998,9.94696,-0.102890015,0.24047852,9.802219,-0.043618552,0.29150528,0.022491455,0.015350342,0.012176514,-52.018738,-5.9387207,7.3791504,0,0.0,0.0,0.0,0.0
1.50244393,-0.013600272,0.81298405,0.582127,-0.02689788,-0.5822676,0.81255203,0.99954563,-0.004607054,0.02978655,-0.014442336,0.84133184,0.54032594,-0.030770514,-0.54050034,0.8407809,0.9994221,-0.004483267,0.0336943,9.96611,-0.093322754,0.25723267,9.802195,-0.045179766,0.29210627,0.034561157,0.008483887,0.015991211,-52.018738,-5.9387207,7.0785522,0,0.0,0.0,0.0,0.0
1.510744712,-0.013500208,0.81265604,0.5825871,-0.026993865,-0.58272403,0.8122215,0.9995444,-0.0047611203,0.029803628,-0.014415839,0.8402496,0.5420081,-0.030614303,-0.5421812,0.83970374,0.9994273,-0.004488169,0.033539653,9.929016,-0.08135986,0.26081848,9.802182,-0.046690643,0.29227376,0.03807068,0.0057373047,0.013549805,-52.018738,-5.9387207,7.0785522,0,0.0,0.0,0.0,0.0
1.519045493,-0.013401228,0.8123314,0.58304214,-0.027116606,-0.5831753,0.81189364,0.9995424,-0.004929752,0.029842936,-0.014400707,0.8397174,0.54283273,-0.030540392,-0.5430051,0.83917385,0.9994298,-0.004493628,0.033464957,9.913467,-0.088531494,0.2859497,9.802163,-0.048344355,0.29265922,0.050598145,0.0034484863,0.014312744,-52.018738,-5.9387207,7.0785522,0,0.0,0.0,0.0,0.0
1.527346274,-0.013259769,0.8134621,0.5814668,-0.027163269,-0.5815963,0.81302387,0.999543,-0.0050140307,0.02980812,-0.014366871,0.8386701,0.5444503,-0.030401707,-0.5446211,0.838131,0.9994345,-0.0045108986,0.033321504,9.991226,-0.0382843,0.24526978,9.802169,-0.049170844,0.2923178,0.04815674,0.005279541,0.010040283,-51.838684,-5.819702,6.9595337,0,0.0,0.0,0.0,0.0
1.535647055,-0.013269103,0.8134931,0.58142316,-0.027115379,-0.5815532,0.81305623,0.9995442,-0.0049769836,0.029774865,-0.014328035,0.8377034,0.5459374,-0.03027051,-0.54610664,0.8371686,0.99943906,-0.0045308233,0.033182345,10.015152,0.021530151,0.24885559,9.80218,-0.04880754,0.29199168,0.046463013,0.001449585,0.0016326904,-51.838684,-5.819702,6.9595337,0,0.0,0.0,0.0,0.0
1.543947837,-0.012608483,0.8281188,0.5604109,-0.027356904,-0.5605314,0.8276813,0.99954623,-0.004895302,0.029722214,-0.014309277,0.8372342,0.54665726,-0.03020602,-0.5468256,0.8367015,0.99944127,-0.0045397463,0.03311419,10.015152,0.021530151,0.24885559,9.8022,-0.048006516,0.29147536,0.03807068,-0.0016021729,0.002090454,-51.779175,-5.5786133,7.0785522,0,0.0,0.0,0.0,0.0
1.552248618,-0.012388307,0.83346564,0.5524324,-0.027394062,-0.5525503,0.83302927,0.99954796,-0.004813546,0.029677173,-0.014243672,0.8368775,0.5472048,-0.030092027,-0.5473712,0.8363488,0.9994456,-0.0045538256,0.032979917,10.009171,0.008377075,0.2644043,9.8022175,-0.04720476,0.29103366,0.02508545,0.0013122559,-0.0030975342,-51.65863,-5.4595947,7.0785522,0,0.0,0.0,0.0,0.0
1.560549399,-0.012413011,0.83354443,0.5523129,-0.02731373,-0.55243194,0.8331103,0.9995498,-0.004744319,0.029624553,-0.014170808,0.83674306,0.54741234,-0.029984703,-0.54757667,0.8362181,0.9994499,-0.0045641107,0.032849096,9.98645,-0.010772705,0.25602722,9.802236,-0.046525873,0.29051763,0.020355225,-0.001449585,-0.0030975342,-51.65863,-5.4595947,7.0785522,0,0.0,0.0,0.0,0.0
1.56885018,-0.012438737,0.83362657,0.5521884,-0.027283654,-0.55230844,0.83319324,0.99955034,-0.0047018463,0.029614396,-0.014135906,0.83667934,0.54751056,-0.029931,-0.547674,0.83615625,0.999452,-0.0045677144,0.032784518,9.958923,-0.04547119,0.2907257,9.80224,-0.046109363,0.29041803,0.014862061,-0.0019073486,-0.00920105,-51.65863,-5.4595947,7.0785522,0,0.0,0.0,0.0,0.0
1.577150962,-0.012435256,0.8348337,0.55036163,-0.027392277,-0.55048203,0.83439744,0.9995474,-0.0046997154,0.029713385,-0.014069295,0.83655894,0.54769635,-0.029825855,-0.54785794,0.83603954,0.9994561,-0.0045730257,0.03265906,9.951752,-0.09690857,0.3361969,9.802212,-0.046088465,0.29138878,-2.593994E-4,0.027420044,-0.012557983,-51.779175,-5.3985596,7.019043,0,0.0,0.0,0.0,0.0
1.585451743,-0.012604354,0.83537734,0.5495324,-0.027584711,-0.5496574,0.83493465,0.99954003,-0.004634878,0.029971719,-0.014004808,0.8364908,0.547802,-0.029729193,-0.54796183,0.8359749,0.99945986,-0.0045780432,0.032542296,9.963715,-0.058624268,0.36489868,9.802139,-0.04545263,0.29392216,0.0035552979,0.02848816,-0.0066070557,-51.779175,-5.3985596,7.019043,0,0.0,0.0,0.0,0.0
1.593752524,-0.012436307,0.84259945,0.53839713,-0.027958425,-0.5385213,0.84214795,0.99953175,-0.004579525,0.03025497,-0.013976915,0.8364686,0.5478366,-0.029686296,-0.54799575,0.8359541,0.99946153,-0.00457918,0.032490946,9.963715,-0.058624268,0.36489868,9.802057,-0.044909798,0.29669988,0.0035552979,0.0071105957,-0.011184692,-51.89972,-5.519104,7.4386597,0,0.0,0.0,0.0,0.0
1.602053305,-0.011823877,0.8565812,0.51587677,-0.028365117,-0.5159925,0.85612327,0.99952763,-0.004510207,0.030398058,-0.013915147,0.8367134,0.54746425,-0.029618481,-0.54762197,0.8362015,0.9994644,-0.004579194,0.03240242,9.963715,-0.058624268,0.36489868,9.802018,-0.044230025,0.29810312,0.0093688965,-0.012588501,-0.01210022,-51.719666,-5.3390503,7.6797485,0,0.0,0.0,0.0,0.0
1.610354087,-0.01189102,0.8567724,0.5155575,-0.028340273,-0.5156756,0.8563151,0.99952763,-0.0044285804,0.030413076,-0.013872198,0.8371223,0.54683983,-0.029594507,-0.5469966,0.8366115,0.9994657,-0.004577814,0.032362267,10.039093,-0.061019897,0.3637085,9.802018,-0.04342954,0.2982504,0.01928711,-0.0118255615,-0.011184692,-51.719666,-5.3390503,7.6797485,0,0.0,0.0,0.0,0.0
1.618654868,-0.011913547,0.8568367,0.5154504,-0.028386014,-0.51556903,0.8563778,0.999526,-0.0044290833,0.03046443,-0.013791714,0.83792245,0.5456151,-0.029546978,-0.54577017,0.8374138,0.99946827,-0.004571905,0.032285184,10.037888,-0.10887146,0.40678406,9.802002,-0.04343447,0.298754,0.02355957,-0.007095337,-0.005996704,-51.719666,-5.3390503,7.6797485,0,0.0,0.0,0.0,0.0
1.626955649,-0.012402787,0.8487021,0.5287259,-0.028223233,-0.528853,0.8482441,0.99952465,-0.0044017634,0.030512365,-0.0137154125,0.8386918,0.5444336,-0.029502781,-0.5445872,0.83818513,0.9994706,-0.004566249,0.03221298,10.064209,-0.08255005,0.38165283,9.80199,-0.04316656,0.2992241,0.0256958,-0.01335144,-0.011489868,-51.838684,-5.279541,7.258606,0,0.0,0.0,0.0,0.0
1.63525643,-0.012430373,0.8487861,0.5285901,-0.028223293,-0.5287181,0.84832805,0.99952435,-0.0043735197,0.030527705,-0.013688619,0.8388948,0.5441214,-0.02947752,-0.5442744,0.83838916,0.99947166,-0.0045629595,0.032178905,10.064209,-0.08255005,0.38165283,9.801986,-0.042889576,0.29937452,0.020355225,-0.021606445,-0.007369995,-51.838684,-5.279541,7.258606,0,0.0,0.0,0.0,0.0
1.643557212,-0.012386178,0.84779894,0.5301732,-0.028055599,-0.5302998,0.8473459,0.9995296,-0.0043789493,0.030353893,-0.01363781,0.8392921,0.5435097,-0.029428538,-0.54366165,0.83878845,0.99947387,-0.004555458,0.032113496,9.998413,-0.09451294,0.3026886,9.802037,-0.042942822,0.29767,0.021118164,-0.024963379,-0.0040130615,-51.65863,-5.519104,7.6187134,0,0.0,0.0,0.0,0.0
1.651857993,-0.011312496,0.8647376,0.5020966,-0.02829976,-0.5022045,0.8642857,0.99953544,-0.0044319844,0.030153051,-0.01358741,0.839633,0.5429841,-0.029374871,-0.54313505,0.83913136,0.9994761,-0.0045484686,0.03204391,9.979263,-0.1040802,0.28953552,9.802094,-0.04346292,0.29570043,0.01638794,-0.012893677,0.008056641,-51.65863,-5.0994873,7.6187134,0,0.0,0.0,0.0,0.0
1.660158774,-0.011174877,0.8643484,0.5027693,-0.028222226,-0.50287306,0.8638995,0.99953926,-0.004535298,0.030013379,-0.013540662,0.8401543,0.54217845,-0.029354917,-0.5423285,0.83965355,0.9994773,-0.004546139,0.032006145,9.979263,-0.1040802,0.28953552,9.802132,-0.04447608,0.29433072,0.018371582,-0.0060272217,0.00592041,-51.65863,-5.0994873,7.6187134,0,0.0,0.0,0.0,0.0
1.668459555,-0.011135975,0.8642383,0.5029594,-0.028216226,-0.5030619,0.8637897,0.9995398,-0.004572474,0.029987628,-0.013444585,0.841147,0.5406394,-0.029313214,-0.5407874,0.8406484,0.9994799,-0.0045457096,0.03192739,9.970886,-0.035888672,0.30389404,9.802137,-0.044840652,0.29407817,0.024932861,0.0019226074,0.0069885254,-51.65863,-5.0994873,7.6187134,0,0.0,0.0,0.0,0.0
1.676760337,-0.011360983,0.8597516,0.510586,-0.02815172,-0.5106916,0.85930294,0.99953914,-0.004611349,0.030005448,-0.01335087,0.842093,0.53916705,-0.029272582,-0.5393132,0.84159636,0.99948233,-0.00454677,0.03185054,10.003189,-0.010772705,0.2715912,9.802131,-0.045221888,0.29425293,0.014556885,5.340576E-4,0.0045318604,-51.59912,-5.0994873,7.4386597,0,0.0,0.0,0.0,0.0
1.685061118,-0.011345161,0.8597054,0.5106641,-0.028119918,-0.5107693,0.85925776,0.9995402,-0.0046114163,0.029969608,-0.013310182,0.8424556,0.5386013,-0.029251141,-0.5387465,0.84196,0.99948347,-0.004548061,0.0318136,10.003189,-0.010772705,0.2715912,9.802141,-0.045222547,0.29390147,0.016082764,-5.340576E-4,0.0065307617,-51.59912,-5.0994873,7.4386597,0,0.0,0.0,0.0,0.0
1.693361899,-0.011363054,0.8592431,0.51144123,-0.028172597,-0.5115463,0.85879374,0.9995385,-0.00465011,0.03001984,-0.013230641,0.8431561,0.537506,-0.029208109,-0.5376495,0.8426624,0.9994858,-0.0045505697,0.031740446,10.02832,-0.044265747,0.34457397,9.802124,-0.045602,0.29439408,0.0093688965,-0.008163452,0.0031738281,-51.65863,-5.039978,7.319641,0,0.0,0.0,0.0,0.0
1.70166268,-0.010591108,0.8723004,0.4888556,-0.028586209,-0.48894733,0.87184477,0.9995352,-0.0047407253,0.030114256,-0.013155323,0.84380835,0.53648335,-0.029168863,-0.5366253,0.8433164,0.99948794,-0.0045545115,0.03167241,10.02832,-0.044265747,0.34457397,9.802092,-0.046490632,0.29531994,-0.0017852783,8.392334E-4,-0.0035552979,-51.35956,-4.8599243,7.559204,0,0.0,0.0,0.0,0.0
1.709963462,-0.0105891125,0.87229484,0.48886558,-0.02871324,-0.48895663,0.87183535,0.99953157,-0.0048049516,0.030224027,-0.013103038,0.84440404,0.5355466,-0.029159097,-0.5356875,0.8439127,0.9994889,-0.004558236,0.031641193,9.9673,-0.098098755,0.3912201,9.802056,-0.047120478,0.29639646,-0.0059051514,0.002670288,0.0030059814,-51.35956,-4.8599243,7.559204,0,0.0,0.0,0.0,0.0
1.718264243,-0.010589697,0.87229645,0.48886266,-0.028821595,-0.4889532,0.8718337,0.99952847,-0.004857347,0.030318843,-0.013001929,0.84555674,0.5337273,-0.02914504,-0.5338661,0.84506667,0.9994906,-0.0045680064,0.031585075,9.932602,-0.08135986,0.35653687,9.802026,-0.0476343,0.2973263,-0.008956909,0.0032958984,-5.0354004E-4,-51.35956,-4.8599243,7.559204,0,0.0,0.0,0.0,0.0
1.726565024,-0.011074841,0.8640139,0.5033462,-0.02873512,-0.5034442,0.8635499,0.9995257,-0.0049000354,0.030403106,-0.012905242,0.8466599,0.53197783,-0.029135618,-0.5321146,0.84617084,0.99949217,-0.0045794644,0.03153503,10.037888,-0.07537842,0.34457397,9.801999,-0.048052933,0.29815263,-0.006210327,0.0017547607,-0.0052337646,-51.119995,-4.9194336,7.319641,0,0.0,0.0,0.0,0.0
1.734865805,-0.011092733,0.86406606,0.5032562,-0.028795227,-0.5033545,0.8636001,0.99952376,-0.004911693,0.030464554,-0.012868248,0.84701633,0.5314111,-0.029128494,-0.53154707,0.84652776,0.9994929,-0.0045858757,0.03151239,10.037888,-0.07537842,0.34457397,9.80198,-0.048167255,0.29875523,-7.171631E-4,-0.010604858,-0.005996704,-51.119995,-4.9194336,7.319641,0,0.0,0.0,0.0,0.0
1.743166587,-0.011305111,0.8599621,0.51023257,-0.028673708,-0.51033413,0.85949796,0.9995249,-0.004913541,0.03042769,-0.012797233,0.8477092,0.5303069,-0.029116852,-0.53044134,0.84722143,0.99949414,-0.004598778,0.031470805,10.097717,-0.08255005,0.35653687,9.8019905,-0.048185375,0.2983937,0.011199951,-0.031066895,-0.004776001,-50.93994,-4.798889,6.9595337,0,0.0,0.0,0.0,0.0
1.751467368,-0.009001783,0.8957133,0.44454068,-0.029350245,-0.44460383,0.89524627,0.99952865,-0.0049885674,0.03029164,-0.012737613,0.84820324,0.5295177,-0.029100304,-0.52965087,0.8477164,0.9994953,-0.004611243,0.03142946,10.021133,-0.13877869,0.37088013,9.802028,-0.048921138,0.2970595,0.026306152,-0.04206848,-0.0023345947,-50.579834,-4.319763,7.6797485,0,0.0,0.0,0.0,0.0
1.759768149,-0.008860155,0.8953523,0.4452704,-0.029194644,-0.44532967,0.89489055,0.9995345,-0.005070641,0.030085182,-0.012662439,0.84923404,0.52786475,-0.029109735,-0.52799636,0.84874755,0.999496,-0.0046187895,0.0314067,10.021133,-0.13877869,0.37088013,9.802085,-0.049726006,0.29503486,0.023254395,-0.041000366,-0.0026397705,-50.579834,-4.319763,7.6797485,0,0.0,0.0,0.0,0.0
1.76806893,-0.008996005,0.8901081,0.45566067,-0.028879989,-0.4557203,0.88965446,0.9995424,-0.0051561375,0.029805975,-0.012436895,0.8521613,0.5231314,-0.029127605,-0.52325857,0.851676,0.9994983,-0.0046453616,0.03132913,9.933807,-0.12562561,0.31944275,9.802163,-0.050564438,0.29229677,0.041732788,-0.019927979,0.007293701,-50.639343,-4.319763,7.4386597,0,0.0,0.0,0.0,0.0
1.776369712,-0.008831974,0.8896683,0.45652193,-0.028743125,-0.45657694,0.8892194,0.9995478,-0.005268303,0.029604325,-0.012436895,0.8521613,0.5231314,-0.029127605,-0.52325857,0.851676,0.9994983,-0.0046453616,0.03132913,9.933807,-0.12562561,0.31944275,9.802216,-0.05166441,0.29031926,0.041732788,-0.019927979,0.007293701,-50.639343,-4.319763,7.4386597,0,0.0,0.0,0.0,0.0
1.784670493,-0.008635524,0.88914055,0.45755276,-0.028729947,-0.45760155,0.8886931,0.9995499,-0.0054711355,0.02949659,-0.012291949,0.85374314,0.52054924,-0.029119719,-0.52067345,0.85325915,0.99950033,-0.004670031,0.03126085,9.931412,-0.16870117,0.29670715,9.802237,-0.053653512,0.28926274,0.038223267,0.0032958984,0.007598877,-50.639343,-4.319763,7.4386597,0,0.0,0.0,0.0,0.0
1.792971274,-0.009671263,0.867312,0.49767086,-0.02827505,-0.49773234,0.8668697,0.99955344,-0.0056879437,0.029336995,-0.0121451635,0.85523117,0.5181044,-0.029111534,-0.5182254,0.8547485,0.9995024,-0.004701754,0.031191027,9.942184,-0.16749573,0.17826843,9.802271,-0.055779673,0.28769764,0.022644043,0.008026123,0.011260986,-50.639343,-4.798889,7.3791504,0,0.0,0.0,0.0,0.0
1.801272055,-0.0094594415,0.8667057,0.49873018,-0.028304614,-0.49878472,0.8662636,0.9995546,-0.0059219957,0.029249994,-0.0120952595,0.85547745,0.51769876,-0.029095821,-0.5178185,0.85499555,0.99950343,-0.0047214776,0.03115397,9.942184,-0.16749573,0.17826843,9.802282,-0.05807494,0.28684446,0.017303467,0.017486572,0.013549805,-50.639343,-4.798889,7.3791504,0,0.0,0.0,0.0,0.0
1.809572837,-0.008294188,0.88297683,0.46934336,-0.028663773,-0.46937656,0.8825328,0.9995547,-0.0061332574,0.029202543,-0.011939083,0.8561492,0.5165908,-0.02905199,-0.51670647,0.85566956,0.9995066,-0.0047920784,0.031041836,9.973282,-0.08734131,0.29910278,9.802283,-0.06014671,0.28637913,-0.003921509,0.009857178,5.645752E-4,-50.39978,-4.6188354,7.798767,0,0.0,0.0,0.0,0.0
1.817873618,-0.008301097,0.88299483,0.46930933,-0.028779266,-0.46934202,0.8825473,0.9995513,-0.0061802682,0.029307997,-0.011865562,0.8567108,0.5156606,-0.029047351,-0.5157745,0.8562318,0.9995076,-0.004818902,0.031005135,9.973282,-0.08734131,0.3361969,9.80225,-0.060607728,0.28741327,-0.003921509,0.006958008,-0.004470825,-50.39978,-4.6188354,7.798767,0,0.0,0.0,0.0,0.0
1.826174399,-0.008183367,0.8855997,0.46437714,-0.028946089,-0.4644079,0.8851482,0.9995475,-0.006198411,0.02943507,-0.011793738,0.85726064,0.5147476,-0.029044902,-0.5148599,0.8567822,0.9995085,-0.004846129,0.030971173,9.973282,-0.08734131,0.3361969,9.802212,-0.060785644,0.28865942,0.001876831,0.006958008,-0.00340271,-50.219727,-4.6798706,8.039856,0,0.0,0.0,0.0,0.0
1.83447518,-0.008251402,0.8857699,0.46405128,-0.029037481,-0.46408364,0.8853153,0.99954426,-0.0061697876,0.029549867,-0.011650076,0.85843813,0.5127847,-0.029047249,-0.5128937,0.8579606,0.99951017,-0.0048996797,0.030910518,10.023529,-0.06819153,0.34934998,9.802181,-0.060504947,0.2897852,0.009811401,6.866455E-4,-0.009811401,-50.219727,-4.6798706,8.039856,0,0.0,0.0,0.0,0.0
1.842775962,-0.008792631,0.8779767,0.47862244,-0.02888892,-0.47866416,0.8775226,0.9995439,-0.006111155,0.02957252,-0.011514949,0.85957223,0.5108846,-0.029052388,-0.5109903,0.85909545,0.99951154,-0.0049499767,0.030856652,9.996017,-0.051452637,0.32183838,9.802178,-0.059929963,0.29000738,0.011047363,-0.016723633,-0.007675171,-50.338745,-4.9194336,8.099365,0,0.0,0.0,0.0,0.0
1.851076743,-0.008832913,0.8780789,0.47843415,-0.02880408,-0.4784777,0.8776271,0.99954605,-0.0060288543,0.029518614,-0.0114602875,0.85995215,0.510246,-0.029050767,-0.51035047,0.8594757,0.99951226,-0.0049732,0.030831033,9.996017,-0.051452637,0.32183838,9.802198,-0.059122864,0.28947872,0.015319824,-0.015182495,-0.015472412,-50.338745,-4.9194336,8.099365,0,0.0,0.0,0.0,0.0
1.859377524,-0.007866638,0.89275783,0.4504682,-0.02892753,-0.45049676,0.8923093,0.9995505,-0.0060114595,0.029369172,-0.01135573,0.86069214,0.50899905,-0.029044043,-0.50910103,0.8602166,0.9995136,-0.0050150044,0.030779194,9.9266205,-0.11366272,0.26200867,9.802242,-0.05895228,0.2880132,0.015777588,-0.0064849854,-0.012557983,-50.219727,-4.559326,8.1588745,0,0.0,0.0,0.0,0.0
1.867678305,-0.00783637,0.89268464,0.45061368,-0.028850246,-0.45064175,0.89223856,0.999553,-0.006008404,0.029285569,-0.011216508,0.8620361,0.50672287,-0.029045809,-0.5068218,0.8615615,0.9995152,-0.005054465,0.030723307,9.94577,-0.14117432,0.26560974,9.802267,-0.058922317,0.28719333,0.01776123,8.392334E-4,-0.0137786865,-50.219727,-4.559326,8.1588745,0,0.0,0.0,0.0,0.0
1.875979087,-0.0073519317,0.90009826,0.43562502,-0.028937414,-0.43564582,0.89965284,0.9995541,-0.005991675,0.029249353,-0.011148282,0.8626841,0.5056204,-0.029044917,-0.5057179,0.8622099,0.99951595,-0.0050735436,0.03069447,9.94577,-0.14117432,0.26560974,9.802278,-0.05875826,0.28683817,0.016998291,0.0017547607,-0.014694214,-50.039673,-4.6188354,8.699036,0,0.0,0.0,0.0,0.0
1.884279868,-0.007347305,0.90008795,0.43564618,-0.028816607,-0.4356676,0.89964616,0.99955773,-0.0059438697,0.029138466,-0.010996593,0.8642708,0.5029066,-0.0290486,-0.5030009,0.8637976,0.9995175,-0.005109902,0.03063715,9.9673,-0.12083435,0.21655273,9.802313,-0.058289453,0.28575075,0.012878418,-0.011520386,-0.017150879,-50.039673,-4.6188354,8.699036,0,0.0,0.0,0.0,0.0
1.892580649,-0.00741464,0.89911485,0.4376499,-0.02869147,-0.43767306,0.8986763,0.99956083,-0.0058934586,0.029042117,-0.010850573,0.86578614,0.5002965,-0.029046934,-0.5003877,0.86531407,0.99951917,-0.0051429276,0.030577928,9.978073,-0.18066406,0.26679993,9.802343,-0.05779509,0.2848059,0.011352539,-0.010910034,-0.01423645,-50.039673,-4.559326,8.518982,0,0.0,0.0,0.0,0.0
1.90088143,-0.0073349136,0.8989344,0.43802166,-0.028606236,-0.4380428,0.8984988,0.9995638,-0.0059397407,0.02892814,-0.010781005,0.86649615,0.49906737,-0.02904328,-0.49915716,0.86602455,0.99952,-0.005157938,0.030547304,9.978073,-0.18066406,0.26679993,9.802373,-0.05824896,0.28368816,0.013946533,-3.8146973E-4,-0.013931274,-50.039673,-4.559326,8.518982,0,0.0,0.0,0.0,0.0
1.909182212,-0.0068180417,0.90498984,0.42537844,-0.02872577,-0.42539003,0.90455407,0.99956405,-0.006052036,0.028896859,-0.010642603,0.8678606,0.49669376,-0.029032353,-0.49678066,0.8673904,0.9995218,-0.0051888973,0.030483076,9.957733,-0.22372437,0.2596283,9.802376,-0.059350204,0.2833814,0.0014190674,0.015045166,-0.0110321045,-50.15869,-4.4387817,8.639526,0,0.0,0.0,0.0,0.0
1.917482993,-0.0067938357,0.9049368,0.42549175,-0.028787266,-0.42550224,0.9044994,0.9995625,-0.0061037242,0.028941449,-0.010489263,0.8694397,0.49392766,-0.029028418,-0.49401143,0.8689707,0.9995235,-0.0052230773,0.030420275,10.011566,-0.16989136,0.25125122,9.80236,-0.05985709,0.28381866,0.00340271,0.009552002,-0.005996704,-50.15869,-4.4387817,8.639526,0,0.0,0.0,0.0,0.0
1.925783774,-0.00640556,0.9098535,0.41488016,-0.028932394,-0.41488358,0.90941435,0.99956083,-0.006178169,0.028981803,-0.010414563,0.8702012,0.49258658,-0.029027537,-0.49266878,0.8697327,0.99952435,-0.00524069,0.030390725,10.011566,-0.16989136,0.25125122,9.802343,-0.06058714,0.2842144,-0.005142212,0.005126953,-0.011947632,-50.15869,-4.319763,8.699036,0,0.0,0.0,0.0,0.0
1.934084555,-0.006365148,0.90976703,0.4150702,-0.028996719,-0.41507202,0.9093263,0.9995593,-0.0062476792,0.029022258,-0.010254376,0.8718997,0.48957703,-0.029032832,-0.48965594,0.87143224,0.99952585,-0.0052778143,0.030334836,9.960129,-0.1651001,0.28115845,9.802328,-0.061268806,0.28461114,-0.011245728,-0.0032806396,-0.009506226,-50.15869,-4.319763,8.699036,0,0.0,0.0,0.0,0.0
1.942385337,-0.006436262,0.9088728,0.41702378,-0.029044708,-0.4170264,0.9084302,0.99955744,-0.00626544,0.029082038,-0.010099237,0.87351716,0.48668855,-0.029039854,-0.48676428,0.87305045,0.9995272,-0.005316221,0.03028276,9.988831,-0.12322998,0.31944275,9.80231,-0.06144298,0.28519738,-0.011871338,0.008483887,-0.0017242432,-50.219727,-4.319763,8.639526,0,0.0,0.0,0.0,0.0
1.950686118,-0.0064234757,0.90884507,0.41708425,-0.02913257,-0.41708586,0.90839994,0.9995549,-0.0063156523,0.029156137,-0.010025521,0.8742774,0.48532304,-0.029043786,-0.48539725,0.8738112,0.9995279,-0.0053352057,0.030258687,9.988831,-0.12322998,0.31944275,9.802285,-0.061935395,0.28592405,-0.0074310303,0.0075683594,-0.0024871826,-50.219727,-4.319763,8.639526,0,0.0,0.0,0.0,0.0
1.958986899,-0.006405965,0.90884024,0.41709533,-0.029251844,-0.41709572,0.90839183,0.9995516,-0.0063816807,0.029257149,-0.009882348,0.8757453,0.48267227,-0.029054603,-0.4827435,0.8752797,0.999529,-0.0053740316,0.030215072,10.036697,-0.12802124,0.32661438,9.802253,-0.06258291,0.28691462,-0.009887695,0.0036010742,-0.0023345947,-50.338745,-4.319763,8.639526,0,0.0,0.0,0.0,0.0
1.96728768,-0.0063974545,0.90882176,0.41713572,-0.02929059,-0.4171356,0.9083723,0.9995505,-0.00640688,0.029288528,-0.009744562,0.87714726,0.4801226,-0.029069282,-0.48019093,0.8766822,0.9995299,-0.005413935,0.030177291,9.961319,-0.041870117,0.27876282,9.802242,-0.06283003,0.28722236,-0.025604248,0.0017547607,-5.0354004E-4,-50.338745,-4.319763,8.639526,0,0.0,0.0,0.0,0.0
1.975588462,-0.005503535,0.92163914,0.38800913,-0.029464327,-0.387996,0.9211901,0.9995507,-0.0063626254,0.029290823,-0.009677585,0.8778241,0.4788852,-0.029076934,-0.47895214,0.8773593,0.9995303,-0.005433794,0.030159537,9.961319,-0.041870117,0.27876282,9.802244,-0.062396042,0.28724486,-0.034469604,0.0046691895,-0.0035552979,-49.798584,-3.9596558,8.699036,0,0.0,0.0,0.0,0.0
1.983889243,-0.0054845717,0.9216008,0.38810024,-0.02954356,-0.38808596,0.92114943,0.9995484,-0.006413753,0.029355856,-0.00951248,0.8797327,0.4753733,-0.029102597,-0.475437,0.8792682,0.99953115,-0.0054705753,0.030125095,9.972092,-0.12083435,0.3062744,9.802222,-0.06289744,0.28788263,-0.046218872,0.011230469,-0.009353638,-49.798584,-3.9596558,8.699036,0,0.0,0.0,0.0,0.0
1.992190024,-0.006558506,0.9068821,0.42133325,-0.029467735,-0.4213346,0.9064263,0.9995442,-0.006470935,0.02948709,-0.00935342,0.88155055,0.47199705,-0.029129623,-0.47205758,0.88108635,0.9995319,-0.005507925,0.030094586,9.927826,-0.14356995,0.324234,9.80218,-0.0634582,0.28916958,-0.052642822,0.023910522,-0.0070648193,-50.039673,-4.319763,8.518982,0,0.0,0.0,0.0,0.0
2.000490805,-0.006581752,0.9069333,0.42122272,-0.029670354,-0.4212235,0.9064714,0.99953806,-0.006531657,0.029681424,-0.009297667,0.88208526,0.47099805,-0.029138561,-0.47105742,0.8816212,0.99953216,-0.0055271853,0.03008243,9.927826,-0.14356995,0.324234,9.80212,-0.06405368,0.29107535,-0.055389404,0.035202026,-0.004776001,-50.039673,-4.319763,8.518982,0,0.0,0.0,0.0,0.0
2.008791587,-0.006281386,0.912402,0.40924692,-0.030182848,-0.4092415,0.9119266,0.9995246,-0.006624074,0.030109497,-0.009190833,0.8831217,0.4690538,-0.02916365,-0.46911082,0.88265765,0.9995324,-0.0055669616,0.030066574,9.920639,-0.15074158,0.4247284,9.801988,-0.06495997,0.29527327,-0.043930054,0.027114868,-6.5612793E-4,-50.15869,-4.1397095,8.459473,0,0.0,0.0,0.0,0.0
2.017092368,-0.0063387174,0.9125268,0.40896803,-0.030501304,-0.4089624,0.9120414,0.99951464,-0.006692884,0.030425549,-0.009077591,0.88435686,0.4667233,-0.029208818,-0.46677786,0.8838921,0.9995321,-0.005608824,0.030068235,9.954147,-0.119644165,0.34457397,9.80189,-0.06563477,0.29837272,-0.032180786,-0.0011444092,-0.010574341,-50.15869,-4.1397095,8.459473,0,0.0,0.0,0.0,0.0
2.025393149,-0.007555031,0.89591765,0.44415584,-0.030397251,-0.444169,0.8954272,0.9995094,-0.0067361356,0.030589147,-0.009024157,0.88495654,0.46558625,-0.02923689,-0.46563965,0.8844913,0.99953175,-0.0056305053,0.03007538,9.954147,-0.119644165,0.34457397,9.801839,-0.06605893,0.29997706,-1.0681152E-4,-0.018554688,-0.007369995,-50.39978,-4.6188354,8.459473,0,0.0,0.0,0.0,0.0
2.03369393,-0.00749252,0.89577276,0.44444916,-0.030344913,-0.44446063,0.8952843,0.9995114,-0.006778835,0.030512275,-0.008966912,0.8854004,0.4647427,-0.029283766,-0.46479455,0.8849342,0.9995309,-0.005674289,0.03009563,10.045074,-0.14955139,0.32901,9.801859,-0.066477664,0.2992232,0.010131836,-0.026184082,-0.008590698,-50.39978,-4.6188354,8.459473,0,0.0,0.0,0.0,0.0
2.041994712,-0.007547726,0.8921073,0.45176074,-0.030159127,-0.45177117,0.891624,0.99951655,-0.0068949745,0.030315017,-0.008909337,0.88582003,0.46394348,-0.029326713,-0.4639938,0.88535297,0.9995302,-0.005718029,0.030112065,10.012772,-0.20698547,0.31704712,9.801909,-0.067616604,0.29728878,0.0053863525,-0.022369385,-0.013931274,-50.279236,-4.73938,8.518982,0,0.0,0.0,0.0,0.0
2.050295493,-0.007401986,0.89176804,0.45243216,-0.030039184,-0.45243865,0.8912894,0.9995213,-0.006993382,0.030136934,-0.008882309,0.8859474,0.46370065,-0.029343659,-0.46375015,0.88548,0.9995299,-0.005741568,0.030116111,10.012772,-0.20698547,0.31704712,9.801956,-0.06858165,0.29554236,-0.0031585693,-0.015182495,-0.017608643,-50.279236,-4.73938,8.518982,0,0.0,0.0,0.0,0.0
2.058596274,-0.007376539,0.8904892,0.45494452,-0.029943442,-0.45494956,0.89001364,0.99952435,-0.0070573846,0.030020267,-0.008852836,0.88606524,0.46347606,-0.029357836,-0.4635247,0.8855975,0.9995298,-0.005766604,0.030116465,9.98764,-0.1986084,0.32063293,9.801986,-0.0692093,0.29439825,-0.004837036,-0.011978149,-0.01210022,-50.39978,-4.73938,8.459473,0,0.0,0.0,0.0,0.0
2.066897055,-0.0073018824,0.89031297,0.4552906,-0.0299729,-0.45529303,0.889837,0.99952406,-0.007148893,0.030009758,-0.008794574,0.8862419,0.46313915,-0.0293815,-0.46318612,0.88577384,0.99952954,-0.0058177197,0.030112643,9.98764,-0.1986084,0.32063293,9.801983,-0.07010669,0.2942952,-0.010498047,0.0071105957,-0.0043182373,-50.39978,-4.73938,8.459473,0,0.0,0.0,0.0,0.0
2.075197837,-0.0067086546,0.8987624,0.43838483,-0.030148894,-0.4383772,0.8982854,0.9995229,-0.0071905293,0.03003761,-0.008735659,0.8864045,0.46282908,-0.029405393,-0.46287426,0.8859361,0.9995294,-0.0058704345,0.030108584,9.970886,-0.12083435,0.30029297,9.801971,-0.07051501,0.29456833,-0.027893066,-0.0037384033,0.0023956299,-50.639343,-4.6798706,8.81958,0,0.0,0.0,0.0,0.0
2.083498618,-0.0066367956,0.89860284,0.43871275,-0.030154059,-0.43870273,0.8981261,0.99952316,-0.0072682896,0.030008104,-0.0086954655,0.88665813,0.46234366,-0.029421115,-0.46238783,0.8861895,0.99952924,-0.0058968365,0.03010715,9.978073,-0.013153076,0.30867004,9.801974,-0.07127757,0.29427898,-0.03201294,-0.015182495,2.593994E-4,-50.639343,-4.6798706,8.81958,0,0.0,0.0,0.0,0.0
2.091799399,-0.0066413092,0.89861286,0.43869212,-0.030001633,-0.43868333,0.89814067,0.99952775,-0.00719665,0.029873285,-0.008614633,0.88714314,0.46141398,-0.029451901,-0.46145603,0.88667405,0.99952906,-0.005951146,0.030103326,10.019943,-0.008377075,0.30867004,9.802019,-0.07057503,0.29295686,-0.047439575,-0.026641846,0.0017852783,-50.639343,-4.6798706,8.81958,0,0.0,0.0,0.0,0.0
2.10010018,-0.005757428,0.9092335,0.41624665,-0.030107468,-0.41622245,0.90876424,0.9995301,-0.0072999876,0.02977109,-0.0085368985,0.88760847,0.46051964,-0.02947515,-0.4605597,0.88713926,0.99952906,-0.006000468,0.030094143,10.072586,-0.13877869,0.3517456,9.802042,-0.07158843,0.29195467,-0.04789734,-0.004348755,-0.0037078857,-50.338745,-4.4387817,8.999634,0,0.0,0.0,0.0,0.0
2.108400962,-0.0063880975,0.89910054,0.43769568,-0.029987158,-0.43768,0.89863074,0.9995299,-0.0073847086,0.029757408,-0.008481777,0.88806236,0.45964473,-0.02948979,-0.4596835,0.8875931,0.99952906,-0.006026459,0.030087702,10.046265,-0.24765015,0.45703125,9.80204,-0.072419256,0.2918205,-0.050964355,-0.0032806396,-0.0030975342,-50.639343,-4.798889,9.118652,0,0.0,0.0,0.0,0.0
2.116701743,-0.0062883035,0.8988862,0.4381371,-0.030262291,-0.43811616,0.8984089,0.9995222,-0.0076095643,0.029957362,-0.008399294,0.8885098,0.4587808,-0.02951117,-0.4588174,0.88804036,0.9995292,-0.0060802456,0.030074706,10.019943,-0.21057129,0.43070984,9.801965,-0.07462434,0.29378137,-0.043777466,3.8146973E-4,-0.00340271,-50.639343,-4.798889,9.118652,0,0.0,0.0,0.0,0.0
2.125002524,-0.0062286574,0.898758,0.4384008,-0.030516438,-0.43837595,0.89827347,0.9995148,-0.007783394,0.030157385,-0.008275941,0.88913345,0.4575732,-0.02955747,-0.45760646,0.8886635,0.9995288,-0.0061701816,0.03006766,10.10968,-0.17468262,0.3900299,9.801892,-0.07632902,0.29574293,-0.047286987,3.8146973E-4,0.0045318604,-50.639343,-4.798889,9.118652,0,0.0,0.0,0.0,0.0
2.133303305,-0.006159679,0.8986096,0.43870583,-0.030786622,-0.43867657,0.8981174,0.99950695,-0.007974156,0.030367263,-0.008275941,0.88913345,0.4575732,-0.02955747,-0.45760646,0.8886635,0.9995288,-0.0061701816,0.03006766,10.10968,-0.17468262,0.3900299,9.801816,-0.07819977,0.29780114,-0.047286987,3.8146973E-4,0.0045318604,-50.639343,-4.798889,9.118652,0,0.0,0.0,0.0,0.0
2.141604087,-0.0052989544,0.9085761,0.4176858,-0.030920988,-0.4176408,0.9080859,0.9995077,-0.008103353,0.030307129,-0.008193033,0.8895163,0.45682994,-0.029607514,-0.45686075,0.88904536,0.999528,-0.0062416196,0.030079441,10.1707,-0.15792847,0.2871399,9.801823,-0.079466745,0.2972114,-0.0382843,-0.011520386,8.69751E-4,-50.45929,-4.6798706,9.539795,0,0.0,0.0,0.0,0.0
2.149904868,-0.0053909365,0.90359455,0.4283547,-0.030848537,-0.42830735,0.9031064,0.9995096,-0.008345527,0.030183548,-0.00808041,0.8903035,0.45529592,-0.029663235,-0.4553238,0.8898316,0.9995273,-0.006315345,0.030088482,10.073776,-0.23449707,0.3134613,9.801841,-0.08184166,0.2959995,-0.03263855,-0.026641846,0.011108398,-50.279236,-4.6798706,9.239197,0,0.0,0.0,0.0,0.0
2.158205649,-0.004556182,0.9095384,0.41559497,-0.030924372,-0.41552863,0.9090542,0.9995113,-0.008710196,0.030020129,-0.008027267,0.8905773,0.454761,-0.02968825,-0.45478743,0.89010507,0.999527,-0.0063559483,0.030090384,9.9756775,-0.3026886,0.33738708,9.801858,-0.08541785,0.2943969,-0.02407837,-0.032592773,0.006378174,-50.099182,-4.499817,9.298706,0,0.0,0.0,0.0,0.0
2.16650643,-0.004197876,0.908816,0.41717586,-0.030900491,-0.41709822,0.9083359,0.9995137,-0.009077859,0.029833794,-0.007891679,0.8913608,0.45322573,-0.029741863,-0.45324856,0.8908878,0.99952644,-0.006449177,0.030087624,9.94577,-0.29910278,0.3481598,9.801881,-0.08902339,0.29256958,-0.0040740967,-0.023284912,0.0066833496,-50.099182,-4.499817,9.298706,0,0.0,0.0,0.0,0.0
2.174807212,-0.0023336743,0.927868,0.3729015,-0.03108196,-0.37278962,0.92739516,0.9995141,-0.009426272,0.029709926,-0.007747086,0.89207983,0.4518115,-0.029792566,-0.45183042,0.8916063,0.9995261,-0.006553273,0.030077714,9.94577,-0.29910278,0.3481598,9.801885,-0.09244014,0.29135484,-0.0055999756,-0.006790161,0.010345459,-49.978638,-3.9596558,9.539795,0,0.0,0.0,0.0,0.0
2.183107993,-0.0020430947,0.92734337,0.37420613,-0.031188333,-0.37408394,0.92687035,0.9995114,-0.00977718,0.02968658,-0.0076408,0.8928624,0.45026466,-0.02982534,-0.45028093,0.89238864,0.9995259,-0.006610734,0.030070433,9.951752,-0.20936584,0.34695435,9.801859,-0.09588138,0.2911259,-0.013092041,-5.340576E-4,0.0043945313,-49.978638,-3.9596558,9.539795,0,0.0,0.0,0.0,0.0
2.191408774,-0.0018989086,0.9270823,0.3748531,-0.031308617,-0.3747251,0.92660713,0.9995079,-0.009976591,0.029737232,-0.007423078,0.89434856,0.44730914,-0.029893026,-0.44732,0.8938743,0.9995255,-0.0067361263,0.030055277,10.017548,-0.14596558,0.3792572,9.801825,-0.097836934,0.29162264,-0.0072784424,-0.007247925,1.0681152E-4,-49.978638,-3.9596558,9.539795,0,0.0,0.0,0.0,0.0
2.199709555,-0.0017337753,0.92877555,0.3706388,-0.031335685,-0.37050778,0.9283006,0.9995073,-0.010004755,0.029746192,-0.007208182,0.89575434,0.44449094,-0.029961886,-0.4444964,0.8952794,0.99952507,-0.00686445,0.030042501,10.051056,-0.119644165,0.35653687,9.801819,-0.098113135,0.2917105,-0.010192871,-0.028015137,-0.004928589,-49.739075,-4.019165,9.838867,0,0.0,0.0,0.0,0.0
2.208010337,-0.0016932122,0.92870516,0.3708151,-0.031244513,-0.37068373,0.9282335,0.99951035,-0.010014242,0.029644586,-0.007100684,0.8964733,0.44304085,-0.029996006,-0.4430436,0.8959981,0.9995248,-0.006927257,0.030036531,10.019943,-0.105285645,0.32183838,9.801848,-0.09820616,0.2907141,-0.0084991455,-0.026031494,0.0025634766,-49.739075,-4.019165,9.838867,0,0.0,0.0,0.0,0.0
2.216311118,-0.0022164744,0.9215134,0.38834003,-0.031070098,-0.3882169,0.92104393,0.9995147,-0.010024294,0.029491989,-0.0068899905,0.8978583,0.44023058,-0.030058024,-0.44022804,0.89738274,0.9995244,-0.007049503,0.030021014,9.985245,-0.061019897,0.24047852,9.801891,-0.09830475,0.28921762,-0.011703491,-0.015945435,2.593994E-4,-49.679565,-4.1397095,9.539795,0,0.0,0.0,0.0,0.0
2.224611899,-0.0021883103,0.9214612,0.3884641,-0.030887445,-0.38834196,0.9209975,0.9995205,-0.009983235,0.0293114,-0.0067975447,0.8983605,0.43920627,-0.030082474,-0.43920135,0.89788485,0.9995243,-0.007108999,0.030010398,9.972092,-0.021530151,0.2033844,9.801948,-0.0979021,0.28744665,-0.014465332,-0.0025177002,-1.9836426E-4,-49.679565,-4.1397095,9.539795,0,0.0,0.0,0.0,0.0
2.23291268,-0.002694807,0.91552657,0.40224844,-0.030603312,-0.40213695,0.91506785,0.99952793,-0.0098442035,0.029101828,-0.0066165593,0.8993293,0.43722185,-0.030122325,-0.43721226,0.8988537,0.9995243,-0.0072228196,0.02998273,9.972092,-0.025131226,0.2141571,9.802021,-0.09653866,0.28539145,-0.01828003,-0.019470215,-0.011795044,-49.739075,-4.258728,9.359741,0,0.0,0.0,0.0,0.0
2.241213462,-0.002756565,0.91564655,0.40197483,-0.030309089,-0.4018682,0.9151958,0.9995368,-0.009660694,0.028860189,-0.006461856,0.8999965,0.4358492,-0.030146217,-0.43583554,0.8995213,0.9995246,-0.0073266276,0.029947797,9.972092,-0.025131226,0.2141571,9.802108,-0.09473905,0.28302178,-0.036453247,-0.018859863,-0.013473511,-49.739075,-4.258728,9.359741,0,0.0,0.0,0.0,0.0
2.249514243,-0.0034371759,0.9074672,0.42010888,-0.02994625,-0.42001635,0.90702224,0.9995456,-0.0094630895,0.028618911,-0.0063878023,0.9003219,0.43517768,-0.030151716,-0.43516213,0.8998471,0.9995249,-0.0073733097,0.02992598,9.973282,-0.01914978,0.19979858,9.802194,-0.09280121,0.28065565,-0.036453247,-0.011672974,-0.012710571,-49.91913,-4.4387817,9.1796875,0,0.0,0.0,0.0,0.0
2.257815024,-0.004398472,0.89469355,0.44665894,-0.029534537,-0.4465846,0.89425385,0.99955404,-0.009258515,0.028388647,-0.0062708193,0.9006098,0.43458334,-0.030145325,-0.43456462,0.900136,0.99952585,-0.007456065,0.029874252,9.9673,0.009567261,0.20219421,9.802278,-0.090795025,0.27839756,-0.03919983,-0.013504028,-0.0137786865,-50.099182,-4.6188354,8.758545,0,0.0,0.0,0.0,0.0
2.266115805,-0.004498195,0.8949184,0.4462071,-0.029218204,-0.44613877,0.8944867,0.999563,-0.009013795,0.028154729,-0.0061970013,0.90037864,0.43506306,-0.030120144,-0.43504208,0.8999062,0.9995271,-0.007527442,0.029815493,9.94696,-0.049057007,0.17347717,9.802364,-0.08839513,0.2761036,-0.03187561,-0.013656616,-0.012252808,-50.099182,-4.6188354,8.758545,0,0.0,0.0,0.0,0.0
2.274416587,-0.0045106416,0.8949464,0.4461507,-0.02890093,-0.4460855,0.8945235,0.9995721,-0.008859295,0.027876921,-0.0061632716,0.9002709,0.4352865,-0.030101726,-0.43526456,0.89979917,0.9995278,-0.0075571695,0.02978236,9.96611,-0.107681274,0.18664551,9.802454,-0.08688001,0.2733792,-0.036758423,-0.014572144,-0.012252808,-50.099182,-4.6188354,8.758545,0,0.0,0.0,0.0,0.0
2.282717368,-0.0049863243,0.8866148,0.46248165,-0.028585542,-0.46242476,0.88619757,0.9995789,-0.008801421,0.027650166,-0.006098376,0.90006256,0.43571803,-0.030053355,-0.43569425,0.8995929,0.99952966,-0.007608733,0.029706925,9.944565,-0.09211731,0.19621277,9.802521,-0.08631246,0.2711555,-0.03630066,-0.005874634,-0.005844116,-50.39978,-5.039978,9.118652,0,0.0,0.0,0.0,0.0
2.291018149,-0.0049092076,0.8864425,0.4628127,-0.028411813,-0.46275508,0.88603073,0.99958426,-0.008799638,0.0274572,-0.0060559497,0.8995453,0.43678543,-0.029993525,-0.4367603,0.89907783,0.99953175,-0.0076559642,0.029625533,9.9218445,-0.13040161,0.18185425,9.802573,-0.08629497,0.26926315,-0.027893066,-0.006790161,-0.0069122314,-50.39978,-5.039978,9.118652,0,0.0,0.0,0.0,0.0
2.29931893,-0.004782768,0.88735825,0.46105582,-0.02827831,-0.46099675,0.88695115,0.99958867,-0.008795798,0.027297832,-0.006033874,0.89929074,0.4373097,-0.02996099,-0.4372839,0.8988243,0.9995328,-0.007678838,0.029582154,9.9218445,-0.13040161,0.18185425,9.802617,-0.08625732,0.2677003,-0.01828003,0.0016174316,-0.013626099,-50.45929,-4.978943,9.059143,0,0.0,0.0,0.0,0.0
2.307619712,-0.0064078285,0.8588538,0.51218075,-0.027842322,-0.51214594,0.8584471,0.99959177,-0.008759519,0.027194226,-0.0059859715,0.8988303,0.438256,-0.02989272,-0.43822885,0.8983662,0.9995352,-0.0077230693,0.029491708,9.923035,-0.11843872,0.17228699,9.802647,-0.08590154,0.26668426,-0.017669678,0.010772705,-0.018066406,-50.93994,-5.6396484,8.81958,0,0.0,0.0,0.0,0.0
2.315920493,-0.0064537455,0.858968,0.5119885,-0.027765237,-0.5119557,0.858563,0.9995936,-0.008674537,0.027153483,-0.0060085543,0.8973661,0.44124588,-0.029809257,-0.44121847,0.89690447,0.9995375,-0.0077641127,0.029400902,9.938583,-0.1375885,0.18544006,9.802666,-0.08506816,0.26628473,-0.018432617,0.022232056,-0.01423645,-50.93994,-5.6396484,8.81958,0,0.0,0.0,0.0,0.0
2.324221274,-0.006601611,0.85933554,0.5113695,-0.027783107,-0.51134086,0.8589287,0.9995921,-0.008537122,0.027250687,-0.0060203327,0.8966543,0.44269034,-0.029767323,-0.44266286,0.89619386,0.9995387,-0.0077823214,0.029355979,9.938583,-0.08973694,0.23568726,9.80265,-0.08372057,0.26723796,-0.017669678,0.017181396,-0.020355225,-50.93994,-5.6396484,8.81958,0,0.0,0.0,0.0,0.0
2.332522055,-0.0071886154,0.85080206,0.5254372,-0.027643945,-0.52541906,0.8503945,0.99959207,-0.008411997,0.027296558,-0.00604859,0.89527947,0.445464,-0.02968729,-0.44543657,0.8948212,0.9995409,-0.0078122118,0.029272681,9.984055,-0.034698486,0.26679993,9.8026495,-0.082493514,0.2676878,-0.01828003,-0.0037384033,-0.0137786865,-51.179504,-5.8792114,8.81958,0,0.0,0.0,0.0,0.0
2.340822837,-0.007328183,0.85115534,0.52486277,-0.027534053,-0.5248496,0.85074955,0.999594,-0.00821715,0.027281947,-0.006099879,0.8936584,0.44870645,-0.029605966,-0.4486795,0.8932022,0.999543,-0.007835964,0.029194511,9.932602,-0.06460571,0.30389404,9.802669,-0.080582716,0.2675445,-0.016601563,-0.0060272217,-0.017303467,-51.179504,-5.8792114,8.81958,0,0.0,0.0,0.0,0.0
2.349123618,-0.007855331,0.84349924,0.53707284,-0.027359674,-0.53706956,0.843094,0.99959475,-0.0080713555,0.027296726,-0.0061275046,0.8928739,0.45026505,-0.029564558,-0.4502384,0.89241874,0.9995441,-0.007843588,0.029156262,9.932602,-0.06460571,0.30389404,9.802676,-0.07915296,0.26768944,-0.016601563,0.0023651123,-0.011947632,-51.179504,-5.9387207,8.578491,0,0.0,0.0,0.0,0.0
2.357424399,-0.00813259,0.84074885,0.5413642,-0.027320348,-0.5413668,0.84034246,0.9995936,-0.007956099,0.027372265,-0.0062029855,0.89108515,0.45379376,-0.029478554,-0.45376822,0.89063203,0.9995462,-0.0078526065,0.02908262,9.932602,-0.10887146,0.28234863,9.802665,-0.078022674,0.26843023,-0.016448975,0.018859863,-0.0070648193,-51.298523,-6.059265,8.639526,0,0.0,0.0,0.0,0.0
2.36572518,-0.008210139,0.8409525,0.5410466,-0.027421985,-0.5410507,0.84054273,0.9995902,-0.0079355985,0.02750269,-0.0062451353,0.890166,0.4555936,-0.029436458,-0.45556864,0.8897138,0.9995471,-0.007854677,0.02904842,9.932602,-0.10887146,0.28234863,9.802631,-0.07782164,0.26970926,-0.015991211,0.018859863,-0.0070648193,-51.298523,-6.059265,8.639526,0,0.0,0.0,0.0,0.0
2.374025962,-0.008344762,0.84130585,0.54049504,-0.027550101,-0.5405021,0.84089154,0.9995856,-0.007873654,0.027688421,-0.0063290866,0.888379,0.45906726,-0.029358787,-0.45904362,0.88792855,0.9995489,-0.0078578815,0.028987056,9.943375,-0.08255005,0.21534729,9.802587,-0.077214174,0.27153066,-0.008041382,0.018859863,-0.008285522,-51.298523,-6.059265,8.639526,0,0.0,0.0,0.0,0.0
2.382326743,-0.007679175,0.85556567,0.51763743,-0.027799172,-0.5176352,0.8551497,0.999584,-0.007823048,0.027759027,-0.0064140963,0.886662,0.4623737,-0.029289648,-0.46235138,0.88621294,0.9995504,-0.007858506,0.028935581,9.930206,-0.047851563,0.21296692,9.80257,-0.07671789,0.27222306,-0.012619019,0.017944336,-0.0070648193,-51.298523,-5.5786133,8.459473,0,0.0,0.0,0.0,0.0
2.390627524,-0.007769335,0.8558014,0.5172461,-0.027803034,-0.5172466,0.8553846,0.9995832,-0.0077352426,0.027812539,-0.0064409357,0.8860747,0.4634977,-0.029260254,-0.46347585,0.8856263,0.99955106,-0.007857798,0.02891199,9.930206,-0.047851563,0.21296692,9.802563,-0.07585682,0.27274784,-0.018127441,0.019012451,-0.0037078857,-51.298523,-5.5786133,8.459473,0,0.0,0.0,0.0,0.0
2.398928305,-0.006943703,0.8725129,0.48854172,-0.028114319,-0.4885307,0.87209356,0.99958056,-0.0076794606,0.02792232,-0.0064963996,0.88493943,0.46566075,-0.029203575,-0.4656399,0.8844923,0.99955237,-0.007852945,0.02886838,10.017548,-0.07298279,0.24885559,9.802537,-0.07530978,0.27382442,-0.02331543,0.019317627,-0.01133728,-51.35956,-5.279541,8.699036,0,0.0,0.0,0.0,0.0
2.407229087,-0.0069652265,0.87443966,0.48508424,-0.028202474,-0.4850748,0.8740177,0.99957794,-0.007592844,0.02804002,-0.00651518,0.88445884,0.46657285,-0.029160673,-0.4665524,0.88401276,0.9995535,-0.007846075,0.028831085,9.980469,-0.1040802,0.3361969,9.802511,-0.074460365,0.27497867,-0.016601563,0.021453857,-0.015914917,-51.05896,-5.0994873,8.459473,0,0.0,0.0,0.0,0.0
2.415529868,-0.0071282573,0.8748474,0.48434603,-0.028403869,-0.48434,0.87441856,0.9995711,-0.007524222,0.028301556,-0.0065245307,0.8842623,0.466945,-0.029141549,-0.46692473,0.8838168,0.999554,-0.007841011,0.028815238,9.980469,-0.1040802,0.3361969,9.802444,-0.07378742,0.2775435,-0.016448975,0.027572632,-0.0124053955,-51.05896,-5.0994873,8.459473,0,0.0,0.0,0.0,0.0
2.423830649,-0.00730066,0.875278,0.48356503,-0.028633099,-0.48356262,0.87484133,0.99956334,-0.0074590454,0.028592248,-0.0065488764,0.883896,0.46763772,-0.029112445,-0.46761805,0.8834511,0.9995547,-0.007828466,0.028794745,9.991226,-0.08135986,0.3517456,9.802368,-0.07314825,0.28039417,-0.011703491,0.030014038,-0.013626099,-51.05896,-5.0994873,8.459473,0,0.0,0.0,0.0,0.0
2.43213143,-0.0071570743,0.881431,0.47225854,-0.02894265,-0.47225538,0.88098645,0.99955547,-0.007363128,0.028890919,-0.006578947,0.8835603,0.4682713,-0.02909384,-0.4682523,0.8831157,0.99955505,-0.007813837,0.028786765,10.054642,-0.110076904,0.4139557,9.80229,-0.072207615,0.2833231,-0.023162842,0.006500244,-0.016220093,-51.05896,-4.978943,8.518982,0,0.0,0.0,0.0,0.0
2.440432212,-0.0073130964,0.88181126,0.47154567,-0.029156905,-0.4715458,0.88135934,0.9995481,-0.0073033464,0.02915935,-0.006590493,0.8835179,0.46835107,-0.02909081,-0.46833238,0.88307333,0.99955505,-0.007804823,0.028788794,10.054642,-0.110076904,0.4139557,9.802218,-0.071621366,0.28595555,-0.035690308,-0.0038909912,-0.010726929,-51.05896,-4.978943,8.518982,0,0.0,0.0,0.0,0.0
2.448732993,-0.0062702154,0.90026313,0.43530115,-0.02951989,-0.43528667,0.89980793,0.99954456,-0.007208052,0.029305005,-0.00663293,0.8834178,0.4685392,-0.029094744,-0.46852165,0.8829728,0.99955463,-0.0077753323,0.028810488,10.057037,-0.07537842,0.39720154,9.802184,-0.07068685,0.28738394,-0.037216187,-0.004043579,-0.007675171,-50.698853,-4.559326,8.699036,0,0.0,0.0,0.0,0.0
2.457033774,-0.0063623986,0.9004697,0.4348722,-0.029578533,-0.4348602,0.9000121,0.99954224,-0.0071366457,0.029401327,-0.0066259033,0.8837667,0.46788085,-0.029103113,-0.46786335,0.88332146,0.9995544,-0.0077639865,0.028820379,10.018753,-0.13998413,0.30867004,9.80216,-0.06998658,0.2883285,-0.0332489,0.0020599365,-0.009048462,-50.698853,-4.559326,8.699036,0,0.0,0.0,0.0,0.0
2.465334555,-0.0062404843,0.90184754,0.43200928,-0.029606137,-0.43199492,0.90138996,0.9995422,-0.007165016,0.029396081,-0.006620917,0.88411266,0.46722683,-0.029112471,-0.46720946,0.88366723,0.9995542,-0.0077514397,0.02883206,10.018753,-0.13998413,0.30867004,9.80216,-0.07026481,0.2882771,-0.03201294,-0.0032806396,-0.009048462,-50.639343,-4.258728,8.1588745,0,0.0,0.0,0.0,0.0
2.473635337,-0.006199269,0.9017498,0.43221402,-0.029502133,-0.4321991,0.9012955,0.99954545,-0.007163862,0.029282859,-0.0066064275,0.8848414,0.46584556,-0.02913178,-0.4658283,0.8843954,0.99955374,-0.007728217,0.028854465,9.992432,-0.11843872,0.23091125,9.802193,-0.07025349,0.28716674,-0.019958496,-0.011672974,-0.008132935,-50.639343,-4.258728,8.1588745,0,0.0,0.0,0.0,0.0
2.481936118,-0.006389467,0.89829046,0.4393558,-0.029284358,-0.4393444,0.89784133,0.9995507,-0.007129525,0.029113034,-0.0065906346,0.885535,0.46452588,-0.029146202,-0.4645087,0.88508874,0.99955344,-0.0077058687,0.028871391,9.992432,-0.11843872,0.23091125,9.802244,-0.069916755,0.28550133,-0.0074310303,8.392334E-4,-0.021270752,-50.639343,-4.4387817,8.338928,0,0.0,0.0,0.0,0.0
2.490236899,-0.0064037303,0.8983239,0.43928704,-0.029127834,-0.4392772,0.8978792,0.9995552,-0.007045704,0.028979244,-0.00658666,0.8857971,0.46402594,-0.029148897,-0.46400893,0.88535076,0.9995533,-0.0076943417,0.028876279,9.964905,-0.102890015,0.21057129,9.802288,-0.069094755,0.2841893,-0.003921509,0.0061950684,-0.020507813,-50.639343,-4.4387817,8.338928,0,0.0,0.0,0.0,0.0
2.49853768,-0.0067752367,0.89538556,0.44524017,-0.029018996,-0.44523892,0.89494145,0.9995559,-0.0068569835,0.028999789,-0.0065792925,0.8863061,0.46305317,-0.029147813,-0.46303642,0.88585985,0.99955344,-0.0076686563,0.028880335,10.003189,-0.050247192,0.27876282,9.802295,-0.06724404,0.28439078,0.007217407,0.0022277832,-0.01776123,-50.39978,-4.3792725,8.039856,0,0.0,0.0,0.0,0.0
2.506838462,-0.007735966,0.88210344,0.47099215,-0.02886346,-0.471007,0.8816571,0.99955344,-0.006773993,0.029104253,-0.006586919,0.8866724,0.46235117,-0.02914238,-0.46233505,0.88622624,0.99955356,-0.007636514,0.02888511,10.023529,-0.107681274,0.3409729,9.802271,-0.06643018,0.28541523,0.007522583,-0.0020599365,-0.016693115,-50.45929,-4.798889,8.1588745,0,0.0,0.0,0.0,0.0
2.515139243,-0.0078189075,0.88231134,0.4706014,-0.028895706,-0.47061864,0.8818636,0.9995519,-0.0067031495,0.02917473,-0.006609958,0.8865819,0.4625244,-0.029137023,-0.4625089,0.88613576,0.99955356,-0.0076192636,0.028889522,10.023529,-0.107681274,0.3409729,9.802256,-0.065735444,0.28610638,0.0069122314,-0.0016021729,-0.015777588,-50.45929,-4.798889,8.1588745,0,0.0,0.0,0.0,0.0
2.523440024,-0.007870548,0.8824406,0.47035807,-0.028920783,-0.47037676,0.8819917,0.9995507,-0.0066613634,0.029222993,-0.0066579175,0.8864143,0.4628449,-0.029127872,-0.4628307,0.88596797,0.9995535,-0.0075829853,0.02890085,10.051056,-0.12802124,0.31825256,9.802244,-0.06532566,0.28657967,0.013183594,0.013671875,-0.016082764,-50.45929,-4.798889,8.1588745,0,0.0,0.0,0.0,0.0
2.531740805,-0.0075863632,0.8882909,0.4592186,-0.029099835,-0.45923343,0.88783884,0.9995477,-0.0066277175,0.02933303,-0.0066821952,0.8863355,0.46299544,-0.029123906,-0.46298188,0.8858891,0.99955344,-0.0075645526,0.028907288,10.051056,-0.12802124,0.31825256,9.802215,-0.064995706,0.28765878,0.013793945,0.013671875,-0.012252808,-50.39978,-4.6798706,8.21991,0,0.0,0.0,0.0,0.0
2.540041587,-0.0076874145,0.88853765,0.45873952,-0.0291182,-0.45875743,0.8880844,0.9995464,-0.006530595,0.029399272,-0.006717965,0.88641334,0.4628459,-0.029122757,-0.46283343,0.8859667,0.99955326,-0.007527454,0.028924096,10.0295105,-0.09690857,0.28355408,9.802202,-0.06404326,0.28830838,0.0024871826,0.0031433105,-0.023406982,-50.39978,-4.6798706,8.21991,0,0.0,0.0,0.0,0.0
2.548342368,-0.007112099,0.8987345,0.43843552,-0.029190034,-0.43844637,0.8982832,0.99954855,-0.006409269,0.029352363,-0.00675641,0.88649786,0.46268335,-0.029122517,-0.46267208,0.88605106,0.999553,-0.0074879793,0.028943053,10.02713,-0.10169983,0.23568726,9.802223,-0.062853456,0.28784835,0.0023345947,3.8146973E-4,-0.01776123,-50.5188,-4.4387817,8.279419,0,0.0,0.0,0.0,0.0
2.556643149,-0.007177669,0.8988887,0.4381181,-0.029079,-0.43813172,0.8984402,0.9995513,-0.0062913294,0.029283551,-0.006763524,0.886749,0.46220165,-0.029123502,-0.4621908,0.8863021,0.9995529,-0.007466405,0.028951276,10.02713,-0.10169983,0.23568726,9.80225,-0.06169687,0.28717354,0.010894775,6.866455E-4,-0.020507813,-50.5188,-4.4387817,8.279419,0,0.0,0.0,0.0,0.0
2.56494393,-0.0073730345,0.8967202,0.4425365,-0.028927268,-0.4425546,0.89627486,0.99955434,-0.006193106,0.029202636,-0.0067797657,0.88724196,0.46125448,-0.029120876,-0.46124464,0.88679504,0.9995529,-0.0074198726,0.028964395,10.041473,-0.090927124,0.24287415,9.80228,-0.06073363,0.28638005,0.017608643,-0.0051116943,-0.008895874,-50.338745,-4.559326,8.399963,0,0.0,0.0,0.0,0.0
2.573244712,-0.007387733,0.8967543,0.44246694,-0.028756335,-0.44248655,0.89631397,0.99955916,-0.0061020018,0.029056344,-0.0068030907,0.8876248,0.46051702,-0.029112592,-0.4605083,0.8871779,0.99955297,-0.0073712924,0.028973937,10.003189,-0.0657959,0.21534729,9.802327,-0.059840195,0.2849454,0.02218628,-0.013656616,-0.008743286,-50.338745,-4.559326,8.399963,0,0.0,0.0,0.0,0.0
2.581545493,-0.00807424,0.8853746,0.4648083,-0.028348576,-0.46483928,0.8849412,0.9995655,-0.0060314243,0.02885233,-0.0068146223,0.887811,0.46015778,-0.029105144,-0.46014962,0.8873642,0.9995531,-0.0073459065,0.028975612,10.003189,-0.0657959,0.21534729,9.802389,-0.05914807,0.2829447,0.02279663,-0.02267456,-0.008743286,-50.338745,-4.6798706,8.039856,0,0.0,0.0,0.0,0.0
2.589846274,-0.007969938,0.8851125,0.46530873,-0.028084684,-0.46533808,0.8846873,0.99957377,-0.006017147,0.028566822,-0.006864718,0.88771486,0.46034247,-0.02907553,-0.46033585,0.8872686,0.9995537,-0.007293853,0.028970858,10.030716,-0.095718384,0.19023132,9.80247,-0.05900806,0.28014484,0.020202637,-0.015335083,-0.00630188,-50.338745,-4.6798706,8.039856,0,0.0,0.0,0.0,0.0
2.598147055,-0.007300891,0.89532936,0.4453451,-0.027942263,-0.44536573,0.8949127,0.9995829,-0.005910288,0.02826909,-0.0069087124,0.88761234,0.46053946,-0.02903655,-0.46053433,0.8871668,0.99955446,-0.007243296,0.028954899,9.973282,-0.034698486,0.16749573,9.80256,-0.057960127,0.27722508,0.027679443,-0.014572144,-0.011947632,-50.45929,-4.559326,8.338928,0,0.0,0.0,0.0,0.0
2.606447837,-0.0073011443,0.8953299,0.44534385,-0.02763133,-0.4453663,0.894922,0.9995915,-0.0057714866,0.027990837,-0.006916178,0.8877692,0.46023682,-0.029014472,-0.4602322,0.88732433,0.99955505,-0.0072166356,0.028941203,9.973282,-0.034698486,0.16749573,9.802645,-0.05659895,0.27449635,0.023712158,-0.015487671,-0.015777588,-50.45929,-4.559326,8.338928,0,0.0,0.0,0.0,0.0
2.614748618,-0.0068552895,0.90396154,0.4275588,-0.02747024,-0.42757773,0.9035612,0.99959916,-0.0055509703,0.02776321,-0.0069305003,0.8880734,0.4596495,-0.028959302,-0.459646,0.8876299,0.99955654,-0.0071594086,0.02890356,9.894318,0.013153076,0.19142151,9.802719,-0.054436427,0.2722641,0.0055389404,-0.0016021729,-0.016845703,-50.279236,-4.4387817,8.578491,0,0.0,0.0,0.0,0.0
2.623049399,-0.0070399945,0.9043713,0.42668822,-0.027409054,-0.426713,0.9039716,0.9995995,-0.0053311666,0.027792023,-0.0069253137,0.8887245,0.45838937,-0.02889978,-0.45838678,0.8882828,0.9995583,-0.007095714,0.028858414,9.889542,0.007171631,0.30389404,9.802723,-0.052280888,0.27254665,-0.027282715,0.020706177,-0.020355225,-50.279236,-4.4387817,8.578491,0,0.0,0.0,0.0,0.0
2.63135018,-0.0075568366,0.90073043,0.43431276,-0.027403366,-0.4343486,0.900328,0.99959594,-0.005098001,0.027965348,-0.0069264844,0.8890484,0.45776075,-0.028869554,-0.45775872,0.88860756,0.99955916,-0.0070604235,0.028837092,9.889542,0.007171631,0.30389404,9.802688,-0.049994316,0.2742464,-0.03996277,0.029708862,-0.021575928,-50.579834,-4.6188354,8.699036,0,0.0,0.0,0.0,0.0
2.639650962,-0.007784927,0.9012374,0.4332557,-0.027659843,-0.43329713,0.9008266,0.99958706,-0.0049709147,0.02830127,-0.0069499356,0.8895226,0.45683825,-0.028810598,-0.45683774,0.8890833,0.9995607,-0.006982712,0.028802672,9.993622,-0.07896423,0.36610413,9.802601,-0.04874802,0.27754065,-0.056762695,0.026046753,-0.02142334,-50.579834,-4.6188354,8.699036,0,0.0,0.0,0.0,0.0
2.647951743,-0.0072636185,0.9128334,0.40826774,-0.02807701,-0.4083037,0.9124143,0.99957937,-0.0048355083,0.028595392,-0.006981739,0.8899982,0.45591062,-0.028763803,-0.4559118,0.88956004,0.99956185,-0.006903046,0.028782789,9.976868,-0.046661377,0.21057129,9.8025255,-0.047420137,0.280425,-0.043167114,-0.010757446,-0.028442383,-50.579834,-4.319763,8.758545,0,0.0,0.0,0.0,0.0
2.656252524,-0.007392032,0.91310394,0.40765965,-0.02789459,-0.40770042,0.9126894,0.9995835,-0.0046248687,0.028484398,-0.0069864816,0.89047945,0.45496976,-0.028749064,-0.45497167,0.8900417,0.9995622,-0.006861695,0.028779102,9.976868,-0.046661377,0.21057129,9.802566,-0.04535447,0.27933654,-0.006515503,-0.029693604,-0.03225708,-50.579834,-4.319763,8.758545,0,0.0,0.0,0.0,0.0
2.664553305,-0.008446915,0.89925015,0.43735301,-0.026950922,-0.43741447,0.898856,0.99960107,-0.0041945083,0.027930427,-0.0070004826,0.89142245,0.45311916,-0.02871308,-0.45312262,0.89098567,0.99956316,-0.0067731175,0.028767562,10.052246,0.07777405,0.026321411,9.802738,-0.041134074,0.27390394,0.047851563,-0.024047852,-0.031341553,-50.45929,-4.559326,8.399963,0,0.0,0.0,0.0,0.0
2.672854087,-0.008591992,0.89958423,0.4366629,-0.026796823,-0.43672937,0.8991938,0.999604,-0.0039753113,0.02785837,-0.007056498,0.89173776,0.45249745,-0.028642107,-0.4525033,0.89130265,0.9995648,-0.0066710054,0.028734338,9.973282,-0.07896423,0.38285828,9.802767,-0.03898449,0.2731973,0.041427612,-0.009536743,-0.0256958,-50.45929,-4.559326,8.399963,0,0.0,0.0,0.0,0.0
2.681154868,-0.008554295,0.90307236,0.42940333,-0.02679424,-0.42947188,0.9026827,0.9996044,-0.0037837224,0.027870964,-0.0070865466,0.89189756,0.45218208,-0.028604602,-0.4521892,0.8914633,0.9995657,-0.006617092,0.028716832,9.973282,-0.07896423,0.38285828,9.802771,-0.037105642,0.2733208,0.019134521,-0.009536743,-0.029663086,-50.39978,-4.499817,8.459473,0,0.0,0.0,0.0,0.0
