Time,Rot1,Rot2,Rot3,Rot4,Rot5,Rot6,Rot7,Rot8,Rot9,FRot1,FRot2,FRot3,FRot4,FRot5,FRot6,FRot7,FRot8,FRot9,AccX,AccY,AccZ,GravX,GravY,GravZ,GyroX,GyroY,GyroZ,MagX,MagY,MagZ,Imid
0.0,0.0,0.0,0.0,0.0,0.0,0.0,0.0,0.0,0.0,1.0,0.0,0.0,0.0,1.0,0.0,0.0,0.0,1.0,0.0,0.0,0.0,0.011827805,5.3040643,8.248464,0.0,0.0,0.0,0.0,0.0,0.0,0,0.0,0.0,0.0,0.0
0.008300781,0.8828548,0.3941722,-0.25533447,-0.46964556,0.7417531,-0.47878537,6.712447E-4,0.54261464,0.8399815,1.0,0.0,0.0,0.0,1.0,0.0,0.0,0.0,1.0,0.23808289,5.231903,8.349762,0.006582662,5.321232,8.237405,0.30332947,0.21769714,0.060272217,-34.979248,58.018494,-31.3797,0,0.0,0.0,0.0,0.0
0.016601562,0.88282144,0.39367935,-0.25620854,-0.46970856,0.7402702,-0.48101327,2.9857544E-4,0.5449922,0.838441,0.99981296,0.019336633,-4.7089654E-4,-0.01934234,0.9995551,-0.022705616,3.1636893E-5,0.022710476,0.9997421,0.5659027,5.148163,7.4572296,0.0029280249,5.3445477,8.222298,0.2735443,0.25526428,0.022262573,-34.979248,58.018494,-31.3797,0,0.0,0.0,0.0,0.0
0.024902343,0.8810301,0.3961325,-0.2585825,-0.47305992,0.7372936,-0.482299,-4.0307487E-4,0.547245,0.83697236,0.99958724,0.028710948,-0.0010085092,-0.028728629,0.9990169,-0.033764303,3.8112543E-5,0.033779338,0.99942935,0.5659027,5.148163,7.4572296,-0.0039528143,5.3666406,8.207895,0.23170471,0.24487305,0.0042266846,-35.339355,57.839966,-31.799316,0,0.0,0.0,0.0,0.0
0.033203125,0.8810195,0.39596498,-0.25887528,-0.47307813,0.7358819,-0.4844325,-0.0013166644,0.5492627,0.8356487,0.9988901,0.047027647,-0.002624542,-0.047100827,0.99735886,-0.055288408,1.7526461E-5,0.055350665,0.99846697,0.47737122,5.152939,7.2311096,-0.012912067,5.386427,8.194915,0.13336182,0.17584229,-0.01928711,-35.339355,57.839966,-31.799316,0,0.0,0.0,0.0,0.0
0.041503906,0.8800229,0.39756984,-0.25980368,-0.4749257,0.7340153,-0.4854555,-0.0023025938,0.5505994,0.8347664,0.99790144,0.06456656,-0.004884895,-0.064751066,0.99500453,-0.07598201,-4.540398E-5,0.07613886,0.99709725,0.24047852,5.325226,7.6414795,-0.022580732,5.3995357,8.186262,0.02218628,0.069869995,-0.029663086,-35.398865,57.418823,-32.03888,0,0.0,0.0,0.0,0.0
0.049804687,0.8800237,0.39758453,-0.25977826,-0.4749214,0.73347014,-0.48628297,-0.0027990018,0.55131483,0.8342926,0.99730575,0.073092535,-0.0062277503,-0.0733573,0.9935893,-0.08601764,-9.942082E-5,0.08624273,0.9962742,0.24047852,5.325226,7.6414795,-0.027448831,5.406552,8.181616,-0.017211914,0.021453857,-0.033950806,-35.398865,57.418823,-32.03888,0,0.0,0.0,0.0,0.0
0.058105468,0.8817865,0.39482698,-0.25800052,-0.47164044,0.7348835,-0.4873414,-0.0028152207,0.5514145,0.83422667,0.99593747,0.08956601,-0.009306887,-0.09004797,0.9903396,-0.10544614,-2.2741091E-4,0.105855815,0.9943815,0.19023132,5.4400787,7.981262,-0.027607886,5.407529,8.180969,-0.08822632,-0.07337952,-0.03225708,-35.279846,57.659912,-32.339478,0,0.0,0.0,0.0,0.0
0.06640625,0.88177985,0.39470854,-0.25820458,-0.47165567,0.7352212,-0.48681706,-0.0023133527,0.55104905,0.8344696,0.9951805,0.097437836,-0.011025488,-0.09805921,0.98853356,-0.11482946,-2.8966778E-4,0.1153572,0.99332404,0.19023132,5.52623,8.227722,-0.02268624,5.4039454,8.1833515,-0.09890747,-0.10772705,-0.04234314,-35.279846,57.659912,-32.339478,0,0.0,0.0,0.0,0.0
0.074707031,0.88179433,0.39446837,-0.2585215,-0.47163162,0.73576504,-0.48601776,-0.0015075296,0.5504947,0.8348373,0.99352956,0.11260397,-0.0148094995,-0.113573,0.98459756,-0.13292375,-3.8634456E-4,0.13374564,0.9910156,0.13998413,5.52623,8.227722,-0.0147838155,5.3985085,8.186957,-0.09844971,-0.15232849,-0.042800903,-35.1593,57.47986,-32.218933,0,0.0,0.0,0.0,0.0
0.083007812,0.88178194,0.3942542,-0.25889018,-0.47165683,0.7364025,-0.4850269,-5.765068E-4,0.5497953,0.8352992,0.9917188,0.12701379,-0.019003598,-0.1284268,0.9802881,-0.15013948,-4.407818E-4,0.15133673,0.9884822,0.06341553,5.50589,8.438293,-0.0056536,5.3916507,8.191487,-0.07173157,-0.17980957,-0.03286743,-35.1593,57.47986,-32.218933,0,0.0,0.0,0.0,0.0
0.091308593,0.88176996,0.39404765,-0.2592455,-0.47167963,0.7370383,-0.48403814,3.3977954E-4,0.5490911,0.83576244,0.9907618,0.13393971,-0.021240558,-0.13561273,0.97801465,-0.15841891,-4.450073E-4,0.15983589,0.98714346,-0.08015442,5.4604187,8.575882,0.003332099,5.384744,8.19603,-0.04484558,-0.18988037,-0.020202637,-35.1593,57.47986,-32.218933,0,0.0,0.0,0.0,0.0
0.099609375,0.87993044,0.39656568,-0.26164487,-0.4751006,0.7360168,-0.48224333,0.0013338475,0.54864824,0.83605224,0.98875856,0.14725097,-0.025955185,-0.14952041,0.9732674,-0.17433949,-4.1032548E-4,0.17626049,0.98434347,-0.119644165,5.474777,8.593826,0.013080576,5.3804016,8.198872,0.008895874,-0.174469,-0.004776001,-35.51941,57.23877,-32.699585,0,0.0,0.0,0.0,0.0
0.107910156,0.8783805,0.39845285,-0.26397526,-0.47795564,0.7350881,-0.48083663,0.002454324,0.54852605,0.8361299,0.98662835,0.16001716,-0.030967683,-0.16298582,0.9682679,-0.1894541,-3.3089545E-4,0.19196808,0.9814011,-0.0382843,5.4628143,8.557938,0.024068696,5.379203,8.199634,0.037460327,-0.16453552,0.0028686523,-35.81848,56.939697,-33.239746,0,0.0,0.0,0.0,0.0
0.116210937,0.87835294,0.39786598,-0.2649509,-0.47799915,0.73526204,-0.48052758,0.0036227566,0.548719,0.835999,0.9855194,0.1662037,-0.03358187,-0.16956219,0.96568596,-0.19672121,-2.6625072E-4,0.1995668,0.97988415,0.057434082,5.407776,8.344971,0.035527106,5.3810954,8.19835,0.06188965,-0.14117432,0.007446289,-35.81848,56.939697,-33.239746,0,0.0,0.0,0.0,0.0
0.124511718,0.87762666,0.39838392,-0.26657403,-0.47932273,0.73470354,-0.48006302,0.0046035135,0.5490911,0.83574986,0.98324525,0.17807183,-0.038977835,-0.1822878,0.9604021,-0.21071088,-8.7277745E-5,0.21428566,0.97677106,0.057434082,5.407776,8.344971,0.045145046,5.384744,8.195907,0.09396362,-0.08757019,0.0043945313,-35.879517,56.6391,-33.47931,0,0.0,0.0,0.0,0.0
0.1328125,0.87760264,0.3978629,-0.26742962,-0.47935897,0.7345237,-0.4803018,0.005339113,0.54970896,0.8353392,0.98207825,0.18379062,-0.041752234,-0.18847346,0.95770335,-0.21744426,2.2036504E-5,0.22141647,0.9751793,0.0993042,5.3479614,8.108078,0.052358814,5.390804,8.191879,0.09686279,-0.055648804,-4.5776367E-5,-35.879517,56.6391,-33.47931,0,0.0,0.0,0.0,0.0
0.141113281,0.8775852,0.39749604,-0.26803178,-0.47938675,0.7342164,-0.48074374,0.005699596,0.5503845,0.83489186,0.9797039,0.19476277,-0.047409654,-0.20044982,0.95222163,-0.23042089,2.6709202E-4,0.23524751,0.97193545,0.06700134,5.370697,8.006378,0.055893943,5.3974285,8.187492,0.056549072,-0.020843506,-0.009963989,-35.879517,56.6391,-33.47931,0,0.0,0.0,0.0,0.0
0.149414062,0.8793669,0.39462584,-0.2664286,-0.47611132,0.7353858,-0.48220912,0.0056356024,0.5508885,0.83455986,0.9772855,0.20515196,-0.053157214,-0.21192628,0.946653,-0.24276608,5.1749585E-4,0.24851719,0.9686274,-0.051452637,5.3802643,8.026718,0.05526638,5.4023705,8.184237,0.03074646,0.011383057,-0.008132935,-35.398865,56.399536,-33.299255,0,0.0,0.0,0.0,0.0
0.157714843,0.87936926,0.39467338,-0.26635063,-0.47611067,0.73512053,-0.48261413,0.0053248554,0.5512084,0.8343506,0.9760796,0.21006957,-0.056030154,-0.21741249,0.9438601,-0.2487165,6.3686055E-4,0.25494877,0.96695435,-0.102890015,5.4185486,8.092529,0.052218996,5.405508,8.182184,0.013641357,0.024978638,-0.007675171,-35.398865,56.399536,-33.299255,0,0.0,0.0,0.0,0.0
0.166015625,0.8803453,0.39337534,-0.2650432,-0.4743088,0.7357266,-0.48346394,0.004816541,0.5513276,0.8342749,0.9736498,0.21951969,-0.061782453,-0.22804657,0.9382444,-0.26017717,8.5302937E-4,0.26741076,0.9635822,-0.16749573,5.461624,8.158325,0.047234133,5.406677,8.181442,-0.01828003,0.032913208,-8.087158E-4,-35.279846,56.6391,-33.1192,0,0.0,0.0,0.0,0.0
0.174316406,0.87938446,0.39513978,-0.2656078,-0.4760931,0.73480695,-0.48310873,0.004274967,0.55129236,0.8343012,0.9712237,0.22840464,-0.067496225,-0.23816663,0.9326301,-0.27106774,0.001035886,0.2793428,0.96019083,-0.16749573,5.461624,8.158325,0.041923106,5.4063315,8.1817,-0.023162842,0.03794861,0.0028686523,-35.57892,56.878662,-33.17871,0,0.0,0.0,0.0,0.0
0.182617187,0.8793975,0.3953946,-0.2651851,-0.47607327,0.734747,-0.48321956,0.0037815578,0.5511896,0.8343715,0.96999794,0.23271249,-0.07034785,-0.24311043,0.92981434,-0.27630162,0.0011115988,0.28511432,0.9584929,-0.14117432,5.449646,8.158325,0.037084416,5.4053235,8.182389,-0.026824951,0.031845093,0.0014801025,-35.57892,56.878662,-33.17871,0,0.0,0.0,0.0,0.0
0.190917968,0.8794092,0.395625,-0.26480252,-0.4760546,0.7347568,-0.4832229,0.0033903918,0.5510111,0.834491,0.96754575,0.24099323,-0.076009125,-0.2526927,0.92419744,-0.2863658,0.0012352178,0.29627898,0.95510066,-0.093322754,5.4723816,8.262421,0.033248387,5.403573,8.183561,-0.031707764,0.02848816,0.0037841797,-35.57892,56.878662,-33.17871,0,0.0,0.0,0.0,0.0
0.19921875,0.8770326,0.39954117,-0.26679713,-0.48042136,0.7328553,-0.4817866,0.003030119,0.5507176,0.8346861,0.96509993,0.24884064,-0.0816116,-0.26187846,0.9186167,-0.2959105,0.0013352277,0.30695552,0.9517229,-0.122039795,5.4723816,8.411972,0.029715316,5.400695,8.185474,-0.019195557,0.021759033,0.02468872,-35.758972,56.57959,-32.818604,0,0.0,0.0,0.0,0.0
0.207519531,0.87704104,0.3997044,-0.26652494,-0.48040712,0.73297495,-0.4816189,0.0028509083,0.55043995,0.83486986,0.9638549,0.25270143,-0.08441409,-0.26642418,0.9158204,-0.30048484,0.0013751923,0.31211373,0.95004374,-0.046661377,5.4472656,8.461014,0.02795786,5.397972,8.187277,0.0012664795,0.02558899,0.027297974,-35.758972,56.57959,-32.818604,0,0.0,0.0,0.0,0.0
0.215820312,0.87476665,0.4032665,-0.268625,-0.4845369,0.7311056,-0.4803213,0.0026957514,0.5503278,0.83494437,0.96137726,0.26011658,-0.08996175,-0.2752302,0.91027546,-0.30926847,0.0014441195,0.32208386,0.94671,0.08135986,5.4400787,8.394028,0.026436292,5.396872,8.188007,0.020355225,0.033828735,0.0320282,-36.05957,56.27899,-32.939148,0,0.0,0.0,0.0,0.0
0.224121093,0.87521935,0.4025611,-0.26820794,-0.48371866,0.73142534,-0.48065892,0.0026795035,0.5504193,0.83488405,0.9588682,0.26730806,-0.09548938,-0.28384778,0.9047508,-0.31757885,0.0015027196,0.3316207,0.9434116,0.08135986,5.4400787,8.394028,0.026276954,5.3977695,8.187416,0.051208496,0.03337097,0.019042969,-35.998535,56.159973,-33.17871,0,0.0,0.0,0.0,0.0
0.232421875,0.8752177,0.40252274,-0.26827106,-0.48372203,0.73129153,-0.48085913,0.0026276095,0.5506251,0.8347485,0.95762855,0.2707414,-0.098217435,-0.28800213,0.90202224,-0.32157528,0.0015305638,0.3362365,0.94177634,0.1531372,5.3359985,8.106888,0.025768047,5.399788,8.186087,0.049682617,0.030319214,0.023483276,-35.998535,56.159973,-33.17871,0,0.0,0.0,0.0,0.0
0.240722656,0.8752092,0.40233058,-0.26858714,-0.48373637,0.731159,-0.48104644,0.002840215,0.5509416,0.83453894,0.9551714,0.2773317,-0.103608295,-0.2960491,0.8966262,-0.32926643,0.0015818855,0.34517905,0.93853545,0.23928833,5.3359985,8.106888,0.027852995,5.4028916,8.1840315,0.04096985,0.018554688,0.0211792,-35.998535,56.159973,-33.17871,0,0.0,0.0,0.0,0.0
0.249023437,0.87516755,0.40217456,-0.26895636,-0.48381,0.73106027,-0.48112267,0.003127984,0.5511866,0.83437616,0.952748,0.28356367,-0.10891671,-0.3037573,0.8913198,-0.33657166,0.0016401237,0.35375223,0.9353377,0.25602722,5.3013,8.049454,0.030675044,5.4052944,8.182435,0.017456055,0.0036010742,0.010498047,-36.05957,56.159973,-33.358765,0,0.0,0.0,0.0,0.0
0.257324218,0.8749771,0.40226972,-0.26943296,-0.4841522,0.73089033,-0.4810363,0.0034195913,0.5513423,0.8342721,0.9515499,0.28655106,-0.11154052,-0.30748978,0.8887026,-0.3400851,0.0016746145,0.35790548,0.93375635,0.23091125,5.330017,8.049454,0.033534735,5.4068213,8.181415,0.001876831,-0.0034332275,0.008972168,-36.11908,56.098938,-33.53882,0,0.0,0.0,0.0,0.0
0.265625,0.8749722,0.40215316,-0.26962262,-0.48415923,0.7309377,-0.48095724,0.0036588965,0.55136454,0.8342564,0.94917905,0.29229137,-0.11672618,-0.3147319,0.8835415,-0.3468404,0.001753975,0.36595106,0.9306324,0.16390991,5.3766785,8.127228,0.03588152,5.407039,8.181261,-0.014312744,-0.005722046,0.0053100586,-36.11908,56.098938,-33.53882,0,0.0,0.0,0.0,0.0
0.273925781,0.873648,0.40409556,-0.27100912,-0.4865435,0.72993,-0.48008084,0.0038191471,0.5512794,0.83431196,0.9468502,0.29772002,-0.12180944,-0.32166967,0.8784907,-0.35324597,0.0018400656,0.3736534,0.9275665,0.11605835,5.3970184,8.172684,0.03745304,5.406204,8.181806,-0.030334473,-0.008010864,1.0681152E-4,-36.538696,55.859375,-34.498596,0,0.0,0.0,0.0,0.0
0.282226562,0.87364745,0.404076,-0.27104017,-0.48654336,0.73006135,-0.4798812,0.0039674873,0.55111974,0.8344167,0.9456846,0.3003711,-0.12432953,-0.3250801,0.8759925,-0.35631463,0.0018851123,0.3773783,0.9260573,0.062210083,5.3862457,8.224136,0.03890776,5.404639,8.182833,-0.030792236,-0.008621216,0.002090454,-36.538696,55.859375,-34.498596,0,0.0,0.0,0.0,0.0
0.290527343,0.8736484,0.40411004,-0.27098608,-0.48654073,0.73023415,-0.47962084,0.0040637166,0.5508658,0.83458394,0.9433879,0.3054586,-0.1292836,-0.33168554,0.87108666,-0.3622054,0.001978466,0.38458169,0.9230888,0.062210083,5.3862457,8.297119,0.03985145,5.4021482,8.184473,-0.03401184,-0.010147095,7.171631E-4,-36.538696,55.859375,-34.498596,0,0.0,0.0,0.0,0.0
0.298828125,0.8720538,0.40653306,-0.27249396,-0.48939195,0.72912455,-0.47840646,0.0041939584,0.55055255,0.83478993,0.9422572,0.30789995,-0.13171516,-0.3348838,0.8686804,-0.36503026,0.0020255856,0.3880617,0.9216311,0.056228638,5.403,8.297119,0.041128684,5.3990765,8.186493,-0.03401184,-0.021148682,0.002090454,-36.71875,55.319214,-34.979248,0,0.0,0.0,0.0,0.0
0.307128906,0.8718027,0.40696684,-0.27265,-0.48983845,0.7291194,-0.47795734,0.004281635,0.55023897,0.8349963,0.9399882,0.312699,-0.1365341,-0.34120038,0.8639238,-0.37042952,0.0021221237,0.39478487,0.91877115,0.011962891,5.437683,8.379669,0.041988496,5.396001,8.188517,-0.03401184,-0.016113281,-0.0011138916,-36.538696,54.959106,-34.799194,0,0.0,0.0,0.0,0.0
0.315429687,0.8718049,0.4070748,-0.27248174,-0.48983443,0.7293274,-0.4776439,0.004291591,0.54988325,0.83523047,0.9377618,0.31726286,-0.1412343,-0.34727213,0.85928816,-0.3755342,0.002217902,0.40120837,0.91598415,-0.046661377,5.412567,8.413162,0.042086132,5.392513,8.190813,-0.02911377,-0.019012451,0.0051574707,-36.538696,54.959106,-34.799194,0,0.0,0.0,0.0,0.0
0.323730468,0.87180686,0.40717524,-0.27232525,-0.48983073,0.7295276,-0.4773418,0.004307018,0.5495432,0.83545417,0.93558615,0.32158947,-0.14580345,-0.3530908,0.8547815,-0.38036224,0.0023095917,0.40734354,0.9132721,-0.08015442,5.379059,8.502899,0.042237423,5.3891783,8.193007,-0.02331543,-0.01763916,0.014923096,-36.538696,54.959106,-34.799194,0,0.0,0.0,0.0,0.0
0.33203125,0.87153745,0.40768504,-0.27242488,-0.4903097,0.72952515,-0.47685355,0.0043347427,0.54916835,0.83570045,0.93451786,0.32366818,-0.14803827,-0.3559085,0.8525775,-0.38267574,0.002354138,0.41030538,0.91194516,-0.053833008,5.3814545,8.496918,0.042509306,5.385502,8.195422,-0.011398315,-0.018554688,0.016601563,-36.839294,55.259705,-35.1593,0,0.0,0.0,0.0,0.0
0.340332031,0.8715367,0.40763596,-0.27250126,-0.49030933,0.7296814,-0.47661507,0.0045536724,0.54899734,0.8358116,0.9324124,0.32768318,-0.1524169,-0.3613879,0.8482616,-0.38710603,0.0024412642,0.41602406,0.90935034,0.050247192,5.3778687,8.350952,0.044656273,5.383825,8.196512,0.020355225,-0.020996094,0.02684021,-36.839294,55.259705,-35.1593,0,0.0,0.0,0.0,0.0
0.348632812,0.87277037,0.40566137,-0.27149743,-0.48810732,0.7307721,-0.4772038,0.004819561,0.54900914,0.8358024,0.9313796,0.32961002,-0.15456134,-0.3640409,0.84615225,-0.3892308,0.0024880457,0.41878828,0.9080805,0.050247192,5.3778687,8.350952,0.047263745,5.3839407,8.196422,0.040359497,-0.022521973,0.032485962,-36.65924,55.13916,-35.4599,0,0.0,0.0,0.0,0.0
0.356933593,0.87249637,0.4058071,-0.27215937,-0.48859268,0.73053765,-0.47706595,0.0052259266,0.54921335,0.8356658,0.92939126,0.33322355,-0.15872575,-0.36908683,0.8420606,-0.39333037,0.0025897615,0.42414144,0.90559226,0.15434265,5.3814545,8.276779,0.051248834,5.385943,8.195083,0.047073364,-0.004348755,0.026535034,-36.65924,55.319214,-35.038757,0,0.0,0.0,0.0,0.0
0.365234375,0.8724902,0.40551636,-0.27261198,-0.48859888,0.73048824,-0.47713542,0.0056536486,0.5494939,0.83547866,0.9274481,0.33665854,-0.16279124,-0.37394205,0.83808225,-0.39722216,0.002704212,0.42927745,0.9031686,0.22253418,5.365906,8.208572,0.055443354,5.3886943,8.193247,0.042648315,0.0032958984,0.02973938,-36.65924,55.319214,-35.038757,0,0.0,0.0,0.0,0.0
0.373535156,0.8724836,0.40521324,-0.27308357,-0.48860556,0.73041785,-0.47723618,0.0060827215,0.5498109,0.835267,0.9264966,0.33830348,-0.16478689,-0.37629285,0.8361373,-0.39909658,0.0027687107,0.43176976,0.9019796,0.2596283,5.338394,8.097305,0.05965112,5.391803,8.191172,0.042800903,-0.005722046,0.025604248,-36.65924,55.319214,-35.038757,0,0.0,0.0,0.0,0.0
0.381835937,0.87293786,0.4042104,-0.27311826,-0.48778856,0.730677,-0.47767538,0.006479884,0.5502048,0.8350047,0.9246337,0.34145457,-0.16870482,-0.3808465,0.83233434,-0.40271008,0.0029116294,0.43660995,0.89964616,0.2524414,5.4293213,8.011169,0.06354596,5.395666,8.188599,0.020507813,-0.0060272217,0.0043945313,-36.419678,55.13916,-34.799194,0,0.0,0.0,0.0,0.0
0.390136718,0.87293124,0.40395096,-0.27352238,-0.4877951,0.7306067,-0.47777566,0.006839336,0.5504883,0.83481485,0.9228379,0.34440178,-0.17250407,-0.3851764,0.828658,-0.40615892,0.0030650273,0.44126332,0.8973724,0.2416687,5.4520416,8.036301,0.067070976,5.398446,8.186737,-2.593994E-4,-0.0104522705,8.69751E-4,-36.419678,55.13916,-34.799194,0,0.0,0.0,0.0,0.0
0.3984375,0.8706748,0.40710187,-0.27603164,-0.49180728,0.72871315,-0.476553,0.007142258,0.55067706,0.8346878,0.92195964,0.34581345,-0.17436638,-0.3872734,0.8268622,-0.4078214,0.0031468482,0.44352227,0.8962579,0.2416687,5.4520416,8.036301,0.07004163,5.400297,8.185492,-2.593994E-4,-0.00831604,-0.010879517,-36.898804,55.19867,-34.979248,0,0.0,0.0,0.0,0.0
0.406738281,0.870097,0.40787315,-0.2767143,-0.49282682,0.7282493,-0.4762088,0.0072842147,0.55072004,0.83465827,0.92017037,0.3486703,-0.17808837,-0.39150408,0.82329196,-0.4109926,0.003317823,0.44790554,0.8940747,0.16630554,5.42453,8.076965,0.071433745,5.4007187,8.185202,-0.023620605,-0.0038909912,-0.019134521,-36.95984,55.43976,-34.498596,0,0.0,0.0,0.0,0.0
0.415039062,0.87009597,0.4078423,-0.2767628,-0.49282697,0.72830904,-0.4761172,0.0073881103,0.5506638,0.83469445,0.918415,0.3514171,-0.18171366,-0.3956029,0.8198203,-0.41399634,0.003487142,0.45210692,0.8919569,0.16630554,5.42453,8.076965,0.07245261,5.4001675,8.185556,-0.036605835,-0.0090789795,-0.016220093,-36.95984,55.43976,-34.498596,0,0.0,0.0,0.0,0.0
0.423339843,0.8700982,0.4079112,-0.2766544,-0.49282342,0.7284104,-0.4759657,0.0073662163,0.55047864,0.83481675,0.9175568,0.35273728,-0.18348253,-0.39758858,0.81812793,-0.4154396,0.0035711525,0.45414,0.8909232,0.057434082,5.436493,8.181061,0.07223791,5.398351,8.186756,-0.036605835,-0.020080566,-0.013168335,-36.95984,55.43976,-34.498596,0,0.0,0.0,0.0,0.0
0.431640625,0.8718683,0.40538546,-0.27478772,-0.4896859,0.72998875,-0.47678542,0.007310085,0.55025375,0.8349656,0.9158789,0.35527974,-0.18692793,-0.4014372,0.8148299,-0.41821095,0.0037325758,0.45807046,0.888908,0.057434082,5.436493,8.181061,0.071687445,5.396146,8.188215,-0.037826538,-0.019622803,-0.013626099,-36.65924,55.499268,-34.439087,0,0.0,0.0,0.0,0.0
0.439941406,0.8718705,0.40545443,-0.2746789,-0.4896819,0.73011404,-0.47659743,0.007308361,0.55003655,0.83510864,0.91508806,0.35644594,-0.18857408,-0.40323615,0.8132495,-0.41955426,0.0038093594,0.45996895,0.8879268,-0.0047912598,5.4640045,8.244476,0.07167054,5.3940163,8.189618,-0.0332489,-0.029541016,-0.0040130615,-36.65924,55.499268,-34.439087,0,0.0,0.0,0.0,0.0
0.448242187,0.8727121,0.40416905,-0.27389938,-0.48817652,0.73104364,-0.47671646,0.00755835,0.5497475,0.8352966,0.9135429,0.3586925,-0.19177854,-0.40672308,0.8101727,-0.42213327,0.003957685,0.46363762,0.8860161,0.052642822,5.4221344,8.327026,0.07412209,5.391182,8.191462,-0.0068206787,-0.03488159,0.008514404,-36.71875,55.499268,-35.099792,0,0.0,0.0,0.0,0.0
0.456542968,0.8733415,0.40312067,-0.27343768,-0.4870445,0.7317439,-0.4768001,0.007878375,0.54958576,0.83540016,0.9120744,0.36076972,-0.19484761,-0.41000426,0.8072323,-0.424585,0.004109874,0.46714145,0.88417304,0.16630554,5.334793,8.367706,0.07726047,5.389595,8.192477,0.015625,-0.031066895,0.014770508,-36.59973,55.19867,-35.51941,0,0.0,0.0,0.0,0.0
0.46484375,0.87333864,0.40296656,-0.27367407,-0.48704344,0.7318969,-0.47656658,0.008260828,0.5494952,0.8354561,0.9113684,0.36174595,-0.19633496,-0.41157013,0.8058124,-0.42576557,0.004190184,0.4688349,0.88327587,0.16630554,5.334793,8.367706,0.08101106,5.388707,8.193026,0.02784729,-0.015487671,0.01828003,-36.59973,55.19867,-35.51941,0,0.0,0.0,0.0,0.0
0.473144531,0.87333536,0.4027978,-0.27393305,-0.48704404,0.731941,-0.4764982,0.008570397,0.5495601,0.8354102,0.9099912,0.3636186,-0.19924237,-0.41460463,0.80305135,-0.428032,0.00436145,0.47211218,0.88152766,0.2536316,5.3240356,8.267197,0.08404689,5.389344,8.192575,0.0574646,-0.004348755,0.022705078,-36.59973,55.19867,-35.51941,0,0.0,0.0,0.0,0.0
0.481445312,0.8726599,0.40352842,-0.2750084,-0.48824686,0.73130035,-0.47625086,0.008932973,0.5498769,0.83519787,0.9086588,0.36539215,-0.20205878,-0.41751477,0.8003874,-0.4301876,0.0045381263,0.4752563,0.8798357,0.25125122,5.309677,8.115265,0.08760255,5.392451,8.190494,0.04798889,-0.002670288,0.007446289,-36.839294,55.378723,-35.639954,0,0.0,0.0,0.0,0.0
0.489746093,0.87265474,0.40328187,-0.27538615,-0.48825034,0.7312048,-0.47639412,0.009242568,0.5501849,0.83499175,0.90799767,0.36626273,-0.20344996,-0.41894966,0.7990788,-0.4312242,0.004631203,0.47678584,0.8790073,0.25125122,5.309677,8.115265,0.09063863,5.395471,8.188472,0.041275024,-0.0051116943,0.0042266846,-36.839294,55.378723,-35.639954,0,0.0,0.0,0.0,0.0
0.498046875,0.87314105,0.40239605,-0.27513993,-0.4873777,0.7314652,-0.47688732,0.009357742,0.55048704,0.8347913,0.90670824,0.3679304,-0.20617321,-0.42173085,0.79652697,-0.43322963,0.0048241783,0.47976246,0.87738514,0.117248535,5.3778687,8.043472,0.0917681,5.3984337,8.186506,0.014251709,-0.012435913,0.0042266846,-36.839294,55.19867,-36.17859,0,0.0,0.0,0.0,0.0
0.506347656,0.87139857,0.4048899,-0.27699956,-0.49048433,0.7299645,-0.47600102,0.009471832,0.55065054,0.8346821,0.90547824,0.36948013,-0.20879099,-0.42436317,0.79407436,-0.43515727,0.0050135935,0.4826286,0.87581074,0.117248535,5.3778687,8.043472,0.09288695,5.400038,8.185436,-0.006210327,-0.005874634,-6.5612793E-4,-37.139893,55.13916,-36.239624,0,0.0,0.0,0.0,0.0
0.514648437,0.87139785,0.40484154,-0.27707246,-0.4904843,0.72995263,-0.47601926,0.00953743,0.55070186,0.83464754,0.90484834,0.37028095,-0.21009865,-0.42570335,0.7928533,-0.43607378,0.0051076002,0.48402035,0.87504184,0.11126709,5.3910217,8.086548,0.09353024,5.4005404,8.185097,-0.01828003,0.003753662,-0.0035552979,-37.139893,55.13916,-36.239624,0,0.0,0.0,0.0,0.0
0.522949218,0.8713984,0.4048797,-0.27701497,-0.49048394,0.72998357,-0.47597218,0.009504895,0.5506328,0.8346935,0.90362024,0.37182248,-0.21264617,-0.4283017,0.79047585,-0.4378419,0.0052922075,0.48671955,0.87354225,0.090927124,5.432907,8.134399,0.093211174,5.3998632,8.185547,-0.02835083,0.014587402,-0.0030975342,-37.139893,55.13916,-36.239624,0,0.0,0.0,0.0,0.0
0.53125,0.87318516,0.40235358,-0.27506226,-0.48729914,0.731519,-0.47688514,0.009336819,0.5504466,0.8348181,0.9024333,0.37329137,-0.21509933,-0.43079492,0.78818434,-0.43952385,0.005467472,0.48930466,0.87209576,0.039474487,5.4400787,8.179871,0.09156292,5.3980374,8.1867695,-0.04499817,0.010772705,-0.005996704,-36.898804,55.13916,-36.479187,0,0.0,0.0,0.0,0.0
0.539550781,0.8731872,0.40252763,-0.2748012,-0.48729938,0.7316044,-0.47675398,0.009139107,0.5502059,0.834979,0.90188634,0.37394446,-0.21625584,-0.4319378,0.7870979,-0.44034824,0.0055487235,0.49055314,0.8713936,0.039474487,5.4400787,8.179871,0.089624025,5.3956766,8.188347,-0.04499817,0.020843506,-0.0056915283,-36.898804,55.13916,-36.479187,0,0.0,0.0,0.0,0.0
0.547851562,0.8718044,0.4048113,-0.2758347,-0.48977208,0.7306334,-0.475708,0.008962093,0.54982054,0.83523476,0.9008204,0.37521017,-0.21849474,-0.4341545,0.78498715,-0.44193316,0.0056977607,0.4929629,0.87003165,0.06341553,5.394623,8.304291,0.08788811,5.3918977,8.190855,-0.045913696,0.01763916,-0.0066070557,-37.139893,54.719543,-37.078857,0,0.0,0.0,0.0,0.0
0.556152343,0.86820805,0.41036,-0.2789614,-0.49612218,0.72787666,-0.4733479,0.008806434,0.5493634,0.8355371,0.89974195,0.37651125,-0.220689,-0.43638325,0.78291696,-0.44340804,0.0058330456,0.4952578,0.8687265,0.09211731,5.3694916,8.382065,0.086361624,5.3874145,8.19382,-0.046829224,0.021316528,-0.0040130615,-37.799072,54.47998,-37.5,0,0.0,0.0,0.0,0.0
0.564453125,0.8682069,0.41059086,-0.27862495,-0.49612704,0.7280812,-0.47302812,0.008640575,0.5489197,0.8358304,0.8991529,0.3772568,-0.22181398,-0.437595,0.7818593,-0.44407967,0.0058952305,0.49636018,0.86809665,0.09211731,5.3694916,8.382065,0.0847351,5.3830633,8.196696,-0.037826538,0.026351929,-0.0026397705,-37.799072,54.47998,-37.5,0,0.0,0.0,0.0,0.0
0.572753906,0.8682058,0.4108026,-0.27831608,-0.49613154,0.72827363,-0.47272724,0.00849269,0.54850596,0.83610356,0.89800453,0.378704,-0.2239889,-0.43994504,0.7798091,-0.44536066,0.006008726,0.49847874,0.86688113,0.11605835,5.34317,8.385651,0.08328484,5.379006,8.199375,-0.023620605,0.031539917,0.0045318604,-37.799072,54.47998,-37.5,0,0.0,0.0,0.0,0.0
0.581054687,0.8659659,0.41422203,-0.28021982,-0.5000329,0.7265406,-0.47128108,0.008376093,0.5482325,0.83628404,0.8968955,0.38009185,-0.226072,-0.44220018,0.77784073,-0.4465677,0.0061112605,0.5004937,0.8657186,0.1375885,5.3395844,8.292328,0.08214141,5.376324,8.201145,-0.012924194,0.02848816,4.119873E-4,-38.09967,54.119873,-37.739563,0,0.0,0.0,0.0,0.0
0.589355468,0.86596453,0.41435006,-0.28003478,-0.5000372,0.7266258,-0.47114506,0.008261496,0.5480227,0.8364226,0.8963155,0.38083425,-0.2271205,-0.44337404,0.77685183,-0.44712502,0.0061584506,0.5014644,0.86515635,0.1375885,5.3395844,8.292328,0.081017606,5.374267,8.202504,-0.010635376,0.035354614,0.0014801025,-38.09967,54.119873,-37.739563,0,0.0,0.0,0.0,0.0
0.59765625,0.86427146,0.41692588,-0.28143868,-0.5029605,0.72526,-0.47013694,0.008103952,0.54787844,0.8365187,0.8951854,0.3822727,-0.22915198,-0.44565013,0.7749315,-0.44819316,0.0062450967,0.50333756,0.8640673,0.11366272,5.3240356,8.249252,0.079472624,5.3728523,8.203446,-0.008956909,0.023605347,7.171631E-4,-38.339233,53.878784,-37.919617,0,0.0,0.0,0.0,0.0
0.605957031,0.8642698,0.41703427,-0.28128293,-0.5029652,0.72529775,-0.47007343,0.007977159,0.5477458,0.83660674,0.89460486,0.38302192,-0.23016594,-0.4468139,0.7739728,-0.44869077,0.0062837685,0.5042423,0.8635394,0.11366272,5.3240356,8.249252,0.078229204,5.3715515,8.204309,-0.014160156,0.02053833,-0.0023345947,-38.339233,53.878784,-37.919617,0,0.0,0.0,0.0,0.0
0.614257812,0.8625627,0.41956478,-0.28275582,-0.5058876,0.72397935,-0.4689685,0.007946712,0.5475575,0.8367303,0.8934738,0.38447335,-0.23213112,-0.44907042,0.77210975,-0.44964692,0.006353452,0.5059909,0.86251545,0.14955139,5.3359985,8.266006,0.07793063,5.3697047,8.205522,-0.028198242,0.0115356445,-0.0024871826,-38.63983,53.518677,-38.459778,0,0.0,0.0,0.0,0.0
0.622558593,0.8625603,0.41967264,-0.28260323,-0.50589246,0.7241083,-0.46876436,0.007907751,0.5473044,0.8368963,0.8923214,0.38596538,-0.2340793,-0.45135483,0.7702671,-0.45051885,0.0064189234,0.5076605,0.8615333,0.114852905,5.3563385,8.2947235,0.07754855,5.367223,8.2071495,-0.032791138,8.392334E-4,-0.0021820068,-38.63983,53.518677,-38.459778,0,0.0,0.0,0.0,0.0
0.630859375,0.8606692,0.4224475,-0.28423023,-0.509103,0.72269166,-0.46747306,0.007927983,0.547042,0.8370676,0.8917603,0.38668802,-0.23502325,-0.4524621,0.76937383,-0.4509344,0.006449801,0.5084645,0.8610587,0.114852905,5.3563385,8.2947235,0.07774696,5.36465,8.208829,-0.016906738,-0.0060272217,-0.0011138916,-38.99994,53.579712,-38.459778,0,0.0,0.0,0.0,0.0
0.639160156,0.8606691,0.4224496,-0.2842272,-0.5091011,0.7228265,-0.46726635,0.008050493,0.54686207,0.83718395,0.8906003,0.38820052,-0.23692057,-0.45474017,0.7675854,-0.45169017,0.006510398,0.51001275,0.8601422,0.13877869,5.4101715,8.347366,0.07894837,5.362885,8.20997,-0.014465332,-0.0077056885,0.003921509,-38.99994,53.579712,-38.459778,0,0.0,0.0,0.0,0.0
0.647460937,0.85958815,0.42395207,-0.28525925,-0.51092124,0.7220705,-0.4664479,0.008225741,0.5466981,0.8372894,0.8894808,0.3896454,-0.23874736,-0.45692518,0.76586795,-0.4523999,0.0065734065,0.5114907,0.85926366,0.1651001,5.403,8.367706,0.08066696,5.361277,8.211004,-0.017211914,-0.01121521,-0.004776001,-39.29901,53.39966,-39.05945,0,0.0,0.0,0.0,0.0
0.655761718,0.85958856,0.42393833,-0.28527847,-0.51091814,0.72221386,-0.4662294,0.008379569,0.5465194,0.83740455,0.8889165,0.39037523,-0.23965521,-0.45802158,0.76501936,-0.4527269,0.0066075,0.5122037,0.85883856,0.1651001,5.403,8.367706,0.0821755,5.3595247,8.212133,-0.02255249,-0.0060272217,-0.010726929,-39.29901,53.39966,-39.05945,0,0.0,0.0,0.0,0.0
0.6640625,0.8580578,0.42610908,-0.2866493,-0.5134828,0.7210902,-0.4651497,0.008495487,0.54631484,0.8375368,0.8878177,0.3917854,-0.24142091,-0.46014696,0.76337475,-0.45334733,0.006679765,0.51357883,0.85801643,0.15553284,5.3970184,8.378464,0.08331227,5.3575187,8.21343,-0.017822266,-0.0064849854,-0.004470825,-39.35852,52.859497,-39.239502,0,0.0,0.0,0.0,0.0
0.672363281,0.85805804,0.4261031,-0.28665763,-0.5134804,0.72121465,-0.46495953,0.008620981,0.54615533,0.8376396,0.8867028,0.39322373,-0.2431734,-0.46229059,0.7617503,-0.45389864,0.0067536943,0.51488996,0.85722965,0.14356995,5.38266,8.321045,0.08454294,5.355954,8.2144375,-0.012786865,-0.019165039,-0.0015716553,-39.35852,52.859497,-39.239502,0,0.0,0.0,0.0,0.0
0.680664062,0.8566145,0.42807588,-0.28803268,-0.51588196,0.7201364,-0.46397147,0.008807797,0.54603547,0.83771574,0.88616014,0.3939187,-0.24402507,-0.4633293,0.76096314,-0.45415974,0.006792057,0.51552224,0.85684925,0.14356995,5.38266,8.321045,0.08637498,5.354779,8.215185,-0.0025482178,-0.025115967,-0.009048462,-39.479065,52.679443,-39.118958,0,0.0,0.0,0.0,0.0
0.688964843,0.85661644,0.42801675,-0.28811434,-0.51587504,0.7202592,-0.46378836,0.009007813,0.5459198,0.83778906,0.88505214,0.39534497,-0.24573371,-0.4654411,0.7593935,-0.4546274,0.00687393,0.51674354,0.85611266,0.12802124,5.3599243,8.344971,0.088336475,5.3536444,8.215904,1.9836426E-4,-0.031066895,-0.004928589,-39.479065,52.679443,-39.118958,0,0.0,0.0,0.0,0.0
0.697265625,0.8571471,0.42718595,-0.28776908,-0.5149889,0.720796,-0.46393916,0.009234493,0.54586196,0.83782417,0.8839833,0.39670643,-0.24738126,-0.4674666,0.7578868,-0.45506325,0.006960483,0.5179108,0.85540634,0.12083435,5.36351,8.359329,0.09055944,5.3530774,8.2162485,0.011047363,-0.026947021,-9.613037E-4,-39.35852,52.49939,-39.29901,0,0.0,0.0,0.0,0.0
0.705566406,0.8571512,0.4270753,-0.2879211,-0.514978,0.72087044,-0.46383566,0.009461048,0.5458503,0.8378293,0.88347286,0.3973473,-0.24817486,-0.46842986,0.75716466,-0.4552748,0.007007031,0.5184755,0.85506386,0.12083435,5.36351,8.359329,0.092781186,5.352963,8.216299,0.010894775,-0.022064209,-0.0038604736,-39.35852,52.49939,-39.29901,0,0.0,0.0,0.0,0.0
0.713867187,0.85750455,0.42647758,-0.2877549,-0.5143865,0.7211676,-0.46403006,0.009621102,0.5459251,0.83777875,0.8824797,0.3985826,-0.24972288,-0.47029686,0.75576377,-0.4556775,0.0071063773,0.51957,0.8543983,0.119644165,5.399399,8.324631,0.094350785,5.3536963,8.215803,0.029067993,-0.008010864,-0.0035552979,-39.35852,52.49939,-39.479065,0,0.0,0.0,0.0,0.0
0.722167968,0.8575083,0.42637938,-0.2878893,-0.5143787,0.7211052,-0.4641355,0.009700637,0.5460841,0.8376741,0.8815349,0.39974,-0.25120544,-0.47206384,0.7544264,-0.45606634,0.007208091,0.5206234,0.853756,0.12802124,5.3515472,8.232513,0.09513076,5.355256,8.214777,0.025848389,-0.0029754639,8.69751E-4,-39.35852,52.49939,-39.479065,0,0.0,0.0,0.0,0.0
0.73046875,0.856889,0.42714813,-0.28859237,-0.51540804,0.72051924,-0.46390352,0.009780854,0.5462567,0.8375607,0.8810754,0.40029797,-0.251928,-0.47292018,0.7537754,-0.4562555,0.0072589945,0.5211373,0.85344195,0.12802124,5.3515472,8.232513,0.09591741,5.3569484,8.213665,0.031661987,-0.005722046,5.645752E-4,-39.35852,52.079773,-39.779663,0,0.0,0.0,0.0,0.0
0.738769531,0.85689485,0.4270137,-0.28877413,-0.51539636,0.72043425,-0.46404856,0.009887687,0.546474,0.8374177,0.8801588,0.40140995,-0.25335875,-0.4746224,0.7524885,-0.4566121,0.0073608975,0.52214086,0.8528275,0.14955139,5.334793,8.164307,0.0969651,5.3590794,8.212263,0.035629272,-0.0048065186,0.0033111572,-39.35852,52.079773,-39.779663,0,0.0,0.0,0.0,0.0
0.747070312,0.85665864,0.42716804,-0.289246,-0.5157858,0.72011685,-0.4641083,0.010038672,0.54677147,0.83722174,0.87927544,0.40246907,-0.25474167,-0.47625518,0.7512467,-0.45695662,0.007462935,0.5231128,0.8522308,0.17347717,5.371887,8.115265,0.09844574,5.3619967,8.2103405,0.030288696,-0.011978149,0.0043945313,-39.35852,52.19879,-39.479065,0,0.0,0.0,0.0,0.0
0.755371093,0.8566662,0.4269746,-0.28950936,-0.5157699,0.7200202,-0.46427616,0.010218456,0.54704994,0.8370376,0.8788416,0.402985,-0.25542235,-0.4770545,0.7506375,-0.45712405,0.007515458,0.52359,0.85193723,0.17347717,5.371887,8.115265,0.10020883,5.3647275,8.208535,0.024627686,-0.011062622,0.0013275146,-39.35852,52.19879,-39.479065,0,0.0,0.0,0.0,0.0
0.763671875,0.8569285,0.42643484,-0.2895288,-0.51533055,0.7201436,-0.46457255,0.010392374,0.54730844,0.83686644,0.87799793,0.40397608,-0.2567547,-0.4786037,0.74944973,-0.4574533,0.0076245237,0.52452683,0.8513598,0.16390991,5.3730774,8.105682,0.10191438,5.3672624,8.206857,0.02218628,-0.007858276,-0.0015716553,-39.35852,51.838684,-40.13977,0,0.0,0.0,0.0,0.0
0.771972656,0.85693383,0.42631862,-0.28968406,-0.5153191,0.7201097,-0.4646379,0.010520494,0.5474436,0.83677644,0.87719476,0.40490302,-0.25803646,-0.48007232,0.7483115,-0.4577776,0.0077361423,0.52543634,0.8507977,0.15911865,5.367096,8.206192,0.103170805,5.368588,8.205974,6.5612793E-4,0.0022277832,-0.0040130615,-39.35852,51.838684,-40.13977,0,0.0,0.0,0.0,0.0
0.780273437,0.8586593,0.42385152,-0.2881909,-0.51243734,0.7215312,-0.46561855,0.010585599,0.5474875,0.8367469,0.8768044,0.40534928,-0.25866193,-0.48078406,0.74775803,-0.45793515,0.0077928356,0.5258801,0.850523,0.15911865,5.367096,8.206192,0.10380926,5.3690186,8.205684,-0.0071258545,0.012908936,-0.0021820068,-38.879395,51.838684,-39.59961,0,0.0,0.0,0.0,0.0
0.788574218,0.858657,0.4239091,-0.28811327,-0.5124416,0.72160333,-0.46550217,0.0105728805,0.5473479,0.83683836,0.87610936,0.40611196,-0.25981817,-0.4820476,0.7467366,-0.45827356,0.007905352,0.52674246,0.84998816,0.15792847,5.3060913,8.203796,0.10368454,5.3676496,8.206581,-0.035690308,0.012298584,-0.0021820068,-38.879395,51.838684,-39.59961,0,0.0,0.0,0.0,0.0
0.796875,0.85881203,0.4238387,-0.28775463,-0.51218283,0.7219186,-0.4652983,0.010523963,0.5469867,0.8370752,0.87543994,0.40684426,-0.26092663,-0.48326054,0.74575704,-0.458591,0.008012742,0.5275644,0.84947723,0.14596558,5.2582245,8.263611,0.103204824,5.364107,8.208903,-0.04866028,0.018096924,-0.0024871826,-38.99994,52.139282,-39.59961,0,0.0,0.0,0.0,0.0
0.805175781,0.85880476,0.42402235,-0.28750566,-0.5121958,0.7221498,-0.46492493,0.010483573,0.5465389,0.8373681,0.87511754,0.4071969,-0.26145768,-0.4838434,0.74528754,-0.4587397,0.008063771,0.52795565,0.8492337,0.14596558,5.2582245,8.263611,0.102808736,5.359716,8.211776,-0.05079651,0.011077881,-0.0023345947,-38.99994,52.139282,-39.59961,0,0.0,0.0,0.0,0.0
0.813476562,0.86081284,0.42138308,-0.28537276,-0.5088153,0.7240634,-0.4656599,0.010406781,0.546048,0.83768916,0.8744902,0.4078866,-0.26247922,-0.48497444,0.7443847,-0.4590111,0.008161033,0.5286965,0.84877175,0.124420166,5.3611145,8.441879,0.10205566,5.354902,8.214925,-0.054779053,0.013519287,-0.013473511,-38.75885,52.319336,-39.65912,0,0.0,0.0,0.0,0.0
0.821777343,0.86080384,0.4216107,-0.28506362,-0.5088324,0.7243086,-0.46525976,0.010315559,0.54554695,0.8380167,0.87396204,0.40843904,-0.26337782,-0.4859241,0.74359006,-0.4592947,0.008251213,0.5293878,0.8483398,0.06819153,5.395813,8.451447,0.10116108,5.349988,8.218137,-0.052947998,-0.0011444092,-0.009506226,-38.75885,52.319336,-39.65912,0,0.0,0.0,0.0,0.0
0.830078125,0.8605637,0.42217693,-0.28495052,-0.50924116,0.72432846,-0.4647814,0.010177763,0.5450825,0.8383206,0.87370527,0.4087108,-0.26380783,-0.48638496,0.74320906,-0.45942345,0.008293052,0.52971286,0.8481365,0.06819153,5.395813,8.451447,0.099809766,5.345433,8.221117,-0.046066284,-0.010299683,-0.004623413,-38.69934,52.319336,-39.35852,0,0.0,0.0,0.0,0.0
0.838391252,0.8605567,0.42236042,-0.28469977,-0.5092554,0.72447693,-0.46453428,0.010057529,0.54474294,0.8385427,0.873197,0.40925962,-0.26463836,-0.48729548,0.7424702,-0.4596532,0.008368622,0.5303249,0.84775317,-0.021530151,5.4424744,8.416748,0.098630674,5.3421035,8.223295,-0.017822266,-0.041000366,-0.009353638,-38.69934,52.319336,-39.35852,0,0.0,0.0,0.0,0.0
0.846692033,0.86079776,0.4219577,-0.2845678,-0.50884354,0.72480404,-0.4644752,0.010267014,0.54461974,0.83862025,0.8727077,0.40979254,-0.2654267,-0.48817015,0.7417658,-0.45986235,0.008436292,0.5308988,0.8473933,0.11366272,5.4065857,8.276779,0.100685015,5.340895,8.224055,0.008453369,-0.05000305,-0.005996704,-38.578796,52.319336,-39.118958,0,0.0,0.0,0.0,0.0
0.854992814,0.86080384,0.4217898,-0.28479835,-0.5088274,0.7248597,-0.46440637,0.010556993,0.544676,0.8385802,0.87247473,0.4100423,-0.26580676,-0.48858583,0.7414303,-0.459962,0.008473322,0.53117466,0.84722,0.11366272,5.4065857,8.276779,0.10352874,5.341447,8.223662,0.027236938,-0.049850464,-0.005996704,-38.578796,52.319336,-39.118958,0,0.0,0.0,0.0,0.0
0.863293596,0.8610172,0.42122653,-0.28498688,-0.50845826,0.7250161,-0.46456638,0.010932379,0.5449036,0.8384275,0.8718025,0.4107506,-0.26691645,-0.48978215,0.74046564,-0.46024355,0.008597154,0.53197235,0.8467181,0.15074158,5.3886414,8.222931,0.107210025,5.343679,8.222165,0.026153564,-0.024963379,-0.010574341,-38.63983,52.799988,-38.69934,0,0.0,0.0,0.0,0.0
0.871594377,0.8610244,0.4209684,-0.2853462,-0.50843936,0.7249468,-0.46469507,0.0112388525,0.5451951,0.8382339,0.8715911,0.41096547,-0.2672757,-0.4901573,0.7401596,-0.46033633,0.008644346,0.5322322,0.8465542,0.15194702,5.394623,8.154739,0.11021549,5.3465376,8.220266,0.031814575,-0.016418457,-0.005844116,-38.63983,52.799988,-38.69934,0,0.0,0.0,0.0,0.0
0.879895158,0.86017776,0.42198384,-0.2863978,-0.50986624,0.724135,-0.46439722,0.011422556,0.54548883,0.83804023,0.871384,0.41117072,-0.26763508,-0.49052447,0.7398582,-0.46042973,0.008696777,0.5324927,0.8463899,0.15194702,5.394623,8.154739,0.11201701,5.349418,8.218368,0.022644043,-0.0032806396,-0.007980347,-38.819885,52.49939,-39.239502,0,0.0,0.0,0.0,0.0
0.888195939,0.86018085,0.42189494,-0.28651986,-0.50986,0.72406137,-0.46451905,0.011479714,0.54565537,0.83793104,0.8709494,0.41160968,-0.26837406,-0.49129382,0.7392415,-0.4606,0.008805818,0.5330098,0.8460632,0.15553284,5.3288116,8.165512,0.112577535,5.3510513,8.217297,-4.119873E-4,0.035964966,-0.005844116,-38.819885,52.49939,-39.239502,0,0.0,0.0,0.0,0.0
0.896496721,0.8601788,0.42195353,-0.28643936,-0.50986624,0.72400653,-0.46459767,0.011345324,0.5456829,0.837915,0.8707384,0.41182053,-0.26873502,-0.4916667,0.7389408,-0.46068472,0.008859838,0.5332639,0.84590256,0.1603241,5.3156586,8.208572,0.111259624,5.351321,8.217139,0.0011138916,0.051849365,-0.007369995,-38.819885,52.49939,-39.239502,0,0.0,0.0,0.0,0.0
0.904797502,0.8610911,0.4208609,-0.28530395,-0.5083326,0.7246836,-0.46522212,0.0109613,0.5456279,0.83795583,0.8703283,0.41223153,-0.2694324,-0.49239048,0.7383547,-0.46085134,0.008959229,0.5337579,0.8455898,0.14596558,5.294113,8.199005,0.10749363,5.350782,8.21754,-0.010192871,0.08728027,-0.013626099,-38.578796,52.738953,-38.63983,0,0.0,0.0,0.0,0.0
0.913098283,0.86110884,0.42118657,-0.28476918,-0.5083157,0.72459674,-0.46537584,0.010332782,0.5454919,0.8380524,0.87014675,0.4124083,-0.26974815,-0.49271053,0.7380835,-0.4609437,0.00899966,0.5339964,0.8454389,0.100494385,5.272583,8.197815,0.101329975,5.349448,8.218487,-0.022705078,0.09767151,-0.010879517,-38.819885,53.03955,-38.938904,0,0.0,0.0,0.0,0.0
0.921399064,0.86109596,0.42162022,-0.28416568,-0.5083513,0.7245067,-0.4654771,0.009625375,0.54527646,0.838201,0.86979467,0.41276377,-0.27033952,-0.49333096,0.7375537,-0.46112806,0.0090529565,0.5344535,0.8451494,0.08973694,5.3013,8.234894,0.09439269,5.347336,8.219944,-0.033859253,0.089416504,-0.013015747,-38.819885,53.03955,-38.938904,0,0.0,0.0,0.0,0.0
0.929699846,0.86024237,0.42324808,-0.284331,-0.50980645,0.7237714,-0.46502936,0.008967868,0.54499173,0.83839345,0.8694553,0.41312188,-0.27088353,-0.4939283,0.7370412,-0.46130806,0.009075856,0.5348838,0.8448769,0.08973694,5.3013,8.234894,0.087944746,5.3445435,8.221831,-0.03919983,0.067276,-0.008743286,-38.75885,52.738953,-38.75885,0,0.0,0.0,0.0,0.0
0.938000627,0.86023074,0.42360964,-0.2838274,-0.50983495,0.72377455,-0.46499318,0.008451462,0.5447065,0.8385841,0.86927384,0.41332835,-0.27115062,-0.49424756,0.736778,-0.4613865,0.009073703,0.53508675,0.8447484,0.08973694,5.338394,8.214554,0.082880534,5.3417463,8.2237015,-0.051101685,0.04498291,-0.009811401,-38.75885,52.738953,-38.75885,0,0.0,0.0,0.0,0.0
0.946301408,0.8586113,0.42616856,-0.2848983,-0.51256305,0.72250164,-0.46397236,0.008109053,0.5444002,0.8387863,0.8689209,0.4137429,-0.27164897,-0.49486816,0.7362674,-0.4615363,0.009048928,0.535469,0.8445064,0.090927124,5.407776,8.274384,0.07952264,5.3387427,8.225684,-0.053710938,0.031234741,-0.011642456,-38.938904,52.619934,-38.63983,0,0.0,0.0,0.0,0.0
0.954602189,0.85860425,0.42637765,-0.28460646,-0.51257735,0.72265,-0.4637256,0.007948612,0.5440396,0.83902186,0.8685194,0.41424328,-0.2721699,-0.49557313,0.7357278,-0.46164045,0.0090115005,0.5358238,0.84428173,0.093322754,5.4388885,8.373688,0.077949256,5.335206,8.227994,-0.041641235,-0.011367798,-0.011795044,-38.938904,52.619934,-38.63983,0,0.0,0.0,0.0,0.0
0.962902971,0.8600885,0.42438158,-0.28310406,-0.5100823,0.72408736,-0.46423423,0.007979595,0.54368895,0.83924884,0.86832446,0.4144898,-0.27241695,-0.49591526,0.7354688,-0.46168572,0.008990128,0.5359887,0.8441773,0.112457275,5.4017944,8.392822,0.0782531,5.3317676,8.23022,-0.033096313,-0.011367798,-8.087158E-4,-38.819885,52.859497,-38.69934,0,0.0,0.0,0.0,0.0
0.971203752,0.86008984,0.4243437,-0.28315705,-0.51007587,0.7243218,-0.46387565,0.008254086,0.5434063,0.83942926,0.86800253,0.41488722,-0.27283743,-0.49647918,0.73502165,-0.46179178,0.008949909,0.5362945,0.8439835,0.19381714,5.365906,8.415558,0.08094493,5.3289957,8.231989,-0.016448975,-0.039474487,8.69751E-4,-38.819885,52.859497,-38.69934,0,0.0,0.0,0.0,0.0
0.979504533,0.8583064,0.4267405,-0.28496084,-0.5130645,0.7230592,-0.4625474,0.008655859,0.5432107,0.83955175,0.86769307,0.41526678,-0.2732438,-0.4970202,0.7346011,-0.46187887,0.008922231,0.5365768,0.84380424,0.19381714,5.365906,8.415558,0.08488498,5.327077,8.233191,-0.003616333,-0.059936523,-0.0124053955,-38.99994,52.679443,-38.578796,0,0.0,0.0,0.0,0.0
0.987805314,0.8583134,0.42652556,-0.28526145,-0.5130437,0.7232895,-0.4622104,0.009182081,0.54307294,0.8396353,0.8675082,0.41549933,-0.27347708,-0.49734282,0.73437244,-0.4618952,0.008916889,0.5367098,0.8437198,0.22851563,5.3407745,8.4179535,0.09004545,5.3257265,8.23401,0.017150879,-0.058258057,-0.017303467,-38.99994,52.679443,-38.578796,0,0.0,0.0,0.0,0.0
0.996106096,0.85832036,0.42630905,-0.28556406,-0.5130239,0.7234314,-0.46201026,0.009626844,0.543054,0.8396426,0.86714965,0.41594136,-0.27394208,-0.49796766,0.7339375,-0.46191344,0.008927458,0.53696233,0.843559,0.17468262,5.296509,8.388046,0.09440709,5.3255405,8.234081,0.029525757,-0.06237793,-0.020355225,-38.99994,52.679443,-38.578796,0,0.0,0.0,0.0,0.0
1.004406877,0.8582206,0.4262492,-0.285953,-0.51318455,0.72337246,-0.46192417,0.009955715,0.54317945,0.8395576,0.8668051,0.4163568,-0.27440098,-0.49856663,0.73352486,-0.46192265,0.008955294,0.5372041,0.8434047,0.0993042,5.3000946,8.355743,0.097632214,5.326771,8.233248,0.044784546,-0.064208984,-0.031341553,-39.05945,52.43988,-39.05945,0,0.0,0.0,0.0,0.0
1.012707658,0.8592017,0.42468622,-0.28533128,-0.51153517,0.72416425,-0.4625125,0.01020404,0.54334855,0.8394452,0.866636,0.41655698,-0.27463144,-0.4988603,0.7333235,-0.46192548,0.008975401,0.5373239,0.84332824,0.04067993,5.2666016,8.333008,0.10006745,5.328429,8.232145,0.046936035,-0.07015991,-0.028137207,-38.879395,52.738953,-38.578796,0,0.0,0.0,0.0,0.0
1.021008439,0.85920763,0.42449066,-0.28560454,-0.51151985,0.72415465,-0.46254456,0.010476026,0.5435142,0.8393346,0.86634535,0.41688251,-0.27505398,-0.4993639,0.7329632,-0.46195307,0.009024286,0.53756297,0.84317535,0.01914978,5.264206,8.334198,0.10273472,5.330054,8.231061,0.03517151,-0.073516846,-0.017150879,-38.879395,52.738953,-38.578796,0,0.0,0.0,0.0,0.0
1.029309221,0.8587612,0.4249217,-0.28630564,-0.51226205,0.72381973,-0.46224755,0.0108146565,0.5436237,0.83925945,0.86606616,0.4171872,-0.27547085,-0.49984685,0.7326165,-0.46198067,0.009082042,0.5377991,0.8430241,0.044265747,5.2785645,8.349762,0.10605556,5.331127,8.230324,0.019592285,-0.072753906,-0.01423645,-39.118958,52.619934,-39.239502,0,0.0,0.0,0.0,0.0
1.037610002,0.85876954,0.42468435,-0.28663224,-0.51223963,0.7238714,-0.46219122,0.0111995,0.54374015,0.8391789,0.86592203,0.41734365,-0.2756871,-0.500096,0.7324417,-0.46198827,0.0091168545,0.5379158,0.8429493,0.0657959,5.334793,8.325821,0.10982958,5.3322697,8.229534,0.021118164,-0.06802368,-0.011642456,-39.118958,52.619934,-39.239502,0,0.0,0.0,0.0,0.0
1.045910783,0.8587775,0.42445487,-0.28694797,-0.51221776,0.7239266,-0.4621289,0.011576412,0.54384583,0.8391053,0.86564237,0.41763753,-0.27611983,-0.5005783,0.73210436,-0.46200067,0.009199695,0.538147,0.84280086,0.0657959,5.334793,8.325821,0.11352582,5.333306,8.228812,0.03074646,-0.06863403,-0.0024871826,-39.118958,52.619934,-39.239502,0,0.0,0.0,0.0,0.0
1.054211564,0.8572338,0.42637387,-0.28871357,-0.51478773,0.7226757,-0.46123028,0.01198975,0.5440084,0.838994,0.8655069,0.41777533,-0.27633607,-0.5008117,0.7319417,-0.46200538,0.009247441,0.5382612,0.84272736,0.105285645,5.3563385,8.321045,0.11757928,5.3349,8.227721,0.03074646,-0.057647705,-0.0043182373,-39.179993,52.079773,-39.419556,0,0.0,0.0,0.0,0.0
1.062512346,0.85724264,0.4261473,-0.28902164,-0.5147654,0.7226818,-0.46124554,0.012312122,0.5441777,0.8388796,0.86502725,0.41828656,-0.27706346,-0.50163656,0.7314004,-0.46196774,0.009409405,0.53859985,0.84250915,0.10647583,5.3288116,8.3198395,0.12074067,5.3365607,8.226599,0.017303467,-0.04008484,-0.00843811,-39.179993,52.079773,-39.419556,0,0.0,0.0,0.0,0.0
1.070813127,0.8576453,0.42543095,-0.28888264,-0.51408863,0.72302973,-0.4614552,0.012553448,0.5442761,0.8388122,0.8648739,0.4184455,-0.27730244,-0.5019,0.73122716,-0.46195596,0.009467712,0.53871167,0.842437,0.12921143,5.34317,8.254044,0.12310727,5.3375254,8.225938,0.017303467,-0.04374695,-0.004623413,-39.239502,52.378845,-39.35852,0,0.0,0.0,0.0,0.0
1.079113908,0.857652,0.42523938,-0.28914425,-0.5140703,0.7230383,-0.4614619,0.012830606,0.5444143,0.8387183,0.8647312,0.41858676,-0.2775339,-0.5021445,0.73106414,-0.46194822,0.009529694,0.5388232,0.84236497,0.13279724,5.350357,8.240875,0.12582527,5.338881,8.225018,0.02279663,-0.041763306,-0.0011138916,-39.239502,52.378845,-39.35852,0,0.0,0.0,0.0,0.0
1.087414689,0.8593917,0.42257985,-0.28787532,-0.51114905,0.72447675,-0.46245012,0.01313689,0.544573,0.8386106,0.8644546,0.41885298,-0.2779935,-0.502618,0.730748,-0.46193352,0.009660966,0.5390451,0.8422215,0.1531372,5.3527374,8.226517,0.12882888,5.340437,8.223961,0.024475098,-0.05229187,-0.0015716553,-39.05945,52.49939,-39.538574,0,0.0,0.0,0.0,0.0
1.095715471,0.8594009,0.42231584,-0.28823504,-0.5111241,0.724469,-0.46248975,0.0135006225,0.54478794,0.8384651,0.8642564,0.41900218,-0.27838466,-0.5029561,0.73050046,-0.46195683,0.009799192,0.53926444,0.8420794,0.20219421,5.36232,8.175079,0.13239588,5.3425446,8.222534,0.040512085,-0.053359985,-0.0038604736,-39.05945,52.49939,-39.538574,0,0.0,0.0,0.0,0.0
1.104016252,0.85871094,0.42296445,-0.2893383,-0.5122704,0.72385406,-0.46218443,0.013951116,0.54510224,0.8382535,0.8641605,0.41906926,-0.27858162,-0.5031195,0.7303803,-0.46196896,0.009873539,0.5393751,0.8420077,0.20219421,5.36232,8.175079,0.13681372,5.345627,8.220459,0.044021606,-0.05657959,-0.005996704,-39.179993,52.619934,-39.35852,0,0.0,0.0,0.0,0.0
1.112317033,0.85997844,0.42081472,-0.28870773,-0.5101266,0.724837,-0.46301427,0.014422817,0.54545975,0.83801293,0.8639473,0.41922536,-0.27900758,-0.5034823,0.73012286,-0.46198088,0.010035716,0.53960246,0.8418601,0.19740295,5.374283,8.13559,0.14143953,5.349133,8.2181,0.049224854,-0.0773468,-0.015777588,-39.179993,52.859497,-39.65912,0,0.0,0.0,0.0,0.0
1.120617814,0.85999125,0.42039752,-0.2892765,-0.51008964,0.7247739,-0.46315372,0.014951404,0.5458651,0.83773965,0.86379206,0.41928938,-0.27939177,-0.5037451,0.7299141,-0.46202406,0.010210221,0.5398349,0.84170896,0.18424988,5.3694916,8.118851,0.1466232,5.3531084,8.21542,0.041885376,-0.089401245,-0.017456055,-39.179993,52.859497,-39.65912,0,0.0,0.0,0.0,0.0
1.128918596,0.8600032,0.42000043,-0.28981748,-0.5100534,0.7247564,-0.46322098,0.0154940775,0.5461939,0.8375155,0.8637169,0.41931215,-0.27958956,-0.5038718,0.72981167,-0.46204776,0.010305491,0.5399558,0.8416303,0.17108154,5.371887,8.190628,0.151945,5.3563323,8.213222,0.035629272,-0.08451843,-0.015777588,-39.179993,52.859497,-39.65912,0,0.0,0.0,0.0,0.0
1.137219377,0.86153924,0.4175197,-0.28883842,-0.50743955,0.7260794,-0.46401942,0.015982388,0.54633886,0.83741176,0.86357194,0.41934046,-0.27999488,-0.5041161,0.7296122,-0.46209642,0.0105119385,0.5402034,0.8414688,0.1483612,5.350357,8.282761,0.15673369,5.357754,8.212204,0.0024871826,-0.06939697,-0.012863159,-38.879395,53.03955,-39.29901,0,0.0,0.0,0.0,0.0
1.145520158,0.86154425,0.4173027,-0.28913635,-0.5074172,0.72620267,-0.46385053,0.016405521,0.5463406,0.8374024,0.8634929,0.41926882,-0.2803456,-0.50424683,0.729473,-0.4621735,0.010729586,0.5404469,0.8413097,0.1268158,5.350357,8.346161,0.1608832,5.357771,8.212112,-0.008651733,-0.0652771,-0.011642456,-38.879395,53.03955,-39.29901,0,0.0,0.0,0.0,0.0
1.153820939,0.8615931,0.41711465,-0.28926235,-0.5073236,0.72640944,-0.46362928,0.016736347,0.5462094,0.83748144,0.8634547,0.4192297,-0.28052163,-0.5043098,0.7294079,-0.46220744,0.010843626,0.540565,0.8412323,0.1268158,5.350357,8.346161,0.1641275,5.3564844,8.212888,-0.008651733,-0.048477173,-0.001876831,-39.05945,53.219604,-39.59961,0,0.0,0.0,0.0,0.0
1.162121721,0.85944104,0.42008957,-0.29135162,-0.51095235,0.72476614,-0.4622138,0.016990595,0.54611236,0.8375396,0.8633826,0.41914627,-0.28086832,-0.50442827,0.7292898,-0.46226448,0.011077985,0.540789,0.8410853,0.12921143,5.365906,8.347366,0.16662082,5.3555326,8.213458,0.015014648,-0.023895264,0.0019378662,-39.179993,52.859497,-39.35852,0,0.0,0.0,0.0,0.0
1.170422502,0.85944307,0.42000827,-0.29146284,-0.5109439,0.7248053,-0.4621618,0.017142052,0.54612297,0.8375296,0.8632287,0.41918442,-0.2812839,-0.5046863,0.7291112,-0.4622647,0.011313077,0.54100025,0.8409463,0.12921143,5.365906,8.347366,0.16810611,5.355637,8.21336,0.023712158,-0.016113281,0.0071411133,-39.179993,52.859497,-39.35852,0,0.0,0.0,0.0,0.0
1.178723283,0.85944545,0.4199117,-0.2915949,-0.51093644,0.72477007,-0.46222535,0.017245395,0.54624397,0.8374486,0.86315405,0.41920128,-0.28148764,-0.5048112,0.7290253,-0.4622636,0.011430124,0.5411029,0.8408787,0.14117432,5.34198,8.227722,0.16911957,5.3568234,8.212565,0.023712158,-0.01121521,0.008056641,-39.179993,52.859497,-39.35852,0,0.0,0.0,0.0,0.0
1.187024064,0.8594273,0.41981417,-0.29178914,-0.5109632,0.7246844,-0.46233016,0.017362295,0.5464326,0.83732307,0.8630092,0.41923025,-0.28188837,-0.5050535,0.7288573,-0.462264,0.011661316,0.54130685,0.84074426,0.17347717,5.330017,8.148758,0.17026594,5.3586736,8.211334,0.030899048,7.6293945E-5,0.009277344,-39.29901,53.219604,-39.179993,0,0.0,0.0,0.0,0.0
1.195324846,0.85943043,0.4196556,-0.29200774,-0.510953,0.724593,-0.4624846,0.017502531,0.54667556,0.83716154,0.8628694,0.41925403,-0.28228086,-0.5052872,0.7286924,-0.4622686,0.011887962,0.5415103,0.8406101,0.17347717,5.330017,8.148758,0.1716412,5.361056,8.20975,0.024475098,0.0016174316,0.012329102,-39.29901,53.219604,-39.179993,0,0.0,0.0,0.0,0.0
1.203625627,0.85784143,0.42172277,-0.2936972,-0.5136101,0.72320336,-0.46171594,0.017686695,0.5469249,0.8369948,0.8628015,0.41926247,-0.28247562,-0.5054003,0.72861063,-0.46227378,0.012000707,0.5416138,0.8405418,0.2644043,5.3324127,8.044662,0.17344724,5.363501,8.208116,0.013946533,-0.001449585,0.01171875,-39.479065,52.978516,-39.239502,0,0.0,0.0,0.0,0.0
1.211926408,0.8583585,0.42083701,-0.29345694,-0.5127385,0.72359556,-0.46207005,0.017887963,0.5470884,0.83688366,0.86260784,0.41936117,-0.28292042,-0.5057255,0.72839713,-0.4622546,0.012226791,0.5418245,0.8404027,0.2644043,5.3324127,8.044662,0.175421,5.3651047,8.207026,-0.0017852783,-0.014419556,0.009735107,-39.419556,53.03955,-39.239502,0,0.0,0.0,0.0,0.0
1.220227189,0.8583611,0.4207091,-0.29363248,-0.5127255,0.7236623,-0.46197987,0.018131632,0.5470984,0.83687186,0.862524,0.4193912,-0.28313136,-0.5058657,0.7283014,-0.4622521,0.012340481,0.54192996,0.84033304,0.26200867,5.3108673,8.087738,0.17781056,5.3652024,8.206909,-0.01751709,-0.020690918,0.003479004,-39.419556,53.03955,-39.239502,0,0.0,0.0,0.0,0.0
1.228527971,0.8583637,0.42058435,-0.2938036,-0.51271015,0.72380304,-0.46177638,0.018440034,0.54700816,0.83692414,0.86236143,0.41944432,-0.28354758,-0.5061371,0.7281182,-0.46224353,0.012570725,0.54213494,0.84019744,0.28474426,5.3730774,8.199005,0.18083496,5.3643174,8.207422,-0.027740479,-0.035507202,0.0014801025,-39.419556,53.03955,-39.239502,0,0.0,0.0,0.0,0.0
1.236828752,0.8577221,0.4213704,-0.2945502,-0.5137688,0.72350186,-0.46107116,0.01882591,0.5468016,0.83705044,0.8622053,0.41949025,-0.28395414,-0.5063972,0.72794783,-0.46222717,0.012804022,0.54232824,0.8400691,0.27876282,5.428116,8.333008,0.1846191,5.3622923,8.208661,-0.03538513,-0.04283142,-9.613037E-4,-39.59961,52.799988,-39.779663,0,0.0,0.0,0.0,0.0
1.245129533,0.8577251,0.4212526,-0.29470953,-0.51374876,0.72375375,-0.4606979,0.019226955,0.5465589,0.8371999,0.8621169,0.41952828,-0.28416628,-0.50654453,0.72785914,-0.46220523,0.012924884,0.5424178,0.84000945,0.27876282,5.428116,8.333008,0.18855202,5.359912,8.210127,-0.032791138,-0.039474487,-0.007675171,-39.59961,52.799988,-39.779663,0,0.0,0.0,0.0,0.0
1.253430314,0.8599193,0.41807342,-0.29283684,-0.5100515,0.72589463,-0.46143737,0.019653987,0.54616076,0.8374497,0.86194533,0.41959727,-0.2845844,-0.5068299,0.7276969,-0.46214783,0.013175243,0.5425821,0.8398994,0.33738708,5.3395844,8.455032,0.19273978,5.3560076,8.212577,-0.029724121,-0.018859863,-0.010726929,-39.239502,53.09906,-39.419556,0,0.0,0.0,0.0,0.0
1.261731096,0.8602382,0.4176165,-0.2925521,-0.5095045,0.7263992,-0.46124768,0.019884989,0.5458395,0.83765376,0.8618666,0.41953704,-0.28491163,-0.5069571,0.72762585,-0.46212023,0.01343251,0.542724,0.8398037,0.33738708,5.3395844,8.455032,0.19500513,5.352857,8.214578,-0.0043792725,-0.023895264,-0.012557983,-39.35852,53.459167,-39.419556,0,0.0,0.0,0.0,0.0
1.270031877,0.8602386,0.41759387,-0.2925832,-0.50949645,0.7265677,-0.46099123,0.02007438,0.54563254,0.8377841,0.8618347,0.41949862,-0.28506467,-0.5070079,0.72760147,-0.46210298,0.013561878,0.5427864,0.8397613,0.26200867,5.3312073,8.407181,0.19686243,5.350827,8.215856,0.011657715,-0.020690918,-0.00920105,-39.35852,53.459167,-39.419556,0,0.0,0.0,0.0,0.0
1.278332658,0.8602389,0.41757694,-0.2926064,-0.5094927,0.7266286,-0.4608993,0.020155251,0.5455643,0.8378266,0.86177284,0.41942316,-0.2853627,-0.5071062,0.72756076,-0.46205926,0.013820343,0.54289925,0.8396841,0.19502258,5.3443756,8.382065,0.1976555,5.350158,8.216272,0.010437012,-0.0077056885,-0.011642456,-39.35852,53.459167,-39.419556,0,0.0,0.0,0.0,0.0
1.286633439,0.860573,0.4171247,-0.2922689,-0.5089295,0.7269045,-0.4610863,0.02012111,0.5455427,0.83784145,0.86171323,0.41935003,-0.28564987,-0.5072004,0.72752404,-0.46201357,0.014071724,0.54300493,0.8396116,0.15074158,5.3192444,8.325821,0.1973207,5.3499465,8.216418,0.012878418,-0.0051116943,-0.015472412,-39.118958,53.338623,-39.05945,0,0.0,0.0,0.0,0.0
1.294934221,0.8605723,0.4171696,-0.2922068,-0.50893396,0.7268847,-0.4611126,0.020038482,0.5455347,0.83784866,0.861691,0.4193055,-0.28578234,-0.5072349,0.72751176,-0.461995,0.014192956,0.5430557,0.83957666,0.15074158,5.3192444,8.325821,0.19651039,5.349868,8.216489,0.016235352,-0.005569458,-0.013320923,-39.118958,53.338623,-39.05945,0,0.0,0.0,0.0,0.0
1.303235002,0.8622942,0.4147376,-0.29058802,-0.50601524,0.7282392,-0.46218634,0.019931534,0.5455826,0.83782,0.8616477,0.41922086,-0.286037,-0.5073019,0.72748715,-0.46196023,0.014424883,0.54315406,0.8395091,0.13160706,5.326416,8.248062,0.19546159,5.3503375,8.2162075,0.009063721,-0.0064849854,-0.004470825,-38.938904,53.759766,-38.819885,0,0.0,0.0,0.0,0.0
1.311535783,0.863147,0.41354135,-0.28976,-0.5045625,0.72890264,-0.46272856,0.019849438,0.54560477,0.83780754,0.8616742,0.4190433,-0.28621742,-0.5072507,0.72751755,-0.46196857,0.014643358,0.5432503,0.839443,0.24287415,5.318054,8.297119,0.1946565,5.350555,8.216085,6.5612793E-4,-0.005874634,-4.5776367E-5,-38.819885,53.69873,-38.99994,0,0.0,0.0,0.0,0.0
1.319836564,0.86314726,0.41351852,-0.28979164,-0.50455827,0.72896826,-0.46262968,0.019942975,0.5455343,0.83785117,0.86170405,0.41893333,-0.28628838,-0.50719684,0.72754574,-0.46198332,0.014747674,0.54329747,0.8394107,0.24287415,5.318054,8.297119,0.19557378,5.349864,8.216514,-0.010192871,-0.004501343,1.0681152E-4,-38.819885,53.69873,-38.99994,0,0.0,0.0,0.0,0.0
1.328137346,0.8631478,0.41348064,-0.2898443,-0.5045505,0.7290989,-0.46243235,0.020118332,0.5453885,0.83794194,0.86176205,0.41871893,-0.28642726,-0.5070922,0.7276029,-0.46200812,0.014953766,0.5433861,0.8393497,0.33021545,5.3036957,8.266006,0.19729345,5.3484344,8.217403,-0.02468872,0.0063476563,-0.0110321045,-38.819885,53.69873,-38.99994,0,0.0,0.0,0.0,0.0
1.336438127,0.863865,0.4124804,-0.2891317,-0.50331897,0.729815,-0.46264473,0.020180758,0.54518807,0.83807087,0.8618177,0.41851157,-0.2865627,-0.50699145,0.7276629,-0.46202415,0.015158603,0.5434655,0.8392946,0.3098755,5.34317,8.300705,0.19790563,5.3464684,8.218668,-0.028808594,0.008178711,-0.021728516,-38.75885,53.878784,-38.938904,0,0.0,0.0,0.0,0.0
1.344738908,0.8638642,0.41255265,-0.289031,-0.50331974,0.72994447,-0.46243957,0.020195903,0.54496,0.8382188,0.8618592,0.41839102,-0.28661412,-0.506918,0.72770643,-0.4620361,0.015259183,0.54349995,0.8392705,0.3098755,5.34317,8.300705,0.19805416,5.3442326,8.2201185,-0.02041626,0.0077209473,-0.024780273,-38.75885,53.878784,-38.938904,0,0.0,0.0,0.0,0.0
1.353039689,0.8629789,0.4139291,-0.2897071,-0.50483763,0.72933114,-0.46175206,0.020159787,0.5447373,0.83836436,0.8619395,0.41816005,-0.28670982,-0.50677556,0.7277961,-0.46205127,0.0154548995,0.54355776,0.83922946,0.2416687,5.3168488,8.389236,0.19769998,5.342048,8.221546,-0.015991211,0.013977051,-0.029052734,-38.938904,53.759766,-39.179993,0,0.0,0.0,0.0,0.0
1.361340471,0.86297673,0.4140785,-0.28949994,-0.5048468,0.7294152,-0.4616094,0.020023141,0.54451126,0.8385145,0.8619606,0.4180755,-0.28676978,-0.5067369,0.727827,-0.46204498,0.015549087,0.54358137,0.8392124,0.2416687,5.3168488,8.389236,0.19635993,5.3398314,8.223019,-0.011703491,0.010009766,-0.029205322,-38.938904,53.759766,-39.179993,0,0.0,0.0,0.0,0.0
1.369641252,0.86306345,0.414132,-0.2891647,-0.5047087,0.7294927,-0.46163777,0.019764574,0.5443666,0.8386145,0.8620013,0.41791737,-0.2868778,-0.5066621,0.7278903,-0.46202725,0.015726391,0.5436182,0.8391853,0.16989136,5.3575287,8.4179535,0.19382426,5.338413,8.223999,0.004470825,0.014587402,-0.027526855,-38.75885,53.878784,-38.519287,0,0.0,0.0,0.0,0.0
1.377942033,0.8630619,0.4142978,-0.28893125,-0.50472236,0.72944,-0.461706,0.019474223,0.54431105,0.8386574,0.8620438,0.41776752,-0.28696826,-0.50658476,0.72795427,-0.46201143,0.015886402,0.5436478,0.83916306,0.14237976,5.3527374,8.384445,0.19097689,5.337868,8.22442,0.007369995,0.008636475,-0.01928711,-38.75885,53.878784,-38.519287,0,0.0,0.0,0.0,0.0
1.386242814,0.8615994,0.41654292,-0.2900665,-0.50722516,0.7281828,-0.46094763,0.01921697,0.5442812,0.8386828,0.86206436,0.41769814,-0.28700748,-0.5065475,0.7279842,-0.46200517,0.015958197,0.5436611,0.8391531,0.14237976,5.3527374,8.384445,0.1884541,5.337575,8.2246685,0.010437012,0.017791748,-0.0137786865,-39.05945,53.759766,-38.819885,0,0.0,0.0,0.0,0.0
1.394543596,0.8615979,0.41665348,-0.28991184,-0.50723755,0.72806543,-0.46111885,0.018947994,0.54435325,0.838642,0.8620462,0.41765243,-0.28712866,-0.5065744,0.727992,-0.4619632,0.01608731,0.5436857,0.83913475,0.119644165,5.34317,8.240875,0.18581635,5.338282,8.224269,0.012878418,0.018554688,-0.008895874,-39.05945,53.759766,-38.819885,0,0.0,0.0,0.0,0.0
1.402844377,0.8605636,0.41822475,-0.2907205,-0.50900066,0.7270649,-0.46075475,0.018673662,0.5444857,0.83856225,0.8620286,0.41761282,-0.28723887,-0.5066006,0.727995,-0.46192974,0.016200652,0.5437121,0.83911544,0.13519287,5.34317,8.240875,0.18312608,5.3395805,8.223487,0.022949219,0.017028809,-8.087158E-4,-39.05945,53.219604,-39.05945,0,0.0,0.0,0.0,0.0
1.411145158,0.8605624,0.418284,-0.29063863,-0.50901115,0.72690356,-0.46099764,0.01843833,0.54465556,0.83845717,0.86199945,0.4176251,-0.28730854,-0.50664866,0.7279763,-0.46190634,0.016250141,0.5437275,0.8391045,0.1040802,5.3575287,8.204987,0.18081826,5.3412466,8.222456,0.026000977,0.015350342,0.0025634766,-39.05945,53.219604,-39.05945,0,0.0,0.0,0.0,0.0
1.419445939,0.85844356,0.42126536,-0.2925922,-0.5125804,0.72499907,-0.46004093,0.018329743,0.5448962,0.8383031,0.8619428,0.41765124,-0.28744045,-0.50674224,0.72793394,-0.4618706,0.016336855,0.5437643,0.83907896,0.17228699,5.350357,8.15593,0.17975338,5.3436065,8.220945,0.031661987,0.022232056,0.010040283,-39.479065,53.279114,-39.118958,0,0.0,0.0,0.0,0.0
1.427746721,0.85844505,0.4211892,-0.29269746,-0.51257867,0.7248626,-0.46025798,0.018309709,0.54513663,0.8381472,0.8618051,0.41779482,-0.28764468,-0.50697386,0.72781813,-0.4617989,0.016415844,0.543809,0.83904845,0.26560974,5.2989044,8.026718,0.1795569,5.3459644,8.219417,0.018829346,0.010314941,0.0056152344,-39.479065,53.279114,-39.118958,0,0.0,0.0,0.0,0.0
1.436047502,0.8572737,0.42272654,-0.29391158,-0.5145328,0.7237915,-0.45976266,0.0183768,0.5453696,0.83799416,0.86173826,0.41786286,-0.28774586,-0.5070861,0.7277591,-0.46176857,0.016453758,0.54383564,0.83903044,0.26560974,5.2989044,8.026718,0.18021484,5.3482494,8.217916,0.018981934,-3.8146973E-4,0.0014801025,-39.718628,53.09906,-39.479065,0,0.0,0.0,0.0,0.0
1.444348283,0.857278,0.422546,-0.29415867,-0.5145172,0.7237756,-0.45980537,0.01861596,0.54553074,0.83788407,0.8615629,0.41805616,-0.2879904,-0.5073817,0.72760266,-0.46169052,0.016530002,0.54389644,0.83898956,0.33021545,5.3276215,8.063812,0.1825602,5.349829,8.216836,-0.0046844482,-0.016113281,-5.0354004E-4,-39.718628,53.09906,-39.479065,0,0.0,0.0,0.0,0.0
1.452649064,0.8566841,0.42318943,-0.29496264,-0.5154928,0.72335327,-0.45937684,0.018958773,0.545592,0.83783644,0.8613945,0.41823465,-0.2882349,-0.50766486,0.72745174,-0.4616171,0.016612712,0.54396117,0.8389459,0.35772705,5.3694916,8.130814,0.18592206,5.35043,8.216369,-0.013092041,-0.022827148,-0.010879517,-39.779663,53.219604,-39.179993,0,0.0,0.0,0.0,0.0
1.460949846,0.8566876,0.42301035,-0.29520932,-0.5154737,0.7234655,-0.45922175,0.019318221,0.54558223,0.83783466,0.861301,0.41833413,-0.2883697,-0.5078218,0.7273701,-0.46157312,0.016659694,0.54399383,0.8389238,0.35772705,5.3694916,8.130814,0.18944703,5.350334,8.2163515,-0.01828003,-0.027252197,-0.01423645,-39.779663,53.219604,-39.179993,0,0.0,0.0,0.0,0.0
1.469250627,0.85598665,0.42383426,-0.29605976,-0.5166241,0.72300315,-0.45865682,0.01965765,0.5455557,0.837844,0.86111987,0.41851994,-0.28864095,-0.5081255,0.72721606,-0.46148157,0.0167651,0.5440568,0.8388809,0.3397827,5.4065857,8.160721,0.1927757,5.3500743,8.216443,-0.01828003,-0.036865234,-0.020507813,-39.89868,52.919006,-39.59961,0,0.0,0.0,0.0,0.0
1.477551408,0.85598713,0.42381388,-0.29608744,-0.5166175,0.72313124,-0.458462,0.01980753,0.5454016,0.83794075,0.86091846,0.41873115,-0.28893524,-0.5084628,0.7270501,-0.46137148,0.016879782,0.5441161,0.8388401,0.19381714,5.3479614,8.273178,0.19424553,5.3485622,8.217392,-0.013549805,-0.037490845,-0.024017334,-39.89868,52.919006,-39.59961,0,0.0,0.0,0.0,0.0
1.485852189,0.8563074,0.423332,-0.29585102,-0.5160806,0.7235094,-0.4584704,0.019965818,0.5452745,0.8380197,0.8608207,0.41883314,-0.28907862,-0.50862634,0.7269721,-0.46131423,0.016938398,0.5441418,0.83882225,0.19381714,5.3479614,8.273178,0.1957978,5.3473163,8.218166,-0.010025024,-0.04069519,-0.022491455,-39.718628,52.919006,-39.239502,0,0.0,0.0,0.0,0.0
1.494152971,0.8563076,0.42331916,-0.2958686,-0.5160767,0.72358537,-0.4583549,0.020055803,0.5451836,0.8380767,0.86064357,0.41901183,-0.28934732,-0.5089222,0.7268356,-0.46120307,0.017058391,0.54418665,0.8387907,0.1483612,5.3575287,8.248062,0.19668023,5.3464246,8.218725,-0.020874023,-0.036865234,-0.025543213,-39.718628,52.919006,-39.239502,0,0.0,0.0,0.0,0.0
1.502453752,0.8564819,0.42314535,-0.2956124,-0.51578796,0.7238181,-0.45831212,0.020036975,0.5450094,0.8381905,0.8604731,0.41918296,-0.2896061,-0.50920624,0.7267074,-0.46109158,0.017177183,0.5442261,0.8387627,0.08973694,5.3156586,8.267197,0.19649561,5.3447165,8.219841,-0.026367188,-0.020996094,-0.016998291,-39.839172,53.09906,-39.419556,0,0.0,0.0,0.0,0.0
1.510754533,0.8564794,0.42325997,-0.29545543,-0.5157945,0.72392076,-0.45814255,0.019972894,0.544784,0.8383385,0.8603939,0.41926238,-0.28972653,-0.50933814,0.7266498,-0.4610366,0.017234413,0.54424185,0.8387513,0.08973694,5.3156586,8.267197,0.1958672,5.3425064,8.2212925,-0.03340149,-0.013961792,-0.010879517,-39.839172,53.09906,-39.419556,0,0.0,0.0,0.0,0.0
1.519055314,0.8520161,0.4296758,-0.29907736,-0.5231413,0.72039086,-0.45536816,0.019791923,0.54444075,0.83856577,0.86024,0.419421,-0.28995383,-0.5095943,0.72654223,-0.46092305,0.017342906,0.54426324,0.8387352,0.047851563,5.2881317,8.359329,0.19409247,5.33914,8.223521,-0.03187561,0.006500244,-0.0017242432,-40.25879,52.5589,-39.179993,0,0.0,0.0,0.0,0.0
1.527356096,0.8520096,0.42993847,-0.29871833,-0.52316016,0.7205466,-0.4551002,0.019575406,0.5440272,0.83883923,0.85991853,0.41982877,-0.29031697,-0.51013327,0.72630143,-0.46070623,0.017439904,0.5442702,0.83872867,0.07298279,5.272583,8.388046,0.19196916,5.3350844,8.226203,-0.021942139,0.018249512,0.008514404,-40.25879,52.5589,-39.179993,0,0.0,0.0,0.0,0.0
1.535656877,0.851219,0.43128484,-0.2990311,-0.52445495,0.72002554,-0.45443398,0.019319568,0.54365116,0.83908886,0.8597624,0.42003173,-0.29048604,-0.5103951,0.72618765,-0.4605956,0.017482605,0.5442654,0.83873093,0.06460571,5.2498474,8.4179535,0.18946025,5.3313966,8.228651,-0.019958496,0.024673462,0.015838623,-40.379333,52.738953,-38.879395,0,0.0,0.0,0.0,0.0
1.543957658,0.851214,0.43151137,-0.2987185,-0.5244701,0.7201581,-0.45420647,0.01912931,0.5432958,0.8393234,0.8594284,0.420479,-0.2908266,-0.51095456,0.7259471,-0.46035448,0.017555319,0.54424095,0.83874524,0.14237976,5.2259216,8.411972,0.18759446,5.327912,8.230951,-0.010940552,0.044677734,0.018127441,-40.379333,52.738953,-38.879395,0,0.0,0.0,0.0,0.0
1.552258439,0.8531388,0.4290411,-0.29677916,-0.52134097,0.72179824,-0.4552041,0.01891342,0.54307544,0.83947086,0.8591072,0.42091748,-0.2911413,-0.5114924,0.7257211,-0.46011347,0.017617611,0.5442034,0.8387683,0.18424988,5.25943,8.365311,0.18547729,5.325751,8.232397,0.008148193,0.066207886,0.021957397,-40.019226,52.5589,-39.05945,0,0.0,0.0,0.0,0.0
1.560559221,0.85313344,0.4292498,-0.29649276,-0.5213613,0.7217701,-0.4552256,0.018594116,0.542948,0.83956045,0.85898894,0.42108032,-0.29125485,-0.5116901,0.7256436,-0.460016,0.017643508,0.54418087,0.83878237,0.18424988,5.25943,8.365311,0.18234599,5.324501,8.233275,0.015014648,0.07078552,0.014160156,-40.019226,52.5589,-39.05945,0,0.0,0.0,0.0,0.0
1.568860002,0.85489666,0.4269412,-0.29474223,-0.5184766,0.7230999,-0.45640835,0.018268539,0.5429989,0.83953464,0.85875916,0.42140445,-0.29146358,-0.51207435,0.72549194,-0.4598275,0.017681118,0.54413205,0.83881325,0.22732544,5.3288116,8.281555,0.17915317,5.3250003,8.233023,0.013031006,0.053985596,0.010040283,-39.779663,52.978516,-38.63983,0,0.0,0.0,0.0,0.0
1.577160783,0.85489595,0.4269748,-0.2946955,-0.5184852,0.72292686,-0.45667255,0.018055629,0.54320276,0.8394073,0.8586072,0.4216239,-0.29159403,-0.5123284,0.72539806,-0.4596926,0.017704364,0.54408723,0.83884186,0.2871399,5.4089813,8.166702,0.17706524,5.326999,8.231774,0.006454468,0.035964966,-0.00340271,-39.779663,52.978516,-38.63983,0,0.0,0.0,0.0,0.0
1.585461564,0.85601807,0.42541012,-0.29369944,-0.5166349,0.7237264,-0.45750254,0.01793184,0.5433658,0.83930457,0.8585334,0.42173108,-0.29165635,-0.51245177,0.725349,-0.4596324,0.017711384,0.5440695,0.8388532,0.2871399,5.4089813,8.166702,0.17585129,5.328598,8.230766,-0.010025024,0.017486572,-4.5776367E-5,-39.59961,52.799988,-38.938904,0,0.0,0.0,0.0,0.0
1.593762346,0.8560189,0.4253755,-0.2937471,-0.5166327,0.7237006,-0.457546,0.017956115,0.54342735,0.8392642,0.8584341,0.42187697,-0.29173753,-0.51261777,0.7252852,-0.45954815,0.01772011,0.54404163,0.83887106,0.29431152,5.42572,8.232513,0.17608935,5.3292017,8.2303705,-0.014312744,-0.008621216,-0.004470825,-39.59961,52.799988,-38.938904,0,0.0,0.0,0.0,0.0
1.602063127,0.8573129,0.423521,-0.29265055,-0.5144766,0.72487867,-0.4581097,0.018117065,0.54330534,0.8393397,0.8583388,0.42201564,-0.29181734,-0.512777,0.7252227,-0.45946905,0.017729456,0.5440173,0.8388867,0.29431152,5.3395844,8.293518,0.17766772,5.3280053,8.231111,-0.01461792,-0.008010864,-0.004470825,-39.419556,53.219604,-38.459778,0,0.0,0.0,0.0,0.0
1.610363908,0.8573138,0.42346686,-0.29272637,-0.51446813,0.7250061,-0.45791754,0.018315518,0.5431775,0.83941805,0.8583183,0.42204574,-0.29183403,-0.51281095,0.7252159,-0.45944184,0.017737206,0.544003,0.83889574,0.29431152,5.3395844,8.293518,0.17961389,5.3267517,8.231879,-0.012619019,-0.010757446,-0.011795044,-39.419556,53.219604,-38.459778,0,0.0,0.0,0.0,0.0
1.618664689,0.85833454,0.42202356,-0.29181823,-0.5127585,0.7259879,-0.4582797,0.018451685,0.5429896,0.83953667,0.85827863,0.42210197,-0.29186943,-0.51287663,0.72520775,-0.45938158,0.017760096,0.54397035,0.83891654,0.2524414,5.297714,8.362915,0.18094923,5.324909,8.233043,-0.009887695,-0.0234375,-0.016082764,-39.419556,53.579712,-38.459778,0,0.0,0.0,0.0,0.0
1.626965471,0.8583343,0.42203835,-0.29179746,-0.5127563,0.7260855,-0.45812732,0.018522616,0.54284745,0.839627,0.8582808,0.42209893,-0.29186738,-0.512872,0.72523856,-0.4593379,0.017787464,0.54393154,0.83894104,0.19262695,5.3276215,8.388046,0.18164481,5.323515,8.233929,-0.0052948,-0.02999878,-0.01638794,-39.419556,53.579712,-38.459778,0,0.0,0.0,0.0,0.0
1.635266252,0.8576113,0.42305145,-0.29245576,-0.5139608,0.7255934,-0.4575571,0.018633777,0.5427169,0.8397089,0.8582818,0.4220977,-0.29186603,-0.5128697,0.7252555,-0.45931372,0.017802155,0.5439099,0.83895475,0.19262695,5.3276215,8.388046,0.18273494,5.322235,8.234732,-0.0057525635,-0.026031494,-0.010879517,-39.419556,53.15857,-38.69934,0,0.0,0.0,0.0,0.0
1.643567033,0.8576107,0.42307985,-0.29241621,-0.51395994,0.72568613,-0.45741087,0.018681075,0.5425707,0.8398024,0.85825527,0.42213544,-0.29188943,-0.5129129,0.7252689,-0.45924422,0.01783506,0.5438627,0.83898467,0.12322998,5.3013,8.395218,0.18319876,5.3208013,8.235648,0.008285522,-0.02130127,-0.0038604736,-39.419556,53.15857,-38.69934,0,0.0,0.0,0.0,0.0
1.651867814,0.861197,0.41805664,-0.28908184,-0.5079301,0.7286998,-0.45935118,0.018619059,0.5424253,0.8398977,0.8582298,0.42217284,-0.29191038,-0.5129545,0.72528553,-0.4591717,0.017868532,0.54381156,0.8390171,0.055038452,5.289337,8.447861,0.18259059,5.319375,8.236583,0.012268066,0.0060424805,0.0051574707,-38.99994,53.579712,-38.69934,0,0.0,0.0,0.0,0.0
1.660168596,0.86119545,0.41815963,-0.28893763,-0.5079378,0.72871363,-0.45932078,0.018483372,0.5423273,0.8399639,0.8582894,0.42209077,-0.2918537,-0.51285416,0.725354,-0.45917544,0.017883528,0.54378384,0.83903474,0.055038452,5.289337,8.447861,0.18125997,5.318414,8.237232,0.009674072,0.011383057,0.0152282715,-38.99994,53.579712,-38.69934,0,0.0,0.0,0.0,0.0
1.668469377,0.860421,0.41923794,-0.28968138,-0.5092503,0.7279775,-0.4590348,0.018436706,0.54248345,0.83986413,0.85834783,0.4220124,-0.2917953,-0.512756,0.7254215,-0.4591786,0.017895512,0.54375476,0.83905333,0.122039795,5.353943,8.187042,0.18080232,5.3199453,8.236254,0.019134521,-0.0118255615,0.014770508,-39.179993,53.338623,-39.179993,0,0.0,0.0,0.0,0.0
1.676770158,0.86042535,0.41903448,-0.28996268,-0.5092384,0.727801,-0.4593279,0.018560912,0.5428775,0.8396068,0.85843027,0.4219028,-0.29171142,-0.51261735,0.72552294,-0.45917305,0.017916927,0.5437044,0.8390855,0.19621277,5.428116,8.023132,0.18202038,5.3238096,8.23373,0.11167908,-0.04374695,0.013702393,-39.179993,53.338623,-39.179993,0,0.0,0.0,0.0,0.0
1.685070939,0.859625,0.41971642,-0.29134673,-0.51057696,0.726741,-0.45951986,0.01886558,0.5437697,0.83902234,0.85850954,0.42178938,-0.29164204,-0.5124836,0.7256134,-0.45917934,0.017942417,0.5436716,0.8391062,0.19621277,5.428116,8.023132,0.18500814,5.3325596,8.227999,0.09579468,-0.007247925,0.016143799,-39.29901,53.459167,-38.938904,0,0.0,0.0,0.0,0.0
1.693371721,0.85963106,0.4193525,-0.2918525,-0.5105584,0.72642696,-0.46003702,0.019091833,0.5444699,0.83856314,0.8585319,0.42174798,-0.29163617,-0.5124455,0.72563607,-0.45918614,0.017960882,0.5436736,0.83910453,0.2141571,5.231903,7.975281,0.18722694,5.3394256,8.2234955,0.058380127,-0.0104522705,0.015533447,-39.29901,53.459167,-38.938904,0,0.0,0.0,0.0,0.0
1.701672502,0.85963446,0.41913706,-0.29215172,-0.5105433,0.7263632,-0.46015432,0.01934053,0.54472065,0.8383945,0.8585756,0.42165318,-0.29164478,-0.5123708,0.7256676,-0.4592197,0.018005697,0.54370505,0.83908325,0.23449707,5.193619,8.023132,0.18966581,5.341885,8.221842,-0.031707764,-0.024505615,0.014007568,-39.29901,53.459167,-38.938904,0,0.0,0.0,0.0,0.0
1.709973283,0.85924137,0.41946515,-0.2928366,-0.5111824,0.726296,-0.4595506,0.019920593,0.5445578,0.83848673,0.85861766,0.42155352,-0.29166484,-0.5122984,0.7256953,-0.45925656,0.018058594,0.5437452,0.839056,0.4139557,5.3192444,8.236099,0.19535428,5.3402877,8.222746,-0.09631348,-0.04298401,0.0082092285,-39.239502,52.859497,-39.419556,0,0.0,0.0,0.0,0.0
1.718274064,0.8571065,0.42235216,-0.2949357,-0.5147296,0.72499365,-0.45764363,0.020539733,0.5440615,0.83879393,0.8586302,0.42151174,-0.2916883,-0.51227605,0.7257074,-0.4592624,0.018095858,0.5437615,0.83904463,0.41156006,5.448456,8.432312,0.20142597,5.3354206,8.225759,-0.09631348,-0.042373657,-6.5612793E-4,-39.479065,52.799988,-39.118958,0,0.0,0.0,0.0,0.0
1.726574846,0.8571053,0.42240748,-0.29485974,-0.5147146,0.7255181,-0.45682856,0.02095826,0.54331887,0.8392648,0.8585701,0.421545,-0.29181695,-0.51237327,0.7256792,-0.45919853,0.01819266,0.54377335,0.8390349,0.30029297,5.4640045,8.556732,0.20553032,5.3281384,8.230376,-0.09082031,-0.04512024,-0.015609741,-39.479065,52.799988,-39.118958,0,0.0,0.0,0.0,0.0
1.734875627,0.85643876,0.42339638,-0.29537797,-0.5158075,0.7254476,-0.45570645,0.021336803,0.54264283,0.8396925,0.8585124,0.42157912,-0.2919376,-0.51246613,0.7256729,-0.45910493,0.018302144,0.5437554,0.83904415,0.30029297,5.4640045,8.556732,0.20924257,5.3215084,8.2345705,-0.052947998,-0.059936523,-0.024169922,-39.718628,52.799988,-39.479065,0,0.0,0.0,0.0,0.0
1.743176408,0.8564392,0.4233787,-0.2954021,-0.5157907,0.7258279,-0.45511955,0.021723136,0.5421479,0.84000224,0.8584711,0.42161548,-0.29200655,-0.5125331,0.72566843,-0.4590371,0.018362792,0.5437331,0.8390573,0.19142151,5.42453,8.646469,0.2130312,5.3166547,8.237608,-0.03340149,-0.056732178,-0.026153564,-39.718628,52.799988,-39.479065,0,0.0,0.0,0.0,0.0
1.751477189,0.85643864,0.42340073,-0.29537213,-0.5157834,0.7260629,-0.45475268,0.021916138,0.5418158,0.8402114,0.8583909,0.42168525,-0.2921414,-0.5126626,0.72567487,-0.45888242,0.01849571,0.5436705,0.839095,0.16270447,5.4388885,8.772095,0.2149239,5.3133984,8.239659,0.007369995,-0.022979736,-0.016082764,-39.718628,52.799988,-39.479065,0,0.0,0.0,0.0,0.0
1.759777971,0.85342115,0.42775533,-0.29782158,-0.52076507,0.72369015,-0.4528535,0.02182002,0.5415698,0.84037256,0.85831386,0.42175314,-0.29226965,-0.5127867,0.72569036,-0.45871922,0.018630983,0.54359704,0.83913946,0.12322998,5.3647156,8.776871,0.2139813,5.310986,8.24124,0.04020691,0.043762207,-0.0110321045,-40.019226,52.43988,-39.35852,0,0.0,0.0,0.0,0.0
1.768078752,0.8540681,0.42706743,-0.29695293,-0.51971936,0.7241436,-0.45332977,0.021434182,0.5415067,0.8404232,0.85821676,0.42187333,-0.2923814,-0.51294684,0.7256509,-0.45860252,0.018694673,0.5435565,0.8391644,0.12322998,5.3647156,8.776871,0.21019752,5.3103666,8.241736,0.054718018,0.07215881,-0.0050811768,-40.019226,53.03955,-38.819885,0,0.0,0.0,0.0,0.0
1.776379533,0.8540619,0.42739645,-0.29649705,-0.51975965,0.7238534,-0.45374668,0.020690696,0.541635,0.8403591,0.8580535,0.42207903,-0.29256353,-0.5132159,0.725592,-0.45839462,0.018803,0.5434754,0.83921444,-0.028717041,5.2821503,8.506485,0.20290643,5.3116245,8.241108,0.0892334,0.11628723,0.01171875,-40.019226,53.03955,-38.819885,0,0.0,0.0,0.0,0.0
1.784680314,0.85469127,0.42677486,-0.2955776,-0.5187619,0.72375417,-0.45504516,0.019723674,0.5422575,0.83998084,0.8578963,0.42228973,-0.29272026,-0.51347584,0.72552395,-0.45821127,0.018877655,0.5434026,0.8392599,0.033493042,5.3563385,8.288742,0.19342318,5.3177295,8.237398,0.111831665,0.14027405,0.027297974,-39.959717,53.09906,-38.879395,0,0.0,0.0,0.0,0.0
1.792981096,0.8546887,0.42689997,-0.29540408,-0.518798,0.72303754,-0.45614165,0.01886136,0.5431142,0.83944696,0.8578326,0.42237952,-0.29277775,-0.5135818,0.72548884,-0.45814818,0.018894562,0.5433797,0.83927435,0.15792847,5.3276215,8.062622,0.18496677,5.326131,8.232162,0.121292114,0.13874817,0.02897644,-39.959717,53.09906,-38.879395,0,0.0,0.0,0.0,0.0
1.801281877,0.8546866,0.42700416,-0.29525962,-0.51883256,0.7222772,-0.4573055,0.017987918,0.5440432,0.8388643,0.85770875,0.42255878,-0.292882,-0.5137887,0.7253923,-0.45806903,0.018893247,0.54336923,0.8392812,0.15792847,5.3276215,8.062622,0.17640123,5.3352413,8.226449,0.12741089,0.1408844,0.026382446,-39.959717,53.09906,-38.879395,0,0.0,0.0,0.0,0.0
1.809582658,0.8561524,0.42505103,-0.2938277,-0.51644003,0.7227049,-0.4593336,0.01711052,0.54500395,0.83825886,0.8576486,0.42264792,-0.2929295,-0.5138898,0.7253303,-0.45805383,0.018875133,0.54338264,0.8392729,0.28234863,5.1996,7.873581,0.16779688,5.344663,8.220511,0.12741089,0.13217163,0.007293701,-39.65912,53.338623,-38.398743,0,0.0,0.0,0.0,0.0
1.817883439,0.85726976,0.4234788,-0.29283828,-0.514603,0.7229728,-0.46097082,0.016502742,0.5458718,0.8377062,0.8575895,0.42274347,-0.29296482,-0.513991,0.7252266,-0.45810452,0.018805176,0.54344684,0.839233,0.31585693,5.191223,7.737198,0.16183662,5.3531737,8.215092,0.04937744,0.10270691,-6.5612793E-4,-39.538574,53.279114,-38.69934,0,0.0,0.0,0.0,0.0
1.826184221,0.85726863,0.42354286,-0.29274893,-0.514622,0.72249454,-0.46169886,0.015960267,0.54645497,0.83733636,0.8575768,0.42277282,-0.2929596,-0.51401556,0.7251374,-0.45821804,0.018713843,0.5435429,0.8391728,0.2907257,5.2677917,7.7455597,0.15651676,5.3588924,8.211465,0.018371582,0.08041382,-0.005844116,-39.538574,53.279114,-38.69934,0,0.0,0.0,0.0,0.0
1.834485002,0.8572667,0.42364743,-0.29260302,-0.5146369,0.72224236,-0.46207643,0.015572814,0.5467071,0.837179,0.85757047,0.42278838,-0.29295534,-0.51402795,0.7250846,-0.45828775,0.018658655,0.5436013,0.8391362,0.29312134,5.3515472,7.944168,0.15271714,5.3613653,8.209922,-0.012008667,0.059020996,-0.008743286,-39.538574,53.279114,-38.69934,0,0.0,0.0,0.0,0.0
1.842785783,0.856011,0.42557597,-0.29347956,-0.51673067,0.7212053,-0.46135923,0.015315608,0.54657847,0.8372678,0.8575584,0.42282274,-0.29294115,-0.5140525,0.7249722,-0.45843798,0.018536184,0.5437245,0.8390591,0.2524414,5.3898315,8.206192,0.15019481,5.3601036,8.210793,-0.07035828,0.020233154,-0.015914917,-39.779663,53.69873,-38.15918,1,0.0,0.0,0.0,0.0
1.851086564,0.8560077,0.4258692,-0.2930635,-0.51674193,0.7214467,-0.4609688,0.015117271,0.54603106,0.8376285,0.8574973,0.42293242,-0.29296193,-0.51415914,0.72482336,-0.4585538,0.01840839,0.5438376,0.83898854,0.16870117,5.3862457,8.419144,0.14824979,5.354736,8.21433,-0.094940186,-0.017333984,-0.023864746,-39.779663,53.69873,-38.15918,1,0.0,0.0,0.0,0.0
1.859387346,0.85847455,0.42264867,-0.29049858,-0.51263285,0.7238766,-0.46174684,0.015128441,0.5453171,0.83809334,0.85746753,0.42299137,-0.29296368,-0.51421106,0.72475594,-0.45860207,0.018342463,0.54388154,0.83896154,0.16870117,5.3862457,8.419144,0.14835933,5.347734,8.218888,-0.097076416,-0.04084778,-0.024169922,-39.59961,53.99933,-38.459778,1,0.0,0.0,0.0,0.0
1.867688127,0.8559486,0.4263955,-0.29247013,-0.5168343,0.72229075,-0.45954138,0.015302099,0.54450244,0.83861965,0.8575075,0.42297783,-0.29286617,-0.51414883,0.72472113,-0.45872676,0.018215057,0.54393846,0.8389274,0.11843872,5.3730774,8.575882,0.15006234,5.339745,8.22405,-0.06851196,-0.07765198,-0.014556885,-39.779663,53.63922,-38.21869,1,0.0,0.0,0.0,0.0
1.875988908,0.8559482,0.42642376,-0.29243004,-0.51682216,0.7227822,-0.45878157,0.015727878,0.54382765,0.83904946,0.8574462,0.42311338,-0.29285026,-0.5142554,0.72462523,-0.4587589,0.01809966,0.5439608,0.8389154,0.15792847,5.395813,8.652451,0.15423779,5.3331275,8.228265,-0.020111084,-0.08207703,-0.0050811768,-39.779663,53.63922,-38.21869,1,0.0,0.0,0.0,0.0
1.884289689,0.8559499,0.42630416,-0.29259962,-0.5168034,0.7231494,-0.458224,0.016250454,0.54343325,0.8392951,0.8574163,0.4231796,-0.2928418,-0.5143067,0.7245885,-0.45875925,0.018052232,0.5439582,0.83891815,0.18544006,5.3527374,8.658432,0.15936251,5.3292594,8.230673,0.009811401,-0.082839966,-0.006149292,-39.779663,53.63922,-38.21869,1,0.0,0.0,0.0,0.0
1.892590471,0.8569962,0.4246186,-0.2919875,-0.51504886,0.7242499,-0.45846128,0.01680075,0.54328734,0.83937865,0.8573584,0.42330348,-0.2928323,-0.5144057,0.72453177,-0.45873797,0.017980909,0.54393744,0.83893317,0.1758728,5.334793,8.458633,0.16475908,5.327829,8.231493,0.05517578,-0.07443237,0.002090454,-39.538574,53.518677,-38.21869,1,0.0,0.0,0.0,0.0
1.900891252,0.8570006,0.42428124,-0.29246444,-0.515027,0.7241959,-0.45857105,0.017238462,0.54362273,0.8391526,0.85734403,0.42335564,-0.2927989,-0.5144313,0.72452056,-0.4587269,0.017934198,0.5439117,0.83895075,0.100494385,5.318054,8.249252,0.16905157,5.331118,8.229276,0.08265686,-0.08299255,2.593994E-4,-39.538574,53.518677,-38.21869,1,0.0,0.0,0.0,0.0
1.909192033,0.8584902,0.42175046,-0.29175517,-0.5125223,0.7252997,-0.4596316,0.017760083,0.54412025,0.8388192,0.8573372,0.42337415,-0.29279217,-0.5144432,0.72451407,-0.45872375,0.017920285,0.5439059,0.8389548,0.100494385,5.318054,8.249252,0.17416692,5.335997,8.2260065,0.08265686,-0.10650635,0.012176514,-39.29901,53.09906,-38.879395,1,0.0,0.0,0.0,0.0
1.917492814,0.8573601,0.42282143,-0.29352292,-0.5143867,0.72426593,-0.45917872,0.01843806,0.5446658,0.83845043,0.85738295,0.4233099,-0.29275122,-0.51436716,0.7245453,-0.45875984,0.01791394,0.54391444,0.8389495,0.15553284,5.2821503,8.1427765,0.1808156,5.341347,8.22239,0.083724976,-0.12590027,0.013092041,-39.538574,53.09906,-38.99994,1,0.0,0.0,0.0,0.0
1.925793596,0.85737336,0.42212954,-0.29447836,-0.51432955,0.72423387,-0.4592933,0.019389946,0.5452448,0.8380526,0.8573821,0.42329046,-0.2927817,-0.5143679,0.7245343,-0.45877644,0.017934704,0.5439442,0.8389297,0.22013855,5.2857513,8.117645,0.19015042,5.347025,8.218489,0.06755066,-0.1280365,0.0069885254,-39.538574,53.09906,-38.99994,1,0.0,0.0,0.0,0.0
1.934094377,0.85738564,0.42142814,-0.29544574,-0.5142695,0.7242647,-0.45931196,0.020413952,0.5457462,0.8377018,0.85738194,0.42326725,-0.29281566,-0.51436704,0.7245283,-0.45878667,0.01796384,0.54397017,0.83891225,0.27757263,5.2821503,8.121246,0.20019248,5.351942,8.215049,0.06755066,-0.12193298,0.0071411133,-39.538574,53.09906,-38.99994,1,0.0,0.0,0.0,0.0
1.942395158,0.8563359,0.4222853,-0.29726082,-0.5159788,0.72341275,-0.45873725,0.021324262,0.54621345,0.83737457,0.8573823,0.42319447,-0.29291993,-0.51436317,0.72451794,-0.45880744,0.018060997,0.5440406,0.8388645,0.26081848,5.338394,8.122437,0.20911959,5.3565245,8.21184,0.043411255,-0.101623535,-0.0027923584,-39.839172,53.03955,-39.419556,1,0.0,0.0,0.0,0.0
1.950695939,0.85634565,0.42176095,-0.2979762,-0.5159319,0.72340584,-0.45880082,0.022053447,0.5466275,0.83708537,0.8573412,0.42315853,-0.293092,-0.51442707,0.72447425,-0.45880485,0.018190445,0.54412675,0.8388058,0.23091125,5.40419,8.133209,0.21627043,5.3605847,8.209003,0.014862061,-0.07260132,-0.007980347,-39.839172,53.03955,-39.419556,1,0.0,0.0,0.0,0.0
1.958996721,0.85587496,0.422062,-0.29890114,-0.5166892,0.72304434,-0.45851874,0.022595415,0.54687357,0.83691025,0.85732156,0.42313054,-0.29318976,-0.514457,0.724453,-0.45880482,0.01826786,0.5441768,0.83877164,0.23091125,5.40419,8.133209,0.22158533,5.362998,8.207286,-4.119873E-4,-0.0552063,-0.011947632,-39.959717,53.15857,-39.35852,1,0.0,0.0,0.0,0.0
1.967297502,0.8565418,0.42093265,-0.29858282,-0.51556873,0.72362405,-0.4588648,0.022910517,0.5469769,0.8368341,0.85726506,0.42308828,-0.29341614,-0.51454514,0.7243974,-0.45879382,0.018439598,0.5442837,0.83869857,0.2033844,5.4556427,8.248062,0.22467542,5.3640113,8.206539,-0.0095825195,-0.016555786,-0.013626099,-39.89868,53.09906,-39.59961,1,0.0,0.0,0.0,0.0
1.975598283,0.8565425,0.42089355,-0.2986359,-0.5155649,0.723629,-0.45886138,0.022969801,0.5470005,0.8368171,0.8572509,0.42304513,-0.29351956,-0.51456547,0.72438204,-0.45879522,0.018529208,0.54433763,0.8386616,0.2033844,5.4556427,8.248062,0.2252568,5.364243,8.206372,-0.0069732666,0.0029754639,-0.012252808,-39.89868,53.09906,-39.59961,1,0.0,0.0,0.0,0.0
1.983899064,0.8565408,0.4209914,-0.29850298,-0.51557565,0.7235873,-0.4589152,0.02279361,0.5469805,0.83683497,0.8572234,0.42296,-0.29372242,-0.5146048,0.7243525,-0.45879784,0.018705418,0.5444432,0.8385892,0.16749573,5.4340973,8.238495,0.22352895,5.3640466,8.206548,-0.014923096,0.020095825,-0.007827759,-39.89868,53.09906,-39.59961,1,0.0,0.0,0.0,0.0
1.992199846,0.8546801,0.42372704,-0.29996225,-0.51866364,0.7220511,-0.45785406,0.022582917,0.54689825,0.83689445,0.85719687,0.42288202,-0.29391187,-0.51464295,0.7243223,-0.45880243,0.018867632,0.54454374,0.83852017,0.19142151,5.4269257,8.276779,0.22146277,5.36324,8.207131,-0.019195557,0.017028809,-0.00920105,-40.078735,52.978516,-39.35852,1,0.0,0.0,0.0,0.0
2.000500627,0.8546776,0.42386943,-0.29976803,-0.51867664,0.72204345,-0.45785135,0.022376362,0.546798,0.83696556,0.85714704,0.42289904,-0.29403302,-0.5147234,0.72427696,-0.4587839,0.018942079,0.5445909,0.8384879,0.19142151,5.4269257,8.276779,0.21943715,5.3622565,8.2078285,-0.017211914,0.019470215,-0.0096588135,-40.078735,52.978516,-39.35852,1,0.0,0.0,0.0,0.0
2.008801408,0.85705143,0.4206974,-0.29744998,-0.51475257,0.72402024,-0.45915616,0.022193996,0.5466336,0.8370777,0.85705,0.4229376,-0.29426026,-0.51487994,0.7241886,-0.45874766,0.01907831,0.5446784,0.83842796,0.19621277,5.3611145,8.311462,0.21764876,5.360645,8.208928,-0.010498047,0.0023651123,-0.004776001,-39.839172,53.459167,-39.179993,1,0.0,0.0,0.0,0.0
2.017102189,0.85961884,0.41714656,-0.29503226,-0.51045537,0.72619605,-0.46051535,0.022148868,0.54646856,0.83718663,0.85705024,0.42284897,-0.29438674,-0.5148748,0.7241821,-0.4587637,0.01920188,0.5447559,0.8383748,0.22612,5.3120728,8.325821,0.2172062,5.359026,8.209996,0.008285522,-0.0051116943,0.0053100586,-39.59961,53.63922,-39.538574,1,0.0,0.0,0.0,0.0
2.025402971,0.8596187,0.41715455,-0.29502127,-0.51045346,0.7262605,-0.46041587,0.02219775,0.5463768,0.8372452,0.85710204,0.422735,-0.29439983,-0.51478654,0.72422284,-0.4587985,0.0192609,0.54479015,0.83835113,0.22612,5.3120728,8.325821,0.21768557,5.358126,8.210571,0.013793945,-0.0035858154,0.0082092285,-39.59961,53.63922,-39.538574,1,0.0,0.0,0.0,0.0
2.033703752,0.8596196,0.41710272,-0.29509243,-0.5104477,0.7262935,-0.4603705,0.02230191,0.5463727,0.83724517,0.8572023,0.4225143,-0.29442468,-0.5146151,0.72430444,-0.458862,0.019377349,0.544853,0.8383077,0.25125122,5.3240356,8.311462,0.21870704,5.358086,8.21057,0.017608643,5.340576E-4,0.012176514,-39.59961,53.63922,-39.538574,1,0.0,0.0,0.0,0.0
2.042004533,0.85843396,0.4187308,-0.29623574,-0.5124352,0.7253329,-0.45967624,0.022388943,0.54640335,0.8372229,0.8572987,0.4223001,-0.29445136,-0.5144502,0.72438395,-0.45892134,0.019493295,0.54491323,0.8382658,0.2596283,5.3084717,8.328217,0.21956053,5.3583865,8.210352,0.017150879,0.014129639,0.016296387,-39.779663,53.579712,-39.538574,1,0.0,0.0,0.0,0.0
2.050305314,0.8584343,0.41870493,-0.29627118,-0.5124322,0.7253509,-0.45965117,0.022442358,0.5463993,0.83722407,0.85732156,0.42222872,-0.29448712,-0.51440984,0.72440314,-0.4589363,0.019551277,0.5449431,0.83824503,0.2596283,5.3084717,8.328217,0.22008435,5.358347,8.210363,0.01272583,0.015350342,0.014312744,-39.779663,53.579712,-39.538574,1,0.0,0.0,0.0,0.0
2.058606096,0.85913926,0.41765317,-0.29571232,-0.5112456,0.7259442,-0.46003598,0.022535153,0.54641646,0.83721036,0.85736597,0.42208922,-0.29455784,-0.51433146,0.72444105,-0.45896432,0.019665897,0.5450008,0.83820486,0.30029297,5.3000946,8.228912,0.22099437,5.3585153,8.210229,0.012420654,0.0031433105,0.010803223,-39.779663,53.579712,-39.89868,1,0.0,0.0,0.0,0.0
2.066906877,0.8592601,0.41738257,-0.29574305,-0.5110362,0.7260381,-0.4601202,0.022674568,0.5464983,0.83715314,0.85743654,0.42191362,-0.2946037,-0.51420933,0.7245011,-0.45900643,0.019779647,0.5450569,0.8381657,0.3026886,5.355133,8.213364,0.22236155,5.359318,8.209668,0.018676758,-0.0046539307,0.011260986,-39.538574,53.338623,-39.59961,1,0.0,0.0,0.0,0.0
2.075207658,0.85926235,0.41724297,-0.29593334,-0.511024,0.7260296,-0.46014735,0.022863096,0.5466163,0.837071,0.8574733,0.42182305,-0.29462656,-0.51414585,0.7245322,-0.45902854,0.019837612,0.5450857,0.8381456,0.3026886,5.355133,8.213364,0.22421038,5.360475,8.208862,0.027374268,-0.009384155,0.009277344,-39.538574,53.338623,-39.59961,1,0.0,0.0,0.0,0.0
2.083508439,0.8592646,0.41709632,-0.2961331,-0.5110129,0.7259758,-0.4602441,0.023019345,0.5467994,0.8369471,0.8575446,0.42164186,-0.29467854,-0.5140223,0.72459203,-0.4590724,0.019957561,0.5451464,0.8381033,0.27278137,5.3934174,8.209778,0.22574267,5.362271,8.207647,0.01776123,-0.009384155,0.0066833496,-39.538574,53.338623,-39.59961,1,0.0,0.0,0.0,0.0
2.091809221,0.8591091,0.41717488,-0.29647377,-0.5112671,0.7258044,-0.46023253,0.023184523,0.5469672,0.83683294,0.85761327,0.42146188,-0.2947363,-0.51390314,0.7246474,-0.45911846,0.020078966,0.5452119,0.83805776,0.28355408,5.412567,8.201401,0.22736251,5.363916,8.206528,-0.0010223389,-0.018081665,-0.0030975342,-39.538574,53.579712,-39.179993,1,0.0,0.0,0.0,0.0
2.100110002,0.85911024,0.41706124,-0.29663032,-0.5112577,0.72580755,-0.46023786,0.023349175,0.5470496,0.83677447,0.8576433,0.4213762,-0.2947711,-0.51385045,0.7246708,-0.45914045,0.020141168,0.545247,0.83803344,0.28355408,5.412567,8.201401,0.2289772,5.364724,8.205955,-0.003921509,-0.01625061,-0.011947632,-39.538574,53.579712,-39.179993,1,0.0,0.0,0.0,0.0
2.108410783,0.8577527,0.4189577,-0.29788393,-0.5135284,0.72474813,-0.45937875,0.023430575,0.5470052,0.8368013,0.8577019,0.4212054,-0.29484496,-0.5137477,0.72471637,-0.45918354,0.020268388,0.5453185,0.83798385,0.24047852,5.394623,8.321045,0.22977546,5.3642883,8.206218,0.0017242432,-0.02053833,-0.015167236,-39.65912,53.338623,-39.179993,1,0.0,0.0,0.0,0.0
2.116711564,0.85775286,0.4189372,-0.29791197,-0.51352483,0.72478855,-0.45931867,0.023497516,0.54696715,0.8368242,0.85770303,0.42116037,-0.29490575,-0.5137432,0.7247171,-0.45918736,0.020331718,0.5453522,0.83796036,0.24047852,5.394623,8.321045,0.23043193,5.3639154,8.206442,-0.0013275146,-0.016723633,-0.013168335,-39.65912,53.338623,-39.179993,1,0.0,0.0,0.0,0.0
2.125012346,0.85905325,0.4171159,-0.2967182,-0.5113459,0.72589225,-0.46000603,0.023509642,0.5468954,0.83687073,0.85770524,0.42107236,-0.29502493,-0.5137345,0.72472006,-0.4591924,0.020457245,0.54541624,0.83791566,0.20817566,5.3778687,8.341385,0.23055084,5.3632116,8.206899,8.087158E-4,-0.0074005127,-0.0035552979,-39.419556,53.39966,-39.05945,1,0.0,0.0,0.0,0.0
2.133313127,0.85905313,0.41712523,-0.29670542,-0.5113446,0.72594184,-0.4599293,0.023542797,0.5468225,0.8369175,0.857759,0.42091578,-0.2950921,-0.5136399,0.7247669,-0.45922422,0.02057826,0.5454748,0.83787453,0.23928833,5.34198,8.329422,0.23087598,5.362497,8.207357,0.00920105,0.002532959,-0.0067596436,-39.419556,53.39966,-39.05945,1,0.0,0.0,0.0,0.0
2.141613908,0.86020523,0.41550457,-0.29563972,-0.50940454,0.72690374,-0.46056256,0.02353573,0.54677856,0.8369464,0.85778517,0.42084,-0.29512444,-0.5135941,0.72479063,-0.45923823,0.020637615,0.5455018,0.8378555,0.23928833,5.34198,8.329422,0.23080668,5.3620663,8.207641,0.0067596436,0.002532959,-0.0067596436,-39.179993,53.279114,-39.118958,1,0.0,0.0,0.0,0.0
2.149914689,0.860205,0.41552985,-0.2956051,-0.50940675,0.7269024,-0.46056223,0.023498712,0.5467611,0.83695877,0.85788155,0.4206289,-0.29514498,-0.5134283,0.7248751,-0.45929024,0.020752495,0.5455524,0.83781976,0.2416687,5.3683014,8.321045,0.23044364,5.361895,8.207762,0.0053863525,0.0072631836,0.0013275146,-39.179993,53.279114,-39.118958,1,0.0,0.0,0.0,0.0
2.158215471,0.8583834,0.4181336,-0.29722437,-0.5124717,0.72540885,-0.459516,0.023470107,0.5467599,0.83696043,0.8579741,0.4204272,-0.29516336,-0.5132692,0.72495604,-0.45934018,0.020861352,0.5456003,0.83778584,0.24287415,5.367096,8.291138,0.23016313,5.361883,8.207778,0.0107421875,0.014434814,0.008972168,-39.479065,53.579712,-38.63983,1,0.0,0.0,0.0,0.0
2.166516252,0.85838324,0.41814807,-0.29720408,-0.51247346,0.72538865,-0.4595454,0.02343041,0.54677534,0.8369514,0.85798234,0.42038134,-0.29520464,-0.5132533,0.72496516,-0.45934364,0.020913575,0.5456235,0.8377694,0.24287415,5.367096,8.291138,0.22977385,5.362035,8.207689,0.012268066,0.015350342,0.0033111572,-39.479065,53.579712,-38.63983,1,0.0,0.0,0.0,0.0
2.174817033,0.8588686,0.4174803,-0.29674065,-0.51166165,0.72577345,-0.45984262,0.023391249,0.54677516,0.8369526,0.85799843,0.42029294,-0.29528388,-0.51322234,0.7249821,-0.45935148,0.021013336,0.5456691,0.83773726,0.25723267,5.345566,8.337784,0.2293898,5.362033,8.207702,0.023101807,0.01260376,0.008666992,-39.419556,53.759766,-38.459778,1,0.0,0.0,0.0,0.0
2.183117814,0.8588689,0.41734275,-0.2969331,-0.5116547,0.7257111,-0.45994875,0.023531388,0.54696286,0.836826,0.8580331,0.4201816,-0.29534158,-0.5131605,0.72501373,-0.4593707,0.021107584,0.5457129,0.8377063,0.36489868,5.4053802,8.197815,0.23076409,5.3638735,8.20646,0.025543213,0.0016174316,0.0051574707,-39.419556,53.759766,-38.459778,1,0.0,0.0,0.0,0.0
2.191418596,0.8570925,0.41968077,-0.29876524,-0.5146165,0.72419524,-0.45903298,0.023717048,0.54718316,0.83667684,0.85804987,0.42012486,-0.2953735,-0.5131304,0.7250277,-0.45938212,0.021156108,0.5457379,0.8376888,0.36489868,5.4053802,8.197815,0.23258479,5.3660336,8.204997,0.032577515,-0.0032806396,0.0016326904,-39.479065,53.759766,-37.739563,1,0.0,0.0,0.0,0.0
2.199719377,0.85709167,0.4195246,-0.2989868,-0.51461095,0.72411054,-0.45917276,0.023865214,0.54741496,0.83652097,0.8580122,0.42010733,-0.29550788,-0.51318926,0.72499484,-0.4593684,0.021257639,0.54579514,0.8376489,0.31585693,5.399399,8.209778,0.2340378,5.368307,8.203468,0.022491455,-0.006942749,-0.0056915283,-39.479065,53.759766,-37.739563,1,0.0,0.0,0.0,0.0
2.208020158,0.85970575,0.41570106,-0.29681414,-0.51022387,0.72622937,-0.4607195,0.024033582,0.54752487,0.8364442,0.857976,0.42008433,-0.29564568,-0.5132455,0.72495985,-0.4593607,0.021361034,0.5458593,0.8376045,0.32901,5.3599243,8.234894,0.23568892,5.369385,8.202716,-0.0069732666,-0.009689331,-0.0067596436,-39.239502,54.418945,-37.438965,1,0.0,0.0,0.0,0.0
2.216320939,0.859705,0.41563824,-0.29690462,-0.51021814,0.726293,-0.46062574,0.024186091,0.5474883,0.83646375,0.85801077,0.4199967,-0.29566914,-0.5131851,0.72498554,-0.45938766,0.021414556,0.5458926,0.83758146,0.32901,5.3599243,8.234894,0.23718454,5.369026,8.202908,-0.019195557,-0.0011444092,-0.004623413,-39.239502,54.418945,-37.438965,1,0.0,0.0,0.0,0.0
2.224621721,0.8600471,0.41519424,-0.2965346,-0.5096387,0.72669315,-0.46063608,0.0242362,0.5472942,0.83658934,0.8580783,0.41982412,-0.29571825,-0.51306754,0.7250378,-0.45943642,0.021524444,0.5459559,0.83753735,0.2763672,5.3491516,8.307877,0.23767594,5.3671227,8.204139,-0.019195557,0.00390625,-0.008743286,-39.179993,54.119873,-37.85858,1,0.0,0.0,0.0,0.0
2.232922502,0.86004806,0.41532904,-0.29634288,-0.50964355,0.72675884,-0.46052694,0.024099581,0.54710454,0.8367173,0.85815674,0.41964084,-0.29575074,-0.51293176,0.725104,-0.4594836,0.021631943,0.5460089,0.8375,0.17347717,5.3898315,8.346161,0.23633616,5.365263,8.205394,-0.014465332,0.002670288,-0.0043182373,-39.179993,54.119873,-37.85858,1,0.0,0.0,0.0,0.0
2.241223283,0.86172813,0.41304594,-0.29464832,-0.5068041,0.72816914,-0.46143168,0.02396134,0.5469577,0.83681726,0.85819477,0.4195547,-0.29576263,-0.5128661,0.72513735,-0.4595043,0.021681342,0.5460308,0.83748454,0.17347717,5.3898315,8.346161,0.23498046,5.3638225,8.206374,0.003250122,0.0022277832,0.0011749268,-38.938904,54.65851,-37.25891,1,0.0,0.0,0.0,0.0
2.249524064,0.8617291,0.41310441,-0.29456356,-0.5068064,0.7281749,-0.46142,0.02387919,0.54690576,0.8368535,0.8583356,0.41929746,-0.29571882,-0.5126265,0.72525847,-0.45958036,0.021771694,0.54606754,0.8374582,0.19381714,5.3910217,8.329422,0.23417488,5.363313,8.20673,0.009506226,0.00390625,0.0013275146,-38.938904,54.65851,-37.25891,1,0.0,0.0,0.0,0.0
2.257824846,0.86295396,0.41130763,-0.29349023,-0.5047169,0.7291492,-0.46217132,0.023903562,0.546962,0.8368161,0.85847086,0.41905263,-0.29567328,-0.51239645,0.72537506,-0.45965302,0.021855209,0.5461007,0.8374344,0.26919556,5.3479614,8.244476,0.23441388,5.3638654,8.206363,0.029830933,0.0029754639,0.0019378662,-38.879395,54.899597,-37.379456,1,0.0,0.0,0.0,0.0
2.266125627,0.8629529,0.41124654,-0.2935788,-0.5047171,0.72908264,-0.46227586,0.023933856,0.5470966,0.8367272,0.8585613,0.41889805,-0.29562986,-0.5122432,0.72545135,-0.45970342,0.021896206,0.5461179,0.8374221,0.26919556,5.3479614,8.244476,0.23471095,5.3651853,8.205491,0.034713745,-0.0049591064,1.0681152E-4,-38.879395,54.899597,-37.379456,1,0.0,0.0,0.0,0.0
2.274426408,0.86126524,0.41354415,-0.2953023,-0.5075863,0.7276273,-0.46142694,0.024049567,0.54730237,0.8365894,0.8587365,0.41859567,-0.29554912,-0.5119459,0.72559667,-0.45980525,0.02197696,0.5461567,0.83739465,0.30029297,5.3324127,8.184647,0.2358457,5.3672028,8.20414,0.026611328,-0.0051116943,0.0011749268,-39.118958,54.779053,-37.379456,1,0.0,0.0,0.0,0.0
2.282727189,0.86126244,0.41337922,-0.2955411,-0.50758123,0.7275808,-0.46150553,0.024253238,0.5474885,0.8364616,0.8588372,0.41839582,-0.29553956,-0.51177347,0.7256778,-0.45986927,0.022059109,0.5462021,0.83736295,0.35414124,5.3527374,8.194214,0.23784302,5.3690286,8.202887,0.012878418,8.392334E-4,-0.0038604736,-39.118958,54.779053,-37.379456,1,0.0,0.0,0.0,0.0
2.291027971,0.8606776,0.4140967,-0.29623994,-0.5085648,0.72709113,-0.4611946,0.024414254,0.547597,0.83638597,0.858886,0.41829553,-0.2955397,-0.51168966,0.7257161,-0.4599019,0.022103034,0.54622793,0.83734494,0.35414124,5.3527374,8.194214,0.23942205,5.3700924,8.202145,0.010284424,0.0077209473,-0.006454468,-39.118958,54.179382,-37.919617,1,0.0,0.0,0.0,0.0
2.299328752,0.8606774,0.4140713,-0.2962761,-0.5085661,0.7270292,-0.46129087,0.024394061,0.5476985,0.8363201,0.8589573,0.41812938,-0.2955676,-0.511566,0.72577107,-0.4599527,0.02219466,0.54628205,0.83730716,0.2907257,5.392227,8.210968,0.23922403,5.3710876,8.201499,0.0066070557,0.02330017,-0.0124053955,-39.118958,54.179382,-37.919617,1,0.0,0.0,0.0,0.0
2.307629533,0.85923886,0.41625696,-0.2973861,-0.51100475,0.72579,-0.46054608,0.024134355,0.5476849,0.8363365,0.8590257,0.41796878,-0.2955958,-0.51144725,0.72582144,-0.4600054,0.022281853,0.54633814,0.8372683,0.19381714,5.330017,8.237289,0.23667717,5.3709545,8.201659,-0.0054473877,0.033828735,-0.010269165,-39.179993,53.99933,-37.61902,1,0.0,0.0,0.0,0.0
2.315930314,0.85924053,0.41643766,-0.2971286,-0.51101696,0.7257376,-0.46061546,0.02381976,0.5476172,0.83638984,0.85903007,0.41793457,-0.29563165,-0.51143837,0.72582084,-0.46001616,0.022318942,0.5463651,0.8372497,0.19381714,5.330017,8.237289,0.23359205,5.3702903,8.202183,-0.0010223389,0.031692505,-0.0038604736,-39.179993,53.99933,-37.61902,1,0.0,0.0,0.0,0.0
2.324231096,0.8604135,0.41498783,-0.29575944,-0.50905764,0.72661513,-0.4614007,0.02342759,0.547554,0.8364423,0.8590384,0.4178754,-0.29569098,-0.5114218,0.7258176,-0.46003973,0.022378433,0.5464146,0.8372158,0.12083435,5.3479614,8.230118,0.2297462,5.369671,8.202697,-0.012176514,0.022842407,-1.9836426E-4,-38.99994,53.878784,-37.85858,1,0.0,0.0,0.0,0.0
2.332531877,0.8604142,0.41512394,-0.2955665,-0.5090673,0.7265774,-0.46144974,0.023193112,0.54750115,0.8364835,0.85909307,0.41776106,-0.29569384,-0.51132816,0.7258494,-0.4600936,0.022420017,0.5464598,0.83718514,0.1878357,5.4137573,8.271988,0.22744673,5.369152,8.203101,-0.010940552,-0.0012969971,0.008666992,-38.99994,53.878784,-37.85858,1,0.0,0.0,0.0,0.0
2.340832658,0.85784143,0.41886008,-0.29776576,-0.5133962,0.7244875,-0.45993748,0.02307813,0.54742515,0.8365364,0.85911953,0.4177083,-0.29569137,-0.511283,0.7258641,-0.46012077,0.022435492,0.54648066,0.8371712,0.1878357,5.4137573,8.271988,0.22631915,5.368407,8.20362,-0.009109497,-0.004348755,0.011260986,-39.239502,53.279114,-38.09967,1,0.0,0.0,0.0,0.0
2.349133439,0.85784143,0.41884556,-0.29778612,-0.5133914,0.7245778,-0.45980036,0.023183856,0.54731655,0.8366045,0.8590691,0.417754,-0.29577348,-0.51136667,0.7258097,-0.4601136,0.022460958,0.546518,0.8371461,0.26200867,5.407776,8.343765,0.22735597,5.367342,8.204288,0.007843018,-0.0104522705,0.0051574707,-39.239502,53.279114,-38.09967,1,0.0,0.0,0.0,0.0
2.357434221,0.8593413,0.41660872,-0.29659685,-0.5108651,0.7258987,-0.4605301,0.023438392,0.5472735,0.8366256,0.8590206,0.41779727,-0.2958532,-0.5114469,0.7257609,-0.46010134,0.022489602,0.5465497,0.83712465,0.3409729,5.38266,8.324631,0.22985211,5.36692,8.204494,0.016845703,-0.023284912,0.007446289,-38.938904,53.579712,-37.55951,1,0.0,0.0,0.0,0.0
2.365735002,0.8593403,0.4164435,-0.2968315,-0.5108527,0.725963,-0.46044225,0.02374049,0.5473138,0.83659065,0.85902697,0.4177735,-0.2958681,-0.5114352,0.7257637,-0.46010995,0.022508588,0.5465642,0.83711463,0.3409729,5.38266,8.324631,0.23281468,5.3673153,8.204152,0.024932861,-0.03137207,0.0057678223,-38.938904,53.579712,-37.55951,1,0.0,0.0,0.0,0.0
2.374035783,0.85901654,0.41667804,-0.2974393,-0.5113789,0.7257685,-0.4601649,0.024131497,0.5473934,0.8365274,0.8590395,0.4177208,-0.2959063,-0.51141214,0.72577155,-0.46012306,0.022557398,0.54659396,0.8370939,0.34576416,5.353943,8.2994995,0.23664917,5.368096,8.203532,0.033798218,-0.0443573,-4.5776367E-5,-39.118958,53.279114,-38.339233,1,0.0,0.0,0.0,0.0
2.382336564,0.85901713,0.41642398,-0.29779297,-0.51135904,0.7257999,-0.46013743,0.024525836,0.547545,0.8364167,0.8590387,0.4176794,-0.295967,-0.5114107,0.72577155,-0.46012482,0.022619773,0.5466257,0.83707154,0.33140564,5.367096,8.2947235,0.2405163,5.3695827,8.202446,0.042037964,-0.020996094,-0.009506226,-39.118958,53.279114,-38.339233,1,0.0,0.0,0.0,0.0
2.390637346,0.8587046,0.4166461,-0.29838312,-0.5118692,0.7255265,-0.46000132,0.024827117,0.5477383,0.83628124,0.85903835,0.41765425,-0.2960035,-0.5114096,0.72577214,-0.460125,0.022657923,0.54664403,0.8370585,0.33140564,5.367096,8.2947235,0.24347085,5.371478,8.2011175,0.035476685,-0.007858276,-0.007369995,-39.118958,53.338623,-38.09967,1,0.0,0.0,0.0,0.0
2.398938127,0.8587045,0.41656154,-0.2985014,-0.51186854,0.725414,-0.46017957,0.02484395,0.5479517,0.836141,0.85902524,0.41761437,-0.29609782,-0.51142776,0.7257624,-0.4601201,0.022743896,0.5466874,0.83702785,0.22492981,5.3563385,8.244476,0.24363591,5.3735704,8.199741,0.029525757,0.0074157715,-0.0035552979,-39.118958,53.338623,-38.09967,1,0.0,0.0,0.0,0.0
2.407238908,0.8607658,0.413548,-0.29674965,-0.50839496,0.72696066,-0.4615873,0.024836797,0.5481846,0.8359885,0.85901266,0.41757274,-0.29619306,-0.5114453,0.72574866,-0.46012247,0.022827141,0.5467375,0.83699286,0.23091125,5.358719,8.151154,0.24356578,5.3758545,8.198247,0.021881104,0.005279541,0.002090454,-38.938904,53.579712,-38.279724,1,0.0,0.0,0.0,0.0
2.415539689,0.86076564,0.4134902,-0.29683036,-0.50839585,0.7268532,-0.46175534,0.024820775,0.5483705,0.83586705,0.85904783,0.4174923,-0.29620433,-0.5113843,0.7257731,-0.46015158,0.022867382,0.54676646,0.83697283,0.25602722,5.3527374,8.141586,0.24340865,5.3776774,8.197056,0.017150879,0.01184082,0.0019378662,-38.938904,53.579712,-38.279724,1,0.0,0.0,0.0,0.0
2.423840471,0.8600786,0.41444886,-0.29748437,-0.50955945,0.7262148,-0.46147722,0.024778858,0.54849267,0.8357882,0.85908234,0.4174123,-0.29621696,-0.5113246,0.725795,-0.46018356,0.022906499,0.5467986,0.8369508,0.28833008,5.3862457,8.173889,0.24299759,5.3788757,8.196282,0.0053863525,0.017486572,0.0028686523,-38.99994,53.759766,-37.85858,1,0.0,0.0,0.0,0.0
2.432141252,0.86007875,0.41448176,-0.29743794,-0.5095629,0.7261829,-0.46152365,0.024701208,0.5485101,0.8357791,0.859122,0.4172949,-0.29626736,-0.51125455,0.7258118,-0.4602347,0.02298074,0.5468658,0.83690476,0.27038574,5.3910217,8.214554,0.24223611,5.3790464,8.196193,-0.008041382,0.019012451,-0.0029449463,-38.99994,53.759766,-37.85858,1,0.0,0.0,0.0,0.0
2.440442033,0.8608743,0.41342673,-0.29660383,-0.5082238,0.72682256,-0.46199304,0.02457808,0.548459,0.8358161,0.85916007,0.41718346,-0.29631385,-0.5111875,0.7258267,-0.46028563,0.023048962,0.54693097,0.83686036,0.27038574,5.3910217,8.214554,0.24102862,5.3785458,8.196556,-0.019500732,0.011688232,-0.010421753,-39.05945,53.99933,-38.09967,1,0.0,0.0,0.0,0.0
2.448742814,0.8608747,0.4134999,-0.29650065,-0.5082263,0.72686636,-0.4619213,0.024511937,0.54834574,0.8358923,0.8591945,0.4171084,-0.2963198,-0.5111283,0.7258469,-0.46031973,0.023079582,0.5469616,0.8368395,0.2859497,5.3802643,8.230118,0.24037999,5.377435,8.197304,-0.016296387,3.8146973E-4,-0.0041656494,-39.05945,53.99933,-38.09967,1,0.0,0.0,0.0,0.0
2.457043596,0.8612094,0.41307354,-0.2961226,-0.5076576,0.727249,-0.46194428,0.024537949,0.54815966,0.8360137,0.85926133,0.4169655,-0.29632714,-0.51101345,0.72588754,-0.460383,0.023136366,0.54701644,0.83680207,0.26560974,5.3730774,8.323441,0.24063508,5.37561,8.198494,-0.0074310303,-0.013961792,-0.0052337646,-38.938904,53.99933,-37.919617,1,0.0,0.0,0.0,0.0
2.465344377,0.86120945,0.41308117,-0.29611182,-0.5076522,0.7273789,-0.46174568,0.024647033,0.54798156,0.83612716,0.8593388,0.41681147,-0.29631922,-0.51088065,0.72594196,-0.46044472,0.02319192,0.54706174,0.83677095,0.27757263,5.3850403,8.395218,0.24170482,5.3738637,8.199607,0.004470825,-0.013961792,-0.010879517,-38.938904,53.99933,-37.919617,1,0.0,0.0,0.0,0.0
2.473645158,0.8633392,0.4099932,-0.29419553,-0.5040163,0.7291981,-0.46285808,0.024758156,0.54788285,0.83618855,0.8593764,0.41673687,-0.29631513,-0.5108161,0.72597086,-0.46047065,0.023221042,0.5470801,0.8367581,0.27757263,5.3611145,8.338989,0.24279457,5.3728957,8.200209,0.010131836,-0.016555786,-0.006454468,-38.69934,54.53949,-37.55951,1,0.0,0.0,0.0,0.0
2.481945939,0.8633378,0.40990025,-0.294329,-0.5040102,0.7292332,-0.46280923,0.02492885,0.54790556,0.8361686,0.8595344,0.41647032,-0.29623157,-0.5105474,0.7260999,-0.4605653,0.023281954,0.5471119,0.83673567,0.3026886,5.36232,8.331802,0.24446851,5.3731184,8.200013,0.038375854,-0.016113281,-6.5612793E-4,-38.69934,54.53949,-37.55951,1,0.0,0.0,0.0,0.0
2.490246721,0.8619577,0.4117463,-0.29579347,-0.50635785,0.7280802,-0.46206138,0.02510934,0.54805475,0.8360654,0.85968596,0.41621062,-0.2961566,-0.510289,0.72622514,-0.4606541,0.023347214,0.54714334,0.83671325,0.3026886,5.36232,8.331802,0.24623851,5.3745813,8.199001,0.04447937,-0.007095337,2.593994E-4,-38.819885,53.93982,-38.038635,1,0.0,0.0,0.0,0.0
2.498547502,0.86195666,0.41159216,-0.29601097,-0.50635386,0.72796285,-0.4622507,0.025226254,0.54832643,0.8358838,0.8597317,0.4161214,-0.29614937,-0.51021045,0.72626245,-0.46068215,0.023382483,0.5471616,0.8367003,0.29312134,5.392227,8.266006,0.24738505,5.3772454,8.19722,0.040664673,0.002670288,-0.0017242432,-38.819885,53.93982,-38.038635,1,0.0,0.0,0.0,0.0
2.506848283,0.8614444,0.41220117,-0.29665416,-0.5072246,0.7273559,-0.46225157,0.02523251,0.54867435,0.8356553,0.8598202,0.41594213,-0.2961441,-0.51005787,0.72633034,-0.46074414,0.02345556,0.5472078,0.8366681,0.24885559,5.4053802,8.130814,0.2474464,5.3806577,8.194979,0.03715515,0.0031433105,-4.5776367E-5,-38.69934,53.759766,-37.678528,1,0.0,0.0,0.0,0.0
2.515149064,0.86144346,0.41210392,-0.29679197,-0.50722706,0.7271821,-0.46252224,0.02521457,0.54897773,0.83545655,0.85988486,0.4157941,-0.2961645,-0.5099458,0.7263714,-0.4608036,0.02352601,0.5472658,0.83662814,0.25723267,5.3970184,8.097305,0.24727046,5.3836327,8.19303,0.013641357,0.009552002,-3.5095215E-4,-38.69934,53.759766,-37.678528,1,0.0,0.0,0.0,0.0
2.523449846,0.86144584,0.4120188,-0.2969035,-0.5072222,0.7270795,-0.46268904,0.025235849,0.5491775,0.8353246,0.8599161,0.41572025,-0.29617715,-0.50989133,0.7263878,-0.46083787,0.023559825,0.5473001,0.8366047,0.31106567,5.412567,8.116455,0.24747914,5.385592,8.191736,-0.0014801025,0.013671875,-0.0053863525,-38.819885,53.579712,-38.279724,1,0.0,0.0,0.0,0.0
2.531750627,0.8614458,0.41201994,-0.2969018,-0.5072241,0.7270379,-0.4627522,0.02519571,0.5492317,0.8352902,0.859977,0.41557372,-0.29620618,-0.50978565,0.72641563,-0.460911,0.023626296,0.5473745,0.8365542,0.3098755,5.4017944,8.160721,0.24708553,5.386123,8.191399,-0.0060577393,0.021316528,-0.014862061,-38.819885,53.579712,-38.279724,1,0.0,0.0,0.0,0.0
2.540051408,0.85967773,0.41460377,-0.29842576,-0.510221,0.7255638,-0.46177024,0.025075233,0.54923666,0.83529055,0.8600354,0.41543296,-0.29623392,-0.50968415,0.7264407,-0.46098372,0.023688536,0.54744804,0.83650434,0.3098755,5.4017944,8.160721,0.24590404,5.386172,8.191402,-0.009109497,0.02696228,-0.01928711,-38.99994,53.39966,-38.15918,1,0.0,0.0,0.0,0.0
2.548352189,0.8596781,0.41473106,-0.29824793,-0.51023155,0.72551763,-0.46183112,0.024848422,0.54920155,0.8353204,0.8600283,0.4154164,-0.29627776,-0.5096948,0.7264232,-0.4609995,0.02371631,0.5474838,0.83648014,0.3098755,5.4017944,8.160721,0.24367978,5.3858275,8.191695,-0.015686035,0.029708862,-0.021270752,-38.99994,53.39966,-38.15918,1,0.0,0.0,0.0,0.0
2.556652971,0.85967845,0.41491348,-0.29799303,-0.51024586,0.7254691,-0.46189147,0.024539772,0.5491278,0.835378,0.86001444,0.4153894,-0.2963558,-0.5097161,0.72638744,-0.4610323,0.023761204,0.5475518,0.8364343,0.22612,5.4293213,8.248062,0.24065296,5.385104,8.19226,-0.010635376,0.027267456,-0.020355225,-38.99994,53.39966,-38.15918,1,0.0,0.0,0.0,0.0
2.564953752,0.8601002,0.41452566,-0.2973149,-0.50955045,0.7257833,-0.46216545,0.024206772,0.5490055,0.83546805,0.8600078,0.41537988,-0.29638857,-0.5097267,0.7263691,-0.46104953,0.0237768,0.54758334,0.83641326,0.22612,5.4293213,8.248062,0.23738736,5.383905,8.193143,-0.010635376,0.034591675,-0.010574341,-38.938904,53.338623,-38.279724,1,0.0,0.0,0.0,0.0
2.573254533,0.85873824,0.41664165,-0.2982927,-0.5118569,0.72462875,-0.46142805,0.02390132,0.54892904,0.8355272,0.8600114,0.41534606,-0.29642528,-0.50971967,0.7263459,-0.46109366,0.023793848,0.54763967,0.8363759,0.19502258,5.399399,8.260025,0.23439187,5.383155,8.193723,9.613037E-4,0.027420044,-0.0027923584,-39.05945,53.09906,-38.279724,1,0.0,0.0,0.0,0.0
2.581555314,0.8587377,0.41680512,-0.2980654,-0.51187205,0.72454554,-0.4615416,0.023589052,0.54891455,0.83554554,0.8599612,0.41539744,-0.29649916,-0.5098043,0.726278,-0.46110716,0.023798114,0.5476908,0.83634233,0.17228699,5.395813,8.237289,0.23132959,5.383013,8.193903,0.0056915283,0.03138733,-0.0035552979,-39.05945,53.09906,-38.279724,1,0.0,0.0,0.0,0.0
2.589856096,0.85873747,0.41692275,-0.297902,-0.511884,0.72446567,-0.4616542,0.02334562,0.5489309,0.83554167,0.8599368,0.41542566,-0.29653043,-0.5098457,0.72624344,-0.46111587,0.023793928,0.54771525,0.83632636,0.21296692,5.3527374,8.15593,0.22894232,5.383173,8.193865,0.006454468,0.03352356,4.119873E-4,-39.05945,53.09906,-38.279724,1,0.0,0.0,0.0,0.0
2.598156877,0.8582259,0.41773692,-0.29823527,-0.51275015,0.7239752,-0.46146214,0.023145163,0.5489589,0.83552885,0.8598893,0.41548508,-0.29658467,-0.5099265,0.72617304,-0.46113724,0.023776162,0.5477634,0.83629537,0.21296692,5.3527374,8.15593,0.22697651,5.383448,8.193739,0.011199951,0.014129639,0.0019378662,-39.239502,53.15857,-38.459778,1,0.0,0.0,0.0,0.0
2.606457658,0.8582257,0.41777453,-0.298183,-0.5127541,0.7239443,-0.46150604,0.02306239,0.5489709,0.8355232,0.8598236,0.41557446,-0.2966499,-0.5100384,0.7260862,-0.46115026,0.023751155,0.5478108,0.836265,0.22132874,5.3359985,8.164307,0.22616479,5.3835654,8.193684,-0.0027008057,-0.0038909912,0.012329102,-39.239502,53.15857,-38.459778,1,0.0,0.0,0.0,0.0
2.614758439,0.8557188,0.4212651,-0.30046815,-0.5169221,0.721972,-0.45994347,0.02317144,0.54890084,0.83556616,0.85979176,0.41561857,-0.29668057,-0.51009285,0.7260434,-0.46115747,0.023737365,0.54783404,0.8362502,0.27038574,5.350357,8.221741,0.2272342,5.382879,8.194105,-0.009277344,-0.009689331,0.007293701,-39.779663,52.859497,-39.179993,1,0.0,0.0,0.0,0.0
2.623059221,0.8550336,0.42215174,-0.30117384,-0.5180446,0.7215509,-0.45934123,0.023400553,0.5487735,0.8356435,0.8596314,0.41584295,-0.2968306,-0.51036394,0.725883,-0.46111,0.02371494,0.5478763,0.8362231,0.33857727,5.3886414,8.270798,0.22948104,5.38163,8.194863,-0.02178955,-0.0066375732,-0.001876831,-39.839172,52.738953,-39.179993,1,0.0,0.0,0.0,0.0
2.631360002,0.85503405,0.42211255,-0.3012271,-0.51803267,0.7217472,-0.45904586,0.023640797,0.5485453,0.8357865,0.8594506,0.4160937,-0.29700276,-0.51066893,0.72571254,-0.46104068,0.02370248,0.5479118,0.83620024,0.33857727,5.3886414,8.270798,0.23183702,5.379392,8.196266,-0.019958496,-0.03060913,-0.0041656494,-39.839172,52.738953,-39.179993,1,0.0,0.0,0.0,0.0
2.639660783,0.85503507,0.42204344,-0.30132106,-0.51801825,0.721941,-0.45875752,0.023920428,0.54834354,0.83591104,0.85936296,0.41621444,-0.29708737,-0.51081663,0.7256337,-0.46100125,0.023701245,0.5479245,0.83619195,0.34336853,5.4101715,8.343765,0.23457928,5.3774133,8.197487,-0.01828003,-0.02999878,-0.014694214,-39.839172,52.738953,-39.179993,1,0.0,0.0,0.0,0.0
2.647961564,0.8556736,0.4211064,-0.30081916,-0.51695204,0.7226379,-0.4588629,0.024153227,0.5481459,0.8360339,0.8591927,0.41644588,-0.29725534,-0.5111025,0.72548836,-0.46091312,0.023709927,0.5479411,0.83618087,0.29312134,5.42453,8.374878,0.23686227,5.3754754,8.198692,-0.020568848,-0.03779602,-0.018981934,-39.779663,52.799988,-39.239502,1,0.0,0.0,0.0,0.0
2.656262346,0.8556743,0.42105272,-0.3008921,-0.51693976,0.72280717,-0.45860994,0.024388026,0.54796386,0.8361464,0.8590541,0.41663083,-0.29739672,-0.51133454,0.72537607,-0.46083242,0.023727484,0.5479492,0.836175,0.24885559,5.420944,8.397614,0.23916484,5.37369,8.199796,-0.008041382,-0.037643433,-0.01928711,-39.779663,52.799988,-39.239502,1,0.0,0.0,0.0,0.0
2.664563127,0.8530388,0.42469049,-0.3032538,-0.52126956,0.72079605,-0.45687112,0.024555285,0.5478057,0.8362452,0.85898685,0.41671944,-0.29746678,-0.51144695,0.7253249,-0.46078813,0.023740698,0.54794943,0.8361745,0.24885559,5.420944,8.397614,0.24080509,5.372139,8.200764,-0.008041382,-0.031066895,-0.018829346,-39.89868,52.378845,-38.879395,1,0.0,0.0,0.0,0.0
2.672863908,0.8530391,0.42466822,-0.30328414,-0.5212635,0.72088665,-0.45673496,0.024672665,0.5477037,0.8363085,0.8587535,0.41703597,-0.29769686,-0.5118372,0.7251473,-0.46063438,0.023772953,0.5479437,0.83617735,0.19621277,5.4185486,8.313858,0.24195619,5.3711386,8.201385,0.011505127,-0.017333984,-0.020202637,-39.89868,52.378845,-38.879395,1,0.0,0.0,0.0,0.0
2.681164689,0.85349435,0.42403728,-0.3028859,-0.52051854,0.7212388,-0.45702848,0.024655946,0.5477289,0.83629245,0.85852915,0.41733897,-0.29791903,-0.51221156,0.7249801,-0.46048135,0.023808572,0.5479343,0.8361825,0.15194702,5.3778687,8.222931,0.24179222,5.3713856,8.201227,0.014404297,-0.010757446,-0.014556885,-39.718628,52.259827,-38.75885,1,0.0,0.0,0.0,0.0
2.689465471,0.8534941,0.42405733,-0.30285865,-0.52052563,0.72112125,-0.4572061,0.024516203,0.5478683,0.8362053,0.8584294,0.41747323,-0.29801872,-0.5123782,0.72490597,-0.46041283,0.023825519,0.5479301,0.83618474,0.13639832,5.365906,8.151154,0.24042182,5.3727527,8.200373,0.021728516,-0.0029754639,-0.012252808,-39.718628,52.259827,-38.75885,1,0.0,0.0,0.0,0.0
2.697766252,0.8542606,0.423038,-0.30212182,-0.51927465,0.72163045,-0.45782447,0.024343157,0.5479856,0.8361334,0.85823536,0.4177346,-0.298211,-0.5127017,0.72475725,-0.46028677,0.023852866,0.5479277,0.8361855,0.14715576,5.3407745,8.140381,0.23872483,5.3739033,8.199668,0.006454468,0.0115356445,-0.0110321045,-39.59961,52.19879,-38.879395,1,0.0,0.0,0.0,0.0
2.706067033,0.8542599,0.4230847,-0.30205846,-0.519283,0.7215373,-0.4579619,0.024189781,0.54807234,0.8360811,0.858079,0.41794503,-0.29836628,-0.5129625,0.7246342,-0.46019,0.023872284,0.54793006,0.8361835,0.20219421,5.3491516,8.117645,0.23722073,5.3747535,8.199155,-0.002243042,0.022384644,-0.0024871826,-39.59961,52.19879,-38.879395,1,0.0,0.0,0.0,0.0
2.714367814,0.8569155,0.41946658,-0.2995724,-0.51489854,0.7236267,-0.45961285,0.023986306,0.54809874,0.83606964,0.8580031,0.418048,-0.29844022,-0.5130892,0.7245726,-0.46014568,0.023878634,0.54793286,0.8361814,0.20219421,5.3491516,8.117645,0.23522532,5.375013,8.199042,-0.006362915,0.024673462,-0.0066070557,-39.118958,52.319336,-38.63983,1,0.0,0.0,0.0,0.0
2.722668596,0.85746074,0.41879928,-0.29894537,-0.5139981,0.7240407,-0.4599686,0.023814064,0.5480623,0.83609843,0.8579601,0.41810417,-0.29848513,-0.5131609,0.7245351,-0.46012476,0.023882898,0.54793954,0.83617693,0.22253418,5.350357,8.130814,0.2335362,5.3746557,8.199325,-0.017974854,0.011077881,0.0043945313,-38.99994,52.139282,-38.819885,1,0.0,0.0,0.0,0.0
2.730969377,0.85745937,0.418891,-0.2988207,-0.5140055,0.72406,-0.45992997,0.02370359,0.5479667,0.83616424,0.8579501,0.41811806,-0.2984943,-0.5131776,0.7245253,-0.46012157,0.02388152,0.547942,0.8361754,0.22253418,5.350357,8.130814,0.23245281,5.373718,8.19997,-0.02407837,0.011688232,0.0033111572,-38.99994,52.139282,-38.819885,1,0.0,0.0,0.0,0.0
2.739270158,0.85745907,0.41890526,-0.2988013,-0.5140015,0.72417957,-0.45974585,0.023795819,0.5477976,0.83627236,0.8579308,0.41814858,-0.2985072,-0.5132103,0.72450686,-0.46011406,0.023874471,0.547943,0.8361749,0.3026886,5.371887,8.197815,0.23335728,5.37206,8.201031,-0.029724121,-0.0064849854,0.007293701,-38.99994,52.139282,-38.819885,1,0.0,0.0,0.0,0.0
2.747570939,0.8579121,0.41826564,-0.29839692,-0.5132383,0.7247039,-0.45977238,0.023942435,0.547593,0.8364022,0.85791206,0.41817853,-0.29851887,-0.5132416,0.7244939,-0.46009952,0.023871358,0.5479373,0.8361787,0.3014984,5.379059,8.218155,0.23479508,5.3700533,8.202304,-0.032943726,-0.010299683,0.0011749268,-38.75885,52.018738,-38.519287,1,0.0,0.0,0.0,0.0
2.755871721,0.8579121,0.41826177,-0.29840216,-0.5132305,0.7248745,-0.459512,0.024107825,0.54737,0.8365434,0.8579121,0.4181803,-0.29851642,-0.5132415,0.72449815,-0.46009296,0.023872783,0.54793036,0.83618325,0.3014984,5.379059,8.218155,0.23641701,5.3678665,8.203689,-0.03416443,-0.012283325,0.003921509,-38.75885,52.018738,-38.519287,1,0.0,0.0,0.0,0.0
2.764172502,0.85849935,0.41730917,-0.29804683,-0.5122291,0.7255828,-0.45951173,0.024499174,0.5471588,0.8366702,0.85791224,0.41818345,-0.2985118,-0.51324105,0.7245131,-0.46006998,0.023882087,0.5479081,0.83619756,0.38046265,5.3898315,8.246857,0.24025483,5.3657947,8.204932,-0.028656006,-0.016860962,-0.0050811768,-38.879395,52.5589,-38.398743,1,0.0,0.0,0.0,0.0
2.772473283,0.8588014,0.4167438,-0.29796785,-0.51170397,0.7260296,-0.45939112,0.024885103,0.546997,0.83676463,0.8579354,0.4181489,-0.2984934,-0.513201,0.7245555,-0.4600479,0.023906507,0.5478785,0.8362163,0.46180725,5.493927,8.338989,0.2440395,5.364208,8.205858,-0.027130127,-0.0184021,-0.014556885,-38.819885,52.49939,-38.459778,1,0.0,0.0,0.0,0.0
2.780774064,0.8588025,0.4166085,-0.29815358,-0.511684,0.7262175,-0.45911604,0.025252728,0.54685044,0.83684933,0.8579528,0.41812083,-0.29848284,-0.51317114,0.72458494,-0.46003473,0.023926064,0.54786086,0.83622724,0.46180725,5.493927,8.338989,0.24764468,5.362771,8.206689,-0.023010254,-0.024658203,-0.018066406,-38.819885,52.49939,-38.459778,1,0.0,0.0,0.0,0.0
2.789074846,0.858804,0.41643035,-0.29839826,-0.511662,0.7263686,-0.45890158,0.025646567,0.54678553,0.8368798,0.8579864,0.41806108,-0.29846975,-0.51311237,0.72464967,-0.4599984,0.02397856,0.5478209,0.83625185,0.4785614,5.54776,8.367706,0.25150692,5.3621345,8.206987,-0.016448975,-0.027557373,-0.027069092,-38.819885,52.49939,-38.459778,1,0.0,0.0,0.0,0.0
