Time,Rot1,Rot2,Rot3,Rot4,Rot5,Rot6,Rot7,Rot8,Rot9,FRot1,FRot2,FRot3,FRot4,FRot5,FRot6,FRot7,FRot8,FRot9,AccX,AccY,AccZ,GravX,GravY,GravZ,GyroX,GyroY,GyroZ,MagX,MagY,MagZ,Imid
0.0,0.0,0.0,0.0,0.0,0.0,0.0,0.0,0.0,0.0,1.0,0.0,0.0,0.0,1.0,0.0,0.0,0.0,1.0,10.057037,-0.32183838,0.16749573,9.789539,-0.38559592,0.43199256,-0.061798096,0.014892578,-0.04447937,0.0,0.0,0.0,0,0.0,0.0,0.0,0.0
0.008300781,0.051440604,0.22397989,-0.97323525,0.02802252,0.973818,0.22559515,0.9982828,-0.038877256,0.043817308,1.0,0.0,0.0,0.0,1.0,0.0,0.0,0.0,1.0,10.057037,-0.32183838,0.16749573,9.789811,-0.3812557,0.42970103,-0.06439209,0.004058838,-0.040359497,-40.73944,40.379333,7.1395874,0,0.0,0.0,0.0,0.0
0.016601562,0.05119737,0.22374628,-0.9733018,0.027784836,0.97388357,0.22534154,0.9983019,-0.038579926,0.043643523,0.9981333,0.008952238,-0.060413416,-0.008842834,0.99995875,0.0020780305,0.06042953,-0.0015399255,0.99817127,10.074982,-0.40797424,0.28234863,9.789998,-0.37833986,0.42799675,-0.056610107,-0.0011444092,-0.036697388,-40.73944,40.379333,7.1395874,0,0.0,0.0,0.0,0.0
0.024902344,0.05084893,0.21492468,-0.9753059,0.028072106,0.9758758,0.21651384,0.99831176,-0.038388394,0.043588858,0.9928352,0.017539639,-0.11819729,-0.017061034,0.99984163,0.005059905,0.11826732,-0.0030070837,0.99297726,10.17308,-0.46420288,0.40678406,9.790094,-0.37646154,0.42746067,-0.048355103,0.025894165,-0.038223267,-40.919495,39.89868,6.6589355,0,0.0,0.0,0.0,0.0
0.033203125,0.050842144,0.21491803,-0.9753077,0.027891977,0.9758842,0.21649906,0.9983171,-0.03821054,0.043621562,0.98903877,0.021523533,-0.14607884,-0.020749476,0.9997614,0.006820716,0.14619079,-0.0037148935,0.9892494,10.17308,-0.46420288,0.40678406,9.790147,-0.3747174,0.4277814,-0.056152344,0.032302856,-0.034866333,-40.919495,39.89868,6.6589355,0,0.0,0.0,0.0,0.0
0.041503906,0.050471928,0.19821271,-0.97885877,0.028513191,0.9794224,0.19979705,0.9983184,-0.037994523,0.043781657,0.9794015,0.029252425,-0.1997922,-0.027645698,0.9995591,0.010827703,0.20002086,-0.0050812745,0.9797784,10.157532,-0.43190002,0.39361572,9.790159,-0.372599,0.4293514,-0.050048828,0.041015625,-0.029968262,-41.279602,39.839172,5.9387207,0,0.0,0.0,0.0,0.0
0.049804687,0.050368387,0.1981093,-0.97888494,0.028328884,0.97945124,0.19968157,0.99832886,-0.03778836,0.043721173,0.9673769,0.035997223,-0.25077143,-0.033241507,0.9993315,0.015217439,0.25115156,-0.006384978,0.96792674,10.101303,-0.4139557,0.19023132,9.790262,-0.37057725,0.42875823,-0.053100586,0.0072631836,-0.030731201,-41.279602,39.839172,5.9387207,0,0.0,0.0,0.0,0.0
0.058105469,0.04999832,0.19195522,-0.98012924,0.028495185,0.98068297,0.19351727,0.9983427,-0.037604503,0.0435627,0.9605728,0.039266016,-0.27524215,-0.03581273,0.99920416,0.017562838,0.2757127,-0.0070132106,0.9612145,10.101303,-0.4139557,0.19023132,9.790398,-0.3687742,0.42720416,-0.0692749,0.0072631836,-0.030731201,-41.519165,39.29901,5.5786133,0,0.0,0.0,0.0,0.0
0.06640625,0.049582902,0.19153112,-0.9802333,0.028403226,0.98077315,0.1930733,0.99836606,-0.037414927,0.043189477,0.945592,0.045358974,-0.32217762,-0.040278465,0.99893695,0.022421677,0.32285213,-0.008224938,0.9464137,10.124039,-0.3912201,0.18544006,9.790627,-0.3669151,0.42354408,-0.079818726,-0.042373657,-0.015914917,-41.519165,39.29901,5.5786133,0,0.0,0.0,0.0,0.0
0.074707031,0.04878686,0.18895943,-0.9807722,0.028501678,0.98127824,0.1904747,0.9984025,-0.037246317,0.042487822,0.92901486,0.05119174,-0.36648446,-0.04417114,0.9986448,0.02752291,0.36739674,-0.009381157,0.93001705,10.107285,-0.3517456,0.13400269,9.790983,-0.36526158,0.4166632,-0.08653259,-0.07627869,-0.011795044,-41.758728,39.118958,5.4595947,0,0.0,0.0,0.0,0.0
0.083007812,0.04779611,0.18793607,-0.98101753,0.028628778,0.9814788,0.18941924,0.99844676,-0.037138846,0.041530497,0.92021203,0.053967863,-0.38768196,-0.045867622,0.9984932,0.030124202,0.38872352,-0.009938603,0.9213008,10.107285,-0.3517456,0.13400269,9.791418,-0.36420766,0.40727505,-0.085006714,-0.08558655,-0.008132935,-41.758728,39.118958,5.4595947,0,0.0,0.0,0.0,0.0
0.091308594,0.046292283,0.17607027,-0.9832885,0.02923857,0.9836832,0.17751747,0.99849993,-0.03696764,0.040388897,0.90172577,0.05931207,-0.42822033,-0.048840355,0.9981787,0.035410363,0.42954066,-0.011016005,0.9029803,10.033112,-0.2859497,0.10647583,9.79194,-0.3625287,0.39607978,-0.087753296,-0.10055542,-0.013931274,-42.23938,38.578796,4.9194336,0,0.0,0.0,0.0,0.0
0.099609375,0.045100283,0.17480111,-0.98357034,0.029154342,0.9839225,0.17620052,0.9985569,-0.036622036,0.03927897,0.88227606,0.063965626,-0.4663661,-0.05090707,0.9978794,0.04056018,0.4679716,-0.012043945,0.88366145,9.909882,-0.15553284,0.18066406,9.792499,-0.3591395,0.3851951,-0.07463074,-0.09460449,-0.0041656494,-42.23938,38.578796,4.9194336,0,0.0,0.0,0.0,0.0
0.107910156,0.043559253,0.1616008,-0.98589444,0.029609194,0.98618877,0.16295725,0.998612,-0.036289833,0.038172774,0.8722441,0.06619651,-0.4845701,-0.051760748,0.9977279,0.04312707,0.48632395,-0.012535626,0.87368864,9.909882,-0.15553284,0.18066406,9.793038,-0.3558817,0.37434706,-0.05935669,-0.09138489,-0.007217407,-42.658997,38.578796,4.4387817,0,0.0,0.0,0.0,0.0
0.116210937,0.042446896,0.16039896,-0.9861392,0.029593445,0.98639387,0.16171418,0.9986603,-0.03604752,0.037122596,0.8620481,0.068115,-0.50222844,-0.05228523,0.9975926,0.04555425,0.5041223,-0.013010825,0.8635343,9.876373,-0.2141571,0.15672302,9.793513,-0.35350543,0.36404833,-0.043624878,-0.0753479,-0.010574341,-42.658997,38.578796,4.4387817,0,0.0,0.0,0.0,0.0
0.124511719,0.041427292,0.15929705,-0.98636115,0.029578017,0.98658043,0.16057473,0.9987036,-0.03582678,0.03615966,0.8412221,0.07178865,-0.5359028,-0.05304033,0.9973227,0.050340753,0.53808194,-0.01392329,0.8427776,9.896713,-0.24885559,0.098098755,9.793937,-0.3513407,0.35460514,-0.03263855,-0.051071167,-0.010421753,-42.658997,38.578796,4.4387817,0,0.0,0.0,0.0,0.0
0.1328125,0.040314447,0.14931756,-0.9879672,0.029893382,0.98814815,0.15056473,0.9987398,-0.03560361,0.035373036,0.8199566,0.07527161,-0.5674552,-0.053447254,0.9970534,0.05502704,0.56992507,-0.014790864,0.82156354,9.896713,-0.24885559,0.098098755,9.7942915,-0.34915215,0.346891,-0.011108398,-0.03274536,-0.015167236,-42.83905,38.15918,4.019165,0,0.0,0.0,0.0,0.0
0.141113281,0.039623115,0.14855647,-0.9881098,0.029833678,0.9882697,0.14977683,0.9987692,-0.035413574,0.034726337,0.80921304,0.07675911,-0.5824794,-0.053380635,0.9969337,0.05721649,0.5850853,-0.0152072115,0.8108292,9.954147,-0.29670715,0.09451294,9.79458,-0.34728855,0.34054902,0.0015716553,-0.0184021,-0.021575928,-42.83905,38.15918,4.019165,0,0.0,0.0,0.0,0.0
0.149414062,0.039443392,0.15756987,-0.9867198,0.029274296,0.9868821,0.158766,0.9987928,-0.035147797,0.034313228,0.78756744,0.079614416,-0.61106384,-0.053049248,0.9966972,0.061485566,0.6139407,-0.016007556,0.78918976,9.943375,-0.27397156,0.15434265,9.794812,-0.34468216,0.3364978,0.007369995,-0.008926392,-0.019592285,-42.599487,38.459778,4.4387817,0,0.0,0.0,0.0,0.0
0.157714844,0.039257325,0.16220373,-0.9859761,0.028846433,0.9861415,0.16337949,0.9988127,-0.034855735,0.034034282,0.7657959,0.08271603,-0.637742,-0.05278659,0.9964321,0.06585291,0.64091367,-0.016765665,0.7674299,9.9015045,-0.2368927,0.14596558,9.795006,-0.34181798,0.33376226,-0.0019378662,0.0115356445,-0.010879517,-42.359924,38.69934,4.6798706,0,0.0,0.0,0.0,0.0
0.166015625,0.039052974,0.16198538,-0.98602,0.028615575,0.98618674,0.16314614,0.9988273,-0.034586877,0.033878222,0.7548982,0.084313706,-0.6503998,-0.052646764,0.99629205,0.06804757,0.6537255,-0.01712754,0.7565379,9.936203,-0.22253418,0.16989136,9.79515,-0.3391814,0.33223188,-0.006210327,0.0115356445,-0.009353638,-42.359924,38.69934,4.6798706,0,0.0,0.0,0.0,0.0
0.174316406,0.03886177,0.16178107,-0.9860612,0.028473921,0.9862267,0.1629304,0.99883884,-0.03440879,0.033719968,0.73315114,0.08740435,-0.6744256,-0.052206345,0.9960135,0.072329365,0.67805886,-0.017819066,0.7347915,9.94577,-0.26679993,0.15672302,9.795263,-0.33743495,0.33067992,-0.01889038,0.010314941,-0.004470825,-42.359924,38.69934,4.6798706,0,0.0,0.0,0.0,0.0
0.182617187,0.03910845,0.17782655,-0.9832844,0.027721161,0.9834654,0.17896184,0.99885035,-0.034256708,0.03353225,0.7115379,0.0903635,-0.69681287,-0.051569678,0.99573743,0.076468945,0.7007527,-0.01847614,0.713165,9.94577,-0.26679993,0.15672302,9.795376,-0.33594355,0.32883906,-0.015075684,-0.01411438,-0.008895874,-41.999817,38.75885,5.3390503,0,0.0,0.0,0.0,0.0
0.190917969,0.038526077,0.17721389,-0.983418,0.02755254,0.983586,0.17832357,0.99887764,-0.03396577,0.03301102,0.7007864,0.092122905,-0.707398,-0.051415563,0.9955703,0.07871596,0.7115159,-0.018791808,0.7024186,9.961319,-0.16989136,0.009567261,9.795644,-0.33309042,0.32372752,-0.022399902,-0.028015137,-0.009048462,-41.999817,38.75885,5.3390503,0,0.0,0.0,0.0,0.0
0.19921875,0.03785929,0.17938082,-0.98305094,0.027277105,0.9832041,0.18045926,0.9989107,-0.033646844,0.032330424,0.6794591,0.095511325,-0.7274702,-0.05094414,0.9952394,0.083085425,0.73194265,-0.019392801,0.68109024,9.942184,-0.1878357,-0.058624268,9.795968,-0.32996282,0.31705317,-0.032485962,-0.041152954,-0.01638794,-41.758728,39.05945,5.519104,0,0.0,0.0,0.0,0.0
0.207519531,0.037183806,0.19036952,-0.9810081,0.026811203,0.98114353,0.19141205,0.9989487,-0.03341943,0.031378612,0.65840584,0.09885119,-0.7461435,-0.05035339,0.9949021,0.08737499,0.75097686,-0.019957356,0.66002685,9.900299,-0.24526978,-0.12083435,9.79634,-0.32773262,0.30771905,-0.05140686,-0.047561646,-0.012252808,-41.33911,39.29901,6.059265,0,0.0,0.0,0.0,0.0
0.215820312,0.036186285,0.18935618,-0.98124135,0.026816864,0.9813468,0.19036548,0.9989852,-0.03320244,0.030433364,0.6479808,0.100693315,-0.7549714,-0.050140146,0.9947119,0.089633845,0.7600045,-0.02022664,0.649603,9.821335,-0.2416687,-0.09211731,9.796698,-0.32560468,0.29844934,-0.048049927,-0.048171997,-0.010116577,-41.33911,39.29901,6.059265,0,0.0,0.0,0.0,0.0
0.224121094,0.035352442,0.18850888,-0.98143494,0.026841745,0.9815154,0.18949121,0.9990144,-0.033042405,0.029639063,0.627385,0.104226,-0.77170265,-0.04955229,0.9943374,0.09400957,0.777131,-0.020740563,0.62899697,9.840485,-0.2632141,-0.0047912598,9.796984,-0.3240353,0.2906599,-0.04347229,-0.030456543,-0.00920105,-41.33911,39.29901,6.059265,0,0.0,0.0,0.0,0.0
0.232421875,0.03472331,0.19040921,-0.9810904,0.026740646,0.98115396,0.19136795,0.9990392,-0.03287993,0.028977256,0.60717046,0.10758345,-0.78725463,-0.04878049,0.99396944,0.09821039,0.7930729,-0.021227784,0.60875684,9.9015045,-0.2715912,0.0143585205,9.797228,-0.32244197,0.28416982,-0.04576111,-0.017471313,-0.016693115,-40.859985,39.59961,6.239319,0,0.0,0.0,0.0,0.0
0.240722656,0.033707574,0.17312348,-0.9843231,0.02720996,0.9843587,0.17406154,0.9990613,-0.03265059,0.028469663,0.5972118,0.10924999,-0.7946084,-0.048364,0.9937826,0.10028485,0.80062413,-0.02146086,0.5987825,9.949356,-0.24885559,0.053833008,9.797444,-0.3201929,0.27919203,-0.041030884,-0.015182495,-0.01852417,-40.979004,39.35852,5.519104,0,0.0,0.0,0.0,0.0
0.249023437,0.033214785,0.17262505,-0.98442745,0.027080042,0.98445386,0.17354336,0.9990813,-0.03242254,0.028023727,0.57764864,0.111790806,-0.80859435,-0.047031727,0.99349034,0.10375446,0.8149295,-0.02190403,0.579146,9.949356,-0.24885559,0.053833008,9.797641,-0.3179565,0.2748189,-0.045455933,-0.009384155,-0.0137786865,-40.979004,39.35852,5.519104,0,0.0,0.0,0.0,0.0
0.257324219,0.032583155,0.16239892,-0.98618704,0.027267603,0.9861992,0.16330184,0.999097,-0.032211848,0.027705254,0.55853593,0.114210315,-0.8215799,-0.04561398,0.9932058,0.10705872,0.82822514,-0.022320619,0.55995077,9.924225,-0.24287415,0.056228638,9.797795,-0.31589034,0.27169576,-0.051727295,0.028945923,-0.012252808,-40.919495,39.538574,5.1589966,0,0.0,0.0,0.0,0.0
0.265625,0.03240425,0.16221842,-0.9862226,0.027109569,0.98623514,0.16311124,0.9991072,-0.03202157,0.02756054,0.54916286,0.1151775,-0.8277405,-0.044768564,0.9930897,0.1084837,0.8345154,-0.022518469,0.5505243,9.976868,-0.25842285,0.052642822,9.7978945,-0.31402436,0.27027658,-0.045303345,0.036117554,-0.008285522,-40.919495,39.538574,5.1589966,0,0.0,0.0,0.0,0.0
0.273925781,0.032411356,0.16222559,-0.98622125,0.026932996,0.98623955,0.16311374,0.99911165,-0.03184863,0.027596137,0.53077686,0.11704664,-0.8393903,-0.04305436,0.99286246,0.11122235,0.84641725,-0.022894835,0.5320278,10.041473,-0.24287415,0.11366272,9.797938,-0.3123284,0.27062565,-0.03477478,0.038101196,-0.0066070557,-40.919495,39.538574,5.1589966,0,0.0,0.0,0.0,0.0
0.282226562,0.03216206,0.15201811,-0.98785424,0.027106622,0.9878693,0.15290296,0.99911505,-0.031695068,0.027651217,0.5217693,0.11795324,-0.8448928,-0.04219024,0.992751,0.112540476,0.85204273,-0.023073932,0.52296346,10.004395,-0.27397156,0.12802124,9.797972,-0.31082243,0.27116582,-0.03477478,0.033828735,-0.006149292,-41.159058,39.118958,4.6798706,0,0.0,0.0,0.0,0.0
0.290527344,0.03193873,0.1438532,-0.9890835,0.027249847,0.98909515,0.14473483,0.99911827,-0.03157502,0.027670467,0.5041468,0.11930561,-0.8553375,-0.04024615,0.9925814,0.11472731,0.8626797,-0.023415366,0.5052083,10.00798,-0.24885559,0.08015442,9.798003,-0.30964518,0.2713546,-0.03630066,0.041152954,2.593994E-4,-41.33911,38.879395,4.319763,0,0.0,0.0,0.0,0.0
0.298828125,0.03183348,0.14374346,-0.98910284,0.027076349,0.98911726,0.14461698,0.99912643,-0.031384956,0.027594997,0.4870381,0.12027956,-0.86505884,-0.03815559,0.9924562,0.11651112,0.87254685,-0.023738522,0.4879533,9.98645,-0.17826843,0.009567261,9.798083,-0.30778128,0.27061448,-0.036453247,0.026351929,-0.0035552979,-41.33911,38.879395,4.319763,0,0.0,0.0,0.0,0.0
0.307128906,0.03164589,0.1435478,-0.98913735,0.026895238,0.9891524,0.14441046,0.9991372,-0.031173076,0.027441852,0.47867003,0.120749705,-0.8696519,-0.037123755,0.9923954,0.11735894,0.87720966,-0.023891464,0.47951266,9.98645,-0.17826843,0.009567261,9.798189,-0.30570346,0.26911265,-0.04133606,0.016113281,-0.010116577,-41.33911,38.879395,4.319763,0,0.0,0.0,0.0,0.0
0.315429687,0.03091543,0.12950343,-0.99109685,0.027148059,0.9910962,0.13035017,0.99915326,-0.03093619,0.027124403,0.46230388,0.12165411,-0.8783367,-0.035088122,0.992278,0.118967265,0.8860271,-0.024179842,0.4630026,9.955338,-0.1986084,-0.022735596,9.7983465,-0.3033804,0.26599953,-0.04194641,-0.016555786,-0.0037078857,-41.63971,38.398743,3.718567,0,0.0,0.0,0.0,0.0
0.323730469,0.030342365,0.12889145,-0.99119437,0.026989343,0.99118376,0.12971626,0.99917513,-0.030687584,0.026596162,0.44644406,0.12196525,-0.8864604,-0.03284467,0.9922332,0.11997677,0.89420855,-0.024447415,0.44698256,9.84288,-0.15194702,-0.021530151,9.798561,-0.3009424,0.26081926,-0.03340149,-0.026031494,-0.0056915283,-41.63971,38.398743,3.718567,0,0.0,0.0,0.0,0.0
0.33203125,0.029673154,0.12180876,-0.99210995,0.027056374,0.9920855,0.12261499,0.99919343,-0.03048127,0.0261426,0.43869,0.122103915,-0.89030427,-0.031745195,0.9922131,0.120438375,0.89807755,-0.024572229,0.43915018,9.7986145,-0.17945862,0.08375549,9.79874,-0.29891914,0.25637135,-0.03340149,-0.023742676,-0.007980347,-41.819763,38.038635,3.4194946,0,0.0,0.0,0.0,0.0
0.340332031,0.029167013,0.11579481,-0.9928448,0.027164545,0.99280876,0.11658862,0.9992054,-0.03037072,0.025811752,0.42354155,0.12209231,-0.89761126,-0.029481364,0.9922087,0.121048465,0.9053968,-0.024806246,0.42384106,9.834503,-0.24765015,0.13639832,9.798858,-0.29783502,0.25312683,-0.034317017,-3.8146973E-4,-0.0052337646,-41.819763,37.799072,3.1799316,0,0.0,0.0,0.0,0.0
0.348632812,0.029027596,0.11564239,-0.99286664,0.027045518,0.99283063,0.116428904,0.9992126,-0.030232247,0.025691884,0.4088725,0.121843055,-0.90442115,-0.027200587,0.9922338,0.12137624,0.9121861,-0.025026614,0.4090113,9.859619,-0.22732544,0.18424988,9.798928,-0.29647705,0.2519513,-0.032943726,0.014892578,-0.007980347,-41.819763,37.799072,3.1799316,0,0.0,0.0,0.0,0.0
0.356933594,0.029070014,0.11568876,-0.99286,0.02686459,0.99283063,0.11647191,0.9992164,-0.030058619,0.025753671,0.40171516,0.12171909,-0.90763944,-0.02609424,0.9922463,0.12151618,0.9153928,-0.025130732,0.40177658,9.859619,-0.22732544,0.18424988,9.798965,-0.29477435,0.25255725,-0.032943726,0.04437256,-0.016998291,-41.819763,37.799072,3.1799316,0,0.0,0.0,0.0,0.0
0.365234375,0.029248374,0.11470391,-0.99296904,0.026592605,0.9929531,0.11548537,0.9992184,-0.029783394,0.02599199,0.3877566,0.12148041,-0.91372174,-0.02395342,0.9922707,0.12175847,0.92145056,-0.025325889,0.38766938,9.991226,-0.18185425,0.20817566,9.7989855,-0.29207534,0.25489435,0.004776001,0.038406372,-0.014389038,-42.118835,37.739563,3.1188965,0,0.0,0.0,0.0,0.0
0.373535156,0.02955704,0.11504438,-0.9929205,0.026270237,0.99292195,0.115826555,0.9992178,-0.029507747,0.02632559,0.3742723,0.12121218,-0.9193628,-0.021892674,0.9922989,0.121915855,0.92706037,-0.025502417,0.37404364,10.096512,-0.20100403,0.28474426,9.79898,-0.28937215,0.25816587,0.024932861,0.023452759,-0.020507813,-42.118835,37.739563,3.1188965,0,0.0,0.0,0.0,0.0
0.381835937,0.03036906,0.14038466,-0.9896311,0.025135372,0.9896675,0.14116114,0.9992227,-0.02916168,0.02652665,0.36770728,0.12108888,-0.9220243,-0.020901712,0.99231195,0.12198402,0.92970663,-0.025582528,0.36741132,10.205383,-0.18185425,0.27038574,9.799027,-0.2859784,0.2601376,0.024932861,0.014587402,-0.028442383,-41.819763,37.799072,4.0786743,0,0.0,0.0,0.0,0.0
0.390136719,0.030763611,0.15146121,-0.98798436,0.02435619,0.9880451,0.15222892,0.9992299,-0.028746646,0.026706817,0.35490122,0.121854015,-0.9269287,-0.019352242,0.9922146,0.12302695,0.9347035,-0.025724268,0.35449633,10.15036,-0.17468262,0.3481598,9.799098,-0.2819083,0.26190442,0.033493042,-0.01335144,-0.039901733,-41.879272,37.85858,4.499817,0,0.0,0.0,0.0,0.0
0.3984375,0.030745145,0.1514412,-0.98798805,0.023855273,0.9880626,0.15219498,0.99924254,-0.028247979,0.026765455,0.34253746,0.12302883,-0.931414,-0.01800881,0.99206656,0.12441739,0.93933153,-0.02584396,0.34203556,10.153946,-0.17228699,0.3397827,9.799222,-0.27701804,0.26247945,0.05319214,0.0019226074,-0.05378723,-41.879272,37.85858,4.499817,0,0.0,0.0,0.0,0.0
0.406738281,0.030725868,0.15142033,-0.9879918,0.023264037,0.98808235,0.1521577,0.999257,-0.027659856,0.02683704,0.33651984,0.12359818,-0.9335298,-0.017354388,0.9919945,0.12508291,0.9415164,-0.02589204,0.3359708,10.153946,-0.17228699,0.3397827,9.799365,-0.27125055,0.26318148,0.06907654,-0.0037384033,-0.060058594,-41.879272,37.85858,4.499817,0,0.0,0.0,0.0,0.0
0.415039062,0.0307919,0.16018915,-0.98660594,0.022331912,0.98671734,0.16090421,0.9992763,-0.026987344,0.026805567,0.32480603,0.124701984,-0.93752354,-0.016084114,0.9918545,0.1263563,0.9456439,-0.02596205,0.32416603,10.085754,-0.14955139,0.2596283,9.799553,-0.26465544,0.26287282,0.084198,-0.015945435,-0.054870605,-41.519165,38.279724,4.9194336,0,0.0,0.0,0.0,0.0
0.423339844,0.030426877,0.15980275,-0.98668,0.021706147,0.9867986,0.16049133,0.99930125,-0.026300268,0.026556494,0.3135018,0.12611066,-0.94117624,-0.014971832,0.9916753,0.12789011,0.94946957,-0.02600265,0.3127801,10.010376,-0.11843872,0.15553284,9.799798,-0.25791752,0.26043025,0.072280884,-0.028015137,-0.043411255,-41.519165,38.279724,4.9194336,0,0.0,0.0,0.0,0.0
0.431640625,0.030258832,0.17263599,-0.9845209,0.020784378,0.9846503,0.17329746,0.999326,-0.025706427,0.026206229,0.30799744,0.12678608,-0.94290125,-0.0144297555,0.99158907,0.12861936,0.9512778,-0.0260086,0.3072364,9.939789,-0.059814453,0.10169983,9.80004,-0.25209394,0.25699532,0.06448364,-0.037643433,-0.034561157,-41.218567,38.69934,5.519104,0,0.0,0.0,0.0,0.0
0.439941406,0.029611282,0.17268644,-0.98453164,0.020349607,0.9846552,0.17332014,0.99935424,-0.025167065,0.025642803,0.29726642,0.12860756,-0.94609344,-0.013528714,0.99135476,0.1305094,0.95469874,-0.025996635,0.29643637,9.896713,-0.07537842,0.06341553,9.800318,-0.2468046,0.25147,0.06616211,-0.034576416,-0.017150879,-40.979004,39.179993,5.6396484,0,0.0,0.0,0.0,0.0
0.448242187,0.028986622,0.17205177,-0.9846614,0.020048216,0.9847771,0.17266217,0.9993787,-0.024745595,0.025096027,0.29203707,0.12949193,-0.9476002,-0.013085902,0.9912401,0.13142252,0.9563175,-0.025980044,0.29117337,9.896713,-0.07537842,0.06341553,9.800557,-0.24267139,0.24610797,0.056549072,-0.025268555,-0.008895874,-40.979004,39.179993,5.6396484,0,0.0,0.0,0.0,0.0
0.456542969,0.028571205,0.17162964,-0.9847472,0.019829804,0.98485816,0.17222431,0.999395,-0.024448,0.024735203,0.28184548,0.1311823,-0.9504495,-0.012204859,0.99101907,0.13316254,0.9593821,-0.02593116,0.2809153,9.929016,-0.08973694,0.1040802,9.800717,-0.239753,0.24256948,0.046020508,0.009552002,0.003616333,-40.979004,39.179993,5.6396484,0,0.0,0.0,0.0,0.0
0.46484375,0.028358344,0.17073813,-0.9849082,0.01965174,0.9850189,0.17132315,0.99940467,-0.024213605,0.0245782,0.2720156,0.13278858,-0.9530869,-0.011329595,0.99080664,0.13481036,0.96222615,-0.025872428,0.2710193,9.94577,-0.15194702,0.14596558,9.800812,-0.23745435,0.24102981,0.035324097,0.0393219,-8.087158E-4,-40.73944,39.29901,5.6396484,0,0.0,0.0,0.0,0.0
0.473144531,0.028480079,0.17086075,-0.9848835,0.019513236,0.9850003,0.17144528,0.99940383,-0.024101041,0.024718843,0.26723495,0.13354963,-0.95433223,-0.010892451,0.9907052,0.13558955,0.9635698,-0.025839252,0.26620573,9.94577,-0.15194702,0.14596558,9.800804,-0.23635048,0.24240905,0.03364563,0.054748535,0.008361816,-40.73944,39.29901,5.6396484,0,0.0,0.0,0.0,0.0
0.481445312,0.028597854,0.16325703,-0.9861691,0.019604836,0.9862912,0.16384576,0.9993987,-0.024019316,0.02500518,0.25794688,0.13503107,-0.9566766,-0.01002907,0.9905062,0.13710187,0.9661071,-0.025770422,0.2568522,10.010376,-0.122039795,0.12322998,9.800754,-0.23554903,0.24521706,0.04524231,0.05657959,0.0082092285,-40.919495,39.05945,5.279541,0,0.0,0.0,0.0,0.0
0.489746094,0.028782545,0.15910217,-0.9868424,0.019575996,0.98697233,0.15969408,0.99939394,-0.023914829,0.025292993,0.24902001,0.13615103,-0.9588805,-0.009101767,0.99035466,0.1382563,0.96845555,-0.02570108,0.24785735,10.047455,-0.093322754,0.19979858,9.800707,-0.23452435,0.24803953,0.035324097,0.054138184,0.012786865,-40.73944,38.99994,5.0994873,0,0.0,0.0,0.0,0.0
0.498046875,0.029137075,0.15946354,-0.9867737,0.019380532,0.98691714,0.16005898,0.9993875,-0.02378785,0.025665391,0.24468902,0.13661079,-0.9599295,-0.008626718,0.99029225,0.13873284,0.9695632,-0.025665358,0.24349213,10.047455,-0.093322754,0.19979858,9.800644,-0.23327914,0.25169152,0.044021606,0.047576904,0.012023926,-40.73944,38.99994,5.0994873,0,0.0,0.0,0.0,0.0
0.506347656,0.029306106,0.15963581,-0.9867409,0.019225584,0.9868923,0.1602313,0.9993856,-0.023666427,0.02585288,0.23628592,0.1375172,-0.96190333,-0.0077035353,0.9901687,0.1396658,0.971653,-0.02559101,0.2350223,10.1276245,-0.07417297,0.122039795,9.800625,-0.23208837,0.25353014,0.041427612,0.020706177,0.007904053,-40.73944,38.99994,5.0994873,0,0.0,0.0,0.0,0.0
0.514648437,0.029024838,0.14789979,-0.9885763,0.019401612,0.9887233,0.14849141,0.99939036,-0.023489915,0.025828041,0.22820675,0.13839445,-0.96372634,-0.006809389,0.99004847,0.14056194,0.9735889,-0.025514798,0.22687814,10.067795,-0.12562561,0.15194702,9.800672,-0.23035738,0.25328657,0.04219055,-0.014877319,0.0023956299,-40.79895,38.879395,4.6188354,0,0.0,0.0,0.0,0.0
0.522949219,0.028806861,0.1476758,-0.9886163,0.019312186,0.9887599,0.14825998,0.9993984,-0.023363242,0.02563112,0.22428337,0.13858469,-0.96461976,-0.0063205063,0.9900229,0.14076473,0.97450346,-0.0254743,0.2229216,10.067795,-0.12562561,0.15194702,9.800751,-0.22911514,0.25135544,0.03944397,-0.032287598,0.0030059814,-40.79895,38.879395,4.6188354,0,0.0,0.0,0.0,0.0
0.53125,0.028251665,0.14443277,-0.98911124,0.019272141,0.98924357,0.14500256,0.99941504,-0.023158854,0.025164245,0.21665224,0.1389449,-0.96631056,-0.005369285,0.98997456,0.14114368,0.9762341,-0.025390703,0.21522626,10.023529,-0.07298279,0.10169983,9.800914,-0.22711079,0.24677695,0.034713745,-0.044052124,0.0011749268,-40.919495,38.819885,4.499817,0,0.0,0.0,0.0,0.0
0.539550781,0.02746567,0.13362005,-0.990652,0.019439584,0.99076706,0.13417453,0.9994337,-0.022943053,0.024614561,0.209293,0.13916229,-0.9678999,-0.004428517,0.9899463,0.14137445,0.9778429,-0.025302323,0.20780511,9.996017,-0.0993042,0.11605835,9.801097,-0.2249945,0.2413864,0.019592285,-0.031677246,-0.0052337646,-41.159058,38.69934,4.0786743,0,0.0,0.0,0.0,0.0
0.547851562,0.026958615,0.13308975,-0.9907372,0.019306041,0.99084324,0.13362934,0.99945015,-0.022729678,0.024142329,0.20570871,0.1390515,-0.9686839,-0.003928721,0.98996305,0.14127174,0.9786054,-0.02525514,0.20419033,9.996017,-0.0993042,0.11605835,9.801258,-0.222902,0.23675537,0.006149292,-0.022979736,-0.0067596436,-41.159058,38.69934,4.0786743,0,0.0,0.0,0.0,0.0
0.556152344,0.026584221,0.13269818,-0.99079996,0.019208249,0.99089944,0.13322689,0.999462,-0.022573262,0.023793386,0.19872618,0.13881552,-0.9701743,-0.0029626023,0.9899987,0.14104521,0.98005056,-0.025155134,0.19714992,9.845276,-0.11605835,0.11843872,9.801374,-0.22136809,0.23333342,-0.01322937,-0.010604858,0.01171875,-41.159058,38.69934,4.0786743,0,0.0,0.0,0.0,0.0
0.564453125,0.025669673,0.10331221,-0.9943177,0.019895501,0.9943956,0.103833936,0.99947244,-0.022447832,0.023470363,0.19199595,0.13857341,-0.97156316,-0.002039101,0.99003524,0.14080513,0.9813936,-0.025052898,0.19036533,9.899109,-0.08973694,0.07417297,9.8014765,-0.22013803,0.23016563,-0.021026611,-0.0077056885,0.007598877,-41.93878,37.55951,2.8198242,0,0.0,0.0,0.0,0.0
0.572753906,0.025376944,0.10298843,-0.9943588,0.019828854,0.99443156,0.10350202,0.99948126,-0.022343561,0.023193492,0.18872209,0.1378698,-0.97230446,-0.0014821813,0.9901348,0.14011042,0.98202944,-0.025000798,0.18706465,9.899109,-0.08973694,0.07417297,9.801563,-0.21911548,0.22745046,-0.027282715,-2.2888184E-4,0.010498047,-41.93878,37.55951,2.8198242,0,0.0,0.0,0.0,0.0
0.581054687,0.024943199,0.091229334,-0.9955175,0.020009995,0.9955822,0.09173663,0.9994886,-0.022208503,0.023007508,0.1823503,0.13649157,-0.9737137,-4.1512772E-4,0.9903284,0.1387428,0.9832336,-0.024895575,0.18064332,9.914658,-0.061019897,0.100494385,9.801635,-0.21779102,0.22562659,-0.025604248,0.020233154,0.016143799,-42.478943,37.139893,2.3391724,0,0.0,0.0,0.0,0.0
0.589355469,0.0248705,0.091146775,-0.99552685,0.0199045,0.9955923,0.091650024,0.99949247,-0.022094846,0.022946646,0.17925192,0.13558885,-0.9744149,1.3621151E-4,0.99045366,0.1378457,0.98380315,-0.024841834,0.17752227,9.914658,-0.061019897,0.100494385,9.801673,-0.21667643,0.22502974,-0.012924194,0.028335571,0.011566162,-42.478943,37.139893,2.3391724,0,0.0,0.0,0.0,0.0
0.59765625,0.024805207,0.08511718,-0.9960621,0.020018836,0.99612665,0.08562123,0.9994919,-0.022063857,0.023005182,0.17322911,0.13383368,-0.975746,0.0011862665,0.9906951,0.13609472,0.98488086,-0.02473306,0.17145847,9.951752,-0.112457275,0.10647583,9.801667,-0.21637253,0.22560377,-0.01675415,0.032302856,0.015075684,-42.718506,37.01935,2.0996094,0,0.0,0.0,0.0,0.0
0.605957031,0.025110802,0.08546769,-0.99602437,0.020139938,0.99609303,0.08598133,0.99948174,-0.022218933,0.023291383,0.16743729,0.13191,-0.9770181,0.00221299,0.99095565,0.13417101,0.9858802,-0.024627361,0.16563101,10.07019,-0.24645996,0.23928833,9.801568,-0.2178933,0.22841045,-0.0152282715,0.036727905,0.016601563,-42.718506,37.01935,2.0996094,0,0.0,0.0,0.0,0.0
0.614257812,0.025242586,0.0762113,-0.99677205,0.02050965,0.9968405,0.07673592,0.99947095,-0.022380462,0.023599766,0.16463062,0.1309837,-0.97761965,0.0027039163,0.9910798,0.13324247,0.9863516,-0.024579193,0.16280791,10.07019,-0.24645996,0.23928833,9.801462,-0.21947736,0.23143466,-0.019348145,0.039794922,0.016906738,-42.89856,36.95984,1.739502,0,0.0,0.0,0.0,0.0
0.622558594,0.025547437,0.0765635,-0.99673736,0.020622618,0.99681026,0.07709768,0.9994609,-0.022524983,0.023887007,0.1591901,0.1288213,-0.9788072,0.0037045442,0.9913653,0.13107657,0.987241,-0.024492126,0.15733832,10.037888,-0.24047852,0.24287415,9.801363,-0.22089463,0.23425151,-0.0043792725,0.023605347,0.010345459,-42.89856,36.95984,1.739502,0,0.0,0.0,0.0,0.0
0.630859375,0.025630295,0.0715189,-0.9971099,0.020838175,0.99718255,0.07205974,0.99945426,-0.022624863,0.024067761,0.153969,0.12675785,-0.97991127,0.004644925,0.9916332,0.129004,0.98806477,-0.024414228,0.152092,10.071396,-0.18185425,0.24885559,9.801298,-0.22187412,0.23602411,-0.008956909,0.014587402,0.007904053,-43.43872,36.479187,1.499939,0,0.0,0.0,0.0,0.0
0.639160156,0.025760964,0.0716739,-0.9970954,0.0208303,0.9971714,0.07221754,0.9994511,-0.022630189,0.024195107,0.15143709,0.12565638,-0.9804475,0.0051099528,0.99177426,0.1278973,0.9884537,-0.02437844,0.14954932,10.071396,-0.18185425,0.24885559,9.801268,-0.22192635,0.23727295,-0.006515503,0.0071105957,0.0068359375,-43.43872,36.479187,1.499939,0,0.0,0.0,0.0,0.0
0.647460937,0.025432734,0.056795172,-0.99806184,0.02114761,0.99813086,0.05733799,0.9994529,-0.022564886,0.024184115,0.14652376,0.12352476,-0.9814644,0.0059947856,0.9920437,0.12575121,0.98918897,-0.024309209,0.14461747,10.0785675,-0.1603241,0.21774292,9.801285,-0.22128595,0.23716515,-0.014465332,-0.015640259,-0.0043182373,-43.79883,36.479187,0.95977783,0,0.0,0.0,0.0,0.0
0.655761719,0.025247682,0.05657344,-0.9980792,0.021030756,0.9981464,0.05710925,0.99946,-0.022432234,0.024011098,0.14179383,0.12089096,-0.9824866,0.0069057327,0.9923698,0.12310369,0.9898721,-0.024240134,0.13987708,10.074982,-0.1758728,0.23928833,9.801354,-0.21998508,0.23546845,-0.013702393,-0.03717041,-0.016998291,-43.79883,36.479187,0.95977783,0,0.0,0.0,0.0,0.0
0.6640625,0.0247643,0.048013937,-0.9985396,0.02109367,0.9985985,0.048539903,0.9994708,-0.022264922,0.023716802,0.13949332,0.11960872,-0.98297274,0.007336896,0.992526,0.12181235,0.9901959,-0.024203977,0.1375732,10.074982,-0.1758728,0.23928833,9.80146,-0.2183443,0.23258238,-0.0057525635,-0.049545288,-0.01210022,-43.79883,36.299133,0.6591797,0,0.0,0.0,0.0,0.0
0.672363281,0.024376482,0.047546573,-0.9985715,0.021030284,0.9986229,0.0480624,0.9994816,-0.022171836,0.023342995,0.1372297,0.11818173,-0.9834638,0.007774567,0.9926979,0.12037621,0.99050874,-0.024165196,0.13530883,9.999603,-0.21296692,0.24645996,9.801567,-0.21743146,0.2289166,-0.0028533936,-0.054595947,-0.0043182373,-43.79883,36.299133,0.6591797,0,0.0,0.0,0.0,0.0
0.680664062,0.02372229,0.044899713,-0.9987098,0.021129943,0.99874526,0.045403205,0.99949527,-0.022179749,0.022743795,0.13067506,0.11404099,-0.9848445,0.00899981,0.993185,0.11620094,0.9913844,-0.024047974,0.12875815,9.982849,-0.23808289,0.08375549,9.801701,-0.21750903,0.22304045,0.0056915283,-0.02267456,0.0066833496,-43.79883,36.479187,0.5996704,0,0.0,0.0,0.0,0.0
0.688964844,0.023250194,0.0443335,-0.9987462,0.02120967,0.99876946,0.04482828,0.9995046,-0.022225343,0.022281285,0.12856175,0.112662494,-0.9852812,0.009388704,0.9933432,0.11480941,0.9916571,-0.024010612,0.12664819,9.982849,-0.23808289,0.08375549,9.801793,-0.21795619,0.21850479,-8.69751E-4,-0.016113281,0.0016326904,-43.79883,36.479187,0.5996704,0,0.0,0.0,0.0,0.0
0.697265625,0.023098828,0.055958185,-0.9981659,0.021005463,0.99818474,0.056445334,0.9995125,-0.022270756,0.02188147,0.12443921,0.10996474,-0.986115,0.010133045,0.99364716,0.11208339,0.9921755,-0.023939915,0.12253439,9.909882,-0.21057129,0.03111267,9.801869,-0.2184015,0.21458393,-0.0084991455,-0.011062622,0.017059326,-43.499756,37.1994,1.0787964,0,0.0,0.0,0.0,0.0
0.705566406,0.022712385,0.05550728,-0.9981999,0.021116894,0.99820805,0.055988215,0.999519,-0.022350509,0.021499546,0.12046457,0.10783127,-0.9868438,0.010774629,0.99388254,0.109915644,0.99265915,-0.023873817,0.11856578,9.866806,-0.19740295,0.015548706,9.801933,-0.21918362,0.21083853,-0.016906738,-0.0066375732,0.01675415,-43.499756,37.1994,1.0787964,0,0.0,0.0,0.0,0.0
0.713867187,0.022421218,0.057971254,-0.9980665,0.021198755,0.9980654,0.058447417,0.9995239,-0.022468228,0.021148922,0.11852771,0.10678726,-0.98719174,0.0110830935,0.9939959,0.10885398,0.99288887,-0.023843354,0.116632536,9.866806,-0.19740295,0.015548706,9.801981,-0.22033806,0.20740008,-0.023162842,-0.0023651123,0.0231781,-43.258667,37.379456,1.1993408,0,0.0,0.0,0.0,0.0
0.722167969,0.022091307,0.05759039,-0.99809587,0.02138219,0.99808395,0.058062963,0.9995273,-0.022624161,0.020817569,0.1147546,0.104858324,-0.9878442,0.011664768,0.9942026,0.10688832,0.99332535,-0.0237889,0.11286618,9.840485,-0.2033844,0.0059814453,9.802014,-0.22186723,0.20415062,-0.025146484,-0.008926392,0.023483276,-43.258667,37.379456,1.1993408,0,0.0,0.0,0.0,0.0
0.73046875,0.021759996,0.04346033,-0.9988181,0.02185721,0.99879515,0.04393551,0.99952424,-0.022787414,0.020783862,0.11111504,0.10299036,-0.98845655,0.012218628,0.99439895,0.10498304,0.99373245,-0.023742778,0.10923428,10.003189,-0.19740295,0.2141571,9.801985,-0.2234682,0.20382006,-0.040725708,0.00390625,0.027297974,-43.67981,37.01935,0.6591797,0,0.0,0.0,0.0,0.0
0.738769531,0.02177761,0.04348109,-0.9988168,0.022020044,0.99879044,0.043960053,0.99952024,-0.022951337,0.020793814,0.10934457,0.10180268,-0.98877704,0.012516553,0.99452174,0.103778295,0.9939251,-0.023723671,0.107471325,10.003189,-0.19740295,0.2141571,9.801946,-0.22507572,0.20391767,-0.03767395,0.009399414,0.01965332,-43.67981,37.01935,0.6591797,0,0.0,0.0,0.0,0.0
0.747070312,0.021746624,0.042048242,-0.9988789,0.02214942,0.9988497,0.04252923,0.99951816,-0.023049453,0.020790264,0.10590784,0.09949849,-0.9893854,0.0130887665,0.99475557,0.10143962,0.9942898,-0.023693085,0.1040501,10.061813,-0.16989136,0.19023132,9.801925,-0.22603793,0.20388284,-0.023925781,-0.0063323975,0.010040283,-43.919373,36.95984,0.5996704,0,0.0,0.0,0.0,0.0
0.755371094,0.021676343,0.041964807,-0.99888396,0.022162503,0.998853,0.042444445,0.99951935,-0.023057807,0.020721436,0.10260355,0.09722852,-0.9899592,0.013632911,0.9949806,0.09913468,0.9946289,-0.023667594,0.10076304,10.085754,-0.16390991,0.19262695,9.801936,-0.22611983,0.20320785,-0.025909424,-0.020080566,8.69751E-4,-43.919373,36.95984,0.5996704,0,0.0,0.0,0.0,0.0
0.763671875,0.02138262,0.036411975,-0.9991081,0.02221944,0.99907243,0.03688621,0.9995245,-0.022988345,0.020553734,0.10099834,0.096125625,-0.99023193,0.013891854,0.9950881,0.09801393,0.9947896,-0.0236554,0.09916688,10.085754,-0.16390991,0.19262695,9.801987,-0.22543867,0.20156328,-0.034622192,-0.02999878,-0.00340271,-43.73932,37.1994,0.4196167,0,0.0,0.0,0.0,0.0
0.771972656,0.021228127,0.036230434,-0.9991179,0.022315444,0.9990769,0.036703084,0.99952555,-0.0230749,0.020400034,0.097871624,0.09376615,-0.9907719,0.014403532,0.9953138,0.09561882,0.99509484,-0.023628986,0.09606242,10.051056,-0.28953552,0.2596283,9.801997,-0.22628748,0.200056,-0.043624878,-0.0284729,0.005004883,-43.73932,37.1994,0.4196167,0,0.0,0.0,0.0,0.0
0.780273437,0.021036286,0.03651855,-0.99911153,0.022391401,0.9990648,0.036988292,0.99952793,-0.023149604,0.020198913,0.09486022,0.09149243,-0.9912773,0.014885571,0.9955259,0.093309045,0.99537927,-0.023607045,0.09307388,9.993622,-0.32661438,0.21655273,9.802021,-0.22702007,0.19808367,-0.04698181,-5.340576E-4,0.017059326,-43.919373,36.779785,0.4196167,0,0.0,0.0,0.0,0.0
0.788574219,0.020966977,0.03643584,-0.99911606,0.022534577,0.9990647,0.036906864,0.9995262,-0.023288481,0.020126298,0.09339474,0.09039513,-0.99151707,0.015115725,0.99562633,0.09219357,0.99551445,-0.023597896,0.09161989,9.873978,-0.25842285,0.23210144,9.802003,-0.22838198,0.19737154,-0.03614807,0.0101623535,0.017822266,-43.919373,36.779785,0.4196167,0,0.0,0.0,0.0,0.0
0.796875,0.020974234,0.036795903,-0.99910265,0.02265674,0.99904835,0.037269536,0.9995233,-0.02341811,0.0201206,0.09054728,0.08826236,-0.9919732,0.015559043,0.99581796,0.09002467,0.9957706,-0.023585645,0.088795334,9.86441,-0.21655273,0.1603241,9.801975,-0.22965321,0.1973157,-0.022857666,0.018859863,0.017211914,-44.21997,36.59973,0.4196167,0,0.0,0.0,0.0,0.0
0.805175781,0.020988617,0.036813274,-0.99910176,0.022873743,0.99904263,0.037291616,0.99951804,-0.023635894,0.020126466,0.08781077,0.08622787,-0.9923981,0.015977139,0.99599636,0.08795422,0.99600905,-0.023579013,0.08608154,9.873978,-0.27876282,0.10887146,9.801924,-0.23178895,0.19737321,-0.030181885,0.02696228,0.017211914,-44.21997,36.59973,0.4196167,0,0.0,0.0,0.0,0.0
0.813476562,0.021024773,0.035673764,-0.9991422,0.023105245,0.99907887,0.0361577,0.9995119,-0.023845637,0.020181155,0.0864833,0.08524126,-0.9925999,0.016180163,0.9960813,0.086949974,0.9961219,-0.02358015,0.08476518,9.873978,-0.27876282,0.10887146,9.801864,-0.23384583,0.19790953,-0.03843689,0.027420044,0.018127441,-44.039917,35.998535,0.35858154,0,0.0,0.0,0.0,0.0
0.821777344,0.021127194,0.035799,-0.9991357,0.02327821,0.99907017,0.03628888,0.99950576,-0.024024772,0.02027421,0.08390802,0.08328158,-0.9929873,0.016578449,0.99624676,0.08495585,0.9963356,-0.023590665,0.08221242,9.9218445,-0.25723267,0.0993042,9.801803,-0.23560251,0.19882208,-0.023620605,0.031082153,0.016448975,-44.039917,35.998535,0.35858154,0,0.0,0.0,0.0,0.0
0.830078125,0.02124596,0.035967644,-0.9991271,0.023393838,0.9990611,0.036462728,0.9995005,-0.024148103,0.020384591,0.080238655,0.08049336,-0.9935204,0.017138299,0.99647534,0.0821169,0.99662834,-0.023616197,0.07857633,9.94696,-0.23808289,0.11843872,9.801752,-0.236812,0.19990455,-0.018737793,-0.0020599365,0.008361816,-43.97888,35.939026,0.35858154,0,0.0,0.0,0.0,0.0
0.838378906,0.021249099,0.03597148,-0.99912685,0.023477508,0.9990589,0.036468346,0.9994985,-0.02423193,0.020384584,0.080238655,0.08049336,-0.9935204,0.017138299,0.99647534,0.0821169,0.99662834,-0.023616197,0.07857633,9.94696,-0.23808289,0.11843872,9.801732,-0.23763405,0.19990449,-0.018737793,-0.0020599365,0.008361816,-43.97888,35.939026,0.35858154,0,0.0,0.0,0.0,0.0
0.846679687,0.02105494,0.027548105,-0.9993987,0.023712292,0.9993254,0.028045643,0.9994971,-0.024288535,0.020387506,0.07791645,0.07873272,-0.9938462,0.017489705,0.9966154,0.08032327,0.9968065,-0.02364058,0.07627573,9.948166,-0.22970581,0.19502258,9.801718,-0.23818915,0.19993313,-0.009109497,-0.011672974,-8.087158E-4,-44.039917,35.81848,0.059509277,0,0.0,0.0,0.0,0.0
0.854980469,0.021108363,0.027613787,-0.9993958,0.02374142,0.9993228,0.028113214,0.99949527,-0.024320498,0.020438477,0.075679265,0.07670883,-0.9941773,0.017846925,0.99677265,0.07826764,0.9969725,-0.023666244,0.074066,10.045074,-0.2416687,0.2859497,9.801701,-0.23850262,0.200433,0.0026397705,-0.014572144,-0.004928589,-44.039917,35.81848,0.059509277,0,0.0,0.0,0.0,0.0
0.86328125,0.021329965,0.037410386,-0.9990724,0.02350823,0.99900466,0.037909746,0.99949604,-0.024295034,0.02042928,0.07459471,0.075728334,-0.9943344,0.018017372,0.99684733,0.07727137,0.9970512,-0.02367933,0.072995104,10.045074,-0.2416687,0.2859497,9.801708,-0.23825291,0.2003428,0.012420654,-0.023895264,-0.013320923,-43.79883,36.17859,0.4196167,0,0.0,0.0,0.0,0.0
0.871582031,0.021214606,0.037270818,-0.99908006,0.02350529,0.99901015,0.037767325,0.9994986,-0.02428488,0.02031754,0.07147729,0.07347745,-0.99473214,0.018453946,0.9970149,0.074972086,0.9972715,-0.023715535,0.06990796,10.040283,-0.3026886,0.25483704,9.801733,-0.23815332,0.199247,0.039596558,-0.03060913,-0.019744873,-43.79883,36.17859,0.4196167,0,0.0,0.0,0.0,0.0
0.879882812,0.02066046,0.026553262,-0.9994338,0.02370678,0.9993531,0.027041188,0.9995054,-0.024252044,0.020017605,0.0704766,0.0727541,-0.9948568,0.018590868,0.9970677,0.07423278,0.9973402,-0.023726922,0.06891737,9.98645,-0.33021545,0.15672302,9.8018,-0.23783131,0.19630566,0.039596558,-0.008621216,-0.015609741,-43.618774,36.17859,0.059509277,0,0.0,0.0,0.0,0.0
0.888183594,0.020433296,0.026279401,-0.99944586,0.023688924,0.9993612,0.026761485,0.9995105,-0.024222618,0.01979771,0.06948574,0.07183128,-0.99499345,0.018738322,0.9971343,0.07329442,0.99740696,-0.023737425,0.06794062,9.98645,-0.33021545,0.15672302,9.80185,-0.23754275,0.19414923,0.036849976,0.0075683594,-0.008895874,-43.618774,36.17859,0.059509277,0,0.0,0.0,0.0,0.0
0.896484375,0.020214818,0.024651503,-0.99949163,0.023654629,0.99940425,0.025127765,0.9995158,-0.02415056,0.019619657,0.06850987,0.07092138,-0.9951264,0.01888116,0.99719924,0.07236898,0.9974718,-0.02374713,0.06697891,9.888336,-0.2536316,0.049057007,9.801902,-0.23683609,0.19240311,0.03883362,0.020843506,-0.0027923584,-43.67981,35.81848,0.0,0,0.0,0.0,0.0,0.0
0.904785156,0.020133246,0.024552027,-0.99949586,0.023652602,0.99940693,0.025026286,0.99951744,-0.024144536,0.019540586,0.06660709,0.0690913,-0.9953843,0.019155193,0.9973272,0.07050796,0.99759537,-0.023763107,0.06510562,9.840485,-0.24645996,0.027511597,9.801918,-0.23677702,0.19162768,0.024169922,0.020706177,0.0030059814,-43.67981,35.81848,0.0,0,0.0,0.0,0.0,0.0
0.913085937,0.019914899,0.020861745,-0.99958396,0.02379516,0.9994892,0.021333842,0.9995185,-0.024210123,0.019408317,0.06477556,0.06732956,-0.99562585,0.019412026,0.9974474,0.0687157,0.99771106,-0.023778213,0.06330321,9.828522,-0.24645996,-0.010772705,9.801928,-0.2374202,0.19033056,-0.0043792725,0.013366699,0.013702393,-43.559265,35.879517,-0.119018555,0,0.0,0.0,0.0,0.0
0.921386719,0.019691503,0.0205905,-0.9995941,0.02387929,0.999493,0.021058828,0.99952084,-0.024284275,0.01918983,0.06388288,0.0664013,-0.9957459,0.019540474,0.9975094,0.06777254,0.9977661,-0.02378685,0.062426258,9.854843,-0.21655273,-0.057434082,9.801951,-0.2381474,0.18818796,-0.0043792725,0.018707275,0.0152282715,-43.559265,35.879517,-0.119018555,0,0.0,0.0,0.0,0.0
0.9296875,0.019435612,0.020279799,-0.9996054,0.023998465,0.9994968,0.020744205,0.9995231,-0.02439217,0.018939147,0.062141303,0.06458918,-0.99597526,0.019789154,0.9976279,0.06593105,0.99787116,-0.02380655,0.060715735,9.951752,-0.22612,-0.053833008,9.801973,-0.23920548,0.1857296,-0.033859253,0.0017547607,0.0231781,-43.559265,35.879517,-0.119018555,0,0.0,0.0,0.0,0.0
0.937988281,0.018855378,0.009414558,-0.9997779,0.024381196,0.99965405,0.00987321,0.99952495,-0.024561945,0.018619314,0.060457997,0.06283635,-0.99619097,0.020027678,0.9977393,0.06414947,0.9979698,-0.023829741,0.059062857,9.951752,-0.22612,-0.053833008,9.801991,-0.24087042,0.1825931,-0.061340332,-0.0035858154,0.025161743,-43.319702,35.879517,-0.47912598,0,0.0,0.0,0.0,0.0
0.946289062,0.01843637,0.007385732,-0.99980277,0.024616929,0.9996662,0.00783866,0.9995269,-0.024756588,0.018248402,0.05963067,0.061769146,-0.99630755,0.020158,0.9978056,0.06306851,0.99801695,-0.023844386,0.058254674,9.993622,-0.24885559,0.07417297,9.8020115,-0.24277921,0.1789557,-0.06668091,-0.007247925,0.024856567,-43.559265,35.81848,-0.53863525,0,0.0,0.0,0.0,0.0
0.954589844,0.018444773,0.0073959553,-0.99980253,0.024831051,0.9996608,0.007853,0.99952143,-0.024970993,0.018254867,0.058008835,0.059617933,-0.99653435,0.020419095,0.9979356,0.060890373,0.9981072,-0.02388051,0.05667173,9.992432,-0.23928833,0.2033844,9.801957,-0.2448818,0.1790191,-0.06210327,0.0063476563,0.033096313,-43.559265,35.81848,-0.53863525,0,0.0,0.0,0.0,0.0
0.962890625,0.018224929,-0.0028321652,-0.99982995,0.02522916,0.99967897,-0.0023718597,0.9995156,-0.02518164,0.018290529,0.056451045,0.057552047,-0.99674517,0.020671742,0.9980558,0.058798473,0.9981913,-0.023923695,0.055151593,9.992432,-0.22492981,0.19621277,9.8019,-0.24694754,0.17936882,-0.03691101,-5.340576E-4,0.02041626,-43.73932,35.81848,-0.8987427,0,0.0,0.0,0.0,0.0
0.971191406,0.018240301,-0.0028133877,-0.9998297,0.025386462,0.999675,-0.0023498167,0.9995113,-0.025339276,0.018305793,0.055691745,0.056345657,-0.99685687,0.02080754,0.99812406,0.057579745,0.9982312,-0.023948856,0.054414857,9.96611,-0.23449707,0.22732544,9.801858,-0.24849342,0.17951852,-0.038131714,-0.0060272217,0.009429932,-43.73932,35.81848,-0.8987427,0,0.0,0.0,0.0,0.0
0.979492187,0.018238792,-0.0028152294,-0.99982965,0.025464272,0.9996729,-0.0023502712,0.99950933,-0.02541707,0.018304516,0.054218687,0.05400528,-0.9970676,0.021072008,0.9982521,0.055215295,0.99830675,-0.024003915,0.05298592,9.9266205,-0.27278137,0.22372437,9.801838,-0.2492563,0.17950597,-0.026824951,-0.0104522705,0.006225586,-43.73932,35.81848,-0.8987427,0,0.0,0.0,0.0,0.0
0.987792969,0.018352166,0.0024037748,-0.9998287,0.025453357,0.9996719,0.002870602,0.99950755,-0.025501678,0.018284962,0.052803203,0.051757224,-0.9972627,0.021322645,0.9983698,0.052943677,0.9983772,-0.024059877,0.051613525,9.9266205,-0.27278137,0.22372437,9.801821,-0.25008604,0.17931423,-0.012924194,0.0034484863,0.003479004,-43.79883,35.4599,-0.71868896,0,0.0,0.0,0.0,0.0
0.99609375,0.018444972,0.007710764,-0.9998002,0.025363881,0.99964494,0.0081774965,0.99950814,-0.025509644,0.018242845,0.052118145,0.050770957,-0.99734944,0.02143822,0.99841976,0.051945727,0.99841076,-0.024088714,0.05094735,9.957733,-0.23928833,0.16390991,9.8018265,-0.25016415,0.1789012,-0.013397217,0.004211426,-0.0023345947,-43.919373,35.21881,-0.53863525,0,0.0,0.0,0.0,0.0
1.004394531,0.018454826,0.007723056,-0.9997999,0.025320865,0.9996458,0.008189251,0.999509,-0.025466928,0.018252734,0.05079124,0.049066987,-0.9975033,0.021648377,0.9985036,0.050218496,0.99847466,-0.024144983,0.049653016,9.957733,-0.23928833,0.16390991,9.801835,-0.24974525,0.17899817,-0.0016326904,0.0060424805,-0.008590698,-43.919373,35.21881,-0.53863525,0,0.0,0.0,0.0,0.0
1.012695312,0.018618971,0.016477933,-0.99969083,0.02501114,0.9995436,0.016941331,0.99951375,-0.02531884,0.018198341,0.049516607,0.047430847,-0.99764645,0.021844242,0.99858147,0.0485595,0.99853444,-0.02419733,0.04841027,9.94696,-0.20698547,0.13279724,9.801882,-0.24829301,0.17846477,-0.003921509,-0.0077056885,-0.007980347,-43.97888,35.1593,-0.23956299,0,0.0,0.0,0.0,0.0
1.020996094,0.018505326,0.016335748,-0.99969536,0.024855435,0.99955004,0.01679347,0.99951977,-0.025158629,0.018090965,0.048900757,0.04681212,-0.99770606,0.021926284,0.9986101,0.047929216,0.998563,-0.02421976,0.047806375,9.94696,-0.20698547,0.13279724,9.801941,-0.24672188,0.17741176,-0.012313843,-0.0077056885,-0.01423645,-43.97888,35.1593,-0.23956299,0,0.0,0.0,0.0,0.0
1.029296875,0.01828727,0.016062936,-0.9997037,0.024739834,0.99955744,0.016513145,0.9995266,-0.025034485,0.017881783,0.047700863,0.045605868,-0.99781996,0.022077441,0.9986649,0.046699904,0.9986176,-0.02425694,0.04663032,10.00679,-0.23330688,0.08375549,9.802009,-0.24550447,0.1753604,-0.013549805,-0.015487671,-0.017150879,-43.97888,35.1593,-0.23956299,0,0.0,0.0,0.0,0.0
1.037597656,0.01813543,0.019202355,-0.99965113,0.024529193,0.99950606,0.019644571,0.99953455,-0.024876896,0.017655453,0.047114313,0.045015305,-0.9978747,0.022147696,0.9986914,0.04609784,0.99864393,-0.024272492,0.046055667,9.996017,-0.2368927,0.033493042,9.802086,-0.24395902,0.17314085,-0.010192871,-0.010910034,-0.01852417,-43.97888,35.339355,-0.119018555,0,0.0,0.0,0.0,0.0
1.045898437,0.01774168,0.015242219,-0.9997264,0.024469689,0.9995777,0.015674204,0.99954313,-0.024741082,0.017361214,0.045969535,0.043993555,-0.9979736,0.02227049,0.9987363,0.04505302,0.99869454,-0.024296427,0.044931684,9.985245,-0.25602722,0.0023956299,9.80217,-0.24262713,0.17025536,-0.013092041,-0.012283325,-0.011642456,-43.859863,35.339355,-0.23956299,0,0.0,0.0,0.0,0.0
1.054199219,0.017374387,0.01478628,-0.9997397,0.024409393,0.9995863,0.015208219,0.999551,-0.024667272,0.017006276,0.04485434,0.042855527,-0.9980739,0.022388402,0.9987854,0.043892235,0.99874264,-0.024314037,0.043840393,9.985245,-0.25602722,0.0023956299,9.802247,-0.2419033,0.1667746,-0.03048706,-0.019622803,-0.004776001,-43.859863,35.339355,-0.23956299,0,0.0,0.0,0.0,0.0
1.0625,0.016966913,0.014280463,-0.9997541,0.024365729,0.99959517,0.014691706,0.9995591,-0.024609009,0.016612088,0.044306032,0.04229439,-0.99812233,0.022443919,0.9988091,0.04331977,0.9987659,-0.0243211,0.043304015,10.030716,-0.27876282,0.061019897,9.802327,-0.24133196,0.16290896,-0.043167114,-0.020843506,-0.010421753,-43.859863,35.339355,-0.23956299,0,0.0,0.0,0.0,0.0
1.070800781,0.017205754,0.029826079,-0.999407,0.024094373,0.9992523,0.03023627,0.9995616,-0.024600323,0.016474247,0.043225605,0.041185517,-0.99821603,0.022549115,0.9988552,0.042188324,0.9988108,-0.024332505,0.042247426,10.059433,-0.2871399,0.17347717,9.802351,-0.24124677,0.16155718,-0.045303345,-0.009689331,-0.010269165,-43.67981,35.21881,0.29907227,0,0.0,0.0,0.0,0.0
1.079101562,0.017253853,0.029885711,-0.99940443,0.02408531,0.9992507,0.03029693,0.999561,-0.024593703,0.016521119,0.042196155,0.040735774,-0.9982786,0.022621786,0.99887335,0.041716248,0.9988532,-0.024343109,0.0412271,10.0295105,-0.29910278,0.27397156,9.802345,-0.24118185,0.16201684,-0.03416443,-0.009536743,-0.016082764,-43.67981,35.21881,0.29907227,0,0.0,0.0,0.0,0.0
1.087402344,0.017219068,0.024470165,-0.99955225,0.024163932,0.99939823,0.024882661,0.99955964,-0.024581568,0.016617412,0.041697808,0.040518813,-0.9983083,0.02265647,0.99888206,0.041488428,0.99887335,-0.02434812,0.040733177,10.034302,-0.30389404,0.28833008,9.802332,-0.24106285,0.16296114,-0.028656006,-0.004196167,-0.008132935,-43.73932,35.639954,0.119018555,0,0.0,0.0,0.0,0.0
1.095703125,0.017396957,0.026536696,-0.9994964,0.024107244,0.99934596,0.026952306,0.999558,-0.024563992,0.016745852,0.040729627,0.039883453,-0.99837387,0.02273125,0.9989074,0.040832113,0.99891156,-0.024357364,0.039778527,10.00798,-0.31585693,0.24406433,9.802316,-0.24089049,0.16422072,-0.024230957,7.6293945E-5,-0.013626099,-43.73932,35.398865,0.17852783,0,0.0,0.0,0.0,0.0
1.104003906,0.017384386,0.026521169,-0.99949706,0.024063416,0.9993475,0.026935738,0.9995593,-0.024519576,0.016734852,0.039806698,0.03935504,-0.9984321,0.022797737,0.9989282,0.040283523,0.9989473,-0.024365544,0.03886683,10.011566,-0.2871399,0.1651001,9.802328,-0.2404549,0.16411284,-0.0095825195,0.0022277832,-0.011489868,-43.73932,35.398865,0.17852783,0,0.0,0.0,0.0,0.0
1.112304687,0.017357018,0.026487362,-0.9994984,0.024036381,0.9993491,0.026900813,0.9995604,-0.024491245,0.016709061,0.039358664,0.03909842,-0.9984599,0.022828767,0.9989382,0.040017042,0.99896437,-0.024368625,0.038424306,10.011566,-0.2871399,0.1651001,9.80234,-0.24017708,0.16385992,-0.0095825195,-0.012893677,-0.007675171,-43.73932,35.398865,0.17852783,0,0.0,0.0,0.0,0.0
1.120605469,0.01730198,0.029692017,-0.9994094,0.024025299,0.99925804,0.030103453,0.9995616,-0.024531957,0.016575782,0.0384884,0.038599122,-0.9985133,0.022887275,0.9989575,0.039498497,0.9989969,-0.024373481,0.037564848,9.984055,-0.30389404,0.14955139,9.802351,-0.24057633,0.1625529,-0.0019378662,-0.023132324,0.0065307617,-43.67981,35.51941,0.29907227,0,0.0,0.0,0.0,0.0
1.12890625,0.017064579,0.029400175,-0.9994221,0.02421355,0.9992623,0.029808909,0.99956113,-0.024708232,0.016340107,0.037649926,0.038246457,-0.99855876,0.022939682,0.99897087,0.039127167,0.9990276,-0.024379756,0.036733817,9.984055,-0.30389404,0.14955139,9.802346,-0.24230498,0.16024171,0.00920105,-0.029541016,0.014465332,-43.67981,35.51941,0.29907227,0,0.0,0.0,0.0,0.0
1.137207031,0.016577877,0.017010393,-0.9997178,0.024637533,0.9995446,0.017415999,0.999559,-0.024919305,0.016151236,0.037238643,0.03806956,-0.998581,0.0229688,0.99897754,0.03894122,0.9990424,-0.024386326,0.03632615,9.98764,-0.33021545,0.18304443,9.802325,-0.24437492,0.15838952,0.00920105,-0.02923584,0.009124756,-43.499756,35.398865,-0.119018555,0,0.0,0.0,0.0,0.0
1.145507812,0.016367173,0.016722608,-0.99972624,0.024837067,0.9995448,0.017126197,0.9995575,-0.025110574,0.01594438,0.036421925,0.03723587,-0.9986425,0.023051403,0.99900836,0.03809023,0.9990706,-0.024407431,0.03552747,10.016357,-0.33259583,0.14237976,9.802311,-0.24625063,0.15636095,0.0041656494,-0.025878906,0.014770508,-43.499756,35.4599,-0.119018555,0,0.0,0.0,0.0,0.0
1.153808594,0.01612336,0.016423484,-0.99973506,0.025052609,0.99954444,0.016824393,0.99955606,-0.02531724,0.015704563,0.035629157,0.036423776,-0.99870116,0.023137731,0.9990377,0.0372615,0.9990972,-0.024435274,0.03475211,10.063019,-0.33380127,0.07058716,9.802297,-0.24827732,0.15400916,0.004470825,-0.014419556,0.0138549805,-43.499756,35.4599,-0.119018555,0,0.0,0.0,0.0,0.0
1.162109375,0.015873179,0.016116552,-0.99974406,0.0252856,0.9995438,0.01651479,0.9995542,-0.025541274,0.015458422,0.035239786,0.036023874,-0.9987294,0.023183659,0.9990517,0.036853526,0.9991099,-0.024452914,0.0343712,10.063019,-0.33380127,0.07058716,9.8022785,-0.25047433,0.15159534,1.9836426E-4,0.0020599365,0.011108398,-43.499756,35.4599,-0.119018555,0,0.0,0.0,0.0,0.0
1.170410156,0.01533215,0.005385559,-0.9998679,0.02561466,0.9996551,0.005777193,0.9995543,-0.025699854,0.015188914,0.034474578,0.035235748,-0.9987843,0.02328152,0.9990788,0.03604974,0.9991344,-0.024496013,0.033622473,10.041473,-0.30508423,-0.058624268,9.802279,-0.25202948,0.14895236,-0.009414673,0.014129639,0.004852295,-43.67981,35.398865,-0.47912598,0,0.0,0.0,0.0,0.0
1.178710937,0.014992083,0.0049658394,-0.9998753,0.025773145,0.99965346,0.005351179,0.99955535,-0.025850156,0.014858902,0.03371921,0.03405407,-0.99885094,0.023395352,0.99911857,0.034852974,0.9991575,-0.024543686,0.032892782,10.004395,-0.32302856,-0.13877869,9.80229,-0.25350344,0.14571606,-0.022705078,-0.00541687,0.012176514,-43.67981,35.398865,-0.47912598,0,0.0,0.0,0.0,0.0
1.187011719,0.014799443,0.01149517,-0.99982435,0.025838735,0.99959546,0.0118750045,0.99955654,-0.026009943,0.014496438,0.0333459,0.03347249,-0.9988832,0.023453446,0.9991376,0.034263965,0.99916863,-0.024569815,0.0325321,9.954147,-0.33021545,-0.112457275,9.802301,-0.25507042,0.1421615,-0.019500732,-0.0029754639,0.0057678223,-43.67981,35.398865,-0.23956299,0,0.0,0.0,0.0,0.0
1.1953125,0.014105247,6.076487E-4,-0.99990034,0.026123444,0.9996582,9.7601593E-4,0.99955916,-0.026134606,0.014084553,0.032258067,0.03218034,-0.9989613,0.023616137,0.99917793,0.03294992,0.9992005,-0.02465451,0.031471577,9.895523,-0.3026886,-0.12921143,9.802327,-0.25629294,0.13812229,-0.041030884,-0.0020599365,0.00881958,-44.039917,35.51941,-0.5996704,0,0.0,0.0,0.0,0.0
1.203613281,0.013689131,9.1610855E-5,-0.9999063,0.02625561,0.9996551,4.51038E-4,0.9995615,-0.026259324,0.013682004,0.032258067,0.03218034,-0.9989613,0.023616137,0.99917793,0.03294992,0.9992005,-0.02465451,0.031471577,9.895523,-0.3026886,-0.12921143,9.80235,-0.257516,0.13417463,-0.041030884,-0.0020599365,0.00881958,-44.039917,35.51941,-0.5996704,0,0.0,0.0,0.0,0.0
1.211914062,0.013505309,-1.3634897E-4,-0.99990875,0.026397523,0.99965155,2.2022532E-4,0.99956036,-0.026398089,0.013504202,0.031525914,0.030909993,-0.9990248,0.023742938,0.99921644,0.03166517,0.99922085,-0.024718061,0.03076732,9.879959,-0.29910278,0.013153076,9.802339,-0.25887683,0.13243099,-0.04408264,0.011230469,0.011108398,-44.039917,35.51941,-0.5996704,0,0.0,0.0,0.0,0.0
1.220214844,0.013692822,0.008532468,-0.9998698,0.026393062,0.99961203,0.008891711,0.9995578,-0.02651138,0.013462311,0.030815272,0.02968088,-0.9990843,0.023868984,0.9992521,0.03042207,0.99924004,-0.024784591,0.030083772,9.939789,-0.279953,0.057434082,9.802314,-0.25998783,0.13202018,-0.04988098,0.02330017,0.013397217,-43.859863,35.339355,-0.29907227,0,0.0,0.0,0.0,0.0
1.228515625,0.01374645,0.008599036,-0.9998685,0.0265326,0.99960774,0.008961571,0.99955344,-0.0266523,0.013512903,0.030473882,0.029257994,-0.99910724,0.023926506,0.9992637,0.029992362,0.99924916,-0.024819128,0.029751403,9.939789,-0.279953,0.057434082,9.802271,-0.2613698,0.13251631,-0.049575806,0.02848816,0.020263672,-43.859863,35.339355,-0.29907227,0,0.0,0.0,0.0,0.0
1.236816406,0.013898491,0.010565813,-0.99984753,0.026678605,0.9995842,0.010933879,0.9995474,-0.026826505,0.013610831,0.029813413,0.028440043,-0.99915075,0.024042744,0.9992855,0.029161284,0.99926627,-0.024891727,0.029108338,9.951752,-0.24287415,0.112457275,9.802212,-0.26307815,0.13347666,-0.048965454,0.02406311,0.017669678,-44.099426,35.339355,-0.23956299,0,0.0,0.0,0.0,0.0
1.245117187,0.013623441,-0.0050317924,-0.9998945,0.027001144,0.9996245,-0.0046625463,0.99954253,-0.026934778,0.013754189,0.02918508,0.027732328,-0.99918926,0.024157874,0.9993035,0.02844112,0.99928206,-0.024968347,0.028494801,9.985245,-0.24406433,0.13279724,9.802164,-0.26413995,0.13488252,-0.040420532,0.012908936,0.013092041,-44.21997,35.21881,-0.7797241,0,0.0,0.0,0.0,0.0
1.253417969,0.013733502,-0.0048935832,-0.9998937,0.027080853,0.9996231,-0.0045203045,0.99953896,-0.027015893,0.013860848,0.028875612,0.027077189,-0.9992162,0.024224497,0.9993205,0.027780063,0.99928945,-0.025007676,0.028200058,9.985245,-0.24406433,0.13279724,9.802129,-0.2649354,0.13592848,-0.039352417,0.009399414,0.013092041,-44.21997,35.21881,-0.7797241,0,0.0,0.0,0.0,0.0
1.26171875,0.013797746,-0.004812908,-0.9998932,0.027190361,0.9996204,-0.0044363886,0.999535,-0.027126247,0.013923375,0.028279228,0.025811395,-0.9992668,0.024355583,0.99935204,0.026502859,0.99930334,-0.025087204,0.027632251,10.018753,-0.33857727,0.20458984,9.802091,-0.26601762,0.13654166,-0.029418945,-0.006942749,0.004852295,-44.21997,35.21881,-0.7797241,0,0.0,0.0,0.0,0.0
1.270019531,0.013909126,0.0039585894,-0.9998954,0.027194384,0.9996207,0.0043357913,0.99953336,-0.027251847,0.0137962,0.027708903,0.024598885,-0.9993133,0.024484295,0.9993806,0.025279438,0.99931616,-0.02516795,0.027089452,10.018753,-0.33857727,0.20458984,9.8020735,-0.26724932,0.1352945,-0.022247314,-0.010757446,0.0037841797,-44.3985,34.979248,-0.47912598,0,0.0,0.0,0.0,0.0
1.278320312,0.013745274,0.0037505706,-0.9998985,0.027299218,0.9996188,0.0041247946,0.9995328,-0.027353143,0.013637645,0.02743402,0.024186132,-0.99933094,0.024544002,0.9993896,0.024861341,0.99932224,-0.025209628,0.02682365,10.02713,-0.324234,0.090927124,9.802069,-0.26824272,0.13373962,-0.021026611,-0.014724731,-4.5776367E-5,-44.3985,34.979248,-0.47912598,0,0.0,0.0,0.0,0.0
1.286621094,0.013145079,-0.005577898,-0.999898,0.027500901,0.99960816,-0.005214743,0.9995353,-0.02742955,0.013293325,0.026893964,0.02337698,-0.9993649,0.024663601,0.99940664,0.02404168,0.999334,-0.025294514,0.02630145,10.04985,-0.34336853,-0.0011901855,9.8020935,-0.268992,0.13036299,-0.026367188,-0.027404785,-0.004776001,-44.519043,34.858704,-0.7797241,0,0.0,0.0,0.0,0.0
1.294921875,0.012834402,-0.0025391593,-0.9999144,0.027498595,0.9996195,-0.0021854518,0.99953943,-0.027468193,0.012899339,0.026352623,0.02223052,-0.9994055,0.02479073,0.99943066,0.022884773,0.9993453,-0.025379064,0.02578651,10.000809,-0.37687683,-0.039474487,9.802134,-0.26937097,0.12649931,-0.040267944,-0.029388428,-0.011947632,-44.459534,34.858704,-0.6591797,0,0.0,0.0,0.0,0.0
1.303222656,0.012353033,-0.0031531854,-0.9999187,0.027572816,0.9996158,-0.0028115946,0.9995434,-0.027535845,0.01243523,0.026083544,0.021735186,-0.99942344,0.024851318,0.9994405,0.022384143,0.99935085,-0.025420846,0.025528802,10.000809,-0.37687683,-0.039474487,9.802173,-0.2700344,0.12194795,-0.04927063,-0.028167725,-0.013626099,-44.459534,34.858704,-0.6591797,0,0.0,0.0,0.0,0.0
1.311523437,0.011772469,-0.0038937328,-0.99992305,0.02773007,0.99960905,-0.0035660332,0.9995461,-0.027685959,0.011875841,0.025542254,0.02074971,-0.99945843,0.024971832,0.9994593,0.021387912,0.9993618,-0.025504602,0.025010282,9.866806,-0.4510498,-0.13519287,9.802199,-0.27150652,0.116462216,-0.060272217,-0.012283325,-0.0015716553,-44.459534,34.858704,-0.6591797,0,0.0,0.0,0.0,0.0
1.319824219,0.0114723565,0.0025120305,-0.9999311,0.027860759,0.99960786,0.002830869,0.99954593,-0.027891314,0.011397868,0.024999607,0.019773917,-0.99949193,0.025093712,0.9994769,0.020401273,0.9993725,-0.025590984,0.024490329,9.847656,-0.4295044,-0.044265747,9.802197,-0.27352035,0.11177491,-0.07798767,0.0017547607,-0.0041656494,-44.21997,34.91974,-0.4196167,0,0.0,0.0,0.0,0.0
1.328125,0.011226627,0.0022008144,-0.99993455,0.028054819,0.9996032,0.0025150666,0.9995433,-0.02808122,0.011160429,0.02472994,0.019428702,-0.99950534,0.025153583,0.9994825,0.020050611,0.9993777,-0.025636991,0.024228442,9.847656,-0.4295044,-0.044265747,9.802172,-0.2753827,0.10944642,-0.07524109,0.005126953,-0.005844116,-44.21997,34.91974,-0.4196167,0,0.0,0.0,0.0,0.0
1.336425781,0.011102408,0.003759083,-0.9999313,0.028199218,0.99959403,0.0040709157,0.9995407,-0.028242478,0.010991898,0.02419722,0.01874651,-0.99953145,0.025277227,0.99949306,0.019357717,0.9993876,-0.025733786,0.023711095,9.791428,-0.4127655,-0.021530151,9.802146,-0.2769641,0.1077937,-0.07371521,0.0032958984,-4.5776367E-5,-44.158936,35.038757,-0.35858154,0,0.0,0.0,0.0,0.0
1.344726562,0.010931289,0.003543398,-0.99993396,0.028386137,0.9995896,0.0038524955,0.9995373,-0.028426375,0.01082622,0.023936171,0.018446773,-0.9995433,0.025339482,0.9994973,0.019052735,0.99939233,-0.02578396,0.023456708,9.791428,-0.4127655,-0.021530151,9.802113,-0.27876753,0.106168956,-0.090667725,0.0032958984,0.002243042,-44.158936,35.038757,-0.35858154,0,0.0,0.0,0.0,0.0
1.353027344,0.010922778,0.0068892576,-0.9999166,0.028536562,0.9995668,0.0071985717,0.999533,-0.028612811,0.010721451,0.023422856,0.017856617,-0.9995662,0.025467446,0.99950534,0.01845231,0.9994012,-0.025888603,0.022956507,9.828522,-0.39720154,0.026321411,9.802071,-0.28059584,0.10514152,-0.08699036,-0.001449585,0.0025634766,-44.21997,35.339355,-0.23956299,0,0.0,0.0,0.0,0.0
1.361328125,0.010974917,0.006954505,-0.99991566,0.028746733,0.9995604,0.007267554,0.9995265,-0.028824065,0.010770171,0.022929287,0.017422315,-0.9995853,0.025594184,0.9995102,0.018008105,0.9994094,-0.025996482,0.022472145,9.9756775,-0.4295044,0.16989136,9.802007,-0.28266752,0.105619304,-0.08454895,-0.012283325,-0.004623413,-44.21997,35.339355,-0.23956299,0,0.0,0.0,0.0,0.0
1.369628906,0.0109896185,0.008525531,-0.9999033,0.028901573,0.99954325,0.008840108,0.99952185,-0.028995926,0.010738196,0.022690868,0.017212959,-0.9995944,0.025659684,0.9995124,0.017794024,0.99941313,-0.026053037,0.022238122,9.9756775,-0.4295044,0.16989136,9.801961,-0.2843529,0.10530573,-0.084854126,-0.020080566,-0.008285522,-43.79883,35.51941,-0.17852783,0,0.0,0.0,0.0,0.0
1.377929687,0.010866537,0.008373747,-0.9999059,0.029054329,0.99954015,0.008686434,0.9995188,-0.029145988,0.010618246,0.022228682,0.016868936,-0.9996106,0.025791937,0.9995152,0.01744087,0.9994201,-0.026169581,0.021782823,10.000809,-0.44148254,0.14237976,9.801931,-0.2858245,0.104129426,-0.09310913,-0.022216797,-0.010574341,-43.79883,35.51941,-0.17852783,0,0.0,0.0,0.0,0.0
1.386230469,0.01103175,0.020001797,-0.99973905,0.029021507,0.9993723,0.0203147,0.9995179,-0.029238041,0.010444343,0.02177997,0.016532525,-0.99962604,0.025924802,0.9995177,0.017095584,0.99942654,-0.026287451,0.021340864,10.005585,-0.42712402,0.13519287,9.801923,-0.28672725,0.10242402,-0.103027344,-0.029846191,-0.013015747,-43.559265,35.998535,0.23956299,0,0.0,0.0,0.0,0.0
1.39453125,0.010816661,0.019741582,-0.99974656,0.029094892,0.9993754,0.020049043,0.99951804,-0.029304383,0.010235527,0.021564797,0.01660192,-0.9996296,0.025986027,0.999515,0.017160608,0.99942964,-0.026346466,0.021122921,10.005585,-0.42712402,0.13519287,9.801924,-0.28737783,0.100376226,-0.10043335,-0.02709961,-0.020050049,-43.559265,35.998535,0.23956299,0,0.0,0.0,0.0,0.0
1.402832031,0.010315347,0.014005415,-0.9998488,0.029348074,0.99946696,0.014302849,0.999516,-0.02949117,0.009898815,0.021138731,0.016726263,-0.99963665,0.026107892,0.9995098,0.017276231,0.9994356,-0.026463604,0.020691684,9.96611,-0.5168457,0.023925781,9.801904,-0.28920957,0.09707422,-0.09448242,-0.020690918,-0.016693115,-43.67981,36.419678,0.059509277,0,0.0,0.0,0.0,0.0
1.411132812,0.010011778,0.013641343,-0.9998568,0.029518811,0.9994671,0.013931604,0.99951404,-0.029654065,0.009603767,0.02071058,0.016618513,-0.9996473,0.026237363,0.99950844,0.017159786,0.99944115,-0.026583502,0.020264374,9.96611,-0.5168457,0.023925781,9.801885,-0.29080704,0.09418078,-0.09188843,-0.024047852,-0.024017334,-43.67981,36.419678,0.059509277,0,0.0,0.0,0.0,0.0
1.419433594,0.009878618,0.02649622,-0.9996001,0.029548362,0.9992046,0.02677775,0.9995145,-0.029801073,0.009087841,0.020496722,0.016558966,-0.99965274,0.026303638,0.9995078,0.017095892,0.9994438,-0.026644913,0.020051073,9.912262,-0.5264282,-0.12322998,9.801889,-0.2922487,0.089121275,-0.09387207,-0.029846191,-0.023101807,-43.499756,36.538696,0.53863525,0,0.0,0.0,0.0,0.0
1.427734375,0.009249458,0.025747575,-0.99962574,0.029762203,0.9992185,0.026012475,0.9995142,-0.029991662,0.008475926,0.020075073,0.016952554,-0.9996547,0.026428102,0.99949783,0.017480623,0.9994491,-0.026769904,0.019616969,9.86322,-0.54437256,-0.16630554,9.801887,-0.29411775,0.083120435,-0.11036682,-0.027557373,-0.009963989,-43.499756,36.538696,0.53863525,0,0.0,0.0,0.0,0.0
1.436035156,0.008793327,0.02985368,-0.9995156,0.03010329,0.9990933,0.030105904,0.99950814,-0.03035344,0.00788666,0.019645214,0.0173009,-0.9996573,0.026556514,0.9994885,0.017819865,0.99945426,-0.02689749,0.019175714,9.795013,-0.6233368,-0.16151428,9.8018265,-0.29766557,0.07734172,-0.1181488,-0.006790161,-0.003250122,-43.37921,36.839294,0.71868896,0,0.0,0.0,0.0,0.0
1.444335937,0.008299294,0.029272359,-0.999537,0.030544909,0.9990975,0.029513108,0.9994989,-0.030775705,0.0073976824,0.019427277,0.017552018,-0.99965715,0.02662476,0.9994823,0.018066369,0.9994567,-0.026966613,0.0189499,9.795013,-0.6233368,-0.16151428,9.801736,-0.30180657,0.07254648,-0.12409973,-0.0060272217,0.003479004,-43.37921,36.839294,0.71868896,0,0.0,0.0,0.0,0.0
1.452636719,0.00764001,0.020392027,-0.9997629,0.03113667,0.99930245,0.020620575,0.99948597,-0.031286824,0.0069997413,0.018984877,0.018016253,-0.9996574,0.026775006,0.9994699,0.018521367,0.9994612,-0.02711746,0.018492427,9.789032,-0.65563965,-0.19023132,9.801609,-0.30681893,0.06864402,-0.12991333,0.010467529,0.0031738281,-43.73932,36.95984,0.4196167,0,0.0,0.0,0.0,0.0
1.4609375,0.0074660205,0.020186188,-0.9997684,0.031588513,0.99929255,0.020412475,0.9994731,-0.031733595,0.006823087,0.018535165,0.018110352,-0.9996641,0.026946751,0.9994637,0.018606352,0.99946505,-0.027282573,0.01803721,9.846466,-0.59580994,-0.13040161,9.801483,-0.31120026,0.06691163,-0.11784363,0.043762207,0.00881958,-43.73932,36.95984,0.4196167,0,0.0,0.0,0.0,0.0
1.469238281,0.007625322,0.025317179,-0.99965036,0.032012496,0.9991609,0.025548974,0.99945843,-0.032196123,0.0068084574,0.018313626,0.018151877,-0.99966747,0.027039163,0.9994605,0.018643469,0.9994666,-0.0273716,0.017812934,9.846466,-0.59580994,-0.13040161,9.801339,-0.31573611,0.06676816,-0.11341858,0.050628662,0.008666992,-43.499756,36.779785,0.5996704,0,0.0,0.0,0.0,0.0
1.477539062,0.007814415,0.0255407,-0.9996432,0.03231719,0.9991451,0.025780605,0.99944717,-0.03250712,0.006982331,0.017889025,0.01843569,-0.99967,0.027233213,0.9994501,0.018918972,0.99946904,-0.027562667,0.017377123,9.889542,-0.49172974,-0.055038452,9.801229,-0.31878597,0.06847328,-0.112960815,0.042999268,0.0045318604,-43.499756,36.779785,0.5996704,0,0.0,0.0,0.0,0.0
1.485839844,0.0076391813,0.010742759,-0.99991316,0.032609817,0.9994078,0.010986463,0.99943894,-0.03269091,0.0072843377,0.01748863,0.01871712,-0.9996719,0.02743183,0.9994394,0.01919267,0.9994707,-0.027758481,0.016965382,10.088135,-0.3912201,0.1375885,9.801148,-0.32058832,0.07143495,-0.1257782,0.0058898926,-5.0354004E-4,-43.67981,36.59973,0.059509277,0,0.0,0.0,0.0,0.0
1.494140625,0.007833331,0.01097446,-0.9999091,0.03269772,0.9994023,0.011225052,0.9994346,-0.032782678,0.0074698087,0.017292434,0.018557621,-0.9996782,0.02753693,0.99943966,0.019029526,0.9994712,-0.027857138,0.016771723,10.088135,-0.3912201,0.1375885,9.8011055,-0.32148826,0.0732538,-0.12731934,-0.013198853,-0.0055389404,-43.67981,36.59973,0.059509277,0,0.0,0.0,0.0,0.0
1.502441406,0.0077841138,0.012480071,-0.9998918,0.032785226,0.99938136,0.012728931,0.9994321,-0.032880764,0.007370136,0.016919361,0.018257307,-0.9996901,0.02774403,0.99943966,0.01872229,0.99947184,-0.028052203,0.016403351,10.091736,-0.41993713,0.09690857,9.801082,-0.3224502,0.072276354,-0.12792969,-0.034423828,-0.00630188,-43.67981,36.779785,0.119018555,0,0.0,0.0,0.0,0.0
1.510742187,0.007437203,0.012068102,-0.99989945,0.03284724,0.9993846,0.012306204,0.99943274,-0.032935467,0.007036222,0.016383866,0.017917546,-0.99970526,0.028043438,0.99943787,0.01837235,0.99947244,-0.02833618,0.015872186,10.02713,-0.4139557,0.03111267,9.801086,-0.32298657,0.069001764,-0.13616943,-0.01977539,-0.021270752,-43.67981,36.779785,0.119018555,0,0.0,0.0,0.0,0.0
1.519042969,0.0070935707,0.011660027,-0.9999069,0.032861393,0.9993893,0.011887117,0.99943477,-0.032942653,0.0067060734,0.016383866,0.017917546,-0.99970526,0.028043438,0.99943787,0.01837235,0.99947244,-0.02833618,0.015872186,10.02713,-0.4139557,0.03111267,9.801107,-0.3230571,0.065764114,-0.13616943,-0.01977539,-0.021270752,-43.67981,36.779785,0.119018555,0,0.0,0.0,0.0,0.0
1.52734375,0.0068356222,0.018064598,-0.99981344,0.032726716,0.9992972,0.018279018,0.99944097,-0.03284556,0.0062396224,0.016017132,0.017669732,-0.99971557,0.028236454,0.9994371,0.018117204,0.9994729,-0.02851861,0.015509185,9.958923,-0.3744812,-0.12802124,9.801168,-0.32210496,0.061189797,-0.1354065,-0.004501343,-0.026611328,-43.79883,36.419678,0.35858154,0,0.0,0.0,0.0,0.0
1.535644531,0.00641315,0.019189706,-0.9997953,0.032509465,0.9992834,0.019388411,0.99945086,-0.03262715,0.0057847067,0.015653547,0.017685374,-0.99972105,0.028414173,0.9994319,0.018125165,0.9994737,-0.02868997,0.015142139,9.950546,-0.31106567,-0.18304443,9.801265,-0.31996304,0.056728594,-0.14135742,-0.0019073486,-0.018676758,-43.559265,36.419678,0.4196167,0,0.0,0.0,0.0,0.0
1.543945312,0.005978906,0.018670479,-0.99980783,0.032336406,0.9992992,0.018854355,0.99945915,-0.03244292,0.005370979,0.015468573,0.017715469,-0.9997234,0.028495826,0.9994291,0.018151164,0.9994742,-0.028768718,0.0149549255,9.86441,-0.31704712,-0.20219421,9.801347,-0.3181564,0.052671317,-0.13082886,0.007873535,-0.017150879,-43.559265,36.419678,0.4196167,0,0.0,0.0,0.0,0.0
1.552246094,0.0057001477,0.01980782,-0.99978757,0.032197464,0.99928176,0.019981368,0.9994652,-0.03230452,0.005058292,0.014910313,0.017771645,-0.9997309,0.028721243,0.99942183,0.01819451,0.99947625,-0.028984802,0.01439127,9.92543,-0.30867004,-0.13877869,9.801406,-0.31679913,0.0496049,-0.12808228,0.022064209,-0.014862061,-43.559265,36.71875,0.47912598,0,0.0,0.0,0.0,0.0
1.560546875,0.0055363616,0.019613585,-0.9997923,0.03207423,0.9992897,0.019781336,0.9994702,-0.032177087,0.0049033393,0.014725917,0.017812375,-0.9997329,0.028790424,0.9994192,0.018230865,0.999477,-0.0290512,0.014204538,9.92543,-0.30867004,-0.13877869,9.801455,-0.31554943,0.048085332,-0.12808228,0.019317627,-0.016220093,-43.559265,36.71875,0.47912598,0,0.0,0.0,0.0,0.0
1.568847656,0.0052418835,0.014368492,-0.99988306,0.03196762,0.9993833,0.0145289,0.9994751,-0.03204004,0.004779324,0.014541917,0.017848404,-0.99973494,0.028855799,0.9994167,0.018262453,0.9994778,-0.029113721,0.014018405,9.92543,-0.30867004,-0.13877869,9.801503,-0.31420547,0.04686916,-0.12532043,0.02053833,-0.016525269,-43.43872,36.65924,0.29907227,0,0.0,0.0,0.0,0.0
1.577148437,0.005292101,0.014427987,-0.9998819,0.03178022,0.99938846,0.01458907,0.9994809,-0.031853676,0.0048303395,0.014174234,0.01771059,-0.9997426,0.02898029,0.99941576,0.01811568,0.9994795,-0.02922961,0.013652695,9.9039,-0.28355408,-0.022735596,9.801559,-0.31237784,0.04736945,-0.11021423,0.036117554,-0.013168335,-43.43872,36.65924,0.29907227,0,0.0,0.0,0.0,0.0
1.585449219,0.005553089,0.016386649,-0.9998503,0.03146462,0.9993677,0.016553491,0.9994894,-0.031551834,0.0050339787,0.013822861,0.017580595,-0.9997499,0.029092308,0.99941504,0.017976949,0.99948114,-0.029333526,0.013303314,10.054642,-0.2033844,0.033493042,9.801643,-0.3094178,0.04936647,-0.09631348,0.032608032,-0.022491455,-43.43872,36.59973,0.35858154,0,0.0,0.0,0.0,0.0
1.59375,0.005801627,0.016681567,-0.999844,0.031146675,0.9993727,0.016854433,0.999498,-0.0312396,0.0052784127,0.013657524,0.017556716,-0.9997526,0.029139966,0.9994142,0.017948853,0.9994821,-0.029377893,0.013137922,10.054642,-0.2033844,0.033493042,9.801727,-0.30635583,0.05176355,-0.09677124,0.034591675,-0.025848389,-43.43872,36.59973,0.35858154,0,0.0,0.0,0.0,0.0
1.602050781,0.00592369,0.008663444,-0.9999449,0.03078248,0.9994869,0.008841832,0.9995085,-0.03083316,0.005653968,0.01334639,0.017522061,-0.9997574,0.029219726,0.9994126,0.017906092,0.99948394,-0.029451618,0.01282656,10.041473,-0.15434265,0.14715576,9.801831,-0.30237004,0.05544649,-0.08027649,0.030471802,-0.025543213,-43.919373,36.898804,0.059509277,0,0.0,0.0,0.0,0.0
1.610351562,0.0061746314,0.008962124,-0.99994075,0.03030991,0.9994986,0.009145325,0.99952143,-0.030364584,0.005899894,0.013052944,0.017171266,-0.9997673,0.029284092,0.99941707,0.017547583,0.9994859,-0.029506328,0.012542491,10.085754,-0.114852905,0.07777405,9.801957,-0.29777485,0.0578582,-0.079208374,0.013671875,-0.024017334,-43.919373,36.898804,0.059509277,0,0.0,0.0,0.0,0.0
1.618652344,0.006496885,0.0143562015,-0.99987584,0.029808627,0.9994498,0.014543772,0.9995345,-0.029899415,0.006065371,0.012915539,0.01700709,-0.9997719,0.029305708,0.9994194,0.017379679,0.9994871,-0.029523494,0.012409635,10.085754,-0.114852905,0.07777405,9.802085,-0.2932131,0.059480973,-0.08729553,-0.0029754639,-0.024017334,-43.73932,36.479187,0.23956299,0,0.0,0.0,0.0,0.0
1.626953125,0.0064460444,0.014295251,-0.99987704,0.02948761,0.9994603,0.014479395,0.9995444,-0.02957732,0.0060210316,0.012661356,0.016902117,-0.99977696,0.029326292,0.9994207,0.017267486,0.9994897,-0.02953838,0.012158345,10.088135,-0.20698547,0.046661377,9.802182,-0.29005444,0.059046153,-0.107925415,-0.027404785,-0.026916504,-43.73932,36.479187,0.23956299,0,0.0,0.0,0.0,0.0
1.635253906,0.0064724553,0.022453554,-0.99972695,0.029112464,0.99931985,0.022632893,0.9995552,-0.029251004,0.0058143744,0.012415219,0.016798884,-0.9997818,0.029333312,0.9994224,0.017157106,0.9994926,-0.029539922,0.011915281,10.054642,-0.27757263,0.055038452,9.802288,-0.28685436,0.057019535,-0.121658325,-0.020996094,-0.022491455,-43.559265,36.538696,0.53863525,0,0.0,0.0,0.0,0.0
1.643554687,0.0062371586,0.02217316,-0.99973464,0.028896868,0.9993326,0.022344528,0.999563,-0.02902857,0.005592262,0.012296396,0.016911982,-0.9997813,0.029328238,0.99942064,0.017266592,0.9994942,-0.029534144,0.011793274,10.054642,-0.27757263,0.055038452,9.802364,-0.28467304,0.05484136,-0.12272644,-0.0051116943,-0.023864746,-43.559265,36.538696,0.53863525,0,0.0,0.0,0.0,0.0
1.651855469,0.005871624,0.016721051,-0.999843,0.028679434,0.99944615,0.016882837,0.99957144,-0.028774058,0.005388822,0.012175242,0.017017206,-0.9997811,0.029318988,0.99941915,0.017368091,0.9994959,-0.029524032,0.011669244,10.054642,-0.27757263,0.055038452,9.802447,-0.28217712,0.05284629,-0.1207428,3.8146973E-4,-0.024627686,-43.67981,36.779785,0.35858154,0,0.0,0.0,0.0,0.0
1.66015625,0.0057480037,0.016574271,-0.9998461,0.028427033,0.9994558,0.016731225,0.9995793,-0.02851883,0.005273719,0.011925658,0.017005477,-0.9997843,0.029293757,0.9994203,0.01734871,0.9994997,-0.02949433,0.01142059,9.943375,-0.24406433,-0.07777405,9.8025255,-0.2796742,0.05171752,-0.11784363,0.0013122559,-0.024475098,-43.67981,36.779785,0.35858154,0,0.0,0.0,0.0,0.0
1.668457031,0.005645367,0.019674083,-0.99979055,0.028160438,0.9994068,0.019825542,0.9995875,-0.028266462,0.0050879866,0.011680889,0.016988402,-0.99978745,0.029259559,0.9994217,0.017324036,0.99950355,-0.0294557,0.01117706,9.911072,-0.23568726,-0.0765686,9.802605,-0.2771993,0.049896106,-0.12059021,0.020706177,-0.018371582,-43.73932,36.898804,0.47912598,0,0.0,0.0,0.0,0.0
1.676757812,0.0055607273,0.019573784,-0.99979293,0.027962135,0.9994143,0.019721894,0.9995935,-0.028066015,0.005010146,0.011560249,0.017042117,-0.9997879,0.02923727,0.9994215,0.017373933,0.99950564,-0.029431917,0.011055296,9.893127,-0.22132874,0.07058716,9.802664,-0.2752336,0.04913275,-0.12226868,0.032913208,-0.007217407,-43.73932,36.898804,0.47912598,0,0.0,0.0,0.0,0.0
1.685058594,0.005900117,0.019975962,-0.99978304,0.027780415,0.9994112,0.020132476,0.9995966,-0.027893173,0.0053417035,0.011322694,0.017142372,-0.999789,0.029186219,0.9994214,0.017466607,0.9995099,-0.029377827,0.010815822,9.993622,-0.18902588,0.112457275,9.802694,-0.2735386,0.052384216,-0.11036682,0.04071045,0.0054626465,-43.73932,36.898804,0.47912598,0,0.0,0.0,0.0,0.0
1.693359375,0.006017663,0.01043886,-0.99992734,0.027727913,0.99955916,0.010601887,0.9995974,-0.0277897,0.0057255635,0.011108159,0.017254582,-0.9997894,0.02912998,0.9994212,0.017571874,0.9995139,-0.029319037,0.010599105,9.993622,-0.18902588,0.112457275,9.802702,-0.27252388,0.0561486,-0.089904785,0.039627075,2.593994E-4,-43.919373,36.71875,0.119018555,0,0.0,0.0,0.0,0.0
1.701660156,0.006858978,0.025999663,-0.9996384,0.027530273,0.99927795,0.026179189,0.9995974,-0.027699884,0.006138248,0.01100617,0.017118283,-0.99979293,0.029102616,0.99942446,0.017432349,0.99951583,-0.02928845,0.010501648,10.04985,-0.2033844,0.14596558,9.802702,-0.27164307,0.06019565,-0.08470154,0.030776978,-0.0024871826,-43.79883,36.898804,0.6591797,0,0.0,0.0,0.0,0.0
1.709960937,0.0072255996,0.026434595,-0.9996245,0.027381284,0.99927056,0.026623154,0.9995989,-0.027563367,0.006496515,0.010842613,0.01747,-0.9997885,0.029038917,0.9994201,0.017778486,0.9995194,-0.029225545,0.010329016,10.069,-0.22970581,0.20578003,9.802717,-0.2703043,0.06370905,-0.095703125,0.02330017,-0.01210022,-43.79883,36.898804,0.6591797,0,0.0,0.0,0.0,0.0
1.718261719,0.0076508997,0.026820961,-0.999611,0.027142784,0.9992664,0.027019462,0.99960226,-0.027338946,0.006917291,0.010700031,0.017825015,-0.9997838,0.028972013,0.9994158,0.018128522,0.9995229,-0.029159727,0.010177354,10.07019,-0.18185425,0.2632141,9.80275,-0.26810348,0.06783545,-0.08607483,-0.0012969971,-0.018066406,-43.859863,37.078857,0.6591797,0,0.0,0.0,0.0,0.0
1.7265625,0.007884002,0.027096534,-0.9996018,0.026872555,0.9992661,0.027299382,0.99960774,-0.027077079,0.007150063,0.010639279,0.018004943,-0.99978125,0.028934872,0.99941367,0.018306235,0.99952465,-0.029123312,0.0101120705,10.0247345,-0.18902588,0.23091125,9.802803,-0.2655354,0.07011816,-0.08592224,-0.012130737,-0.024780273,-43.859863,37.078857,0.6591797,0,0.0,0.0,0.0,0.0
1.734863281,0.0079155145,0.027133783,-0.99960047,0.026620822,0.99927175,0.02733566,0.99961424,-0.026826562,0.0071874256,0.010530698,0.018364985,-0.9997758,0.02885222,0.99940944,0.018662157,0.99952817,-0.029042281,0.009994608,10.000809,-0.22132874,0.19502258,9.802867,-0.26307872,0.07048457,-0.0921936,-0.024810791,-0.030883789,-43.859863,37.078857,0.6591797,0,0.0,0.0,0.0,0.0
1.743164062,0.007875809,0.028812516,-0.9995538,0.02631838,0.9992326,0.029010627,0.9996226,-0.02653512,0.007111467,0.010428002,0.018712241,-0.9997705,0.028762951,0.99940556,0.01900542,0.99953187,-0.02895454,0.0098835835,10.000809,-0.22132874,0.19502258,9.802949,-0.26022065,0.06973967,-0.09509277,-0.040390015,-0.03149414,-43.559265,36.839294,0.71868896,0,0.0,0.0,0.0,0.0
1.751464844,0.007906304,0.03652117,-0.9993016,0.025981082,0.9989879,0.036715265,0.9996311,-0.026253218,0.0069494434,0.01037748,0.018914258,-0.99976724,0.028713532,0.9994031,0.019205414,0.9995338,-0.028906154,0.00982819,9.999603,-0.24287415,0.18185425,9.803033,-0.25745612,0.06815076,-0.090667725,-0.037643433,-0.029663086,-43.559265,37.319946,1.0192871,0,0.0,0.0,0.0,0.0
1.759765625,0.007610834,0.03617671,-0.9993165,0.025617251,0.9990105,0.036360733,0.9996429,-0.025876474,0.0066765537,0.010281514,0.019611591,-0.99975485,0.02860353,0.99939275,0.019898651,0.99953794,-0.028801104,0.009714309,9.985245,-0.17347717,0.08494568,9.803148,-0.25376153,0.06547463,-0.08027649,-0.02557373,-0.03302002,-43.559265,37.319946,1.0192871,0,0.0,0.0,0.0,0.0
1.768066406,0.0069645206,0.0210994,-0.9997531,0.02535668,0.9994521,0.021269688,0.9996542,-0.025498554,0.0064256946,0.010177568,0.020267652,-0.99974275,0.028483463,0.999383,0.020550326,0.9995424,-0.02868529,0.009593995,9.997208,-0.17826843,0.0382843,9.803259,-0.2500554,0.06301454,-0.08958435,-0.016723633,-0.038223267,-43.919373,37.1994,0.47912598,0,0.0,0.0,0.0,0.0
1.776367187,0.0067345933,0.020828031,-0.9997604,0.025066266,0.9994654,0.020990737,0.9996631,-0.025201624,0.0062089115,0.0101133445,0.020284288,-0.99974304,0.028420882,0.99938446,0.020564515,0.99954486,-0.028621558,0.0095306225,9.9756775,-0.24885559,0.023925781,9.803347,-0.24714352,0.060888622,-0.08958435,-0.013961792,-0.038223267,-43.919373,37.1994,0.47912598,0,0.0,0.0,0.0,0.0
1.784667969,0.0064660497,0.020511085,-0.9997688,0.024776064,0.9994795,0.020665389,0.9996721,-0.024903955,0.005954499,0.009979512,0.020305822,-0.999744,0.02828799,0.9993879,0.020580962,0.99955,-0.028486136,0.009398992,9.939789,-0.2632141,-0.035888672,9.803435,-0.24422438,0.058393694,-0.07722473,-0.0064849854,-0.040664673,-43.919373,37.1994,0.47912598,0,0.0,0.0,0.0,0.0
1.79296875,0.00623511,0.021842169,-0.999742,0.024473177,0.99945855,0.02198861,0.999681,-0.024603965,0.005697188,0.009840516,0.020313956,-0.9997452,0.028148906,0.99939173,0.020583846,0.9995553,-0.02834429,0.0092627155,9.960129,-0.26081848,-0.07896423,9.803522,-0.24128248,0.055870328,-0.07707214,0.005279541,-0.039749146,-43.73932,37.139893,0.53863525,0,0.0,0.0,0.0,0.0
1.801269531,0.0061514666,0.023169752,-0.9997127,0.02421947,0.99943495,0.023312341,0.99968773,-0.024355914,0.0055868314,0.0097684655,0.02034452,-0.9997453,0.028075295,0.9993933,0.02061168,0.9995581,-0.028269487,0.00919136,9.976868,-0.2907257,-0.020339966,9.803588,-0.23884994,0.0547881,-0.07203674,0.009246826,-0.036239624,-43.559265,37.438965,0.5996704,0,0.0,0.0,0.0,0.0
1.809570312,0.006062721,0.023066543,-0.99971557,0.023989178,0.9994429,0.023205733,0.9996939,-0.024123045,0.0055059954,0.009625658,0.020456398,-0.9997445,0.02792223,0.9993954,0.020718096,0.99956375,-0.028114516,0.00904865,9.976868,-0.2907257,-0.020339966,9.803648,-0.23656626,0.05399537,-0.07279968,-0.0020599365,-0.034561157,-43.559265,37.438965,0.5996704,0,0.0,0.0,0.0,0.0
1.817871094,0.005864583,0.022836117,-0.999722,0.02382415,0.9994522,0.022969712,0.99969894,-0.023952236,0.005317319,0.009554566,0.0205086,-0.999744,0.027843393,0.99939656,0.020767571,0.9995666,-0.02803469,0.008977772,9.998413,-0.31225586,-0.056228638,9.803698,-0.2348912,0.05214509,-0.07142639,-0.011978149,-0.02935791,-43.559265,37.438965,0.5996704,0,0.0,0.0,0.0,0.0
1.826171875,0.00582326,0.032534722,-0.99945354,0.023622343,0.99918705,0.03266368,0.99970394,-0.023799649,0.0050499807,0.00940888,0.02060077,-0.9997435,0.027683923,0.9993992,0.020854214,0.99957246,-0.027873037,0.008832917,10.02713,-0.24645996,-0.033493042,9.803747,-0.23339483,0.049523395,-0.06484985,-0.016418457,-0.032104492,-43.43872,37.25891,0.95977783,0,0.0,0.0,0.0,0.0
1.834472656,0.0055348035,0.03219875,-0.99946624,0.023392312,0.99920386,0.032319836,0.999711,-0.023558706,0.004777193,0.009268761,0.021073379,-0.99973494,0.027521411,0.99939376,0.021321343,0.99957824,-0.02771174,0.008683173,10.025925,-0.21057129,-0.022735596,9.803816,-0.23103198,0.04684826,-0.07600403,-0.018249512,-0.029815674,-43.43872,37.25891,0.95977783,0,0.0,0.0,0.0,0.0
1.842773437,0.005088455,0.02694616,-0.99962395,0.023139212,0.99936604,0.027056994,0.99971926,-0.02326819,0.0044617164,0.009194938,0.0212959,-0.9997309,0.027437996,0.9993913,0.021541024,0.99958116,-0.027628684,0.008605024,10.022339,-0.1986084,-0.051452637,9.803897,-0.228183,0.043754492,-0.07951355,-0.023284912,-0.027374268,-43.499756,37.139893,0.7797241,0,0.0,0.0,0.0,0.0
1.851074219,0.0047252234,0.024799598,-0.9996813,0.0228968,0.9994276,0.024901533,0.99972665,-0.023007168,0.0041546873,0.009033134,0.021519648,-0.9997276,0.027266897,0.9993913,0.021758782,0.99958736,-0.02745602,0.008440862,9.978073,-0.20458984,-0.022735596,9.803969,-0.22562325,0.040743567,-0.09753418,-0.028625488,-0.027069092,-43.499756,37.25891,0.71868896,0,0.0,0.0,0.0,0.0
1.859375,0.0044349483,0.024460886,-0.9996909,0.022714224,0.9994403,0.024555523,0.9997322,-0.022816107,0.0038768565,0.008863153,0.021649536,-0.99972636,0.027093321,0.99939334,0.021882523,0.9995936,-0.027279854,0.008271218,10.023529,-0.24287415,0.022735596,9.804024,-0.22374958,0.038018975,-0.10731506,-0.030914307,-0.023712158,-43.499756,37.25891,0.71868896,0,0.0,0.0,0.0,0.0
1.867675781,0.0041625006,0.024142979,-0.99969983,0.02255722,0.99945176,0.02423091,0.99973685,-0.02265131,0.0036156203,0.008774784,0.021705763,-0.9997259,0.027005507,0.99939454,0.0219356,0.9995968,-0.027190585,0.008183298,10.023529,-0.24287415,0.022735596,9.8040695,-0.22213346,0.035457123,-0.10731506,-0.017944336,-0.019134521,-43.499756,37.25891,0.71868896,0,0.0,0.0,0.0,0.0
1.875976562,0.0041321116,0.027177433,-0.999622,0.022425106,0.9993766,0.027263459,0.99973994,-0.02252929,0.0035200792,0.00859256,0.021802282,-0.99972534,0.02682895,0.99939734,0.022025721,0.9996031,-0.02701084,0.00800245,10.005585,-0.25602722,0.07298279,9.8041,-0.22093686,0.034520186,-0.12991333,0.0023651123,-0.018676758,-43.618774,37.5,0.8392334,0,0.0,0.0,0.0,0.0
1.884277344,0.0040620063,0.027095947,-0.99962455,0.022281751,0.9993822,0.02717992,0.99974346,-0.022383792,0.003455751,0.00841691,0.022015138,-0.9997222,0.026653659,0.99939746,0.02223239,0.9996093,-0.026833382,0.007825055,10.005585,-0.25602722,0.07298279,9.804134,-0.21951002,0.033889342,-0.13235474,0.005584717,-0.019744873,-43.618774,37.5,0.8392334,0,0.0,0.0,0.0,0.0
1.892578125,0.0038505972,0.017241368,-0.99984396,0.022113388,0.9996054,0.017322417,0.99974805,-0.022176638,0.0034678124,0.008330175,0.022116754,-0.99972063,0.026565792,0.9993976,0.022330966,0.99961233,-0.026744394,0.0077376077,10.082153,-0.18902588,0.039474487,9.804179,-0.21747853,0.034007624,-0.13815308,0.003753662,-0.020812988,-43.499756,37.5,0.47912598,0,0.0,0.0,0.0,0.0
1.900878906,0.004010096,0.025465976,-0.99966764,0.021848377,0.99943477,0.025547687,0.99975324,-0.021943564,0.0034514398,0.008151844,0.021923728,-0.9997264,0.026390323,0.9994067,0.022131905,0.9996185,-0.02656352,0.007568433,10.046265,-0.2033844,0.044265747,9.80423,-0.21519284,0.03384706,-0.13937378,-0.018707275,-0.021118164,-43.37921,37.438965,0.7797241,0,0.0,0.0,0.0,0.0
1.909179687,0.003807722,0.025231631,-0.9996744,0.021676896,0.9994446,0.0253084,0.99975777,-0.021766204,0.0032586635,0.007988474,0.022064002,-0.9997247,0.026209924,0.9994084,0.022266459,0.99962455,-0.026380582,0.0074054524,9.976868,-0.22492981,0.0,9.804275,-0.21345356,0.031956572,-0.13937378,-0.03564453,-0.024475098,-43.37921,37.438965,0.7797241,0,0.0,0.0,0.0,0.0
1.917480469,0.0034802568,0.024852434,-0.9996851,0.021520767,0.9994577,0.024921702,0.9997623,-0.021600723,0.002943526,0.007905144,0.022127355,-0.99972385,0.026119012,0.99940944,0.022326926,0.9996276,-0.026288299,0.0073225317,9.976868,-0.22492981,0.0,9.804319,-0.21183074,0.02886613,-0.1340332,-0.033813477,-0.022491455,-43.37921,37.438965,0.7797241,0,0.0,0.0,0.0,0.0
1.92578125,0.0030800381,0.017754426,-0.9998376,0.021375228,0.9996127,0.017816281,0.99976677,-0.021426633,0.0026993407,0.0077303126,0.02223527,-0.99972284,0.025936486,0.9994119,0.02242891,0.99963367,-0.02610268,0.007149062,9.923035,-0.21655273,0.059814453,9.804363,-0.2101235,0.02647149,-0.13494873,-0.025878906,-0.017150879,-43.37921,37.85858,0.53863525,0,0.0,0.0,0.0,0.0
1.934082031,0.0028318132,0.017470088,-0.99984336,0.02129716,0.9996196,0.017526496,0.9997692,-0.021343457,0.0024586725,0.007545358,0.022057867,-0.9997282,0.025756668,0.99942064,0.02224548,0.99963975,-0.025917519,0.00697285,9.944565,-0.25723267,0.0059814453,9.804386,-0.2093078,0.02411134,-0.13311768,-0.0016021729,-0.013931274,-43.37921,37.85858,0.53863525,0,0.0,0.0,0.0,0.0
1.942382812,0.0026756502,0.015968272,-0.9998689,0.021244613,0.99964595,0.01602156,0.9997707,-0.021284698,0.002335463,0.007450646,0.02196613,-0.9997309,0.02566791,0.99942505,0.022150703,0.9996427,-0.025826043,0.0068825376,10.036697,-0.21176147,-0.07537842,9.804402,-0.2087316,0.02290307,-0.13082886,-0.0017547607,-0.015914917,-43.67981,37.319946,0.47912598,0,0.0,0.0,0.0,0.0
1.950683594,0.0023317605,0.015512596,-0.999877,0.021101125,0.9996562,0.01555838,0.9997746,-0.021134807,0.0020036257,0.0072605577,0.021728665,-0.9997375,0.02549385,0.9994349,0.021907235,0.99964863,-0.025646215,0.006702508,10.128815,-0.2033844,-0.1483612,9.8044405,-0.20726168,0.01964886,-0.12364197,-0.03274536,-0.018829346,-43.618774,37.438965,0.47912598,0,0.0,0.0,0.0,0.0
1.958984375,0.0018555947,0.014957954,-0.9998864,0.020955015,0.9996679,0.0149935745,0.9997786,-0.020980457,0.0015415344,0.007161524,0.021604368,-0.99974096,0.025406597,0.9994399,0.02177986,0.9996515,-0.025555992,0.0066086194,10.128815,-0.2033844,-0.1483612,9.80448,-0.205748,0.015117289,-0.12976074,-0.03656006,-0.01423645,-43.618774,37.438965,0.47912598,0,0.0,0.0,0.0,0.0
1.967285156,0.0013832208,0.014407724,-0.9998953,0.020836834,0.99967873,0.01443343,0.99978197,-0.020854617,0.001082565,0.0069503854,0.021341223,-0.9997481,0.025231663,0.9994502,0.021510277,0.99965745,-0.025374811,0.00640809,10.13002,-0.21655273,-0.07777405,9.804512,-0.20451392,0.010616337,-0.12792969,-0.04573059,-0.018981934,-43.618774,37.438965,0.47912598,0,0.0,0.0,0.0,0.0
1.975585937,0.0014253373,0.015980616,-0.9998713,0.02071489,0.9996573,0.016006725,0.9997844,-0.020735038,0.001093812,0.0067287316,0.021066708,-0.99975544,0.025059104,0.9994605,0.021229153,0.99966335,-0.02519582,0.0061971894,10.10968,-0.2033844,0.29910278,9.804536,-0.20334128,0.010726633,-0.13235474,-0.05091858,-0.0096588135,-43.258667,37.55951,0.53863525,0,0.0,0.0,0.0,0.0
1.983886719,0.0013801011,0.015928527,-0.99987215,0.02061357,0.99966013,0.015953604,0.99978656,-0.020632952,0.0010512882,0.0066222916,0.020965008,-0.99975824,0.024972755,0.99946487,0.021124274,0.99966615,-0.025106613,0.006095194,10.10968,-0.2033844,0.29910278,9.804557,-0.20234014,0.010309616,-0.12440491,-0.05581665,-0.014862061,-43.258667,37.55951,0.53863525,0,0.0,0.0,0.0,0.0
1.9921875,0.0010636857,0.023703886,-0.9997184,0.020470807,0.9995089,0.023720698,0.99978983,-0.020490276,5.7792576E-4,0.006413999,0.0207656,-0.9997638,0.024801148,0.9994735,0.020918684,0.9996718,-0.024929464,0.0058956114,10.120438,-0.18424988,0.015548706,9.804589,-0.20094097,0.0056675156,-0.12150574,-0.0640564,-0.0137786865,-42.89856,37.319946,0.8392334,0,0.0,0.0,0.0,0.0
2.000488281,4.2034965E-4,0.018142538,-0.9998353,0.020331463,0.99962854,0.018147333,0.9997932,-0.020335743,5.132918E-5,0.0062025,0.020881958,-0.9997627,0.024629094,0.9994754,0.021028757,0.9996774,-0.02475368,0.005684943,10.1324005,-0.20219421,-0.025131226,9.804622,-0.19942552,5.0336734E-4,-0.10089111,-0.08192444,-0.014556885,-42.83905,37.319946,0.6591797,0,0.0,0.0,0.0,0.0
2.008789062,-2.657063E-4,0.01735527,-0.9998493,0.020221787,0.99964505,0.01734635,0.9997955,-0.020214131,-6.165666E-4,0.0060866824,0.020827182,-0.99976456,0.024543462,0.9994788,0.020970652,0.9996802,-0.024665326,0.0055723386,10.1324005,-0.20219421,-0.025131226,9.804645,-0.19823292,-0.006046453,-0.103637695,-0.08161926,-0.010574341,-42.83905,37.319946,0.6591797,0,0.0,0.0,0.0,0.0
2.017089844,-9.1748574E-4,0.01660732,-0.99986166,0.020094294,0.99966043,0.01658554,0.99979764,-0.020076297,-0.0012508866,0.0058345003,0.020689718,-0.999769,0.024373189,0.99948597,0.020826103,0.9996859,-0.024489067,0.0053272266,10.139587,-0.1483612,0.022735596,9.804666,-0.19688122,-0.0122670075,-0.103637695,-0.0761261,-0.0014190674,-42.83905,37.319946,0.6591797,0,0.0,0.0,0.0,0.0
2.025390625,-0.0013242938,0.022553701,-0.9997448,0.02004236,0.9995454,0.022522654,0.99979824,-0.020007417,-0.0017757213,0.0055664363,0.020528087,-0.99977386,0.02420482,0.9994936,0.0206571,0.99969155,-0.024314329,0.0050667385,10.155136,-0.17347717,0.06939697,9.804672,-0.19620575,-0.017413879,-0.09448242,-0.07244873,-0.0017242432,-42.89856,37.319946,0.8987427,0,0.0,0.0,0.0,0.0
2.033691406,-0.0018250449,0.021978388,-0.9997568,0.019976,0.99955976,0.02193759,0.9997988,-0.019931102,-0.0022632817,0.0054287035,0.0205686,-0.99977374,0.024121314,0.99949485,0.02069384,0.9996943,-0.024228195,0.004929819,10.155136,-0.17347717,0.06939697,9.804677,-0.19545734,-0.022195213,-0.08958435,-0.07107544,-0.005996704,-42.89856,37.319946,0.8987427,0,0.0,0.0,0.0,0.0
2.041992187,-0.0022910642,0.024512962,-0.9996969,0.019896936,0.9995027,0.024462601,0.9997994,-0.01983486,-0.0027776577,0.0051416927,0.02062443,-0.99977404,0.023956807,0.9994978,0.02074194,0.9996998,-0.024058042,0.004645015,10.155136,-0.17347717,0.06939697,9.804683,-0.19451353,-0.027239518,-0.08866882,-0.06741333,-0.0067596436,-42.89856,37.55951,1.0192871,0,0.0,0.0,0.0,0.0
2.050292969,-0.0029587275,0.025547352,-0.9996692,0.019703392,0.999481,0.025484227,0.9998015,-0.019621475,-0.0034605619,0.004847884,0.020778416,-0.99977237,0.023794964,0.9994986,0.020888107,0.9997051,-0.023890812,0.0043510315,10.303497,-0.098098755,-0.10647583,9.804704,-0.19242094,-0.03393652,-0.08470154,-0.079940796,-0.013015747,-42.77954,37.25891,1.0787964,0,0.0,0.0,0.0,0.0
2.05859375,-0.0037167494,0.024677573,-0.99968857,0.019474905,0.9995077,0.024600701,0.9998035,-0.019377405,-0.0041955127,0.004692123,0.020873796,-0.99977106,0.023712415,0.99949867,0.020979393,0.9997078,-0.023805428,0.004194803,10.303497,-0.098098755,-0.10647583,9.804723,-0.19002743,-0.041143928,-0.08792114,-0.085128784,-0.015167236,-42.77954,37.25891,1.0787964,0,0.0,0.0,0.0,0.0
2.066894531,-0.0048049204,0.023428908,-0.999714,0.019172834,0.9995439,0.02333277,0.9998046,-0.019055238,-0.005251927,0.0043597287,0.021024426,-0.9997695,0.023543429,0.9994997,0.02112142,0.9997133,-0.023630084,0.00386256,10.309479,-0.0657959,-0.27757263,9.804734,-0.18686806,-0.051503807,-0.085617065,-0.117507935,-0.02859497,-42.77954,37.25891,1.0787964,0,0.0,0.0,0.0,0.0
2.075195312,-0.0059450367,0.028510742,-0.9995758,0.018842598,0.9994191,0.028394205,0.99980474,-0.018665802,-0.0064788,0.003997141,0.021119643,-0.999769,0.02336956,0.99950194,0.021207433,0.9997189,-0.02344893,0.0035015936,10.289139,-0.09211731,-0.31225586,9.804735,-0.183049,-0.063535325,-0.0921936,-0.14697266,-0.033172607,-42.658997,37.379456,1.3198853,0,0.0,0.0,0.0,0.0
2.083496094,-0.007482226,0.02675779,-0.999614,0.018466752,0.99947524,0.02661585,0.9998015,-0.018260475,-0.007972428,0.003798932,0.021267466,-0.9997665,0.023277594,0.999501,0.021350266,0.99972177,-0.023353271,0.0033019811,10.289139,-0.09211731,-0.31225586,9.804704,-0.1790741,-0.07818281,-0.09951782,-0.16300964,-0.032562256,-42.658997,37.379456,1.3198853,0,0.0,0.0,0.0,0.0
2.091796875,-0.009393723,0.016536329,-0.99981916,0.018078115,0.9997027,0.01636455,0.99979246,-0.017921122,-0.009689876,0.0033533266,0.021484887,-0.99976355,0.023084778,0.99950105,0.021556677,0.9997279,-0.023151606,0.00285568,10.237686,-0.13877869,-0.3756714,9.804615,-0.17574617,-0.09502522,-0.1060791,-0.1706543,-0.030883789,-42.89856,37.25891,1.0192871,0,0.0,0.0,0.0,0.0
2.100097656,-0.011191018,0.014467359,-0.99983275,0.017755844,0.9997406,0.014267285,0.9997797,-0.017593209,-0.011444994,0.0030978064,0.021385938,-0.99976647,0.022985918,0.99950564,0.02145158,0.999731,-0.023047004,0.0026046997,10.237686,-0.13877869,-0.3756714,9.80449,-0.17253044,-0.11223706,-0.09844971,-0.16423035,-0.030883789,-42.89856,37.25891,1.0192871,0,0.0,0.0,0.0,0.0
2.108398437,-0.013044971,0.0041469494,-0.99990624,0.017396618,0.9998409,0.0039197193,0.9997636,-0.017343856,-0.013115039,0.0025307206,0.02111202,-0.9997739,0.022782635,0.9995164,0.02116425,0.99973726,-0.022831045,0.0020485092,10.195816,-0.1483612,-0.3529358,9.804332,-0.17008513,-0.1286146,-0.099823,-0.15309143,-0.010879517,-43.319702,37.01935,0.71868896,0,0.0,0.0,0.0,0.0
2.116699219,-0.014352667,0.0026164465,-0.9998936,0.0170598,0.99985164,0.0023714572,0.99975145,-0.017023945,-0.014395175,0.0019106355,0.020440366,-0.99978924,0.022579392,0.9995353,0.020478323,0.9997432,-0.022613762,0.0014482166,10.280762,-0.047851563,-0.14356995,9.804213,-0.16694787,-0.14116845,-0.09005737,-0.14331055,-0.016693115,-43.319702,37.01935,0.71868896,0,0.0,0.0,0.0,0.0
2.125,-0.01568741,-0.0054398496,-0.9998621,0.016621752,0.99984556,-0.005700548,0.9997388,-0.016708888,-0.015594569,0.0015835438,0.020083977,-0.999797,0.02247468,0.99954504,0.020114511,0.99974614,-0.022501972,0.0011314425,10.280762,-0.047851563,-0.14356995,9.804089,-0.16385822,-0.15293048,-0.08760071,-0.1425476,-0.017456055,-43.499756,37.379456,0.47912598,0,0.0,0.0,0.0,0.0
2.133300781,-0.016862538,-0.006807737,-0.99983466,0.01623799,0.99984306,-0.0070816535,0.99972594,-0.016354721,-0.016749347,8.9423824E-4,0.019073496,-0.99981767,0.022259565,0.99956995,0.01908868,0.9997518,-0.022272578,4.69286E-4,10.311874,-0.011962891,-0.09690857,9.803963,-0.16038503,-0.164255,-0.053863525,-0.16804504,-0.010726929,-43.499756,37.379456,0.47912598,0,0.0,0.0,0.0,0.0
2.141601562,-0.018047666,-0.0018719797,-0.9998354,0.015957968,0.99987036,-0.0021600965,0.9997098,-0.015994327,-0.018015452,1.8542157E-4,0.01804885,-0.9998371,0.022038488,0.9995942,0.018048553,0.9997571,-0.022038244,-2.1242307E-4,10.240082,0.027511597,-0.1040802,9.803804,-0.15685077,-0.17667124,-0.048049927,-0.17048645,-0.0066070557,-43.67981,37.25891,0.71868896,0,0.0,0.0,0.0,0.0
2.149902344,-0.019357158,-0.0034076876,-0.9998069,0.015601296,0.9998715,-0.003709963,0.99969095,-0.015670097,-0.019301502,-1.8163718E-4,0.01765053,-0.9998442,0.021923993,0.999604,0.017642306,0.9997596,-0.021917373,-5.6853535E-4,10.240082,0.027511597,-0.1040802,9.803619,-0.15367116,-0.18928309,-0.040725708,-0.16545105,-0.004470825,-43.67981,37.25891,0.71868896,0,0.0,0.0,0.0,0.0
2.158203125,-0.020638864,-0.0032782182,-0.99978167,0.0151516115,0.99987876,-0.003591317,0.9996722,-0.015222423,-0.02058669,-9.458199E-4,0.01681682,-0.99985814,0.021688953,0.9996237,0.01679236,0.9997643,-0.021669993,-0.0013102032,10.27359,0.11126709,-0.16270447,9.803435,-0.14928098,-0.20188646,-0.029418945,-0.14804077,-0.015777588,-43.67981,37.1994,0.7797241,0,0.0,0.0,0.0,0.0
2.166503906,-0.021987027,-0.004861981,-0.9997464,0.014450763,0.9998821,-0.005180451,0.9996538,-0.014561002,-0.021914177,-0.0017304921,0.016021235,-0.9998702,0.021445125,0.9996423,0.015980469,0.99976856,-0.021414686,-0.0020734507,10.259232,0.23449707,-0.28355408,9.803255,-0.14279465,-0.21490467,-0.01751709,-0.14178467,-0.020050049,-43.67981,37.1994,0.7797241,0,0.0,0.0,0.0,0.0
2.174804687,-0.02329533,-0.009541506,-0.9996831,0.013640613,0.99985826,-0.009861042,0.9996355,-0.013866006,-0.023161879,-0.002138389,0.015603667,-0.999876,0.021313528,0.99965185,0.015554587,0.9997706,-0.021277621,-0.0024702137,10.259232,0.23449707,-0.28355408,9.803076,-0.13597907,-0.22714044,-0.023468018,-0.14285278,-0.02279663,-43.499756,37.139893,0.6591797,0,0.0,0.0,0.0,0.0
2.183105469,-0.024550846,-0.011012817,-0.99963796,0.012809177,0.99985385,-0.011329785,0.99961656,-0.013082694,-0.024406193,-0.0029832576,0.014608143,-0.99988884,0.021029862,0.99967307,0.014542245,0.9997744,-0.020984141,-0.0032894898,10.247269,0.3014984,-0.2979126,9.80289,-0.1282974,-0.23934299,-0.027130127,-0.14117432,-0.01852417,-43.499756,37.139893,0.6591797,0,0.0,0.0,0.0,0.0
2.19140625,-0.025707603,-0.002661523,-0.999666,0.012234535,0.9999208,-0.002976827,0.9995947,-0.012306975,-0.025673004,-0.003845022,0.013593773,-0.99990016,0.020725282,0.9996939,0.013511272,0.9997778,-0.020671263,-0.0041255797,10.144379,0.3397827,-0.36489868,9.802675,-0.1206902,-0.25176618,-0.024536133,-0.13400269,-0.015914917,-43.499756,37.319946,1.0192871,0,0.0,0.0,0.0,0.0
2.199707031,-0.026990343,-0.0041577267,-0.9996271,0.011404324,0.9999251,-0.0044668876,0.99957067,-0.0115206335,-0.026940899,-0.0042850003,0.013268743,-0.9999028,0.020562457,0.9997017,0.013177956,0.9997794,-0.02050399,-0.00455656,10.144379,0.3397827,-0.36489868,9.80244,-0.11297882,-0.26419997,-0.035079956,-0.13400269,-0.016220093,-43.499756,37.319946,1.0192871,0,0.0,0.0,0.0,0.0
2.208007812,-0.028282082,-0.019888522,-0.9994021,0.0102483565,0.99974376,-0.020185338,0.9995474,-0.010813112,-0.028071009,-0.0051901466,0.0125788115,-0.9999074,0.020214872,0.99971783,0.0124715,0.99978215,-0.020148274,-0.0054429616,10.086945,0.30029297,-0.3098755,9.802212,-0.10604041,-0.27528256,-0.043319702,-0.121780396,-0.014083862,-43.258667,37.438965,0.47912598,0,0.0,0.0,0.0,0.0
2.216308594,-0.02943678,-0.02122349,-0.99934125,0.009523999,0.99972314,-0.02151214,0.99952126,-0.010150975,-0.0292265,-0.006116457,0.01129333,-0.99991757,0.019848589,0.9997406,0.011169919,0.9997843,-0.01977863,-0.006339026,10.098907,0.2859497,-0.3744812,9.801955,-0.09954706,-0.28661406,-0.03843689,-0.13217163,-0.004776001,-43.258667,37.438965,0.47912598,0,0.0,0.0,0.0,0.0
2.224609375,-0.030501712,-0.01287559,-0.99945176,0.009137909,0.9998717,-0.013159873,0.99949294,-0.009534298,-0.030380143,-0.006589262,0.0106430985,-0.9999216,0.019656897,0.9997515,0.010511752,0.99978507,-0.019586092,-0.0067968355,10.098907,0.2859497,-0.3744812,9.801678,-0.093499534,-0.29792744,-0.03630066,-0.13323975,-0.006454468,-43.37921,37.61902,0.8392334,0,0.0,0.0,0.0,0.0
2.232910156,-0.031818345,-0.014395201,-0.99939,0.008495952,0.9998563,-0.014672408,0.99945754,-0.008957621,-0.03169147,-0.007545611,0.009711936,-0.9999243,0.019261703,0.9997687,0.009565071,0.99978596,-0.019188073,-0.0077309343,10.067795,0.28833008,-0.4355011,9.801331,-0.08784425,-0.31078717,-0.04499817,-0.14559937,-0.0014190674,-43.37921,37.61902,0.8392334,0,0.0,0.0,0.0,0.0
2.241210937,-0.033115562,-0.009435982,-0.99940693,0.008075304,0.9999202,-0.0097084055,0.99941885,-0.0083920155,-0.033036724,-0.008516623,0.00875746,-0.9999254,0.018857589,0.9997852,0.0085956175,0.9997859,-0.018782977,-0.0086799385,10.00679,0.31225586,-0.4390869,9.800951,-0.08229756,-0.3239796,-0.056915283,-0.14575195,0.0065307617,-43.37921,37.979126,1.0787964,0,0.0,0.0,0.0,0.0
2.249511719,-0.034471493,-0.01098646,-0.9993453,0.0074922135,0.9999087,-0.011251091,0.9993776,-0.00787515,-0.03438603,-0.009012402,0.00839366,-0.9999242,0.018650712,0.9997922,0.008224452,0.9997854,-0.018575175,-0.009167077,10.00679,0.31225586,-0.4390869,9.800547,-0.077228844,-0.3372118,-0.05706787,-0.15812683,0.009124756,-43.37921,37.979126,1.0787964,0,0.0,0.0,0.0,0.0
2.2578125,-0.03581168,-0.012773945,-0.9992769,0.0070000994,0.9998905,-0.013032656,0.99933404,-0.0074617593,-0.035718344,-0.010028726,0.0076263403,-0.99992067,0.018227575,0.99980617,0.0074426536,0.9997836,-0.018151488,-0.010165792,10.012772,0.2679901,-0.38285828,9.800119,-0.073174864,-0.3502773,-0.05508423,-0.16621399,0.017669678,-43.499756,37.55951,1.0787964,0,0.0,0.0,0.0,0.0
2.266113281,-0.037195973,-0.014379249,-0.9992045,0.006529143,0.9998716,-0.0146319,0.99928665,-0.0070681977,-0.037097316,-0.011058582,0.006818615,-0.99991566,0.017802928,0.9998196,0.006621069,0.99978036,-0.017728206,-0.011177978,9.999603,0.3026886,-0.37806702,9.799655,-0.069315344,-0.3638004,-0.05218506,-0.15507507,0.030197144,-43.499756,37.55951,1.0787964,0,0.0,0.0,0.0,0.0
2.274414062,-0.03852298,-0.01570859,-0.9991342,0.0061545437,0.9998537,-0.015957199,0.9992387,-0.006763934,-0.038420666,-0.011586009,0.0063947183,-0.99991244,0.017588286,0.99982613,0.006190371,0.99977815,-0.017515022,-0.011696466,9.999603,0.3026886,-0.37806702,9.799185,-0.066331536,-0.37677804,-0.045455933,-0.14575195,0.040420532,-43.319702,37.61902,1.0787964,0,0.0,0.0,0.0,0.0
2.282714844,-0.039696068,-0.017061392,-0.9990662,0.0058833617,0.999833,-0.017308252,0.9991945,-0.0065649366,-0.039589055,-0.012662235,0.0055195387,-0.9999046,0.01715808,0.9998387,0.0053018946,0.9997726,-0.01708931,-0.012754898,10.003189,0.2859497,-0.3625183,9.798751,-0.064380035,-0.38823602,-0.03614807,-0.13108826,0.038131714,-43.319702,37.61902,1.0787964,0,0.0,0.0,0.0,0.0
2.291015625,-0.0407456,-0.014690253,-0.99906147,0.0057851886,0.99987155,-0.014938107,0.9991528,-0.0063884226,-0.040655393,-0.013742268,0.0046254294,-0.99989486,0.01673473,0.9998503,0.004395226,0.9997655,-0.016672572,-0.013817616,9.943375,0.29193115,-0.3744812,9.798342,-0.06264903,-0.3986932,-0.038742065,-0.09460449,0.050048828,-43.078613,37.919617,1.1993408,0,0.0,0.0,0.0,0.0
2.299316406,-0.041616965,-0.015681777,-0.99901056,0.005593789,0.9998575,-0.015928099,0.999118,-0.006251133,-0.04152331,-0.014286583,0.0042391582,-0.99988896,0.016525924,0.9998554,0.004002891,0.99976134,-0.016466903,-0.0143545745,9.943375,0.29193115,-0.3744812,9.798,-0.061302677,-0.4072046,-0.028961182,-0.079940796,0.054779053,-43.078613,37.919617,1.1993408,0,0.0,0.0,0.0,0.0
2.307617187,-0.04214949,-0.00832505,-0.99907666,0.005868097,0.99994594,-0.008579859,0.999094,-0.006224315,-0.042098355,-0.015377109,0.0034503643,-0.9998758,0.01611363,0.99986506,0.0032025154,0.9997519,-0.016062383,-0.015430633,9.915863,0.275177,-0.33259583,9.797766,-0.061039682,-0.41284385,-0.019042969,-0.06954956,0.061950684,-43.019104,37.799072,1.499939,0,0.0,0.0,0.0,0.0
2.315917969,-0.04268815,-0.008939227,-0.99904835,0.0058980887,0.99994016,-0.009199225,0.999071,-0.006285175,-0.04263288,-0.016442196,0.002984111,-0.99986035,0.015719825,0.9998727,0.0027256433,0.9997412,-0.015672816,-0.016487015,9.9039,0.25602722,-0.3912201,9.79754,-0.061636515,-0.41808575,-0.008346558,-0.06939697,0.065475464,-43.019104,37.799072,1.499939,0,0.0,0.0,0.0,0.0
2.32421875,-0.04321556,-0.011086303,-0.99900424,0.0058877505,0.9999182,-0.011351141,0.9990484,-0.006372434,-0.043146756,-0.016969597,0.0027456693,-0.99985224,0.015529491,0.9998763,0.0024821672,0.99973536,-0.015485074,-0.017010137,9.9039,0.25602722,-0.3912201,9.797318,-0.062492233,-0.42312515,4.5776367E-5,-0.07368469,0.065322876,-42.959595,37.799072,1.4389038,0,0.0,0.0,0.0,0.0
2.332519531,-0.043846156,-0.011804349,-0.99896854,0.0059269043,0.9999095,-0.012075608,0.9990207,-0.00645026,-0.043772224,-0.018014183,0.002197972,-0.9998353,0.015161408,0.9998832,0.0019249121,0.9997228,-0.015124235,-0.018045405,9.860825,0.26200867,-0.45942688,9.797047,-0.063255444,-0.42925888,0.0037078857,-0.079330444,0.05783081,-42.959595,37.799072,1.4389038,0,0.0,0.0,0.0,0.0
2.340820312,-0.04459504,1.2085802E-4,-0.9990051,0.0064628553,0.999979,-1.6752249E-4,0.9989842,-0.006463897,-0.044594895,-0.019042216,0.0016435231,-0.9998173,0.014809395,0.9998894,0.0013615864,0.99970895,-0.014780763,-0.01906445,9.893127,0.28474426,-0.57188416,9.796689,-0.063389175,-0.43732652,0.0043182373,-0.09811401,0.060577393,-42.89856,37.919617,1.9195557,0,0.0,0.0,0.0,0.0
2.349121094,-0.045518693,-9.2620024E-4,-0.99896306,0.0064162035,0.99997854,-0.0012195022,0.9989428,-0.0064650606,-0.045511775,-0.019553652,0.0016130736,-0.99980754,0.014643196,0.9998919,0.0013268266,0.99970156,-0.014614433,-0.019575158,9.893127,0.28474426,-0.57188416,9.796283,-0.06340059,-0.44631806,0.007980347,-0.10437012,0.061950684,-42.89856,37.919617,1.9195557,0,0.0,0.0,0.0,0.0
2.357421875,-0.046491764,0.0015407668,-0.9989174,0.006514549,0.9999779,0.0012392014,0.9988974,-0.0064498847,-0.04650078,-0.020583108,0.0015125289,-0.999787,0.014319853,0.99989676,0.001217885,0.9996856,-0.014291734,-0.020602643,9.826126,0.30508423,-0.57069397,9.795837,-0.06325176,-0.4560169,0.006149292,-0.098724365,0.05218506,-42.539978,38.038635,2.0385742,0,0.0,0.0,0.0,0.0
2.365722656,-0.047373578,5.5243523E-4,-0.9988771,0.006408241,0.99997944,2.491223E-4,0.99885666,-0.0063892435,-0.04737615,-0.021609368,0.0015136487,-0.9997654,0.014010668,0.9999011,0.0012110216,0.9996683,-0.01398121,-0.021628438,9.757935,0.3062744,-0.5001068,9.795439,-0.06265708,-0.46460134,0.0069122314,-0.087265015,0.05126953,-42.539978,38.038635,2.0385742,0,0.0,0.0,0.0,0.0
2.374023437,-0.048173323,0.0012566518,-0.99883825,0.006342061,0.9999795,9.522141E-4,0.9988189,-0.0062888213,-0.0481803,-0.022124961,0.0014944267,-0.9997541,0.013859068,0.99990326,0.0011879428,0.9996591,-0.0138293775,-0.022143532,9.757935,0.3062744,-0.5001068,9.795068,-0.061672278,-0.4724874,0.021881104,-0.087265015,0.049591064,-42.539978,38.09967,2.0996094,0,0.0,0.0,0.0,0.0
2.382324219,-0.048873365,4.731874E-4,-0.99880487,0.0062766355,0.9999803,1.666169E-4,0.99878526,-0.006260991,-0.048875365,-0.023156906,0.0014850129,-0.9997307,0.013561555,0.9999073,0.001171147,0.9996398,-0.013530783,-0.0231749,9.732803,0.25602722,-0.47257996,9.794738,-0.061399348,-0.47930363,0.047073364,-0.0761261,0.045166016,-42.539978,38.09967,2.0996094,0,0.0,0.0,0.0,0.0
2.390625,-0.04940863,0.012602789,-0.9986991,0.006809581,0.99990135,0.01228107,0.9987554,-0.0061939317,-0.04948958,-0.02367164,0.0014647788,-0.9997187,0.0134163285,0.99990934,0.0011473822,0.99962974,-0.013385394,-0.023689147,9.732803,0.25602722,-0.47257996,9.794445,-0.060741723,-0.485327,0.07090759,-0.0761261,0.045166016,-42.29889,38.519287,2.5787354,0,0.0,0.0,0.0,0.0
2.398925781,-0.049940642,0.012017285,-0.99867994,0.0067027616,0.9999091,0.011696894,0.99872965,-0.0061097625,-0.050016653,-0.024688303,0.0019058281,-0.9996934,0.0131437015,0.9999124,0.0015816505,0.99960876,-0.013100622,-0.024711188,9.737595,0.27757263,-0.45822144,9.794192,-0.059916303,-0.49049583,0.09335327,-0.057647705,0.0382843,-42.29889,38.519287,2.5787354,0,0.0,0.0,0.0,0.0
2.407226562,-0.05041387,0.005233237,-0.99871475,0.0062614763,0.9999683,0.004923734,0.9987087,-0.006005204,-0.05044503,-0.0251923,0.0021080503,-0.99968046,0.0130098285,0.9999138,0.00178069,0.99959797,-0.01296081,-0.025217554,9.713669,0.25602722,-0.4295044,9.793987,-0.05889093,-0.4946968,0.11076355,-0.05091858,0.037368774,-42.359924,38.339233,2.3391724,0,0.0,0.0,0.0,0.0
2.415527344,-0.050719094,0.00489516,-0.998701,0.006154965,0.9999705,0.004588802,0.99869394,-0.00591423,-0.050747726,-0.02619078,0.0022318026,-0.9996544,0.012739506,0.99991703,0.0018986157,0.99957573,-0.012685378,-0.026217038,9.684952,0.24645996,-0.43669128,9.793842,-0.057998784,-0.4976652,0.13046265,-0.041305542,0.03477478,-42.359924,38.339233,2.3391724,0,0.0,0.0,0.0,0.0
2.423828125,-0.050988518,0.009358084,-0.9986554,0.006292668,0.9999393,0.009048829,0.99867946,-0.005822821,-0.051044315,-0.027161745,0.0023372674,-0.9996283,0.012476182,0.9999202,0.0019989489,0.9995532,-0.01241725,-0.027188739,9.650253,0.25125122,-0.46899414,9.7937,-0.057102367,-0.50057375,0.121292114,-0.035507202,0.0320282,-42.359924,38.038635,2.519226,0,0.0,0.0,0.0,0.0
2.432128906,-0.05121411,0.009106249,-0.99864614,0.006167081,0.9999422,0.008801797,0.9986687,-0.005707956,-0.05126732,-0.027637573,0.0024776787,-0.9996149,0.012349183,0.99992144,0.0021370056,0.9995417,-0.012285367,-0.027666,9.629913,0.1758728,-0.53240967,9.793594,-0.05597593,-0.50276065,0.12542725,-0.015792847,0.026382446,-42.359924,38.038635,2.519226,0,0.0,0.0,0.0,0.0
2.440429687,-0.051431403,0.00886369,-0.99863726,0.006217648,0.9999441,0.0085550705,0.9986571,-0.0057691745,-0.05148363,-0.028570106,0.0027401613,-0.9995881,0.012098328,0.99992394,0.0023952893,0.9995186,-0.012024909,-0.028601086,9.629913,0.105285645,-0.59580994,9.793481,-0.056576278,-0.504882,0.14451599,0.013214111,0.024993896,-42.359924,38.038635,2.519226,0,0.0,0.0,0.0,0.0
2.448730469,-0.051480874,0.0020169823,-0.99867195,0.005906798,0.9999811,0.001715135,0.9986565,-0.0058106566,-0.051491812,-0.029474348,0.0029826455,-0.999561,0.011860031,0.99992615,0.0026340147,0.99949515,-0.0117771905,-0.029507548,9.604797,0.105285645,-0.59580994,9.793475,-0.056983076,-0.5049622,0.13214111,0.03489685,0.029129028,-42.718506,38.398743,2.279663,0,0.0,0.0,0.0,0.0
2.45703125,-0.051395353,0.0035836957,-0.99867195,0.0059709665,0.99997675,0.00328109,0.9986605,-0.005794404,-0.05141556,-0.029914737,0.0029633343,-0.999548,0.011741337,0.99992764,0.0026130618,0.9994835,-0.011657862,-0.029947367,9.61795,0.14596558,-0.6089783,9.793514,-0.056823693,-0.5042144,0.14604187,0.024215698,0.02407837,-42.77954,38.339233,2.3391724,0,0.0,0.0,0.0,0.0
2.465332031,-0.051394336,0.0035848361,-0.99867195,0.0059199086,0.999977,0.0032848665,0.99866086,-0.0057432237,-0.05141438,-0.030765662,0.0029879017,-0.99952215,0.011512236,0.99993026,0.0026347707,0.99946034,-0.011425675,-0.030797916,9.570099,0.18185425,-0.63768005,9.793518,-0.056321785,-0.50420284,0.14512634,0.01260376,0.028671265,-42.77954,38.339233,2.3391724,0,0.0,0.0,0.0,0.0
2.473632812,-0.05141646,-0.0015477381,-0.9986761,0.0055673826,0.99998283,-0.0018363977,0.99866176,-0.005654433,-0.051406957,-0.03158261,0.0030115412,-0.99949664,0.011290226,0.99993277,0.002656101,0.99943745,-0.011200655,-0.031614486,9.547363,0.21774292,-0.59580994,9.793527,-0.055451047,-0.50413007,0.14451599,0.029556274,0.029586792,-43.078613,37.919617,2.1591187,0,0.0,0.0,0.0,0.0
2.481933594,-0.05118823,-0.0012877715,-0.99868816,0.0055272626,0.99998343,-0.0015727442,0.99867374,-0.005600518,-0.05118027,-0.03197989,0.0029203608,-0.9994842,0.011177496,0.9999342,0.0025640363,0.999426,-0.011089734,-0.03201043,9.552155,0.19740295,-0.48214722,9.793644,-0.054922324,-0.501907,0.14909363,0.037338257,0.02607727,-43.078613,37.919617,2.1591187,0,0.0,0.0,0.0,0.0
2.490234375,-0.050899263,-9.5862005E-4,-0.9987033,0.0054789847,0.99998426,-0.0012390879,0.9986888,-0.0055349492,-0.050893206,-0.03274167,0.0027537285,-0.99946,0.010956734,0.99993706,0.0023961072,0.9994038,-0.010872367,-0.032769784,9.634705,0.19262695,-0.5036926,9.793792,-0.054279312,-0.49909186,0.17474365,0.0393219,0.023620605,-43.078613,37.919617,2.1591187,0,0.0,0.0,0.0,0.0
2.498535156,-0.050680842,-0.01707212,-0.99856895,0.004549112,0.99983954,-0.017324727,0.99870455,-0.005420634,-0.050595053,-0.03346167,0.0026067276,-0.9994366,0.010742297,0.9999398,0.002248382,0.9993823,-0.010661011,-0.03348766,9.634705,0.19262695,-0.5036926,9.793946,-0.05315826,-0.496168,0.18589783,0.034591675,0.008514404,-43.43872,37.739563,1.5594482,0,0.0,0.0,0.0,0.0
2.506835937,-0.050425585,-0.014890063,-0.9986168,0.0044434466,0.9998756,-0.015133206,0.9987179,-0.0052004014,-0.05035315,-0.033808425,0.0022131524,-0.9994259,0.010625016,0.9999418,0.0018548735,0.9993719,-0.010556205,-0.033829972,9.729218,0.22013855,-0.5407715,9.794077,-0.050998516,-0.49379572,0.18421936,0.0413208,0.0023956299,-43.258667,37.919617,1.6189575,0,0.0,0.0,0.0,0.0
2.515136719,-0.050124906,-0.014546181,-0.998637,0.0041892515,0.99988216,-0.01477459,0.99873424,-0.0049241167,-0.050058056,-0.034470376,0.0015358732,-0.9994045,0.010390924,0.9999453,0.0011783118,0.9993517,-0.010344121,-0.03448445,9.729218,0.21774292,-0.5144501,9.794237,-0.04828909,-0.49090186,0.20391846,0.041152954,-0.0026397705,-43.258667,37.919617,1.6189575,0,0.0,0.0,0.0,0.0
2.5234375,-0.049819123,-0.02529645,-0.9984379,0.0034064804,0.9996691,-0.025497617,0.9987524,-0.004671428,-0.049716465,-0.035094067,8.990304E-4,-0.99938357,0.010154807,0.99994826,5.429451E-4,0.9993324,-0.010129494,-0.03510138,9.667007,0.17228699,-0.49412537,9.794416,-0.045811065,-0.48755202,0.20635986,0.055664063,-0.00630188,-43.199158,37.739563,1.1993408,0,0.0,0.0,0.0,0.0
2.531738281,-0.049485747,-0.02491401,-0.99846405,0.003180054,0.99967986,-0.025101956,0.99876976,-0.0044173584,-0.049390674,-0.035391785,3.7508833E-4,-0.99937344,0.010027331,0.99994975,2.0196981E-5,0.99932325,-0.010020334,-0.035393767,9.574875,0.1651001,-0.550354,9.794586,-0.043319494,-0.4843571,0.2147522,0.067276,-0.004928589,-43.199158,37.739563,1.1993408,0,0.0,0.0,0.0,0.0
2.540039062,-0.048990916,-0.024346376,-0.99850243,0.0029688273,0.9996948,-0.024521114,0.9987948,-0.004165693,-0.04890369,-0.035956,-6.2642246E-4,-0.9993532,0.009769605,0.99995184,-9.783009E-4,0.99930567,-0.009798462,-0.035948146,9.536591,0.17706299,-0.5168457,9.794831,-0.040851496,-0.4795814,0.21154785,0.08026123,-0.0012664795,-43.199158,37.739563,1.1993408,0,0.0,0.0,0.0,0.0
2.548339844,-0.04836362,-0.017238174,-0.99868095,0.0030838996,0.99984366,-0.017407589,0.9988251,-0.0039217263,-0.048302896,-0.036478024,-0.0015657919,-0.9993332,0.009511933,0.9999529,-0.0019139709,0.9992892,-0.009575409,-0.036461413,9.536591,0.17706299,-0.5168457,9.795128,-0.038459,-0.47368962,0.21185303,0.09811401,-0.007217407,-43.078613,37.5,1.4389038,0,0.0,0.0,0.0,0.0
2.556640625,-0.04763839,-0.011627135,-0.998797,0.003114087,0.9999257,-0.011788803,0.99885976,-0.0036719402,-0.047598638,-0.03671774,-0.0018792447,-0.9993239,0.009386975,0.99995345,-0.0022253303,0.99928164,-0.009462338,-0.036698394,9.536591,0.17706299,-0.5168457,9.795469,-0.036009435,-0.46678323,0.21551514,0.1078949,0.003479004,-43.13965,37.678528,1.6189575,0,0.0,0.0,0.0,0.0
2.564941406,-0.04682395,-0.01069255,-0.99884593,0.0030558426,0.99993646,-0.010847475,0.99889845,-0.0035602376,-0.0467883,-0.037152443,-0.002265258,-0.99930704,0.009142536,0.9999548,-0.0026066294,0.99926776,-0.009233043,-0.037130054,9.609573,0.0993042,-0.5144501,9.795848,-0.034914006,-0.4588365,0.20925903,0.119506836,0.0043945313,-43.13965,37.678528,1.6189575,0,0.0,0.0,0.0,0.0
2.573242187,-0.045936454,-0.009674201,-0.99889755,0.0030610089,0.99994713,-0.009825133,0.9989397,-0.0035089657,-0.045904405,-0.03734681,-0.0024338022,-0.99929935,0.0090223625,0.9999554,-0.002772593,0.99926156,-0.009119589,-0.037323188,9.710068,0.07777405,-0.50608826,9.796252,-0.0344112,-0.45016846,0.20376587,0.11584473,0.0040893555,-43.13965,37.678528,1.6189575,0,0.0,0.0,0.0,0.0
2.581542969,-0.045068048,-0.008344527,-0.9989491,0.003107583,0.9999592,-0.008493165,0.9989791,-0.0034870873,-0.045040272,-0.037688658,-0.0027205187,-0.9992859,0.008788597,0.9999567,-0.0030538123,0.9992509,-0.008897414,-0.037663117,9.772293,0.051452637,-0.501297,9.7966385,-0.034196645,-0.4416942,0.21185303,0.10774231,8.69751E-4,-42.83905,37.55951,1.6189575,0,0.0,0.0,0.0,0.0
2.58984375,-0.044199355,-0.0073517184,-0.9989956,0.0032361206,0.99996656,-0.0075020418,0.9990175,-0.0035644562,-0.04417409,-0.037982196,-0.0029432266,-0.9992741,0.008565155,0.999958,-0.0032708005,0.9992417,-0.00868317,-0.03795539,9.787842,-0.028717041,-0.44625854,9.797015,-0.034955375,-0.43319985,0.199646,0.09675598,0.0017852783,-42.83905,37.55951,1.6189575,0,0.0,0.0,0.0,0.0
2.598144531,-0.043397103,-0.0017898041,-0.9990564,0.0035824752,0.9999918,-0.0019470957,0.99905145,-0.0036635925,-0.04339033,-0.038107,-0.0030313951,-0.99926907,0.008459091,0.9999586,-0.0033560735,0.99923784,-0.008580797,-0.038079776,9.747162,-0.06819153,-0.32901,9.797348,-0.03592757,-0.42551377,0.20285034,0.09124756,0.010192871,-42.959595,37.438965,1.7990112,0,0.0,0.0,0.0,0.0
2.606445312,-0.04251319,-0.0022851706,-0.99909335,0.0036465267,0.9999904,-0.0024423886,0.99908924,-0.003747054,-0.04250445,-0.038316373,-0.002982231,-0.9992612,0.008265694,0.99996036,-0.0033012633,0.99923146,-0.008386079,-0.038290206,9.753143,0.010772705,-0.34217834,9.797719,-0.036746047,-0.41682625,0.2171936,0.095062256,0.010498047,-42.89856,37.55951,1.739502,0,0.0,0.0,0.0,0.0
2.614746094,-0.0415996,-0.0012398539,-0.9991335,0.003777123,0.99999183,-0.0013981821,0.9991272,-0.0038320147,-0.041594587,-0.03848249,-0.0029546297,-0.9992549,0.008082638,0.99996203,-0.0032679923,0.99922657,-0.008202376,-0.038457148,9.753143,0.010772705,-0.34217834,9.798091,-0.037579227,-0.40790355,0.22514343,0.1053009,0.0056152344,-42.89856,37.55951,1.739502,0,0.0,0.0,0.0,0.0
2.623046875,-0.040614787,-1.131316E-4,-0.9991749,0.0038750516,0.99999255,-2.7073853E-4,0.9991674,-0.00388285,-0.04061404,-0.038544737,-0.0029203356,-0.9992526,0.007996415,0.9999628,-0.0032308616,0.9992249,-0.00811497,-0.038519952,9.86322,0.062210083,-0.40318298,9.798485,-0.038077753,-0.39828768,0.22514343,0.12057495,0.0013275146,-42.89856,37.55951,1.739502,0,0.0,0.0,0.0,0.0
2.631347656,-0.03950743,0.019341026,-0.9990321,0.004595615,0.99980557,0.019174263,0.9992087,-0.0038336406,-0.039588634,-0.038626164,-0.0028091746,-0.9992498,0.007832977,0.9999645,-0.0031139688,0.999223,-0.007947382,-0.038602788,9.929016,0.0382843,-0.35891724,9.79889,-0.03759517,-0.3882319,0.24926758,0.11645508,-0.009353638,-42.23938,37.61902,2.3986816,0,0.0,0.0,0.0,0.0
2.639648437,-0.038359694,0.020630935,-0.99905103,0.0045950613,0.99977994,0.020469554,0.9992534,-0.0038054944,-0.038446054,-0.038657915,-0.0019320032,-0.99925065,0.00770399,0.9999679,-0.0022314335,0.9992228,-0.0077844793,-0.038641788,9.911072,-0.017944336,-0.26560974,9.799329,-0.037319154,-0.377027,0.259964,0.11155701,-0.013015747,-42.23938,37.61902,2.3986816,0,0.0,0.0,0.0,0.0
2.647949219,-0.037226815,0.014067255,-0.99920785,0.004377054,0.9998936,0.013913836,0.99929726,-0.0038556186,-0.037284423,-0.038650386,-0.0014807264,-0.9992517,0.007641923,0.99996924,-0.0017773742,0.99922353,-0.0077049006,-0.03863788,9.9015045,-0.088531494,-0.22732544,9.799758,-0.037810702,-0.36563528,0.26301575,0.11798096,-0.013320923,-42.29889,37.1994,2.0996094,0,0.0,0.0,0.0,0.0
2.65625,-0.03612812,0.015392231,-0.9992286,0.004480984,0.99987376,0.015240154,0.9993371,-0.0039269296,-0.036192533,-0.038591817,-8.650224E-4,-0.9992547,0.0075134663,0.99997115,-0.0011558172,0.9992268,-0.0075524715,-0.038584206,9.860825,-0.119644165,-0.26679993,9.800149,-0.038510025,-0.3549275,0.27920532,0.11201477,-0.02218628,-42.29889,37.01935,2.0996094,0,0.0,0.0,0.0,0.0
2.664550781,-0.03512895,0.016534885,-0.999246,0.0045187594,0.9998555,0.016386112,0.99937254,-0.003939725,-0.03519859,-0.038492125,-2.2122466E-4,-0.99925894,0.0073948964,0.9999726,-5.06239E-4,0.9992316,-0.0074089016,-0.03848943,9.786652,-0.090927124,-0.31585693,9.800497,-0.038635507,-0.34518027,0.2894287,0.12133789,-0.01776123,-42.29889,37.01935,2.0996094,0,0.0,0.0,0.0,0.0
2.672851562,-0.034096915,0.017714983,-0.99926144,0.004563762,0.9998351,0.017569426,0.99940807,-0.003961329,-0.03417214,-0.038423777,1.1390587E-4,-0.99926156,0.007338475,0.99997306,-1.6819334E-4,0.99923456,-0.0073395185,-0.038423575,9.786652,-0.090927124,-0.31585693,9.800845,-0.03884737,-0.33511424,0.28683472,0.13171387,-0.0124053955,-42.29889,37.01935,2.0996094,0,0.0,0.0,0.0,0.0
