Time,Rot1,Rot2,Rot3,Rot4,Rot5,Rot6,Rot7,Rot8,Rot9,FRot1,FRot2,FRot3,FRot4,FRot5,FRot6,FRot7,FRot8,FRot9,AccX,AccY,AccZ,Imid
7006.830822859,0.6804065,0.73134726,0.046670884,-0.7300113,0.6819942,-0.044356365,-0.06426918,-0.003889915,0.99792504,0.68518806,0.72694516,0.045475822,-0.72564703,0.6866882,-0.043538567,-0.06287786,-0.003167292,0.9980162,-0.09277344,-0.1701355,-0.073013306,0
7006.835247908,0.68057084,0.73121035,0.04641996,-0.72987,0.68214226,-0.044402897,-0.06413287,-0.0036612232,0.9979346,0.68508893,0.7270461,0.04535548,-0.72574925,0.6865816,-0.04351671,-0.06277889,-0.003103885,0.9980226,-0.17552185,-0.10534668,-0.010772705,0
7006.839672957,0.6807439,0.731066,0.046155617,-0.7297196,0.68229836,-0.04447973,-0.06400952,-0.0034013516,0.9979435,0.6850158,0.7271362,0.045013446,-0.72583455,0.6864874,-0.043579865,-0.06258966,-0.0028194191,0.9980353,-0.16236877,-0.026489258,0.017807007,0
7006.844098005,0.6925563,0.71985257,0.046670318,-0.7185278,0.69411963,-0.043772023,-0.06390418,-0.003219327,0.9979509,0.6849348,0.7272289,0.04475027,-0.72592264,0.6863902,-0.04364543,-0.062456362,-0.0025909592,0.9980444,-0.06762695,-0.042648315,0.23329163,0
7006.848523054,0.6926394,0.7197808,0.046542984,-0.71844745,0.6941947,-0.04389436,-0.06390421,-0.0030357223,0.9979513,0.6850764,0.7271087,0.0445331,-0.72579867,0.6865182,-0.043693427,-0.06234265,-0.0023887253,0.99805194,0.018554688,0.15187073,0.18540955,0
7006.852948103,0.6926137,0.7198029,0.046582293,-0.7184628,0.69417197,-0.04400298,-0.0640096,-0.0029905792,0.9979448,0.6852564,0.72694117,0.04449925,-0.72562456,0.68669593,-0.043791693,-0.062391438,-0.0022812085,0.99804914,0.033966064,0.022155762,0.13752747,0
7006.857373152,0.68120414,0.73064286,0.046064816,-0.72927374,0.68275297,-0.044813335,-0.064193435,-0.003066833,0.9979328,0.68542117,0.7267797,0.044599343,-0.7254556,0.6868669,-0.043909285,-0.062546186,-0.0022584887,0.9980395,-0.06478882,0.113861084,0.14245605,0
7006.861798201,0.6810432,0.730777,0.046314146,-0.7294077,0.6826084,-0.044832706,-0.064377144,-0.0032488874,0.9979204,0.68534374,0.72683746,0.044846997,-0.725511,0.68680525,-0.04395756,-0.06275115,-0.002410951,0.99802625,0.013626099,-0.008834839,0.20484924,0
7006.86622325,0.6808737,0.73091835,0.046576798,-0.7295554,0.68245596,-0.04475375,-0.06449795,-0.0035087056,0.9979117,0.6852499,0.7269092,0.0451171,-0.72558135,0.6867287,-0.043993868,-0.062962756,-0.0025893324,0.99801254,-0.104904175,-0.08769226,-0.020202637,0
7006.870648298,0.70486885,0.7077071,0.048068047,-0.70639646,0.7064972,-0.043194413,-0.064528935,-0.0035086984,0.99790967,0.6851766,0.72696185,0.04538243,-0.7256402,0.686672,-0.04390749,-0.06308191,-0.0028469323,0.99800426,-0.08065796,0.008087158,-0.082458496,0
7006.875073347,0.704862,0.7077133,0.04807822,-0.70640063,0.70649123,-0.04322732,-0.064559385,-0.0034931868,0.9979078,0.6855595,0.72659403,0.045490038,-0.7252756,0.68706083,-0.043849457,-0.06311518,-0.0029314044,0.99800193,-0.07078552,0.02229309,-0.09187317,0
7006.879467879,0.70483357,0.70773876,0.048120525,-0.706426,0.70646554,-0.04322906,-0.064590365,-0.0035242988,0.9979056,0.6859207,0.72624904,0.045554437,-0.7249358,0.68742514,-0.043758426,-0.06309478,-0.0030092353,0.998003,-0.08483887,-0.08753967,-0.020050049,0
7006.883892927,0.66118383,0.7488533,0.045327596,-0.747441,0.66272706,-0.046096582,-0.0645594,-0.0034013847,0.9979081,0.68628997,0.72589964,0.045559898,-0.7245877,0.687794,-0.043726053,-0.063076556,-0.0030033907,0.99800414,-0.056427002,-0.12704468,-0.07272339,0
7006.888317976,0.6613041,0.7487579,0.045149617,-0.7473424,0.6628357,-0.04613212,-0.06446857,-0.0032348647,0.99791455,0.68580455,0.72636825,0.04540273,-0.7250497,0.68729985,-0.04384019,-0.06304941,-0.002853433,0.99800634,0.08155823,0.019760132,0.16175842,0
7006.892743025,0.6613544,0.7487179,0.045075107,-0.7473019,0.66288114,-0.04613574,-0.06442209,-0.003172636,0.9979178,0.68533474,0.7268221,0.04523244,-0.7254955,0.68682057,-0.043975152,-0.063028686,-0.0026782341,0.99800813,-0.043395996,-0.03352356,0.12823486,0
7006.897168074,0.6682324,0.7425596,0.0455029,-0.7411605,0.66977215,-0.045674518,-0.06439264,-0.0032037613,0.9979195,0.68481714,0.72731566,0.04513725,-0.72598696,0.6862981,-0.044021547,-0.062995166,-0.0026223403,0.99801034,0.052078247,-0.09068298,-0.053726196,0
7006.901593123,0.66823167,0.7425603,0.04550402,-0.74116266,0.66977143,-0.045652658,-0.064377144,-0.0032193242,0.99792045,0.684503,0.72761285,0.045112558,-0.72628033,0.6859831,-0.044091646,-0.063028105,-0.002583501,0.99800843,0.03756714,-0.047424316,0.17611694,0
7006.906018171,0.6682338,0.74255854,0.045500793,-0.7411581,0.6697735,-0.045695204,-0.064406596,-0.003188199,0.99791867,0.6841822,0.72790855,0.04520829,-0.7265767,0.685669,-0.044094123,-0.063094415,-0.0026788788,0.99800396,-0.07707214,0.10548401,-0.063308716,0
7006.91044322,0.67240775,0.738756,0.045906417,-0.73736006,0.67396516,-0.04550908,-0.06455943,-0.0032488995,0.99790853,0.68387157,0.72819394,0.045312997,-0.72686297,0.6853655,-0.044093944,-0.063164905,-0.002781747,0.9979992,0.0058288574,-0.05192566,-0.13018799,0
7006.914868269,0.67239213,0.73876876,0.045928486,-0.73737425,0.6739509,-0.04548903,-0.06455943,-0.0032800192,0.9979085,0.68387157,0.72819394,0.045312997,-0.72686297,0.6853655,-0.044093944,-0.063164905,-0.002781747,0.9979992,0.0058288574,-0.051620483,-0.13018799,0
7006.919293318,0.6723844,0.7387752,0.045939527,-0.7373814,0.6739439,-0.04547901,-0.06455943,-0.003295579,0.9979085,0.68337715,0.7286467,0.045493163,-0.7273138,0.68488353,-0.044149745,-0.06332709,-0.002916876,0.9979886,-0.013320923,-0.070617676,0.11401367,0
7006.923718367,0.7219145,0.69024163,0.04904857,-0.6889596,0.7235711,-0.042181987,-0.0646059,-0.0033406918,0.99790525,0.6831696,0.72883946,0.04552388,-0.72750664,0.6846783,-0.04415591,-0.06335178,-0.0029529463,0.9979869,-0.10862732,-0.09413147,-0.015258789,0
7006.928143416,0.72190803,0.69024783,0.049058925,-0.6889665,0.7235653,-0.04217117,-0.06460589,-0.0033562514,0.9979052,0.68396217,0.7280928,0.045569934,-0.72676,0.68547237,-0.04413059,-0.06336809,-0.0029347525,0.9979859,-0.0032958984,-0.06524658,0.05177307,0
7006.932568464,0.72195375,0.6902051,0.04898699,-0.6889201,0.72360647,-0.042223852,-0.06459042,-0.0032644528,0.9979065,0.6846721,0.72741944,0.045661237,-0.7260878,0.6861866,-0.044094447,-0.06340729,-0.0029638293,0.9979833,-0.11357117,-0.0038909912,0.04219055,0
7006.936993513,0.7409174,0.66972136,0.05014742,-0.66848296,0.7426053,-0.040838894,-0.06459042,-0.0032644528,0.9979065,0.68544567,0.7266931,0.045622345,-0.7253602,0.6869563,-0.04408736,-0.063378535,-0.0028731416,0.9979854,0.006134033,-0.023040771,-0.020050049,0
7006.941418562,0.74091667,0.6697219,0.050148487,-0.6684821,0.74260473,-0.04086084,-0.064605914,-0.00324889,0.99790555,0.68660164,0.72559714,0.0456819,-0.7242621,0.6881139,-0.04408518,-0.063422434,-0.0028167155,0.99798274,-0.05596924,0.06297302,-0.10145569,0
7006.945843611,0.7408926,0.6697455,0.05018984,-0.668506,0.7425834,-0.040859107,-0.06463535,-0.0032800029,0.9979035,0.68772167,0.7245297,0.04577779,-0.72319245,0.68923795,-0.044087037,-0.06349416,-0.0027865411,0.9979783,-0.07003784,-0.08035278,0.10444641,0
7006.95026866,0.66672474,0.743908,0.045596033,-0.7424961,0.66827416,-0.04592599,-0.064635366,-0.00323488,0.9979037,0.6888724,0.7234256,0.04593683,-0.7220884,0.69039655,-0.044056043,-0.0635859,-0.0028214606,0.99797237,-0.031723022,0.09635925,0.04219055,0
7006.954663191,0.66671187,0.7439185,0.045614816,-0.74250364,0.66826266,-0.045971673,-0.06468185,-0.0032193107,0.9979007,0.6884224,0.72385544,0.045911334,-0.7225148,0.68994594,-0.04412373,-0.06361554,-0.0027958523,0.9979705,-0.11746216,0.033950806,0.05177307,0
7006.95908824,0.66671264,0.74391776,0.04561366,-0.74250156,0.6682635,-0.04599353,-0.064697355,-0.003203748,0.99789983,0.68801326,0.7242431,0.045931537,-0.72290295,0.68953884,-0.044130184,-0.063632555,-0.0028418954,0.9979693,-0.02633667,0.038589478,0.13796997,0
7006.963513289,0.6849021,0.72713244,0.04677069,-0.72575444,0.6864896,-0.04486004,-0.064726785,-0.0032193013,0.9978978,0.687581,0.7246492,0.04599985,-0.7233101,0.6891117,-0.044130802,-0.063678384,-0.0029286558,0.9979662,-0.083496094,-0.013916016,0.013458252,0
7006.967938337,0.6848954,0.72713816,0.046780292,-0.725758,0.6864837,-0.044893626,-0.06475777,-0.0032037352,0.99789584,0.6875364,0.7246919,0.04599202,-0.7233556,0.6890667,-0.04408905,-0.06364255,-0.0029557548,0.9979684,-0.08319092,0.033798218,0.24330139,0
7006.972363386,0.68489695,0.7271368,0.046778075,-0.7257525,0.6864853,-0.04495889,-0.06480373,-0.003157097,0.9978931,0.68750274,0.7247251,0.04597306,-0.72338784,0.68903184,-0.044104233,-0.06364035,-0.002934572,0.9979686,0.017807007,-0.062408447,-0.07736206,0
7006.976788435,0.6848818,0.72714967,0.046799812,-0.7257667,0.6864715,-0.044938453,-0.06480372,-0.003188216,0.9978929,0.68750274,0.7247251,0.04597306,-0.72338784,0.68903184,-0.044104233,-0.06364035,-0.002934572,0.9979686,0.017807007,-0.06210327,-0.07736206,0
7006.981213484,0.6848667,0.72716254,0.046821546,-0.7257811,0.6864579,-0.04491802,-0.06480372,-0.0032193356,0.9978929,0.6874008,0.72482663,0.04589688,-0.723482,0.6889256,-0.044218786,-0.063670486,-0.0028095432,0.997967,-0.020507813,-0.085739136,0.07107544,0
7006.985638533,0.6848454,0.72718066,0.046852257,-0.7257971,0.68643874,-0.04495307,-0.0648502,-0.003219326,0.99788994,0.68735164,0.7248754,0.045862563,-0.7235294,0.6888744,-0.04424071,-0.063662544,-0.002773987,0.9979676,-0.13975525,-0.013916016,0.11895752,0
7006.990063582,0.6812365,0.730572,0.046703123,-0.7291799,0.68282783,-0.045198027,-0.06491062,-0.003264436,0.9978858,0.6872974,0.7249238,0.045910127,-0.7235769,0.6888234,-0.04425867,-0.06370813,-0.0028006365,0.9979646,-0.15353394,-0.10923767,0.08544922,0
7006.99448863,0.68123007,0.7305775,0.04671335,-0.7291846,0.68282205,-0.04520973,-0.06492611,-0.0032644325,0.99788475,0.68720883,0.72500604,0.0459368,-0.72365886,0.68873674,-0.04426714,-0.0637323,-0.002821802,0.997963,-0.04324341,0.020050049,0.0184021,0
7006.998913679,0.6812231,0.7305833,0.04672431,-0.7291911,0.6828157,-0.04519952,-0.0649261,-0.003279992,0.99788463,0.6870839,0.7251241,0.045943238,-0.7237763,0.6886124,-0.044282507,-0.0637474,-0.0028268287,0.99796206,-1.5258789E-4,-0.037261963,0.05192566,0
7007.003338728,0.69172263,0.72060627,0.047395147,-0.7192361,0.6933367,-0.044538535,-0.06495555,-0.003279986,0.99788284,0.68703586,0.725169,0.045952518,-0.7238214,0.688565,-0.044279642,-0.06375152,-0.0028397164,0.99796176,-0.10041809,-0.027679443,0.06628418,0
7007.007763777,0.6916731,0.720649,0.04746812,-0.7192767,0.69329214,-0.044575356,-0.06503247,-0.0033111398,0.99787766,0.6871001,0.72510415,0.046015248,-0.723756,0.6886332,-0.044288933,-0.06380172,-0.002872878,0.9979585,-0.18106079,-0.060897827,-0.11073303,0
7007.012188826,0.69165903,0.72066116,0.047488816,-0.7192874,0.69327945,-0.04459853,-0.065063454,-0.003311133,0.9978756,0.6871863,0.72501916,0.04606688,-0.7236751,0.6887224,-0.044225827,-0.06379186,-0.002946066,0.99795884,-0.089782715,-0.013015747,0.14305115,0
7007.016613875,0.692179,0.72016174,0.04748825,-0.7187899,0.6937983,-0.044552762,-0.06503247,-0.0032955802,0.9978777,0.68728393,0.7249264,0.046071,-0.7235828,0.68882,-0.044214275,-0.06378672,-0.0029484257,0.9979592,-0.03262329,-0.084991455,0.16221619,0
7007.021038923,0.6921656,0.72017336,0.04750875,-0.71880287,0.6937862,-0.0445331,-0.06503247,-0.0033251436,0.99787766,0.68728393,0.7249264,0.046071,-0.7235828,0.68882,-0.044214275,-0.06378672,-0.0029484257,0.9979592,-0.03262329,-0.08470154,0.16221619,0
7007.025463972,0.6921517,0.7201853,0.047529906,-0.7188148,0.6937737,-0.044534307,-0.06504796,-0.0033407,0.9978765,0.68745726,0.72475654,0.046157617,-0.7234095,0.68899876,-0.044266373,-0.063884884,-0.0029596179,0.9979529,-0.018112183,-0.05102539,0.032928467,0
7007.029889021,0.72227156,0.6898457,0.04936054,-0.6885436,0.7239488,-0.04249276,-0.065047964,-0.0032955767,0.9978767,0.68757087,0.72464937,0.04614721,-0.7233002,0.68911153,-0.044295758,-0.063899465,-0.0029218092,0.99795204,-0.0037384033,0.116104126,0.042495728,0
7007.034283552,0.72225064,0.6898655,0.04939252,-0.68856287,0.72393,-0.04250426,-0.06507895,-0.0033111298,0.9978746,0.6882757,0.72397524,0.046220977,-0.72262305,0.68981993,-0.04432116,-0.06397157,-0.002895167,0.9979475,-0.10398865,-0.027374268,-0.0053863525,0
7007.038708601,0.7222503,0.6898658,0.04939301,-0.68856174,0.7239297,-0.04252621,-0.06509445,-0.003295567,0.99787366,0.68895066,0.7233263,0.046324957,-0.7219746,0.6905001,-0.044296976,-0.06402856,-0.0029270125,0.99794376,-0.04159546,0.034698486,0.07601929,0
7007.04313365,0.68823135,0.72394943,0.047272928,-0.72256243,0.6898453,-0.044910427,-0.0651239,-0.0032488818,0.99787194,0.6896062,0.7226995,0.04635417,-0.7213448,0.6911564,-0.044321947,-0.064069435,-0.002872652,0.9979413,-0.08439636,0.09170532,-0.029327393,0
7007.047558699,0.6882374,0.7239445,0.04726315,-0.72255677,0.6898508,-0.044919726,-0.0651239,-0.003234878,0.99787194,0.6895902,0.7227112,0.04640964,-0.7213559,0.69114405,-0.044334523,-0.064116806,-0.0029052137,0.99793816,0.006576538,0.053268433,-5.950928E-4,0
7007.051983748,0.6882244,0.72395533,0.047284342,-0.7225704,0.689839,-0.044878192,-0.065108396,-0.0032800043,0.9978728,0.689552,0.7227472,0.046415694,-0.7213898,0.69110644,-0.044370294,-0.06414669,-0.002888178,0.9979363,0.05430603,-0.1186676,-0.058059692,0
7007.056408796,0.6797647,0.7319397,0.046735793,-0.73053455,0.6813616,-0.04544694,-0.065108396,-0.0032488848,0.9978729,0.68952495,0.7227722,0.046429437,-0.72141284,0.69108033,-0.044402026,-0.06417902,-0.002878489,0.9979342,-0.02708435,0.06776428,0.12390137,0
7007.060833845,0.6797364,0.73196334,0.046778042,-0.7305583,0.68133616,-0.045450106,-0.06513938,-0.0032799975,0.9978708,0.68930167,0.72298664,0.046406645,-0.72162294,0.6908563,-0.044474732,-0.06421496,-0.002831593,0.9979321,-0.079452515,-0.051620483,0.12869263,0
7007.065258894,0.67973,0.7319685,0.04678743,-0.73056126,0.6813305,-0.045483727,-0.06517037,-0.0032644314,0.99786884,0.6891251,0.7231524,0.04644574,-0.7217886,0.69068253,-0.044484343,-0.06424823,-0.0028687252,0.9979298,-0.06478882,0.03918457,0.07601929,0
7007.069683943,0.6973027,0.7151773,0.047858413,-0.7138108,0.6989355,-0.044309907,-0.06513938,-0.003264438,0.99787086,0.68893176,0.72333735,0.046433598,-0.72197104,0.69048893,-0.04452853,-0.06427103,-0.0028465928,0.9979284,0.049835205,-0.027832031,0.10954285,0
7007.074108992,0.6973027,0.7151773,0.047858413,-0.7138108,0.6989355,-0.044309907,-0.06513938,-0.003264438,0.99787086,0.68909895,0.72317374,0.046500377,-0.7218078,0.6906601,-0.044521835,-0.06431298,-0.0028843828,0.9979256,0.0019378662,0.010467529,0.09037781,0
7007.078534041,0.6972808,0.71519655,0.04789023,-0.7138308,0.6989157,-0.044300612,-0.06515487,-0.0032955538,0.99786973,0.68927014,0.7230079,0.046543203,-0.72164243,0.6908337,-0.044508923,-0.06433391,-0.0029088815,0.99792415,-0.045791626,-0.061050415,0.18136597,0
7007.082959089,0.68186796,0.7299645,0.046986908,-0.72856486,0.6834768,-0.04530546,-0.06518585,-0.00334067,0.9978676,0.689437,0.7228432,0.046629637,-0.72147894,0.6910057,-0.044488933,-0.06437987,-0.0029699865,0.99792105,-0.08857727,-0.13243103,0.21966553,0
7007.087384138,0.68187433,0.72995937,0.046976678,-0.72856045,0.6834824,-0.045293793,-0.065170355,-0.003340673,0.99786854,0.6892778,0.72299445,0.046637636,-0.72163147,0.6908473,-0.044474225,-0.064374104,-0.0030000878,0.9979213,0.04055786,-0.02229309,-0.048477173,0
7007.091809187,0.6818488,0.72998047,0.047018044,-0.72858167,0.68345976,-0.04529552,-0.065199785,-0.0033717859,0.9978666,0.6891535,0.7231146,0.04661361,-0.721752,0.69072163,-0.04447242,-0.06435568,-0.002995139,0.99792254,-0.10279846,-0.060302734,0.09996033,0
7007.096234236,0.71111786,0.70137095,0.048889846,-0.70003724,0.7127884,-0.043364584,-0.06526277,-0.0033873841,0.99786234,0.6890164,0.7232468,0.046588473,-0.72188514,0.69058317,-0.04446019,-0.0643289,-0.0029977255,0.99792427,-0.15486145,-0.041000366,0.018707275,0
7007.100659285,0.7111049,0.7013826,0.04891026,-0.7000461,0.71277696,-0.043407977,-0.06530771,-0.0033718143,0.9978594,0.689479,0.72280425,0.046613406,-0.721444,0.69104636,-0.044423334,-0.0643214,-0.003000008,0.99792475,-0.111328125,0.030685425,-0.014801025,0
7007.105084334,0.7110983,0.70138854,0.04892078,-0.7000528,0.71277106,-0.043397315,-0.0653077,-0.0033873739,0.99785936,0.6899015,0.7223979,0.04666042,-0.7210409,0.6914709,-0.04436229,-0.06431155,-0.0030384604,0.9979253,-0.025131226,-0.026626587,0.037857056,0
7007.109509382,0.67157525,0.73947746,0.046473853,-0.7380512,0.67317283,-0.046030153,-0.06532319,-0.0033873704,0.99785835,0.69032896,0.72198766,0.046687167,-0.720631,0.6918993,-0.044343557,-0.064318314,-0.0030325768,0.9979248,-0.044143677,-0.012268066,-0.024383545,0
7007.113903914,0.67156243,0.739488,0.04649189,-0.7380589,0.6731613,-0.046074577,-0.06536813,-0.003371801,0.9978555,0.68996924,0.72233254,0.046669334,-0.720974,0.6915392,-0.044383783,-0.06433352,-0.0030239327,0.99792385,-0.09637451,0.025894165,0.066589355,0
7007.118328962,0.6715553,0.7394938,0.04650191,-0.738064,0.67315495,-0.046086434,-0.06538362,-0.0033717975,0.9978545,0.6895909,0.72269213,0.046696614,-0.7213307,0.6911635,-0.044442825,-0.06439347,-0.003036335,0.99792,-0.033966064,0.001953125,0.057022095,0
7007.122754011,0.6909835,0.7212919,0.04774622,-0.71990454,0.6926228,-0.04484242,-0.0654146,-0.0033873501,0.9978524,0.6892403,0.72302544,0.04671373,-0.72166175,0.69081473,-0.04448992,-0.06443787,-0.0030472665,0.99791706,-0.09591675,-0.041000366,0.009140015,0
7007.12717906,0.69095635,0.7213155,0.047785886,-0.71992683,0.69259846,-0.044866797,-0.065459535,-0.003401344,0.99784946,0.6892825,0.72298515,0.046712916,-0.7216215,0.6908569,-0.044487283,-0.06443559,-0.0030447398,0.9979172,-0.11462402,-0.026489258,-0.100997925,0
7007.131604109,0.6909483,0.7213223,0.04779748,-0.7199315,0.6925913,-0.04489993,-0.06549144,-0.0033873809,0.99784744,0.6893198,0.7229482,0.046734754,-0.7215853,0.6908954,-0.044476375,-0.06444294,-0.00306467,0.99791664,-0.09994507,0.054763794,-0.0050964355,0
7007.136029158,0.6726064,0.7385294,0.046637442,-0.73709416,0.6742131,-0.04614213,-0.06552089,-0.0033406955,0.99784565,0.68936324,0.722906,0.046745438,-0.7215423,0.69093955,-0.044488154,-0.064459026,-0.003060311,0.9979156,-0.07571411,0.08781433,0.009277344,0
7007.140454207,0.67258555,0.73854643,0.046667594,-0.737109,0.67419434,-0.04617764,-0.06556736,-0.003340685,0.99784255,0.6890036,0.72324944,0.046737727,-0.7218848,0.69058007,-0.044514712,-0.06447138,-0.0030684576,0.99791485,-0.09919739,0.02079773,0.033218384,0
7007.144879255,0.6725564,0.7385704,0.04670975,-0.7371344,0.67416793,-0.046158217,-0.0655813,-0.0033873608,0.9978415,0.6886769,0.72356105,0.046728414,-0.7221914,0.69025373,-0.044603277,-0.06452765,-0.0030296124,0.99791133,-0.05596924,-0.117614746,-0.057769775,0
7007.149304304,0.6753569,0.7359965,0.046926994,-0.73456514,0.6769768,-0.04600468,-0.06562777,-0.003401354,0.9978384,0.6883551,0.72387004,0.046684552,-0.72249734,0.6899299,-0.044657882,-0.064535566,-0.0029889825,0.9979109,-0.112976074,-0.036071777,0.047576904,0
7007.153729353,0.67535067,0.73600173,0.046937127,-0.73456967,0.67697126,-0.046016455,-0.065643266,-0.0034013507,0.9978374,0.6880703,0.7241452,0.04661601,-0.72276974,0.68964136,-0.044707254,-0.06452287,-0.0029309066,0.99791193,-0.036209106,-0.021697998,0.17686462,0
7007.158154402,0.67533726,0.73601246,0.046958294,-0.73458046,0.6769593,-0.046018098,-0.065658756,-0.0034169066,0.99783635,0.6878278,0.724375,0.04662301,-0.7229993,0.68939984,-0.044720836,-0.06453655,-0.0029481656,0.997911,-0.045639038,-0.011978149,0.052368164,0
7007.162579451,0.67263645,0.738493,0.04677858,-0.7370557,0.6742524,-0.04617875,-0.06564326,-0.0034169098,0.99783725,0.68759316,0.7245965,0.046643373,-0.72321826,0.6891671,-0.044767756,-0.06458363,-0.002951336,0.99790794,0.045196533,-0.011978149,0.009277344,0
7007.1670045,0.6726441,0.7384868,0.046767544,-0.73704886,0.6742594,-0.04618879,-0.065643266,-0.0034013507,0.9978374,0.68732077,0.7248527,0.046676982,-0.72347254,0.6888975,-0.04480884,-0.06463546,-0.0029714638,0.99790454,-0.0026855469,0.045318604,-0.062561035,0
7007.171429548,0.67262405,0.7385032,0.0467967,-0.73706305,0.6742414,-0.04622312,-0.06568819,-0.0034013402,0.9978344,0.6870321,0.7251262,0.04667832,-0.72374284,0.68860966,-0.044867136,-0.06467748,-0.002957934,0.99790186,-0.1267395,-0.0025482178,-3.0517578E-4,0
7007.175854597,0.6791141,0.7325119,0.047225434,-0.73108464,0.68074566,-0.045830898,-0.0657202,-0.0034013863,0.9978323,0.6867423,0.7254021,0.04665538,-0.7240147,0.68831915,-0.044938657,-0.06471239,-0.0029179037,0.9978997,-0.102493286,-0.0073394775,0.09082031,0
7007.180279646,0.6791215,0.73250586,0.04721458,-0.7310794,0.68075234,-0.045818415,-0.06570369,-0.003401337,0.99783343,0.68657917,0.7255559,0.046665337,-0.72416407,0.6881572,-0.04501201,-0.064771816,-0.002889054,0.9978959,0.031417847,-0.016921997,0.033218384,0
7007.184704695,0.6791208,0.73250633,0.047215577,-0.7310784,0.6807517,-0.04584002,-0.0657202,-0.0033873823,0.9978323,0.686468,0.7256596,0.04668898,-0.7242639,0.68804795,-0.045077015,-0.064834826,-0.0028712149,0.9978919,-0.016311646,0.040390015,-0.009735107,0
7007.189129744,0.6791208,0.73250633,0.047215577,-0.7310784,0.6807517,-0.04584002,-0.0657202,-0.0033873823,0.9978323,0.68635803,0.7257599,0.04674568,-0.72436297,0.6879419,-0.045102626,-0.06489199,-0.0029042908,0.997888,-0.0019378662,-0.0026855469,0.13871765,0
7007.193524275,0.67910725,0.73251766,0.047235593,-0.7310897,0.6807395,-0.04584265,-0.06573569,-0.0034013828,0.9978313,0.68620545,0.72590554,0.046725374,-0.72450334,0.68778855,-0.04518612,-0.06493803,-0.0028457274,0.9978852,-0.05445862,-0.016921997,0.042938232,0
7007.197949324,0.67910886,0.7325164,0.04723328,-0.7310842,0.68074113,-0.045906126,-0.065780625,-0.0033562495,0.9978284,0.68606246,0.72603804,0.04676556,-0.7246404,0.68764824,-0.0451226,-0.06491899,-0.0029312917,0.99788624,-0.11627197,0.11669922,0.10998535,0
7007.202374373,0.69338447,0.7189594,0.04811757,-0.717559,0.695044,-0.04497722,-0.06578063,-0.0033406904,0.99782854,0.685896,0.726199,0.04670873,-0.7247976,0.6874786,-0.045182806,-0.06492296,-0.0028636754,0.9978861,-0.006134033,0.030380249,-0.033676147,0
7007.206799421,0.693391,0.7189538,0.048107173,-0.717554,0.69504976,-0.044965684,-0.065765135,-0.0033406934,0.9978295,0.68603516,0.72606605,0.04673267,-0.72466314,0.6876191,-0.0452032,-0.06495479,-0.0028544578,0.99788415,0.027236938,0.01121521,-0.052825928,0
7007.21122447,0.69335854,0.7189817,0.0481585,-0.7175799,0.6950209,-0.045000296,-0.06582556,-0.0033562398,0.9978255,0.6862086,0.72590005,0.046763476,-0.7244978,0.6877942,-0.045189507,-0.064966716,-0.002870605,0.9978833,-0.15412903,-0.046081543,0.038146973,0
7007.215649519,0.7265695,0.6852507,0.050281264,-0.6839266,0.7282995,-0.04271094,-0.065887526,-0.003356226,0.99782145,0.68636686,0.72574914,0.046784397,-0.7243468,0.68795353,-0.04518578,-0.064979024,-0.0028741055,0.9978825,-0.14872742,-0.0077819824,0.047729492,0
7007.220074568,0.72659,0.6852315,0.050249208,-0.6839079,0.7283178,-0.042699676,-0.06585654,-0.0033406732,0.9978235,0.6871857,0.7249706,0.046835274,-0.7235657,0.68877405,-0.045200177,-0.065027714,-0.0028274856,0.99787945,0.042495728,0.02558899,0.13871765,0
7007.224499617,0.726595,0.6852267,0.0502412,-0.6838996,0.72832245,-0.042753372,-0.06588754,-0.003295544,0.9978216,0.6880011,0.72418976,0.046942957,-0.7227862,0.68959475,-0.04515696,-0.065073825,-0.00286168,0.99787635,-0.11042786,-0.041900635,0.047729492,0
7007.228924666,0.7265684,0.68525183,0.050283063,-0.68392354,0.7282988,-0.042774606,-0.06593247,-0.003311094,0.99781865,0.6880011,0.72418976,0.046942957,-0.7227862,0.68959475,-0.04515696,-0.065073825,-0.00286168,0.99787635,-0.10998535,-0.041748047,0.047729492,0
7007.233349714,0.7110908,0.7013672,0.049334764,-0.7000005,0.7127924,-0.04388929,-0.06594796,-0.0033250938,0.9978176,0.6896154,0.7226437,0.047080852,-0.7212355,0.691215,-0.045178242,-0.06519077,-0.0028007724,0.9978689,-0.047576904,-0.0032958984,-0.14859009,0
7007.237774763,0.7110836,0.70137376,0.049346168,-0.70000637,0.71278596,-0.043901294,-0.06596447,-0.003325142,0.99781644,0.6896154,0.7226437,0.047080852,-0.7212355,0.691215,-0.045178242,-0.06519077,-0.0028007724,0.9978689,-0.047424316,-0.0032958984,-0.1484375,0
7007.242199812,0.6988231,0.71364397,0.048565198,-0.7122451,0.7005008,-0.044782076,-0.065978415,-0.0032955753,0.99781555,0.69048375,0.7218052,0.047217526,-0.7204004,0.69209033,-0.04510271,-0.06523416,-0.0028728344,0.99786586,-0.042510986,0.077804565,-0.02394104,0
7007.246624861,0.69878936,0.71367335,0.048617773,-0.7122724,0.7004707,-0.044817477,-0.066040374,-0.0033111214,0.9978114,0.6906711,0.7216257,0.047220755,-0.720223,0.69227743,-0.04506477,-0.065209754,-0.0028845416,0.9978674,-0.14723206,-0.046524048,-0.0287323,0
7007.25104991,0.6988031,0.71366143,0.04859639,-0.71225905,0.7004832,-0.044838406,-0.06604039,-0.0032800026,0.9978116,0.6908613,0.7214437,0.04721813,-0.72004217,0.69246703,-0.04504091,-0.06519148,-0.0028820254,0.9978686,0.005996704,0.08244324,-0.0047912598,0
7007.255474959,0.67181605,0.7392316,0.046903726,-0.737767,0.67344344,-0.046625894,-0.06605434,-0.0032799994,0.99781066,0.691041,0.721269,0.047258988,-0.71986556,0.69264907,-0.04506523,-0.06523805,-0.0028781998,0.9978656,-0.084854126,0.010620117,0.18675232,0
7007.259900007,0.67181677,0.739231,0.04690272,-0.73776495,0.6734441,-0.046647757,-0.06606983,-0.0032644363,0.99780965,0.69067717,0.72161746,0.0472588,-0.7202136,0.692286,-0.04508408,-0.06525006,-0.0028978884,0.9978648,-0.017654419,0.05355835,0.16281128,0
7007.264325056,0.67181605,0.7392316,0.046903726,-0.737767,0.67344344,-0.046625894,-0.06605434,-0.0032799994,0.99781066,0.69029176,0.7219853,0.047270924,-0.72058445,0.6919021,-0.045049544,-0.06523196,-0.0029653658,0.9978657,0.015701294,-0.042053223,-0.0095825195,0
7007.268750105,0.7029641,0.70954067,0.04892302,-0.70814544,0.7046568,-0.04459555,-0.066116296,-0.0032955452,0.99780643,0.6898969,0.72236234,0.047275864,-0.7209588,0.6915084,-0.045105994,-0.06527452,-0.0029654666,0.99786294,-0.1560669,-0.037109375,0.13887024,0
7007.273144636,0.70295024,0.7095531,0.048942868,-0.7081551,0.7046444,-0.04463924,-0.06616122,-0.0032799758,0.9978035,0.6901291,0.7221393,0.047293108,-0.7207354,0.69174135,-0.045105208,-0.065286845,-0.0029574013,0.99786216,-0.12210083,0.020202637,-0.01914978,0
7007.277569685,0.70294976,0.70955354,0.048943494,-0.70815414,0.704644,-0.044661902,-0.06617775,-0.003264464,0.99780256,0.69040185,0.72187424,0.047359146,-0.72046536,0.69201803,-0.045173526,-0.06538299,-0.0029327427,0.99785596,-0.05970764,0.03439331,0.033676147,0
7007.281994734,0.6723418,0.73874587,0.047019765,-0.73727673,0.673976,-0.046682514,-0.06617672,-0.0032799728,0.99780256,0.6906555,0.7216282,0.047410145,-0.7202219,0.6922745,-0.045126986,-0.06538574,-0.0029786185,0.9978556,0.026489258,-0.018112183,0.0909729,0
7007.286419783,0.67233443,0.738752,0.047030512,-0.7372821,0.6739694,-0.046695117,-0.06619324,-0.0032800203,0.9978015,0.6903071,0.7219616,0.04740942,-0.72055316,0.6919268,-0.04517205,-0.06541633,-0.002978425,0.99785364,-0.069122314,-0.032470703,0.16773987,0
7007.290844832,0.6723427,0.7387452,0.047018483,-0.73727316,0.67397696,-0.046727013,-0.066208735,-0.0032488974,0.9978005,0.68997145,0.7222825,0.047405988,-0.7208747,0.69159156,-0.045174617,-0.065414414,-0.0030045805,0.99785364,-0.045028687,0.08213806,0.11506653,0
7007.29526988,0.69274,0.71956766,0.04830912,-0.7181406,0.6944149,-0.045410763,-0.06622268,-0.0032348908,0.99779963,0.6896143,0.72262365,0.04740482,-0.72121227,0.69123524,-0.045240566,-0.06545978,-0.0029903941,0.9978507,-0.054473877,0.043685913,0.04324341,0
7007.299694929,0.6927205,0.71958447,0.04833958,-0.7181567,0.69439745,-0.04542453,-0.066253655,-0.0032488876,0.99779755,0.68965626,0.72258604,0.04736692,-0.7211735,0.6912747,-0.045255225,-0.06544435,-0.0029492215,0.99785185,-0.06375122,-0.05192566,0.033676147,0
7007.304119978,0.692727,0.7195786,0.048329193,-0.7181515,0.6944033,-0.045412973,-0.066238165,-0.003248891,0.99779856,0.6897274,0.722515,0.047414906,-0.7211044,0.6913488,-0.04522529,-0.06545619,-0.0029979749,0.99785095,0.012710571,0.02468872,0.09112549,0
7007.308545027,0.69805825,0.7143858,0.04865617,-0.71297055,0.6997444,-0.045061465,-0.066238165,-0.0032348873,0.99779856,0.68976176,0.72248155,0.047425386,-0.7210684,0.69138384,-0.045263745,-0.06549136,-0.0029757463,0.9978487,0.00793457,0.048477173,-0.07646179,0
7007.312970076,0.69805825,0.7143858,0.04865617,-0.71297055,0.6997444,-0.045061465,-0.066238165,-0.0032348873,0.99779856,0.68993545,0.7223125,0.04747338,-0.72089565,0.6915605,-0.045316022,-0.065563045,-0.0029582237,0.99784404,-0.011230469,-0.023330688,0.033676147,0
7007.317395125,0.6980515,0.71439177,0.04866663,-0.7129758,0.69973844,-0.045072958,-0.06625366,-0.003234884,0.9977976,0.69011617,0.7221385,0.047493104,-0.7207205,0.6917422,-0.045328457,-0.06558641,-0.0029473568,0.99784255,-0.03981018,0.010177612,0.028884888,0
7007.321820173,0.70411116,0.7083923,0.049070265,-0.7069866,0.70581174,-0.044720594,-0.06631409,-0.0032037518,0.9977937,0.69031656,0.7219453,0.04751942,-0.72052664,0.6919438,-0.045332853,-0.06560861,-0.002944991,0.99784106,-0.16848755,0.06253052,0.09591675,0
7007.326245222,0.7040849,0.7084156,0.04911141,-0.7070071,0.7057883,-0.044765033,-0.0663745,-0.003203739,0.9977896,0.69059247,0.721678,0.047570147,-0.720256,0.69222265,-0.045377113,-0.0656768,-0.0029255939,0.99783665,-0.14874268,0.014663696,0.11029053,0
7007.330670271,0.70407814,0.70842147,0.049121894,-0.70701075,0.7057824,-0.044798348,-0.06640548,-0.0031881728,0.9977876,0.6908283,0.72144693,0.047650415,-0.72002524,0.6924634,-0.0453663,-0.06572554,-0.0029691807,0.9978333,-0.07661438,0.04322815,-0.023788452,0
7007.33509532,0.64812475,0.76016986,0.04556236,-0.7586319,0.6497166,-0.048435736,-0.066422015,-0.0031726595,0.99778664,0.69110376,0.7211816,0.047673304,-0.7197615,0.69273967,-0.045334306,-0.065719455,-0.002982698,0.99783367,-0.05731201,0.02394104,0.17747498,0
7007.339520369,0.64808303,0.7602019,0.045622807,-0.7586622,0.64967895,-0.048463754,-0.06648242,-0.0032037657,0.9977824,0.69025993,0.7219967,0.047559086,-0.72057503,0.6918901,-0.0453833,-0.06567226,-0.002943612,0.9978369,-0.14289856,-0.061950684,0.100860596,0
7007.343945418,0.6480716,0.76021075,0.045639526,-0.75866824,0.6496688,-0.04850863,-0.06652735,-0.0031881968,0.99777955,0.68945855,0.72276443,0.047523405,-0.7213435,0.691088,-0.045396134,-0.06565357,-0.0029819491,0.99783796,-0.12809753,0.014511108,0.110443115,0
7007.348339949,0.6747368,0.73653907,0.04733233,-0.7350552,0.6763874,-0.046838526,-0.066513404,-0.0031881996,0.99778044,0.688641,0.7235453,0.047494985,-0.722123,0.69027036,-0.045445252,-0.06566608,-0.0030017574,0.9978371,0.0010528564,0.014511108,0.115219116,0
7007.352764998,0.6747362,0.7365396,0.04733326,-0.7350572,0.67638683,-0.046816655,-0.066497914,-0.0032037627,0.99778146,0.68837005,0.72380453,0.0474741,-0.72238255,0.68999857,-0.045447864,-0.06565243,-0.0030095163,0.997838,0.04399109,-0.052368164,0.043395996,0
7007.357190046,0.67472285,0.73655045,0.047354408,-0.73506796,0.67637485,-0.046818323,-0.0665134,-0.0032193186,0.99778026,0.6881323,0.7240302,0.047479082,-0.7226083,0.68976164,-0.045454416,-0.06565962,-0.0030301313,0.9978375,-0.056411743,-0.037857056,0.024246216,0
7007.361615095,0.6977966,0.7146266,0.048875123,-0.71319413,0.6994987,-0.045340072,-0.0665893,-0.0032193025,0.99777526,0.68788385,0.724269,0.04743696,-0.7228464,0.689511,-0.04547134,-0.06564178,-0.0030106362,0.9978387,-0.18974304,0.0052490234,0.091278076,0
7007.366040144,0.6977899,0.71463233,0.048885576,-0.713199,0.69949275,-0.04535154,-0.066604786,-0.003219299,0.9977742,0.6880668,0.7240919,0.047487907,-0.7226729,0.6896967,-0.045413896,-0.06563609,-0.0030704283,0.9978389,-0.045928955,0.010025024,0.18226624,0
7007.370465193,0.6977967,0.71462643,0.04887487,-0.71319246,0.69949895,-0.045361992,-0.0666048,-0.0032037396,0.9977743,0.6882388,0.72393054,0.04745361,-0.7225104,0.6898662,-0.04542387,-0.06562037,-0.0030232563,0.99784005,-0.0124053955,0.043380737,0.1295929,0
7007.374890242,0.69044256,0.7217643,0.04842938,-0.72031444,0.6921314,-0.045839474,-0.066604786,-0.0032348586,0.9977742,0.68841946,0.7237594,0.047444504,-0.72233814,0.6900459,-0.045434427,-0.065622486,-0.002993029,0.99784005,-0.0028381348,-0.10952759,0.115219116,0
7007.379315291,0.69041467,0.7217882,0.04846993,-0.72033983,0.6921062,-0.04582007,-0.066618726,-0.0032799784,0.9977731,0.688475,0.72370285,0.04750126,-0.722278,0.6901052,-0.045488648,-0.065701135,-0.0029913203,0.99783486,-0.036224365,-0.0899353,0.029037476,0
7007.383740339,0.690415,0.721788,0.048469465,-0.72033817,0.6921066,-0.045841977,-0.066634215,-0.0032644153,0.9977721,0.68851423,0.723659,0.04760086,-0.7222338,0.690151,-0.045497164,-0.065776214,-0.0030535061,0.99782974,-0.036071777,0.015258789,0.038604736,0
7007.388165388,0.69251573,0.71976215,0.04862541,-0.71831584,0.6942131,-0.04572307,-0.066666126,-0.0032644542,0.99777,0.6885482,0.72362083,0.047689043,-0.7221989,0.6901906,-0.04545007,-0.06580314,-0.0031464098,0.99782765,-0.07885742,9.0026855E-4,4.4250488E-4,0
7007.392590437,0.69250894,0.719768,0.0486362,-0.7183224,0.694207,-0.045712702,-0.066666126,-0.003280014,0.99777,0.68863845,0.7235309,0.04775054,-0.72210735,0.6902847,-0.045475155,-0.06586415,-0.0031650756,0.9978236,-0.030975342,-0.032470703,0.010025024,0
7007.397015486,0.69251573,0.71976215,0.04862541,-0.71831584,0.6942131,-0.04572307,-0.066666126,-0.0032644542,0.99777,0.6887244,0.7234489,0.047754776,-0.72202617,0.69037074,-0.045458846,-0.06585565,-0.003171582,0.99782413,-0.011810303,0.05355835,0.16802979,0
7007.401440535,0.6924968,0.7197783,0.048655514,-0.7183299,0.69419634,-0.045756552,-0.06671105,-0.0032644444,0.99776703,0.6887917,0.72338647,0.04772834,-0.721962,0.69043624,-0.04548181,-0.0658543,-0.0031305568,0.9978243,-0.09277344,-0.013473511,0.038742065,0
7007.405865584,0.69251007,0.7197669,0.04863434,-0.71831846,0.6942081,-0.04575537,-0.06669556,-0.0032488878,0.99776804,0.68886006,0.7233167,0.04779858,-0.7218908,0.69050914,-0.04550594,-0.06592057,-0.0031581318,0.99781984,0.031570435,0.043823242,0.120147705,0
7007.410290632,0.6925031,0.7197729,0.048645396,-0.71832234,0.69420207,-0.045787804,-0.06672656,-0.003234878,0.99776614,0.68896407,0.72321635,0.047817793,-0.72178847,0.69061434,-0.045532726,-0.065953664,-0.0031439182,0.9978177,-0.12135315,0.048477173,0.062698364,0
7007.414715681,0.7051353,0.70734954,0.049405847,-0.7059292,0.7068567,-0.044918,-0.06669558,-0.0032037653,0.9977682,0.68901587,0.72316533,0.047843643,-0.72173727,0.6906677,-0.04553505,-0.06597343,-0.0031561696,0.9978163,0.089035034,0.06732178,0.048324585,0
7007.41914073,0.7051419,0.7073437,0.049395204,-0.7059211,0.70686275,-0.044950496,-0.066711076,-0.0031726426,0.9977673,0.6893752,0.722821,0.04786981,-0.7213886,0.6910283,-0.045589216,-0.06603224,-0.0031046576,0.9978126,-0.035324097,0.057434082,0.048324585,0
7007.423565779,0.7051089,0.70737284,0.049448173,-0.7059511,0.70683324,-0.044941537,-0.06674204,-0.0032193146,0.99776506,0.68969375,0.72251683,0.047874887,-0.72108245,0.6913465,-0.04560733,-0.066050194,-0.0030666527,0.99781156,-0.09725952,-0.119262695,0.062698364,0
7007.42796031,0.70389843,0.70858055,0.04940301,-0.70715535,0.70562255,-0.045035943,-0.06677147,-0.003234868,0.9977631,0.6900235,0.7221991,0.04791737,-0.7207666,0.69167835,-0.045570314,-0.06605425,-0.003092651,0.99781126,-0.053878784,-0.023330688,0.014801025,0
7007.432385359,0.703912,0.7085685,0.04938178,-0.7071418,0.7056348,-0.045057014,-0.066771485,-0.003203749,0.9977632,0.6902802,0.72195095,0.047958903,-0.720517,0.6919374,-0.04558504,-0.06609472,-0.003088756,0.9978086,-0.049087524,0.08169556,0.20155334,0
7007.436810408,0.7038788,0.70859784,0.049433652,-0.70717186,0.7056051,-0.045049265,-0.06680245,-0.003248865,0.99776095,0.6905483,0.72169405,0.047966048,-0.72025883,0.69220537,-0.04559531,-0.06610822,-0.003062204,0.99780774,-0.06314087,-0.10939026,4.4250488E-4,0
7007.441235457,0.69109815,0.72112453,0.04860769,-0.7196642,0.692798,-0.045981135,-0.06683344,-0.0032037355,0.997759,0.6908211,0.7214292,0.048022196,-0.7199911,0.6924815,-0.045631696,-0.06617452,-0.0030522142,0.9978034,-0.08200073,-0.004486084,-0.023498535,0
7007.445660505,0.69108504,0.72113585,0.048627324,-0.7196742,0.69278634,-0.046003167,-0.066862874,-0.0032037294,0.9977571,0.6908211,0.7214292,0.048022196,-0.7199911,0.6924815,-0.045631696,-0.06617452,-0.0030522142,0.9978034,-0.081710815,-0.004486084,-0.023498535,0
7007.450085554,0.6910705,0.7211483,0.04864917,-0.7196866,0.6927733,-0.04600518,-0.0668794,-0.0032193353,0.9977559,0.690848,0.7214036,0.048020013,-0.7199633,0.6925083,-0.045663796,-0.06619628,-0.0030259069,0.997802,-0.07676697,-0.033065796,0.06285095,0
7007.454510603,0.6972239,0.715171,0.049084753,-0.71372116,0.6989421,-0.04562882,-0.06693981,-0.0032193223,0.99775183,0.69086045,0.7213909,0.04803161,-0.7199473,0.69252163,-0.0457139,-0.06624052,-0.0029983006,0.9977992,-0.14320374,-0.018707275,0.10115051,0
7007.458935652,0.6972452,0.7151524,0.049052384,-0.71369886,0.69896144,-0.045681994,-0.06695531,-0.0031570804,0.997751,0.6909836,0.72127354,0.04802213,-0.7198323,0.69264376,-0.045673516,-0.06620533,-0.0030082283,0.9978015,-0.047286987,0.15306091,-0.037719727,0
7007.463360701,0.6973201,0.71508723,0.04893847,-0.71363306,0.6990287,-0.04568534,-0.06687839,-0.0030668029,0.99775654,0.69115585,0.7211048,0.048076812,-0.71966386,0.69281936,-0.045665253,-0.06623798,-0.0030373347,0.9977992,-0.07676697,0.1809082,0.0052337646,0
7007.46778575,0.6851806,0.7267778,0.048182838,-0.72529334,0.6868658,-0.04652765,-0.0669104,-0.0030668436,0.9977542,0.6913102,0.72096205,0.04799801,-0.7195252,0.69296795,-0.045594364,-0.066132896,-0.0030159273,0.99780625,-0.08125305,0.013320923,-0.12390137,0
7007.472210798,0.6851538,0.7268003,0.04822294,-0.7253159,0.68684167,-0.046530377,-0.06693983,-0.003096401,0.9977522,0.69119745,0.72106767,0.04803638,-0.7196318,0.69285786,-0.045585837,-0.066152856,-0.0030596943,0.99780476,-0.095321655,-0.09173584,0.019744873,0
7007.476635847,0.68516105,0.72679424,0.04821208,-0.7253092,0.68684834,-0.046540618,-0.06693984,-0.0030808416,0.9977523,0.6911024,0.72115546,0.048086632,-0.7197225,0.69276625,-0.04554642,-0.066158846,-0.0031317899,0.99780416,-0.071380615,0.027832031,0.09156799,0
7007.481060896,0.6851608,0.7267946,0.04821255,-0.72530806,0.6868481,-0.046561494,-0.06695533,-0.0030668343,0.99775124,0.6911024,0.72115546,0.048086632,-0.7197225,0.69276625,-0.04554642,-0.066158846,-0.0031317899,0.99780416,-0.07122803,0.027694702,0.09156799,0
7007.485485945,0.71511394,0.69721097,0.05008788,-0.69579524,0.7168596,-0.044511445,-0.06693985,-0.0030201587,0.9977525,0.6909402,0.72130305,0.048202787,-0.7198697,0.6926122,-0.045564488,-0.066251636,-0.0032173835,0.9977977,0.043533325,0.12298584,5.950928E-4,0
7007.489910994,0.7151068,0.69721764,0.05009885,-0.6957997,0.7168532,-0.04454464,-0.06697083,-0.0030045928,0.9977504,0.6914396,0.7208158,0.048331104,-0.7193833,0.693119,-0.045538925,-0.066324376,-0.0032811717,0.9977927,-0.08065796,0.041427612,0.18255615,0
7007.494336043,0.7040032,0.70846677,0.049539424,-0.7070218,0.7057372,-0.045331504,-0.06707769,-0.0031119317,0.99774283,0.69192564,0.7203443,0.04840363,-0.7189121,0.6936088,-0.045520414,-0.06636356,-0.0033012168,0.99779004,-0.050872803,0.004196167,-0.12390137,0
7007.498761091,0.70400393,0.7084662,0.049538303,-0.7070198,0.7057379,-0.04535229,-0.06709163,-0.0030963693,0.997742,0.69219714,0.72007203,0.048572812,-0.71864176,0.69389087,-0.045491636,-0.06646149,-0.003417268,0.9977831,-0.065093994,0.0566864,0.09156799,0
7007.503094587,0.7040169,0.7084548,0.049518153,-0.70700705,0.7057496,-0.04537231,-0.067091644,-0.0030668064,0.9977421,0.6924461,0.7198285,0.048635144,-0.7183975,0.6941435,-0.04549599,-0.066509075,-0.0034358413,0.9977799,-0.0028533936,0.056396484,-0.028137207,0
7007.507428084,0.70332485,0.7091442,0.04948369,-0.7076955,0.7050567,-0.045410838,-0.067091644,-0.00308081,0.9977421,0.6927233,0.7195589,0.04867774,-0.7181288,0.6944229,-0.04547563,-0.066525325,-0.0034548575,0.9977788,-0.0076293945,-0.034423828,-0.018554688,0
7007.511792097,0.70328903,0.70917606,0.04953717,-0.70772654,0.7050246,-0.04542486,-0.06713914,-0.0031119674,0.9977387,0.69293916,0.7193512,0.0486738,-0.7179239,0.6946379,-0.045425434,-0.066487506,-0.0034670192,0.9977812,-0.08857727,-0.07241821,-0.0471344,0
7007.516125593,0.7032677,0.70919496,0.049568884,-0.70774627,0.7050054,-0.04541529,-0.06715462,-0.0031430833,0.9977376,0.69314724,0.7191518,0.048657767,-0.71772707,0.69484437,-0.045378648,-0.066443704,-0.0034689086,0.99778414,-0.050125122,-0.10084534,0.019897461,0
7007.520489607,0.7042659,0.70818794,0.049793486,-0.7067372,0.70601666,-0.04541918,-0.06732035,-0.0032037303,0.99772626,0.6933552,0.7189476,0.048712492,-0.7175208,0.69505566,-0.045404892,-0.066501625,-0.0034705072,0.99778026,-0.05328369,0.0050964355,0.17312622,0
7007.524823103,0.70425844,0.70819443,0.04980521,-0.7067459,0.70601,-0.045387853,-0.06730641,-0.0032348523,0.99772716,0.6936165,0.71868324,0.04889248,-0.7172511,0.6953287,-0.04548443,-0.066685244,-0.0035194336,0.9977678,0.05671692,-0.08079529,0.06300354,0
7007.529187117,0.7041867,0.708258,0.049918912,-0.70680296,0.70594627,-0.045490727,-0.06745923,-0.0032488727,0.99771667,0.69385874,0.7184457,0.04894655,-0.7170087,0.6955743,-0.045551233,-0.06677205,-0.0034889807,0.99776214,-0.06628418,7.4768066E-4,0.08709717,0
7007.533520613,0.69018537,0.721964,0.049112353,-0.72046846,0.6919229,-0.046559963,-0.067596585,-0.0032488934,0.9977075,0.6940605,0.7182428,0.049063392,-0.71680033,0.6957837,-0.045632046,-0.0669124,-0.0034972576,0.99775267,-0.045791626,-0.008834839,-0.037261963,0
7007.537884627,0.6901365,0.72200596,0.049182992,-0.7205039,0.6918792,-0.046659872,-0.0677174,-0.003234863,0.9976993,0.6940026,0.71829295,0.04914957,-0.71684414,0.69573206,-0.04573228,-0.0670441,-0.0034942601,0.9977439,-0.0206604,-0.004180908,-0.13302612,0
7007.542218123,0.6901297,0.7220119,0.04919282,-0.7205077,0.69187325,-0.046693407,-0.06774838,-0.0032192967,0.99769723,0.69390905,0.71837807,0.04922518,-0.71692234,0.69564414,-0.04584236,-0.06717536,-0.0034802055,0.9977351,-0.063446045,0.038742065,-0.08035278,0
7007.546582136,0.67409855,0.73707086,0.048142303,-0.73552936,0.67580783,-0.047753815,-0.06773289,-0.0032193004,0.99769837,0.69383085,0.71845156,0.049254574,-0.71699166,0.6955683,-0.045909278,-0.06724352,-0.003461846,0.99773055,0.027374268,0.014816284,0.005844116,0
7007.550915632,0.6741448,0.73703325,0.048069835,-0.73549247,0.67584896,-0.047738064,-0.0676725,-0.0031726344,0.99770254,0.69341165,0.71885806,0.049227558,-0.71739984,0.6951481,-0.045896877,-0.06721379,-0.0034904135,0.99773246,-0.011520386,-0.06704712,-0.046829224,0
7007.555279646,0.67421794,0.73697376,0.04795527,-0.7354323,0.67591417,-0.04773977,-0.067596614,-0.0030808486,0.9977079,0.6930172,0.7192477,0.049090166,-0.71778744,0.6947454,-0.04593559,-0.06714424,-0.003402147,0.99773747,-0.060150146,-0.010482788,0.15428162,0
7007.559613142,0.6916635,0.7205615,0.04891446,-0.7190624,0.6933845,-0.046550855,-0.06745929,-0.002975024,0.99771756,0.69266856,0.71959287,0.04895357,-0.7181304,0.69438833,-0.04597312,-0.067074716,-0.0033109162,0.9977425,-0.02798462,0.017211914,0.11103821,0
7007.563977156,0.6917228,0.72051084,0.048823077,-0.7190198,0.6934373,-0.046426386,-0.06730645,-0.002990568,0.9977279,0.6926395,0.7196318,0.048789594,-0.71817064,0.6943484,-0.0459479,-0.06694254,-0.0032139248,0.9977516,0.008834839,-0.1023407,-0.03756714,0
7007.568310652,0.6917837,0.7204586,0.048729222,-0.71896815,0.69349164,-0.04641106,-0.06723057,-0.0029283448,0.9977331,0.692636,0.71964383,0.048663378,-0.7181881,0.6943361,-0.04586136,-0.066792585,-0.0031842268,0.9977618,-0.0541687,-0.01676941,0.06300354,0
7007.572644148,0.6850293,0.7269118,0.04831398,-0.72540545,0.68672466,-0.04686416,-0.0672445,-0.0029439018,0.99773216,0.69260436,0.71968156,0.04855672,-0.71822596,0.6942974,-0.045855068,-0.06671385,-0.0031152798,0.9977673,-0.058807373,-0.04055786,0.20664978,0
7007.577008162,0.6850354,0.72690654,0.048304755,-0.7254009,0.6867301,-0.04685366,-0.06723057,-0.0029439046,0.9977331,0.69247603,0.719808,0.048511263,-0.7183494,0.6941664,-0.04590237,-0.066715784,-0.0030617449,0.99776727,-0.0541687,0.0599823,0.05821228,0
7007.581341658,0.6850429,0.7269001,0.048293326,-0.7253924,0.6867368,-0.046883594,-0.06724451,-0.0029143384,0.9977322,0.69247603,0.719808,0.048511263,-0.7183494,0.6941664,-0.04590237,-0.066715784,-0.0030617449,0.99776727,-0.054031372,0.059692383,0.05821228,0
7007.585705671,0.71669143,0.69556755,0.050389297,-0.6941348,0.7184546,-0.04471748,-0.06730646,-0.0029283299,0.997728,0.6921503,0.7201226,0.04849111,-0.7186577,0.6938403,-0.046007767,-0.06677631,-0.0030042164,0.9977634,-0.15875244,-0.03591919,0.14918518,0
7007.590039168,0.7166574,0.6955989,0.05044232,-0.6941641,0.7184244,-0.044751264,-0.06736792,-0.0029439232,0.9977239,0.6926431,0.7196434,0.048568483,-0.7181757,0.6943374,-0.04603593,-0.06685237,-0.002994231,0.9977584,-0.14379883,-0.030975342,-0.10444641,0
7007.594403181,0.7166505,0.6956052,0.050453044,-0.6941697,0.7184182,-0.044762485,-0.0673834,-0.00294392,0.9977228,0.6931437,0.7191556,0.048651617,-0.71768504,0.69484264,-0.046064265,-0.06693259,-0.0029873801,0.997753,-0.04788208,-0.0118255615,-0.05177307,0
7007.598736677,0.6909675,0.7212366,0.048803344,-0.71973574,0.6926827,-0.046597205,-0.06741284,-0.0029283545,0.9977209,0.69363564,0.7186792,0.04868085,-0.7172088,0.6953355,-0.04604578,-0.06694166,-0.0029753326,0.9977525,-0.0715332,0.04067993,0.010482788,0
7007.603100691,0.6909812,0.72122484,0.048782863,-0.7197225,0.692695,-0.046616808,-0.067412846,-0.002898791,0.99772096,0.6935953,0.71871823,0.048680283,-0.71724737,0.69529516,-0.046053644,-0.06694675,-0.0029732175,0.99775213,0.014663696,0.078704834,-0.03741455,0
7007.607434187,0.6909671,0.72123694,0.04880397,-0.71973467,0.6926824,-0.046618085,-0.06742833,-0.002914348,0.9977199,0.6935007,0.718809,0.04868632,-0.7173411,0.69520104,-0.046012405,-0.066920914,-0.0030150672,0.99775374,-0.057006836,-0.026473999,0.20201111,0
7007.611798201,0.6909533,0.7212488,0.048824623,-0.71974504,0.6926701,-0.046641268,-0.06745931,-0.0029143416,0.9977178,0.6934416,0.71887106,0.048612107,-0.71740514,0.695137,-0.04598307,-0.06684797,-0.0029880025,0.9977587,-0.104599,-0.021697998,0.06793213,0
7007.616131697,0.6909464,0.7212547,0.048834953,-0.71975017,0.69266385,-0.04665286,-0.06747479,-0.0029143384,0.99771667,0.6934227,0.7188916,0.04857869,-0.71742684,0.69511586,-0.045964304,-0.06681117,-0.0029789652,0.9977612,-0.032608032,-0.002532959,0.19242859,0
7007.620495711,0.6909268,0.7212715,0.04886427,-0.7197664,0.69264644,-0.046665613,-0.06750423,-0.0029283366,0.9977148,0.69335103,0.7189632,0.048541334,-0.7175005,0.69504184,-0.045934048,-0.06676314,-0.00298001,0.9977644,-0.108932495,-0.011978149,0.14933777,0
7007.624829207,0.6929236,0.7193437,0.04900523,-0.7178411,0.6946482,-0.046561617,-0.0675352,-0.0029143265,0.9977126,0.6932905,0.7190181,0.04859349,-0.7175524,0.6949849,-0.045983363,-0.06683461,-0.0029885503,0.9977596,-0.07511902,0.0070343018,0.08709717,0
7007.629162703,0.6929299,0.7193383,0.04899484,-0.7178365,0.6946538,-0.04655009,-0.06751972,-0.0029143298,0.9977137,0.6932911,0.71901447,0.04863755,-0.7175523,0.6949884,-0.04593289,-0.066828944,-0.003055118,0.99775976,0.044448853,0.021408081,0.10624695,0
7007.633526716,0.6929052,0.71935946,0.049035423,-0.7178561,0.69463193,-0.046574928,-0.06756568,-0.00292837,0.9977105,0.6932848,0.7190151,0.04871895,-0.7175527,0.69498754,-0.045940295,-0.06689083,-0.0031087056,0.99775547,-0.15144348,-0.03591919,0.029785156,0
7007.637860212,0.68578905,0.7261761,0.04859491,-0.72465426,0.6875024,-0.04707883,-0.06759665,-0.0029283636,0.99770844,0.69327635,0.7190211,0.048749994,-0.71755797,0.6949812,-0.045953374,-0.06692178,-0.0031225586,0.9977533,-0.074523926,-0.0071868896,0.111190796,0
7007.642224226,0.68576264,0.7261984,0.048635527,-0.7246752,0.68747884,-0.04710237,-0.06764157,-0.0029439144,0.99770534,0.69311494,0.71917605,0.048759766,-0.71771306,0.69482076,-0.045957506,-0.06693084,-0.0031416859,0.99775267,-0.10758972,-0.05970764,0.048934937,0
7007.646557722,0.68575555,0.72620434,0.048646394,-0.7246819,0.6874725,-0.04709213,-0.06764157,-0.0029594742,0.99770534,0.6929714,0.7193149,0.048751857,-0.7178557,0.6946769,-0.045903772,-0.06688606,-0.0031868,0.9977555,0.0121154785,0.06971741,0.07287598,0
7007.650921736,0.68576974,0.7261924,0.04862467,-0.7246685,0.6874852,-0.047112618,-0.06764157,-0.0029283548,0.9977054,0.6929714,0.7193149,0.048751857,-0.7178557,0.6946769,-0.045903772,-0.06688606,-0.0031868,0.9977555,0.0121154785,0.06941223,0.07287598,0
7007.655255232,0.6841452,0.7277301,0.048519045,-0.72620237,0.68585724,-0.04722139,-0.06764157,-0.0029283548,0.9977054,0.692676,0.7196058,0.048656363,-0.7181456,0.69437575,-0.04592565,-0.06683417,-0.0031307584,0.99775916,-0.0357666,0.007171631,0.1399231,0
7007.659619246,0.6841382,0.72773606,0.048529252,-0.7262075,0.6858509,-0.047233086,-0.06765706,-0.0029283515,0.9977043,0.6925063,0.71976984,0.04864515,-0.7183146,0.69420546,-0.045857523,-0.066776596,-0.0031858964,0.99776286,-0.045196533,-0.0023956299,0.13034058,0
7007.663952742,0.686561,0.725441,0.04867663,-0.7239175,0.6882782,-0.04708033,-0.06765706,-0.002914348,0.9977043,0.6923433,0.71992904,0.048610345,-0.7184766,0.6940403,-0.04581948,-0.06672431,-0.003202586,0.9977663,-0.016464233,0.035751343,0.12554932,0
7007.668316755,0.6865545,0.72544646,0.04868691,-0.72392225,0.6882725,-0.047091957,-0.06767255,-0.002914345,0.9977033,0.69221437,0.72005075,0.048642747,-0.71859705,0.69391394,-0.045845196,-0.06676475,-0.0032198294,0.9977635,-0.016311646,0.0070343018,0.010635376,0
7007.672650252,0.68657506,0.7254291,0.048654314,-0.72390264,0.68829083,-0.047122777,-0.06767256,-0.0028676658,0.99770343,0.69211537,0.72014403,0.04867183,-0.71868986,0.6938171,-0.04585669,-0.066792764,-0.0032418289,0.9977616,-0.0019378662,0.11669922,0.048934937,0
7007.677014265,0.69637454,0.71598446,0.049280994,-0.7144823,0.6981103,-0.046444442,-0.067657076,-0.002867669,0.99770457,0.6920157,0.7202374,0.048708342,-0.7187805,0.69372016,-0.04590121,-0.06684972,-0.0032462515,0.9977578,0.031417847,0.0018005371,0.06808472,0
7007.681347761,0.6963471,0.7160084,0.049321555,-0.71450335,0.6980858,-0.0464894,-0.06771748,-0.0028676575,0.99770045,0.69209665,0.72016317,0.04865517,-0.7187068,0.69379735,-0.04588932,-0.066804625,-0.0032089541,0.99776095,-0.16430664,-0.031723022,-0.008529663,0
7007.685681257,0.6963678,0.71599054,0.049291108,-0.7144861,0.69810426,-0.04647789,-0.06768805,-0.0028521032,0.9977024,0.69216317,0.7201017,0.048616756,-0.7186475,0.69386107,-0.04585409,-0.06675289,-0.0031997915,0.9977644,0.06524658,0.03514099,-0.1521759,0
7007.690045271,0.6864082,0.72558784,0.048642844,-0.7240595,0.6881237,-0.047155917,-0.06768805,-0.0028521032,0.9977024,0.6922802,0.7199874,0.048644636,-0.7185344,0.6939797,-0.045832142,-0.06675696,-0.0032241615,0.99776405,-0.016159058,0.0016479492,0.2021637,0
7007.694378767,0.68634784,0.72563857,0.048739094,-0.7241183,0.68806964,-0.047043607,-0.067672536,-0.0030045907,0.9977031,0.69217354,0.7200921,0.04861233,-0.7186431,0.69387084,-0.04577454,-0.06669257,-0.0032509912,0.9977682,-0.035461426,-0.02558899,0.15428162,0
7007.698742781,0.68632734,0.7256557,0.048771705,-0.7241376,0.6880513,-0.04701278,-0.06767252,-0.0030512696,0.9977029,0.6920653,0.72019154,0.048682034,-0.71874845,0.6937672,-0.045692857,-0.0666816,-0.003367697,0.99776864,-0.011520386,-0.14962769,-0.008529663,0
7007.703076277,0.673708,0.73743886,0.047973804,-0.7358912,0.67540705,-0.04784962,-0.06768801,-0.0030668261,0.9977019,0.6919149,0.7203327,0.048729766,-0.7188904,0.6936203,-0.045688726,-0.06671104,-0.0034186514,0.9977665,-0.05445862,-0.034561157,0.09681702,0
7007.707440291,0.673695,0.73744935,0.047993816,-0.73590165,0.67539537,-0.04785236,-0.06770349,-0.0030808265,0.99770075,0.6915697,0.7206606,0.048780993,-0.7192187,0.6932792,-0.045699235,-0.06675249,-0.0034799937,0.99776345,-0.04953003,-0.015274048,0.09202576,0
7007.711773787,0.67361623,0.7375134,0.04811529,-0.7359597,0.6753253,-0.04794861,-0.06785622,-0.0031119569,0.99769026,0.6912138,0.72099775,0.04884343,-0.7195545,0.6929283,-0.045734648,-0.06681958,-0.0035330881,0.9977588,-0.10070801,-0.12031555,-0.051483154,0
7007.7161378,0.65647835,0.75287795,0.047021102,-0.75128675,0.6581527,-0.049024086,-0.067856215,-0.003143076,0.9976902,0.6908669,0.7213264,0.048899006,-0.7198759,0.6925863,-0.045857627,-0.0669451,-0.0035196978,0.99775046,0.06689453,0.042785645,0.087387085,0
7007.720471296,0.6564939,0.7528657,0.047000136,-0.75127447,0.65816677,-0.049021754,-0.067840725,-0.0031275195,0.9976912,0.6908669,0.7213264,0.048899006,-0.7198759,0.6925863,-0.045857627,-0.0669451,-0.0035196978,0.99775046,0.06674194,0.042633057,0.087387085,0
7007.72483531,0.6564854,0.7528724,0.047011655,-0.75128335,0.6581589,-0.048991162,-0.06782523,-0.0031570862,0.99769217,0.6895437,0.72259,0.048918866,-0.7211282,0.69126797,-0.046072993,-0.06710793,-0.0035074255,0.99773955,-0.033966064,0.009414673,0.053863525,0
7007.729168806,0.6564928,0.75286645,0.047001574,-0.75127673,0.65816575,-0.04899993,-0.067825235,-0.0031430828,0.9976923,0.6895437,0.72259,0.048918866,-0.7211282,0.69126797,-0.046072993,-0.06710793,-0.0035074255,0.99773955,-0.033966064,0.009277344,0.053863525,0
7007.73353282,0.6969061,0.71544373,0.049620617,-0.7139552,0.698663,-0.04623745,-0.06774838,-0.003203737,0.99769723,0.6882212,0.723865,0.04869418,-0.72239685,0.6899334,-0.046201903,-0.06703968,-0.0033793957,0.99774456,-0.092178345,-0.09068298,0.082458496,0
7007.737866316,0.69691294,0.71543765,0.049609903,-0.7139484,0.6986692,-0.046247866,-0.06774839,-0.0031881777,0.99769735,0.68841076,0.7236879,0.048646737,-0.722225,0.69011915,-0.04611464,-0.06694465,-0.003388079,0.99775094,0.008377075,0.03364563,0.029785156,0
7007.742199812,0.67991954,0.73168427,0.048453588,-0.7301534,0.68163663,-0.04741074,-0.06771742,-0.0031430617,0.9976996,0.68854606,0.7235585,0.04865576,-0.72209305,0.6902548,-0.046151273,-0.06697802,-0.0033567054,0.9977488,0.02722168,0.095458984,0.26441956,0
7007.746563826,0.680013,0.7316069,0.048308842,-0.73007596,0.68172,-0.04740116,-0.06761212,-0.0030357223,0.997707,0.6883922,0.72370917,0.048591327,-0.72223824,0.69009733,-0.046234246,-0.066992894,-0.0032672167,0.9977481,-0.09831238,0.05609131,0.111190796,0
7007.750897322,0.6804759,0.7312233,0.047591496,-0.72971493,0.6821327,-0.04702224,-0.06684747,-0.002730723,0.9977595,0.6882668,0.7238387,0.048438378,-0.7223687,0.68996185,-0.046217058,-0.06687433,-0.0031807013,0.9977563,-0.10580444,-0.12882996,-0.55500793,0
7007.755261336,0.69793355,0.7146099,0.04713249,-0.7131954,0.6995197,-0.044995144,-0.06512408,-0.0022110506,0.99787474,0.68822765,0.7239275,0.047662612,-0.7224761,0.6898702,-0.04590637,-0.0661139,-0.0028410691,0.99780804,-0.29029846,0.014511108,-1.0684052,0
7007.759594832,0.69892013,0.7137384,0.04569799,-0.71237326,0.7004105,-0.04415544,-0.06352278,-0.0016929035,0.997979,0.68866664,0.7236049,0.04619743,-0.72220516,0.6902104,-0.04504734,-0.06448242,-0.0023414232,0.9979161,-0.6986542,0.033355713,-0.18840027,0
7007.763958845,0.69953644,0.7131913,0.04479983,-0.7118679,0.7009679,-0.043452024,-0.062392846,-0.0014952873,0.9980506,0.6890409,0.7233583,0.0444454,-0.7220231,0.6904705,-0.043966975,-0.062492114,-0.0017955587,0.99804384,0.2383728,0.017044067,0.81163025,0
7007.768292341,0.6931379,0.7194158,0.04472954,-0.71806765,0.6945778,-0.044050813,-0.062759,-0.0015855462,0.99802744,0.6892558,0.72320074,0.04367062,-0.7218989,0.690636,-0.043404162,-0.061550424,-0.0016092053,0.99810266,0.60588074,0.09933472,1.4296417,0
7007.772656355,0.6923085,0.72013617,0.045967028,-0.7187462,0.69382983,-0.04476914,-0.06413317,-0.0020445685,0.9979393,0.6893154,0.7231241,0.04399973,-0.7218104,0.6907161,-0.04360032,-0.061919764,-0.0017050946,0.9980797,0.5379486,0.10383606,1.4880066,0
7007.776989851,0.6913775,0.7209403,0.04735241,-0.71949583,0.6929928,-0.04568189,-0.06574879,-0.0024864296,0.99783313,0.689343,0.7230127,0.04537575,-0.7216552,0.69083124,-0.044338815,-0.063404515,-0.0021809961,0.99798554,0.30480957,0.117752075,0.69880676,0
7007.781353865,0.70917475,0.70325667,0.050013322,-0.70180833,0.71092963,-0.04521317,-0.06735241,-0.0030357286,0.99772465,0.6892604,0.7229954,0.046879362,-0.7215839,0.6908477,-0.045233045,-0.065089785,-0.0026500474,0.99787587,-0.024246216,-0.07795715,0.07751465,0
7007.785687361,0.708414,0.7039416,0.051146593,-0.7024671,0.710249,-0.045678616,-0.068481885,-0.0035694232,0.997646,0.6896062,0.7225712,0.048313245,-0.72111416,0.69128937,-0.04597152,-0.06661613,-0.0031371214,0.9977737,-0.15202332,0.018249512,-0.6016846,0
7007.790051375,0.708073,0.7042475,0.051653713,-0.7027751,0.70994365,-0.04568787,-0.06884679,-0.0039505954,0.9976195,0.68997693,0.72214276,0.049413033,-0.7206643,0.6917345,-0.046328582,-0.06763655,-0.003644555,0.9977034,-0.09098816,0.031570435,-0.6877289,0
7007.794384871,0.6657151,0.74463576,0.04838504,-0.74308664,0.66745985,-0.048165284,-0.06816065,-0.0038899153,0.99766684,0.69044733,0.7216525,0.050001666,-0.72017944,0.6922436,-0.04626479,-0.06800043,-0.0040667728,0.99767697,0.8216553,0.3996582,-0.74086,0
7007.798718367,0.66637444,0.74410826,0.04741182,-0.7426159,0.6680486,-0.04725107,-0.066833325,-0.0037218658,0.99775726,0.6901237,0.72197604,0.049798083,-0.7205229,0.69190556,-0.04597195,-0.06764622,-0.0041543283,0.9977007,1.6801147,0.24957275,-0.44966125,0
7007.80308238,0.667073,0.7435472,0.04637893,-0.7421014,0.6686747,-0.04647308,-0.06556735,-0.0034169273,0.9978424,0.6899886,0.7221415,0.04926897,-0.72071445,0.6917334,-0.04555861,-0.06698076,-0.0040739374,0.99774593,1.7826233,0.16517639,0.17207336,0
7007.807415877,0.691139,0.72119105,0.047014892,-0.7198258,0.69272923,-0.044463668,-0.06463539,-0.003111959,0.99790406,0.6900043,0.7221689,0.04864385,-0.7207578,0.6917063,-0.045284536,-0.06635033,-0.0038139143,0.9977891,1.5771637,0.2723236,0.45399475,0
7007.81177989,0.6914537,0.7209186,0.0465634,-0.7195684,0.6930134,-0.0441991,-0.06413302,-0.0029439228,0.9979369,0.6903946,0.7218183,0.0483072,-0.72041255,0.69207317,-0.04517221,-0.06603824,-0.0036144597,0.9978105,1.0886078,-0.1267395,0.5351105,0
7007.816113386,0.6915101,0.7208697,0.046482515,-0.7195265,0.6930643,-0.04408604,-0.06399567,-0.002959463,0.99794585,0.6907892,0.7214547,0.048097823,-0.72004473,0.6924533,-0.045211144,-0.06592329,-0.0034012096,0.9978189,0.53660583,-0.107437134,0.2715912,0
7007.8204774,0.69134027,0.72101676,0.04672613,-0.7196896,0.6929096,-0.043852795,-0.06399559,-0.0033111093,0.9979447,0.6910938,0.7211616,0.04811693,-0.719749,0.6927586,-0.045242187,-0.06596035,-0.0033655162,0.99781656,0.21099854,-0.28115845,0.07527161,0
7007.824810896,0.6909902,0.72131956,0.047228012,-0.720008,0.6925916,-0.04364712,-0.064193256,-0.0038448113,0.99793005,0.69135684,0.72089374,0.048352405,-0.7194908,0.6930362,-0.04509759,-0.06602053,-0.0036105874,0.99781173,-0.23239136,-0.28071594,0.037109375,0
7007.82917491,0.69066864,0.72159725,0.04768878,-0.7203016,0.6922995,-0.043440383,-0.06436138,-0.004347396,0.99791723,0.69150245,0.7207309,0.048696075,-0.71934485,0.69320333,-0.044855744,-0.066085204,-0.0040114135,0.9978059,-9.0026855E-4,-0.23269653,0.118652344,0
7007.833508406,0.69127774,0.7209782,0.048224967,-0.71969265,0.69294137,-0.043299362,-0.064634964,-0.0047752694,0.9978975,0.69157857,0.7206318,0.049081154,-0.71925956,0.693304,-0.044667933,-0.066217296,-0.0044107046,0.99779546,-0.20890808,-0.16145325,0.08050537,0
7007.83787242,0.69105303,0.7211709,0.048562124,-0.71989596,0.69273835,-0.043169968,-0.06477377,-0.0051269443,0.9978869,0.691644,0.7205412,0.049487405,-0.7191805,0.69339556,-0.04451956,-0.06639252,-0.0047986917,0.99778205,-0.28416443,-0.2106781,-0.08215332,0
7007.842205916,0.69083613,0.7213567,0.048887342,-0.72009444,0.6925419,-0.04300711,-0.06488,-0.0054926346,0.9978779,0.6917039,0.7204713,0.049667064,-0.71912426,0.69346637,-0.044326063,-0.066378094,-0.0050562797,0.99778175,-0.34057617,-0.2454071,-5.950928E-4,0
7007.846569929,0.70528245,0.70716894,0.04988855,-0.7059514,0.7070218,-0.04186784,-0.064879924,-0.005690239,0.9978768,0.69183594,0.72033334,0.04982864,-0.7190019,0.6936077,-0.044098794,-0.06632736,-0.0053177564,0.9977838,-0.0053863525,-0.30570984,-0.1490326,0
7007.850903425,0.7053579,0.70710236,0.049763706,-0.7058969,0.7070879,-0.04166839,-0.06465113,-0.005736913,0.9978914,0.69241935,0.7197671,0.04990845,-0.71844256,0.6941946,-0.04397889,-0.066300735,-0.0054045254,0.9977851,0.27009583,-0.15202332,0.17163086,0
7007.855236921,0.7054215,0.70704633,0.049658433,-0.7058627,0.70714253,-0.041318763,-0.06432987,-0.005904892,0.99791116,0.69310176,0.7191147,0.049839918,-0.71779746,0.6948705,-0.04383861,-0.066157274,-0.0053903465,0.9977947,0.69789124,-0.2892456,0.16653442,0
7007.859600935,0.69008034,0.7220952,0.048659727,-0.7209021,0.6917667,-0.04194472,-0.06394925,-0.0061336756,0.9979344,0.6939566,0.7182864,0.04988846,-0.71697843,0.6957261,-0.04367132,-0.066077225,-0.0054629464,0.99779963,1.0724335,-0.30136108,0.094573975,0
7007.863934431,0.6901297,0.72205275,0.04858731,-0.7208965,0.69180757,-0.04135841,-0.063476026,-0.006483751,0.99796236,0.6947048,0.7175547,0.05000442,-0.7162544,0.69647986,-0.043536976,-0.06606724,-0.005570537,0.9977997,1.4700165,-0.44638062,0.39593506,0
7007.868298445,0.6901715,0.7220169,0.048526134,-0.72089934,0.6918413,-0.040739894,-0.06298728,-0.0068649463,0.9979908,0.6957959,0.7164792,0.05025609,-0.7151898,0.69758457,-0.043351173,-0.066118084,-0.005779077,0.9977951,1.7094421,-0.48094177,0.24719238,0
7007.872631941,0.71524835,0.69708794,0.049883783,-0.6960744,0.7169483,-0.038287196,-0.06245362,-0.007337966,0.99802095,0.69699574,0.71529174,0.050543763,-0.71401083,0.6988003,-0.04320404,-0.066223495,-0.005975765,0.99778694,1.9292603,-0.8019104,0.2421112,0
7007.876995955,0.7152767,0.69706184,0.049840596,-0.6961023,0.71696717,-0.037412398,-0.061812818,-0.007933936,0.99805623,0.69895023,0.7133586,0.050873343,-0.7120855,0.7007723,-0.0430403,-0.0663538,-0.006143139,0.9977772,2.2581635,-0.88705444,0.44770813,0
7007.881329451,0.71541613,0.69693387,0.049628627,-0.69603163,0.7170855,-0.036447946,-0.060989775,-0.008467647,0.9981025,0.70136565,0.7109499,0.051346343,-0.70969117,0.70321316,-0.042773627,-0.06651733,-0.0064400947,0.99776447,2.623581,-0.8961792,0.15039063,0
7007.885693464,0.72056186,0.69162095,0.049507983,-0.69078743,0.72220564,-0.035095472,-0.06002771,-0.008911032,0.9981569,0.70377237,0.70854336,0.05167932,-0.707298,0.70563614,-0.0425114,-0.06658796,-0.00663433,0.9977585,2.74823,-0.85832214,-0.017807007,0
7007.890026961,0.72087085,0.6913312,0.04905598,-0.69055444,0.72247785,-0.034061633,-0.058989722,-0.009321783,0.99821496,0.7065204,0.7057869,0.05190154,-0.7045575,0.7083919,-0.042185552,-0.06654064,-0.0067626694,0.9977608,2.8050842,-0.8016205,0.25932312,0
7007.894390974,0.7212647,0.6909608,0.04847897,-0.6902373,0.72282803,-0.033046428,-0.057875752,-0.0096267685,0.99827737,0.7094176,0.7028607,0.052090753,-0.70165,0.7112941,-0.04180751,-0.0664367,-0.0068904995,0.99776685,2.8564148,-0.7076416,0.10070801,0
7007.89872447,0.6998396,0.7127713,0.046708327,-0.71204484,0.70132905,-0.033613767,-0.056716833,-0.009734178,0.99834293,0.7127844,0.6994386,0.052192625,-0.6982476,0.714659,-0.0413863,-0.066247106,-0.006943869,0.99777913,2.6535187,-0.5820923,0.27249146,0
7007.903088484,0.7003231,0.7123464,0.04593662,-0.71165955,0.7017604,-0.0327584,-0.05557183,-0.009749771,0.9984071,0.71542925,0.6967435,0.05205206,-0.6955685,0.7172876,-0.041023254,-0.06591898,-0.0068565384,0.9978014,2.5082092,-0.38562012,0.22401428,0
7007.90742198,0.70084614,0.7118853,0.04510067,-0.7112365,0.70222855,-0.03190223,-0.054381702,-0.009718686,0.9984729,0.7180529,0.69405395,0.051857024,-0.69289535,0.7198915,-0.040648676,-0.0655438,-0.00674359,0.99782693,2.285843,-0.29014587,0.09890747,0
7007.911755476,0.72459215,0.68768007,0.045414314,-0.68711036,0.72594863,-0.02963107,-0.053345148,-0.009734198,0.99852866,0.72090274,0.6911176,0.05153279,-0.68998206,0.72271204,-0.040150642,-0.06499218,-0.006611991,0.9978639,2.103302,-0.28042603,0.30421448,0
7007.91611949,0.7249245,0.6873647,0.044880163,-0.6868244,0.72624594,-0.028966878,-0.052504845,-0.009825987,0.9985723,0.72366196,0.6882435,0.05132415,-0.68712974,0.72545016,-0.03968252,-0.06454435,-0.0065496233,0.99789333,1.8412781,-0.1550293,0.20800781,0
7007.920452986,0.72515666,0.68714404,0.04450679,-0.6866279,0.72645307,-0.028424533,-0.05186384,-0.009947364,0.9986046,0.72607476,0.68570465,0.051231228,-0.6846143,0.72784996,-0.03921379,-0.06417772,-0.0066014933,0.99791664,1.8254089,-0.11552429,0.41358948,0
7007.924969587,0.72501475,0.68731874,0.04411891,-0.6868281,0.72628564,-0.027862445,-0.051193316,-0.010101426,0.9986377,0.72818047,0.6834643,0.051279955,-0.68239194,0.72995317,-0.038853582,-0.063987,-0.0067006047,0.9979282,1.7948914,-0.3917389,0.22175598,0
7007.929455671,0.72518134,0.6871597,0.04385817,-0.6866997,0.726432,-0.027202232,-0.05055226,-0.01039084,0.99866736,0.72818047,0.6834643,0.051279955,-0.68239194,0.72995317,-0.038853582,-0.063987,-0.0067006047,0.9979282,1.7886047,-0.38890076,0.22146606,0
7007.933941755,0.7253021,0.6870443,0.0436691,-0.6866191,0.72653544,-0.026466843,-0.049911045,-0.010787582,0.99869543,0.7317893,0.67959017,0.05139758,-0.67856014,0.73355836,-0.03805602,-0.06356562,-0.0070273615,0.99795294,1.9355469,-0.5047302,0.13975525,0
7007.938427839,0.7254914,0.68686026,0.043416996,-0.68646955,0.7267038,-0.025708362,-0.049209356,-0.011153249,0.9987262,0.73284936,0.6784404,0.051482197,-0.6774321,0.73461956,-0.0376803,-0.06338367,-0.0072617107,0.99796283,2.014862,-0.5298767,0.17298889,0
7007.942913923,0.7256742,0.68668586,0.0431219,-0.6863275,0.72686374,-0.024972588,-0.048492067,-0.011473785,0.99875766,0.7337392,0.67747384,0.05153522,-0.67648715,0.73550874,-0.037308693,-0.06318027,-0.007488062,0.99797404,2.0126038,-0.42616272,0.21577454,0
7007.947400007,0.7258571,0.68651104,0.042826355,-0.68618655,0.72702324,-0.024194047,-0.047745235,-0.011825445,0.9987896,0.7342653,0.6769031,0.05154148,-0.67593795,0.7360317,-0.036948457,-0.06294669,-0.0077088717,0.9979871,2.1776733,-0.4275055,0.16758728,0
7007.951886091,0.7067783,0.70619726,0.041832197,-0.70587134,0.70791155,-0.024637531,-0.04701245,-0.012114878,0.99882084,0.73457426,0.67656404,0.051592898,-0.67562044,0.7363407,-0.036598966,-0.06275149,-0.00797256,0.99799734,2.2806091,-0.31932068,0.09068298,0
7007.956372175,0.7069843,0.7060078,0.041546118,-0.70571434,0.7080945,-0.023860112,-0.046264008,-0.012450967,0.99885166,0.7342354,0.6769312,0.05159924,-0.67600536,0.73600054,-0.036330532,-0.06257034,-0.008206199,0.9980068,2.349884,-0.4118042,0.22445679,0
7007.960858259,0.70722896,0.70578265,0.041206315,-0.7055246,0.7083124,-0.0229849,-0.045409292,-0.012816487,0.99888617,0.73370457,0.6775033,0.051640928,-0.6765957,0.73547083,-0.036067802,-0.062416453,-0.008476918,0.99801415,2.6431885,-0.3651123,0.48736572,0
7007.965344343,0.7268098,0.6855965,0.041290347,-0.685404,0.72786343,-0.020884361,-0.04437198,-0.013121609,0.9989289,0.73306113,0.6781943,0.051709123,-0.677307,0.73483,-0.035777844,-0.06226174,-0.008795602,0.99802107,2.728775,-0.14665222,0.3003235,0
7007.969830427,0.7272056,0.6852146,0.040657606,-0.6850553,0.72821856,-0.019921195,-0.043257914,-0.013365904,0.9989745,0.73277,0.6785112,0.051678207,-0.6776514,0.73453337,-0.035344843,-0.06194124,-0.009120171,0.9980381,3.0003662,-0.22566223,0.20411682,0
7007.974316511,0.7276611,0.68477374,0.039928284,-0.68464655,0.7286295,-0.018926192,-0.042053085,-0.013564909,0.9990233,0.7324511,0.6788608,0.05160821,-0.6780259,0.73420686,-0.034945298,-0.061614092,-0.00939598,0.99805576,3.3189545,-0.013015747,0.2561798,0
7007.978833113,0.7281446,0.6843045,0.039152883,-0.6842073,0.7290672,-0.017932232,-0.040816188,-0.013731429,0.9990724,0.7324511,0.6788608,0.05160821,-0.6780259,0.73420686,-0.034945298,-0.061614092,-0.00939598,0.99805576,3.3068237,-0.011383057,0.25572205,0
7007.983319197,0.7354833,0.6764575,0.03833283,-0.6763936,0.7363535,-0.016582998,-0.039444216,-0.013731567,0.99912745,0.73200685,0.6793611,0.051326707,-0.67857593,0.7337378,-0.034108806,-0.060832545,-0.009861189,0.99809927,3.5184174,-0.011383057,0.33189392,0
7007.987805281,0.73603964,0.67590386,0.03741127,-0.6758714,0.7368581,-0.015426611,-0.037993703,-0.013930609,0.99918085,0.7320565,0.6793219,0.05113805,-0.67855835,0.7337721,-0.03372077,-0.060430937,-0.010014642,0.9981222,3.7962952,-0.11955261,0.28819275,0
7007.992291365,0.7482192,0.6624393,0.03663781,-0.6624461,0.74898446,-0.013696572,-0.036514293,-0.014022535,0.99923474,0.73226506,0.6791082,0.05098973,-0.6783716,0.73396665,-0.033241075,-0.059999045,-0.010248707,0.9981459,3.8871307,0.058517456,0.36915588,0
7007.996777449,0.7481506,0.6625104,0.036750555,-0.66252095,0.74891907,-0.013639182,-0.036559295,-0.014143853,0.99923134,0.732813,0.6785294,0.050822724,-0.67781854,0.734499,-0.032759596,-0.05955759,-0.010441928,0.99817026,4.179657,0.08364868,0.32606506,0
7008.001263533,0.7481133,0.6625492,0.036811944,-0.6625623,0.7488834,-0.013594376,-0.036574796,-0.014220074,0.9992297,0.73344374,0.677859,0.050670546,-0.6771717,0.7351153,-0.03231089,-0.059150923,-0.010614444,0.99819267,4.4048615,0.031723022,0.44577026,0
7008.005749617,0.7548876,0.6548118,0.03696255,-0.65483785,0.7556561,-0.013084093,-0.036498595,-0.014327453,0.999231,0.7342392,0.67701215,0.050470978,-0.67634726,0.7358935,-0.031862244,-0.05871239,-0.010741396,0.99821717,4.638748,0.05192566,0.3212738,0
7008.010235701,0.7549216,0.6547756,0.036907226,-0.65480185,0.75568765,-0.013054333,-0.036438003,-0.014311928,0.99923337,0.7351593,0.6760298,0.050245143,-0.6753917,0.7367936,-0.031325884,-0.05819753,-0.010905637,0.99824554,4.709976,0.06135559,0.34521484,0
7008.014721785,0.75499105,0.65470195,0.03679448,-0.6547295,0.7557519,-0.01297262,-0.0363007,-0.014296222,0.99923867,0.7362214,0.6748951,0.049947035,-0.6742766,0.73783267,-0.030888991,-0.057699382,-0.010936976,0.99827415,4.608078,0.15216064,0.31632996,0
7008.019207869,0.74614465,0.66478133,0.03652426,-0.66480106,0.74690086,-0.013361373,-0.03616239,-0.014311849,0.9992434,0.73714846,0.67390823,0.04959543,-0.6733108,0.73873353,-0.030416962,-0.057136055,-0.010971325,0.9983061,4.6833344,0.12838745,0.340271,0
7008.023693953,0.74616915,0.664756,0.036483143,-0.66477436,0.74692434,-0.01338345,-0.03614688,-0.014266744,0.9992447,0.73789626,0.67311394,0.04926201,-0.67253846,0.7394564,-0.029937252,-0.056578293,-0.011040011,0.99833715,4.61615,0.18539429,0.28759766,0
7008.028180037,0.74616915,0.664756,0.036483143,-0.66477436,0.74692434,-0.01338345,-0.03614688,-0.014266744,0.9992447,0.7384514,0.6725253,0.048982292,-0.67196405,0.73999166,-0.029608034,-0.05615864,-0.011050246,0.99836075,4.568268,0.24284363,0.4599762,0
7008.032696638,0.7461455,0.6647805,0.036522906,-0.66480184,0.74690115,-0.013318468,-0.036132853,-0.014342979,0.9992441,0.73890066,0.67204994,0.04873123,-0.67150426,0.7404226,-0.029264012,-0.055748582,-0.01110003,0.99838316,4.673477,0.07601929,0.37858582,0
7008.037182722,0.7461455,0.6647805,0.036522906,-0.66480184,0.74690115,-0.013318468,-0.036132853,-0.014342979,0.9992441,0.739145,0.67179585,0.04852846,-0.6712692,0.7406512,-0.028871344,-0.055338304,-0.011235547,0.99840444,4.5920715,-0.010177612,0.43125916,0
7008.041668806,0.7461338,0.66479236,0.036542322,-0.6648147,0.7468898,-0.013296998,-0.036132835,-0.014372535,0.9992436,0.73924065,0.67170835,0.04828218,-0.67119586,0.7407296,-0.02856173,-0.05494919,-0.011292806,0.9984253,4.4723663,-0.019454956,0.46476746,0
7008.04615489,0.7375733,0.6742834,0.03643311,-0.6742979,0.7383315,-0.0137369735,-0.036162328,-0.014434746,0.99924165,0.7391019,0.6718758,0.048074815,-0.67137796,0.74057615,-0.028256603,-0.054587994,-0.011391864,0.99844396,4.453491,0.043395996,0.54138184,0
7008.050640974,0.7375696,0.67428744,0.036439687,-0.67430556,0.73832655,-0.013640036,-0.036101684,-0.014511004,0.9992427,0.73866564,0.67236865,0.04789038,-0.67188597,0.7401267,-0.027958378,-0.054243285,-0.011524979,0.99846125,4.2326355,-0.09950256,0.43125916,0
7008.055127058,0.73825824,0.67359424,0.035293773,-0.67363924,0.7389565,-0.012384487,-0.03442268,-0.014632323,0.9993002,0.737922,0.6732017,0.047651116,-0.6727367,0.7393666,-0.027610276,-0.05381893,-0.011682426,0.9984824,4.3358765,-0.08395386,0.20559692,0
7008.059613142,0.7398238,0.67187464,0.035289112,-0.67192185,0.74052036,-0.012272085,-0.03437761,-0.014632345,0.99930173,0.73709786,0.6741184,0.047446936,-0.6736698,0.7385284,-0.027291391,-0.053438537,-0.011847149,0.9985009,4.263611,-0.060012817,0.3109436,0
7008.064099226,0.7398573,0.6718404,0.03523332,-0.6718886,0.7405512,-0.01221923,-0.034301456,-0.014632383,0.99930435,0.73597133,0.6753681,0.04716177,-0.6749325,0.73738426,-0.027030282,-0.053031735,-0.011937501,0.9985215,4.2532806,-0.055221558,0.54078674,0
7008.06858531,0.73993087,0.67176604,0.035111386,-0.67181563,0.7406192,-0.012124746,-0.03414916,-0.014616904,0.99930984,0.7348604,0.6765983,0.046848312,-0.6761765,0.7362541,-0.026745295,-0.052588083,-0.012023665,0.9985439,4.3667145,-0.031433105,0.29658508,0
7008.073071394,0.7910627,0.61068135,0.035891186,-0.6107839,0.79174274,-0.009310887,-0.034102563,-0.014556257,0.99931234,0.73342824,0.6781772,0.04646232,-0.6777698,0.7347988,-0.026436424,-0.052069034,-0.012101538,0.99857014,4.5625763,-0.12779236,0.40193176,0
7008.077557478,0.7911147,0.6106193,0.035798226,-0.61072224,0.79179066,-0.009255607,-0.033996355,-0.014540526,0.9993161,0.73293054,0.6787349,0.04617118,-0.67833847,0.73428315,-0.026176281,-0.051669475,-0.012134292,0.9985905,4.523239,-0.008239746,0.34431458,0
7008.082043562,0.79116344,0.6105613,0.03571123,-0.61066604,0.79183525,-0.009165605,-0.033873573,-0.014556144,0.99932015,0.7325414,0.6791747,0.045877527,-0.6787929,0.733875,-0.025838524,-0.051217247,-0.012213554,0.9986129,4.4502106,-0.05596924,0.39698792,0
7008.086560164,0.739789,0.6719431,0.03470715,-0.6719956,0.7404599,-0.011871448,-0.033676192,-0.014540684,0.999327,0.7318247,0.67996675,0.04558392,-0.6795999,0.7331395,-0.025504388,-0.050761513,-0.012314085,0.99863493,4.591919,-0.1949768,0.24375916,0
7008.091046248,0.7397941,0.671938,0.034699414,-0.6719954,0.7404625,-0.011719477,-0.03356838,-0.014647849,0.99932903,0.73013306,0.6818088,0.045192417,-0.68145597,0.7314252,-0.025195131,-0.050233137,-0.012400845,0.99866056,4.6052246,-0.24180603,0.3154297,0
7008.095532332,0.7398365,0.67189467,0.03463436,-0.6719518,0.7405025,-0.011699681,-0.03350778,-0.014616766,0.99933153,0.72811484,0.68398005,0.04494407,-0.6836433,0.7293918,-0.024888854,-0.049805313,-0.012603766,0.9986794,4.542389,-0.36662292,0.52612305,0
7008.100018416,0.7802629,0.62446105,0.03519037,-0.62456024,0.78091955,-0.009454804,-0.033385,-0.014601271,0.99933594,0.7262782,0.6859493,0.044649325,-0.68562156,0.727539,-0.024701467,-0.049428083,-0.012672402,0.99869734,4.306549,-0.30451965,0.344162,0
7008.1045045,0.7802973,0.6244212,0.035131402,-0.624521,0.7809512,-0.009405387,-0.03330884,-0.014601307,0.9993384,0.72498715,0.6873342,0.04433164,-0.6870176,0.7262296,-0.024440289,-0.0489936,-0.012737722,0.9987179,4.3584747,-0.3428192,0.5165405,0
7008.108990584,0.78032976,0.62438387,0.03507606,-0.62448704,0.78098005,-0.009279353,-0.03318758,-0.014663592,0.99934155,0.7236677,0.6887402,0.044067867,-0.6884353,0.72489446,-0.024181738,-0.048599493,-0.012838335,0.99873585,4.2710876,-0.26559448,0.4925995,0
7008.113476668,0.75610596,0.65353453,0.034591045,-0.65361583,0.75675416,-0.010469729,-0.03301924,-0.0146930255,0.99934673,0.7225659,0.6899118,0.04382158,-0.6896209,0.72377723,-0.023866545,-0.048182867,-0.012975122,0.9987543,4.207199,-0.42811584,0.38232422,0
7008.117962752,0.75616777,0.65346795,0.034496337,-0.6535473,0.75681305,-0.010484654,-0.03295866,-0.014616828,0.9993498,0.72058916,0.69199574,0.04351052,-0.69171804,0.7217826,-0.023578085,-0.047721073,-0.013106901,0.9987747,4.4699554,-0.28042603,0.38711548,0
7008.122448836,0.75627136,0.65335625,0.034337524,-0.65343267,0.7569117,-0.010501153,-0.032851472,-0.0144955395,0.99935514,0.7189475,0.69372016,0.043206662,-0.6934485,0.72012526,-0.023429688,-0.047367852,-0.013116877,0.99879146,4.157669,-0.14753723,0.33444214,0
7008.12693492,0.76733845,0.6403914,0.033023484,-0.640493,0.76791364,-0.008793507,-0.030990472,-0.014403716,0.9994159,0.71710527,0.695647,0.042840116,-0.69537944,0.71826476,-0.023307074,-0.04698404,-0.013076508,0.9988101,4.2591248,-0.1197052,0.14709473,0
7008.131421004,0.76833856,0.6392678,0.031506978,-0.63938063,0.76885223,-0.0076707806,-0.02912789,-0.014251194,0.9994741,0.71584165,0.6969752,0.04238358,-0.6967145,0.71697724,-0.02307704,-0.046472184,-0.01300975,0.9988349,4.0014343,-0.08769226,0.2709961,0
7008.135937605,0.76923317,0.6382567,0.030145736,-0.63838226,0.769692,-0.0065114126,-0.027358884,-0.014235707,0.9995243,0.71429974,0.69859195,0.04177486,-0.6983395,0.715404,-0.022781223,-0.045800686,-0.012900415,0.9988673,3.6297455,-0.15966797,0.38067627,0
7008.140423689,0.7580743,0.6515324,0.02879223,-0.65165955,0.7584879,-0.006012859,-0.025756126,-0.014204536,0.99956733,0.7131129,0.69983476,0.041247707,-0.6995968,0.71418804,-0.022356343,-0.045104366,-0.012914167,0.9988988,3.365036,-0.1695404,0.31318665,0
7008.144909773,0.75878394,0.6507533,0.027698083,-0.65088594,0.7591581,-0.005158144,-0.024383903,-0.014114375,0.99960303,0.71144044,0.7015671,0.040695507,-0.7013415,0.71248657,-0.021977153,-0.044413447,-0.012906017,0.99892986,3.0594788,-0.2757721,0.39430237,0
7008.149395857,0.75943744,0.6500327,0.026688043,-0.65017,0.7597763,-0.00434512,-0.023101412,-0.014051919,0.9996343,0.7097937,0.7032639,0.040159725,-0.70304424,0.71081364,-0.021742608,-0.043836873,-0.012801297,0.9989566,2.8027039,-0.36257935,0.38905334,0
7008.153881941,0.7277843,0.68533385,0.025446698,-0.68545836,0.7280957,-0.004825731,-0.021834869,-0.013930562,0.9996645,0.7084967,0.70460045,0.039630532,-0.7043879,0.7094905,-0.021468848,-0.043244448,-0.012704656,0.99898374,2.7759094,-0.23927307,0.13497925,0
7008.158368025,0.7283356,0.6847772,0.024642231,-0.6849048,0.7286207,-0.004150776,-0.0207972,-0.013854427,0.9996878,0.70631015,0.70682555,0.039033137,-0.7066182,0.70727605,-0.021243222,-0.04262246,-0.012577223,0.99901205,2.219864,-0.31184387,0.33114624,0
7008.162854109,0.72893703,0.68416816,0.023763152,-0.68429554,0.7291962,-0.003553532,-0.019759214,-0.013670718,0.99971133,0.70453995,0.70861906,0.038502716,-0.7084184,0.70548064,-0.02098462,-0.042033024,-0.012491529,0.9990381,2.2671356,-0.25138855,0.47450256,0
7008.167340193,0.7239717,0.68944854,0.022927295,-0.6895723,0.7242097,-0.003249309,-0.0188444,-0.013457618,0.9997319,0.7025481,0.7106278,0.037871767,-0.7104292,0.7034609,-0.020812111,-0.041430973,-0.0122837,0.9990658,2.0809937,-0.1337738,0.27801514,0
7008.171826277,0.7244056,0.6890134,0.02229428,-0.68913525,0.724627,-0.0028847689,-0.018142682,-0.013274032,0.9997473,0.70087004,0.7123113,0.037332304,-0.7121164,0.7017587,-0.020613931,-0.040881805,-0.01213726,0.99909025,1.7628784,-0.06854248,0.3497162,0
7008.176312361,0.7248172,0.6885996,0.02169284,-0.68872035,0.72502273,-0.0024878187,-0.017440913,-0.013137088,0.9997615,0.69906396,0.71410894,0.036850467,-0.7139164,0.6999317,-0.020466601,-0.040408194,-0.012000691,0.9991112,1.7224731,-0.17044067,0.65122986,0
7008.180798445,0.75177604,0.65907437,0.021298418,-0.6592028,0.751964,-0.0012818109,-0.016860453,-0.013076344,0.9997723,0.69741124,0.7157472,0.036381047,-0.7155582,0.6982584,-0.020292092,-0.039927382,-0.0118808225,0.999132,1.4438477,-0.19018555,0.06210327,0
7008.185284529,0.7521235,0.6586947,0.020776846,-0.65882,0.7522999,-0.0010574292,-0.016326942,-0.012892884,0.9997836,0.6966852,0.71647286,0.036004383,-0.7162908,0.6975145,-0.020026043,-0.039461695,-0.011837762,0.99915093,1.4242401,-0.086639404,0.13392639,0
7008.18980113,0.75245124,0.65833545,0.02028395,-0.6584588,0.7526162,-7.770574E-4,-0.015777597,-0.012771451,0.99979395,0.69583535,0.7173198,0.035573125,-0.71714103,0.69664574,-0.019835874,-0.03901053,-0.011708444,0.9991702,1.399704,-0.04953003,0.28700256,0
7008.194287214,0.75210124,0.65875244,0.01972363,-0.6588753,0.7522522,-3.5991147E-4,-0.015074234,-0.01272472,0.99980545,0.6953458,0.7178134,0.035186905,-0.7176409,0.6961382,-0.019573575,-0.038545124,-0.011641158,0.9991891,1.7806702,-0.26545715,0.21502686,0
7008.198773298,0.7525379,0.65827316,0.019055575,-0.65839434,0.7526731,1.1537224E-4,-0.014266672,-0.012632905,0.9998184,0.69474095,0.71841824,0.03478732,-0.71825165,0.6955153,-0.019315302,-0.038071577,-0.011566919,0.9992081,1.983429,-0.31903076,0.2819214,0
7008.203259382,0.7529656,0.6578025,0.018400216,-0.6579215,0.7530862,5.595898E-4,-0.01348885,-0.01252725,0.9998305,0.6944709,0.71870106,0.034337316,-0.7185394,0.6952251,-0.019055821,-0.0375676,-0.011439004,0.9992286,2.0667877,-0.36315918,0.2915039,0
7008.207745466,0.7644746,0.6444081,0.017796943,-0.6445276,0.76457995,0.001321015,-0.012755914,-0.012480506,0.99984086,0.6941064,0.7190751,0.03387245,-0.7189152,0.6948414,-0.018877609,-0.0371104,-0.011248353,0.9992479,1.8872223,-0.4258728,0.17642212,0
7008.21223155,0.764849,0.6439796,0.017210986,-0.6440981,0.7649405,0.0018440527,-0.0119778495,-0.012495987,0.9998501,0.6942245,0.71898043,0.033457696,-0.7188259,0.6949411,-0.018606015,-0.03662849,-0.011133507,0.9992669,2.1908264,-0.55500793,0.10923767,0
7008.216717634,0.7652854,0.64347893,0.016527092,-0.643595,0.7653625,0.0023706723,-0.011123738,-0.012450994,0.9998606,0.6942495,0.718974,0.0330749,-0.71882236,0.69495,-0.018409552,-0.036221392,-0.010994157,0.9992833,2.1872406,-0.48362732,0.14276123,0
7008.221203718,0.7665681,0.641966,0.015900008,-0.64208025,0.76663154,0.0029447912,-0.010298995,-0.012466467,0.99986917,0.6943364,0.7189116,0.032604232,-0.7187636,0.6950172,-0.018162683,-0.035717867,-0.010823726,0.9993033,2.1504211,-0.5600891,0.22399902,0
7008.225689802,0.76699936,0.641466,0.015269523,-0.6415773,0.7670505,0.0034405105,-0.009505526,-0.01243545,0.99987745,0.6946194,0.7186567,0.0321925,-0.7185146,0.6952824,-0.01786495,-0.035221644,-0.010721439,0.99932206,1.9654694,-0.5268707,0.24794006,0
7008.230175886,0.7673715,0.64103377,0.014724953,-0.64114285,0.7674115,0.003942886,-0.008772575,-0.012466456,0.9998838,0.6947132,0.7185879,0.031702798,-0.71845007,0.695356,-0.017592162,-0.034686245,-0.010555372,0.9993425,1.8002625,-0.5505066,0.2956848,0
7008.23466197,0.7677405,0.64060396,0.014184014,-0.6407102,0.76777035,0.0044008223,-0.00807088,-0.012466529,0.99988973,0.6947132,0.7185879,0.031702798,-0.71845007,0.695356,-0.017592162,-0.034686245,-0.010555372,0.9993425,1.7933807,-0.5505066,0.2956848,0
7008.239148054,0.7686707,0.6394997,0.013612256,-0.6396017,0.7686913,0.004790358,-0.007400193,-0.012388633,0.9998958,0.69504476,0.7183058,0.030816711,-0.71818143,0.6956502,-0.01692054,-0.033591773,-0.010371456,0.9993819,1.643158,-0.52253723,0.15667725,0
7008.243573103,0.769046,0.63905996,0.013061733,-0.6391581,0.7690576,0.00521506,-0.0067124893,-0.012359134,0.99990106,0.69526446,0.7181147,0.030307505,-0.7179946,0.69584996,-0.01662955,-0.033031404,-0.010198687,0.9994022,1.5837402,-0.41748047,0.309906,0
7008.247967634,0.7695113,0.63851315,0.012378044,-0.6386051,0.76951456,0.0055501834,-0.0059812213,-0.012175613,0.99990803,0.69527894,0.71812093,0.029825171,-0.7180071,0.69584525,-0.016285768,-0.032448854,-0.010091535,0.99942243,1.629242,-0.19422913,0.15188599,0
7008.252362166,0.7699337,0.6380156,0.0117565375,-0.6381022,0.7699291,0.0059125256,-0.0052794167,-0.012054124,0.99991345,0.6954548,0.7179727,0.029291157,-0.7178646,0.69600034,-0.015938634,-0.031830158,-0.009942485,0.9994438,1.5696869,-0.20021057,0.0032958984,0
7008.256756697,0.77026194,0.637628,0.011272814,-0.63771,0.77025175,0.0061771497,-0.0047441805,-0.011946809,0.9999174,0.69536984,0.7180759,0.028772803,-0.71797436,0.69589543,-0.0155689735,-0.031202564,-0.009831942,0.9994647,1.1382751,-0.23957825,0.24749756,0
7008.261151228,0.7651606,0.6437479,0.010853467,-0.6438251,0.7651472,0.0062411977,-0.004286741,-0.011763253,0.9999216,0.69542193,0.71804446,0.028294351,-0.71794987,0.695929,-0.015192976,-0.030600091,-0.0097483955,0.9994842,1.0380249,-0.0067443848,0.28102112,0
7008.265545759,0.76542926,0.643435,0.010458935,-0.64350826,0.76541245,0.0063961116,-0.0038899165,-0.011626182,0.99992484,0.6952541,0.7182249,0.027834753,-0.7181366,0.6957439,-0.014841719,-0.030025553,-0.009670389,0.99950236,1.0915833,-0.1804657,0.21383667,0
7008.269940291,0.76582015,0.6429789,0.009884141,-0.64304596,0.76580006,0.006503974,-0.0033873569,-0.011336831,0.99993,0.69476724,0.7187117,0.02742225,-0.7186275,0.6952423,-0.014582201,-0.029545506,-0.009575147,0.99951756,1.158493,-0.07316589,0.19946289,0
7008.274334822,0.76456213,0.64448404,0.0092221135,-0.6445441,0.7645381,0.006654606,-0.0027618697,-0.011031919,0.9999353,0.69443804,0.7190505,0.026872696,-0.71896887,0.6948946,-0.01432836,-0.028976506,-0.009370472,0.99953616,1.1188354,-0.152771,0.05581665,0
7008.278729353,0.7649789,0.64399767,0.00862356,-0.64405173,0.764951,0.006879992,-0.0021659029,-0.010817067,0.99993914,0.69399303,0.7195045,0.026213055,-0.71942633,0.69442767,-0.013997488,-0.028274326,-0.009144206,0.9995584,0.92144775,-0.19319153,0.055664063,0
7008.283123884,0.76525646,0.64367294,0.00822433,-0.6437229,0.76522696,0.0069588423,-0.0018142598,-0.010619489,0.99994195,0.6932261,0.7202679,0.025530057,-0.7201947,0.6936384,-0.013617652,-0.027516985,-0.008946501,0.99958134,0.6450653,-0.15202332,0.26635742,0
7008.287518416,0.7432374,0.6689774,0.008212195,-0.66902554,0.7432106,0.006546366,-0.0017240187,-0.010359672,0.99994487,0.6926881,0.72080356,0.025010632,-0.7207349,0.69308335,-0.013293354,-0.026916347,-0.008817889,0.9995988,0.08872986,-0.14500427,0.09875488,0
7008.291912947,0.7434289,0.6687678,0.00794401,-0.66881305,0.74340224,0.006480662,-0.0015715373,-0.01013097,0.99994737,0.6913742,0.7220833,0.024441635,-0.722016,0.6917526,-0.013082938,-0.026354536,-0.0086020455,0.9996156,0.09680176,-0.17597961,0.35733032,0
7008.296307478,0.743577,0.6686057,0.0077364882,-0.66864896,0.7435499,0.0065045385,-0.0014034939,-0.0100096185,0.9999489,0.690315,0.7231146,0.023883803,-0.72305006,0.69067675,-0.012816422,-0.025763728,-0.008421816,0.9996326,0.05206299,-0.25378418,0.09396362,0
7008.300702009,0.75469327,0.6560365,0.0073641706,-0.6560767,0.75466484,0.0066592474,-0.0011887708,-0.00985715,0.9999507,0.68931115,0.7240886,0.023365807,-0.72402894,0.68965685,-0.012474602,-0.025147105,-0.008318638,0.99964917,0.030807495,-0.21696472,0.10354614,0
7008.305096541,0.75484186,0.65586776,0.0071537197,-0.6559059,0.7548142,0.006558034,-0.0010985262,-0.009642446,0.999953,0.68830204,0.72506624,0.022784652,-0.7250115,0.68863034,-0.012100065,-0.024463553,-0.008190636,0.99966717,-0.41539,-0.108947754,-0.059265137,0
7008.309491072,0.75499254,0.6556967,0.0069404,-0.6557326,0.75496674,0.0063395444,-0.0010829527,-0.009337354,0.9999559,0.687613,0.72573817,0.02219103,-0.7256881,0.68792397,-0.01172024,-0.023771567,-0.008044777,0.99968505,-0.42510986,-0.011367798,0.108184814,0
7008.313885603,0.79353863,0.60848665,0.006360255,-0.6085189,0.79351306,0.0064659207,-0.0011125194,-0.009001293,0.9999589,0.68678486,0.7265406,0.021569712,-0.72649276,0.687079,-0.011431964,-0.023125883,-0.00781894,0.999702,-0.5014343,0.057159424,0.093811035,0
7008.318280134,0.793599,0.60840875,0.006271622,-0.6084398,0.7935762,0.0061497553,-0.0012354442,-0.008696345,0.99996144,0.68716156,0.72620046,0.021023411,-0.72615486,0.68744093,-0.0111403335,-0.022542467,-0.007611044,0.9997169,-0.8354187,-0.022445679,0.122543335,0
7008.322674666,0.793631,0.60836744,0.006224609,-0.6083976,0.7936114,0.0057643843,-0.0014330569,-0.008361832,0.99996406,0.68747824,0.7259166,0.020460166,-0.72587353,0.6877428,-0.010837039,-0.02193812,-0.007401264,0.9997319,-1.0298157,0.1418457,0.122543335,0
7008.327069197,0.77163273,0.63603526,0.0064799166,-0.6360657,0.77161795,0.0050797,-0.0017691519,-0.008041317,0.999966,0.6875398,0.7258746,0.019872451,-0.7258336,0.68778956,-0.010539443,-0.02131838,-0.007177806,0.999747,-1.3473358,0.11476135,0.060302734,0
7008.331463728,0.77145547,0.6362476,0.0067319255,-0.63627887,0.77144593,0.004494068,-0.002333976,-0.007750357,0.9999672,0.6873263,0.72609085,0.0193554,-0.726052,0.6875631,-0.010261716,-0.020758998,-0.0069998805,0.99976,-1.6721954,0.18852234,0.13691711,0
7008.335858259,0.7711376,0.6366281,0.0071837413,-0.6366609,0.7711348,0.0037644345,-0.0031430877,-0.007476503,0.9999671,0.6871204,0.7262962,0.018955965,-0.72625935,0.6873475,-0.0100366585,-0.020318924,-0.0068705548,0.9997699,-2.0569153,0.16189575,-0.049835205,0
7008.340252791,0.77817684,0.62799776,0.007717822,-0.6280316,0.7781819,0.0030050839,-0.0041186837,-0.0071855234,0.99996567,0.68660897,0.7267886,0.01861251,-0.72675186,0.6868284,-0.009919969,-0.01999332,-0.006715537,0.99977756,-2.2628174,0.22129822,-0.27967834,0
7008.344647322,0.77778256,0.6284791,0.008263818,-0.62851304,0.77779603,0.0021684973,-0.0050647096,-0.0068805367,0.9999635,0.6865396,0.72686064,0.018356968,-0.7268237,0.68675345,-0.00985052,-0.019766666,-0.006579508,0.999783,-2.435501,0.26139832,-0.121658325,0
7008.349041853,0.77739155,0.6289554,0.008804573,-0.628988,0.77741396,0.0012766425,-0.0060418453,-0.006530421,0.9999604,0.6862384,0.72715294,0.018041292,-0.7271155,0.68644553,-0.009774443,-0.01949188,-0.006410507,0.9997894,-2.7563171,0.36331177,-0.025894165,0
7008.353436384,0.77696174,0.62947756,0.00939791,-0.629508,0.77699375,3.7814025E-4,-0.007064087,-0.0062098615,0.9999557,0.6862384,0.72715294,0.018041292,-0.7271155,0.68644553,-0.009774443,-0.01949188,-0.006410507,0.9997894,-2.746292,0.36016846,-0.025894165,0
7008.357830916,0.81222993,0.58325154,0.0100048,-0.58328056,0.8122706,-8.495059E-6,-0.008131559,-0.005828706,0.9999499,0.6862661,0.7271412,0.01744779,-0.72710395,0.6864606,-0.009570366,-0.01893623,-0.006118539,0.999802,-2.9752502,0.332489,-0.07841492,0
7008.362225447,0.81163603,0.58406293,0.010831712,-0.58408874,0.8116892,-9.337608E-4,-0.00933736,-0.0055688075,0.9999409,0.6870093,0.72644764,0.01709097,-0.72640955,0.6871965,-0.009490488,-0.018639198,-0.005894991,0.99980885,-3.1166534,0.3921814,-0.24121094,0
7008.366619978,0.8119799,0.58356655,0.011774322,-0.5835882,0.81204766,-0.0018666671,-0.010650636,-0.0053556594,0.999929,0.6880744,0.72544295,0.01691725,-0.7254054,0.6882578,-0.00939237,-0.018457057,-0.0058092144,0.9998128,-3.3096771,0.41403198,-0.20755005,0
7008.371014509,0.8112948,0.58449763,0.01277836,-0.5845136,0.8113789,-0.0028313594,-0.012023015,-0.005172059,0.9999143,0.6892898,0.7242906,0.016811663,-0.72425383,0.6894707,-0.009301548,-0.018328173,-0.005764449,0.9998154,-3.4207153,0.287735,-0.06373596,0
7008.375409041,0.8105991,0.5854389,0.013795043,-0.5854467,0.8107015,-0.0038841646,-0.013457604,-0.0049277637,0.9998973,0.6904356,0.7232006,0.016719451,-0.7231631,0.69061476,-0.009294654,-0.018268598,-0.00567353,0.999817,-3.5838165,0.18478394,-0.054016113,0
7008.379803572,0.8235019,0.5671143,0.015028688,-0.5671167,0.82362497,-0.0045131384,-0.01493747,-0.0048064417,0.99987686,0.69192016,0.7217833,0.016592856,-0.72174466,0.69209695,-0.0093026385,-0.018198354,-0.0055391225,0.9998191,-3.736908,0.13092041,0.06599426,0
7008.384198103,0.8226084,0.56837565,0.016262395,-0.5683685,0.82275563,-0.0055049728,-0.016508872,-0.004714598,0.9998526,0.69380194,0.71997625,0.016524121,-0.7199367,0.69397736,-0.009301869,-0.018164491,-0.0054426664,0.99982023,-4.1285095,-0.06149292,-0.292984,0
7008.388592634,0.8217248,0.5696165,0.017478157,-0.5695996,0.82189727,-0.0064158347,-0.018019816,-0.0046835025,0.99982667,0.69595,0.71790224,0.016430493,-0.7178619,0.6961235,-0.009292051,-0.018108439,-0.005328022,0.99982184,-4.0801697,0.048309326,-0.19212341,0
7008.392987166,0.85754925,0.51404095,0.01926216,-0.5140256,0.857753,-0.006118961,-0.019667573,-0.004653933,0.9997958,0.6982,0.71571505,0.016397446,-0.7156753,0.6983724,-0.009219542,-0.018050088,-0.005298162,0.9998231,-4.3130035,0.07675171,-0.39294434,0
7008.397381697,0.8566024,0.515565,0.020618957,-0.5155372,0.85683817,-0.00704896,-0.021301305,-0.004591684,0.99976254,0.7014977,0.71248215,0.016437374,-0.71244293,0.70167035,-0.009159839,-0.01805984,-0.0052850847,0.999823,-4.206009,0.052200317,-0.3830719,0
7008.401776228,0.855617,0.5171407,0.0220241,-0.51710045,0.85588807,-0.007925814,-0.022948924,-0.004607212,0.99972606,0.70494854,0.70906657,0.016497334,-0.70902675,0.7051221,-0.009160675,-0.018128164,-0.0052392464,0.99982196,-4.218582,-0.0098724365,-0.29179382,0
7008.406170759,0.86437804,0.50229996,0.023354474,-0.50225484,0.864681,-0.008186162,-0.024306076,-0.0046539577,0.99969375,0.7084307,0.7055871,0.016517658,-0.70554745,0.7086041,-0.009108217,-0.01813112,-0.005201451,0.9998221,-3.7599487,-0.22969055,-0.24824524,0
7008.410565291,0.86354935,0.50367063,0.024463283,-0.50361705,0.86388266,-0.008754995,-0.02554304,-0.004759756,0.99966234,0.71218884,0.7017926,0.016557544,-0.70175284,0.71236265,-0.009074996,-0.01816374,-0.005156194,0.9998217,-3.5610657,-0.2861023,-0.21443176,0
7008.414959822,0.8627521,0.5049825,0.025525922,-0.50492084,0.8631158,-0.009279481,-0.026717803,-0.004882678,0.9996311,0.71589744,0.6980079,0.01660882,-0.69796866,0.7160716,-0.009009054,-0.018181495,-0.0051428773,0.9998215,-3.3388672,-0.4381256,-0.022598267,0
7008.419354353,0.92424875,0.38078064,0.027754283,-0.3807705,0.9246509,-0.005855019,-0.027892504,-0.005156519,0.99959755,0.7195438,0.69424707,0.016666114,-0.69420755,0.71971875,-0.0089896,-0.018235918,-0.0051013306,0.9998207,-3.2507324,-0.71318054,-0.15158081,0
7008.423748884,0.92362,0.3822167,0.02892572,-0.38220823,0.92405665,-0.006039954,-0.02903757,-0.005477025,0.99956334,0.7249601,0.68858546,0.01682002,-0.68854636,0.7251373,-0.008938558,-0.018351784,-0.0051012645,0.9998186,-2.9569855,-0.94944763,-0.065093994,0
7008.428143416,0.9230707,0.38346308,0.02994335,-0.38345397,0.92353874,-0.0062743872,-0.030059835,-0.005690192,0.9995319,0.7300942,0.6831345,0.017022703,-0.6830942,0.73027503,-0.008987093,-0.018570649,-0.0050666844,0.99981475,-2.8990784,-0.81806946,-0.13183594,0
7008.432537947,0.9326969,0.35932216,0.031050824,-0.35933006,0.9331942,-0.00551815,-0.030959241,-0.0060107326,0.99950254,0.73494434,0.6779115,0.017110966,-0.67786974,0.73512673,-0.009017665,-0.018691907,-0.004971524,0.99981296,-2.7897034,-1.1022339,-0.15068054,0
7008.436932478,0.9321812,0.36057734,0.031974033,-0.36058882,0.93270814,-0.0056081116,-0.03184459,-0.0063017,0.999473,0.73981714,0.6725888,0.017171763,-0.67254597,0.74000037,-0.009019763,-0.018773701,-0.0048758243,0.9998119,-2.8049622,-1.0084076,-0.049835205,0
7008.441327009,0.9315564,0.36208847,0.03308638,-0.36210442,0.9321201,-0.005720498,-0.032911804,-0.006651757,0.9994362,0.7442636,0.667664,0.017218163,-0.6676208,0.74444723,-0.008989248,-0.01881981,-0.004804834,0.99981135,-3.0674286,-1.2060852,-0.16923523,0
7008.445721541,0.9295645,0.36705413,0.034368258,-0.36707187,0.9301731,-0.0060207285,-0.03417836,-0.007018965,0.99939114,0.74838763,0.66303486,0.017341038,-0.6629895,0.7485737,-0.009072189,-0.018996224,-0.0047074123,0.9998085,-3.2704926,-1.2886658,-0.1592102,0
7008.450116072,0.9287539,0.3689745,0.035694346,-0.36899993,0.92940944,-0.0061148982,-0.035430904,-0.0074919765,0.9993441,0.752092,0.6588241,0.017563183,-0.6587753,0.7522828,-0.009250142,-0.019306697,-0.004613234,0.99980295,-3.205536,-1.5186615,-0.08692932,0
7008.454510603,0.92792857,0.37091386,0.03703494,-0.37094596,0.9286334,-0.006254793,-0.036711864,-0.0079339575,0.99929434,0.7552271,0.6552214,0.017799668,-0.6551689,0.7554233,-0.009452334,-0.019639656,-0.0045231297,0.99979687,-3.4419708,-1.2892761,-0.15815735,0
7008.458905134,0.92704636,0.3729694,0.038457293,-0.37300915,0.92780566,-0.006405316,-0.038069878,-0.008406897,0.99923974,0.7582069,0.6517636,0.018066198,-0.6517088,0.7584087,-0.009579924,-0.01994541,-0.004510336,0.99979085,-3.749466,-1.3325195,-0.2774353,0
7008.463299666,0.926019,0.37534094,0.040100284,-0.37538156,0.9268454,-0.0067971405,-0.039718006,-0.008758624,0.99917245,0.76057273,0.6489949,0.018296618,-0.6489378,0.76077944,-0.009709604,-0.020221176,-0.004488508,0.9997855,-4.3318634,-1.14711,-0.40597534,0
7008.467694197,0.92603713,0.3752993,0.040071417,-0.3753369,0.92686313,-0.006867378,-0.039718036,-0.008680833,0.9991733,0.76288795,0.64626384,0.018571455,-0.6462029,0.7631011,-0.009924136,-0.020585509,-0.0044299234,0.9997783,-4.868164,-1.1335144,-0.17134094,0
7008.472088728,0.9604871,0.27535748,0.040532712,-0.27547842,0.96130365,-0.0026812311,-0.03970253,-0.008590597,0.99917465,0.76496965,0.6437896,0.018878106,-0.6437245,0.76519,-0.010151766,-0.02098094,-0.004386507,0.9997703,-5.4094086,-0.741745,-0.30062866,0
7008.476483259,0.960548,0.27516058,0.04042505,-0.2752788,0.9613606,-0.0027212622,-0.03961183,-0.008514257,0.9991788,0.76795596,0.640216,0.019162135,-0.64014643,0.76818293,-0.010369992,-0.02135906,-0.0043028756,0.99976265,-6.123764,-0.7233429,-0.34866333,0
7008.480877791,0.960594,0.27501187,0.040343743,-0.2751292,0.96140337,-0.0027239155,-0.03953572,-0.008483165,0.9991821,0.7710876,0.63643324,0.019408923,-0.6363607,0.77132016,-0.010506644,-0.02165727,-0.004249532,0.99975646,-7.1683807,-0.4794464,-0.42048645,0
7008.485272322,0.96067995,0.27473387,0.04019177,-0.27485317,0.96148264,-0.0026361486,-0.03936793,-0.008514339,0.99918854,0.7710876,0.63643324,0.019408923,-0.6363607,0.77132016,-0.010506644,-0.02165727,-0.004249532,0.99975646,-7.1700287,-0.47914124,-0.42048645,0
7008.489666853,0.9678927,0.24814679,0.04008605,-0.2482908,0.9686845,-0.001423751,-0.039184034,-0.00857496,0.99919516,0.7797448,0.62577254,0.020167628,-0.6256988,0.77999324,-0.010557242,-0.022337047,-0.0043869084,0.9997409,-7.4495544,-0.44981384,-0.41583252,0
7008.494061384,0.9679703,0.24786852,0.039931264,-0.24801172,0.96875584,-0.0014045173,-0.03903179,-0.008543893,0.99920136,0.7797448,0.62577254,0.020167628,-0.6256988,0.77999324,-0.010557242,-0.022337047,-0.0043869084,0.9997409,-7.7814484,-0.29689026,-0.5020294,0
7008.498455916,0.96799976,0.24776328,0.039872702,-0.24790911,0.96878237,-0.0013225302,-0.038955647,-0.008604598,0.9992039,0.7797448,0.62577254,0.020167628,-0.6256988,0.77999324,-0.010557242,-0.022337047,-0.0043869084,0.9997409,-7.782196,-0.29629517,-0.5020294,0
7008.502850447,0.960027,0.27707127,0.039744698,-0.27719408,0.96081066,-0.00249675,-0.038878907,-0.008620048,0.9992067,0.7865314,0.6172034,0.020697597,-0.61712945,0.7867909,-0.01055086,-0.022796707,-0.004474515,0.9997301,-7.8164673,-0.3679657,-0.5117645,0
7008.507244978,0.96005994,0.27696434,0.039695375,-0.2770886,0.9608412,-0.0024456298,-0.038818303,-0.008651185,0.99920875,0.78996,0.6127986,0.02100135,-0.6127247,0.79022604,-0.010542922,-0.023056503,-0.004539561,0.99972385,-8.099579,-0.5065155,-0.6027374,0
7008.511639509,0.9252199,0.3774149,0.039064508,-0.37745595,0.92600393,-0.0066032447,-0.038666055,-0.008635678,0.9992149,0.79354495,0.6081378,0.021328667,-0.6080645,0.793818,-0.010513427,-0.023324693,-0.004626329,0.99971724,-8.177689,-0.45399475,-0.44950867,0
7008.516034041,0.92529595,0.3772364,0.0389894,-0.37728062,0.92607623,-0.0064990567,-0.03855883,-0.008696393,0.99921846,0.7962644,0.60456526,0.021539267,-0.6044927,0.7965418,-0.010471516,-0.023487642,-0.004682235,0.9997132,-8.159592,-0.5443878,-0.36331177,0
7008.520428572,0.9254595,0.3768518,0.038827572,-0.37689817,0.9262327,-0.0063991584,-0.038374893,-0.008711877,0.99922544,0.79932016,0.60050845,0.02183858,-0.600438,0.79960394,-0.010381573,-0.023696437,-0.0048145116,0.99970764,-7.9889984,-0.6208496,-0.40177917,0
7008.524823103,0.79972744,0.5992934,0.035825837,-0.59914815,0.80048126,-0.015851405,-0.03817755,-0.008788181,0.9992323,0.8026716,0.596014,0.022035332,-0.5959465,0.80295897,-0.010229365,-0.023790311,-0.004921059,0.99970484,-7.943054,-0.6871338,-0.5310669,0
7008.529217634,0.79979086,0.5992113,0.0357842,-0.5990714,0.80054176,-0.015700692,-0.038054775,-0.008880018,0.9992362,0.8032268,0.59525853,0.022224942,-0.5951935,0.8035182,-0.010156127,-0.023903668,-0.005070469,0.9997014,-7.6952667,-0.8011627,-0.5454254,0
7008.533612166,0.7999353,0.5990241,0.03568933,-0.5988892,0.8006811,-0.015542932,-0.037886363,-0.008940615,0.99924207,0.8042007,0.5939327,0.022477636,-0.5938711,0.8044975,-0.010042766,-0.02404793,-0.005272421,0.9996969,-7.476654,-0.91548157,-0.38755798,0
7008.538006697,0.6942739,0.7189688,0.03267427,-0.7187217,0.6949842,-0.020879887,-0.037720088,-0.008987346,0.99924785,0.8053372,0.59238285,0.0226868,-0.5923242,0.8056384,-0.00994619,-0.024169307,-0.0054279026,0.99969316,-7.1335144,-0.9724884,-0.4546051,0
7008.542401228,0.69426984,0.7189726,0.03267668,-0.71873444,0.6949781,-0.020643437,-0.03755164,-0.009153739,0.99925274,0.8047871,0.5931239,0.022842841,-0.59306747,0.80509186,-0.009905061,-0.024265513,-0.0055758804,0.99969,-6.9340515,-0.8703003,-0.349411,0
7008.546795759,0.6943331,0.7189132,0.032639366,-0.71868294,0.6950379,-0.020423403,-0.037368257,-0.009276713,0.9992585,0.8046277,0.5933309,0.023082167,-0.5932803,0.80493724,-0.009720038,-0.024346896,-0.0058731837,0.99968636,-6.88797,-0.82121277,-0.53616333,0
7008.551190291,0.6164677,0.78679466,0.030358508,-0.786503,0.61714244,-0.023411185,-0.037155323,-0.009444818,0.99926484,0.80438834,0.5936477,0.023274917,-0.5936012,0.804702,-0.009606528,-0.024432266,-0.00608864,0.99968296,-6.885269,-0.7621002,-0.5122223,0
7008.555584822,0.616453,0.7868059,0.030367091,-0.78652394,0.6171256,-0.023151252,-0.036955852,-0.009612785,0.9992706,0.8031857,0.59526736,0.023440834,-0.5952267,0.8035024,-0.009435829,-0.024451608,-0.0063738874,0.9996807,-6.8632813,-0.75086975,-0.49319458,0
7008.559979353,0.6163646,0.7868732,0.030418525,-0.7865947,0.6170384,-0.023074748,-0.036926296,-0.009704589,0.99927086,0.80184364,0.59706664,0.02362679,-0.59703076,0.8021642,-0.009318248,-0.024516182,-0.006634142,0.9996774,-6.791748,-0.70687866,-0.3830719,0
7008.564373884,0.6037197,0.79662883,0.030084284,-0.7963445,0.60438913,-0.023433127,-0.036850117,-0.009810412,0.9992726,0.8005382,0.59880567,0.023883414,-0.59877175,0.8008653,-0.009339354,-0.024719855,-0.0068242033,0.9996711,-6.7158813,-0.7585144,-0.47883606,0
7008.568768416,0.6037025,0.7966414,0.0300951,-0.79636323,0.6043708,-0.0232711,-0.036727324,-0.00991781,0.9992761,0.79931796,0.6004241,0.024120372,-0.600393,0.79965085,-0.009319808,-0.024883712,-0.0070322095,0.9996656,-6.5111847,-0.6473236,-0.36390686,0
7008.573162947,0.6036326,0.7966926,0.030138977,-0.7964182,0.6043017,-0.02318233,-0.036682233,-0.01000962,0.9992769,0.7978442,0.6023737,0.024302868,-0.60234547,0.7981815,-0.009289521,-0.024993863,-0.0072271316,0.9996615,-6.118973,-0.48841858,-0.4740448,0
7008.577557478,0.56765306,0.8227524,0.029127024,-0.82245433,0.5683096,-0.024354028,-0.036590505,-0.010131008,0.999279,0.7964213,0.60424393,0.024542738,-0.6042177,0.7967649,-0.009310605,-0.02518067,-0.007413993,0.9996554,-5.8517303,-0.4584961,-0.19631958,0
7008.581952009,0.56754464,0.8228246,0.029202066,-0.8225318,0.5682026,-0.024230145,-0.03652985,-0.010267942,0.99927974,0.79464084,0.60657513,0.024748558,-0.6065522,0.79498947,-0.009284322,-0.025306484,-0.0076335897,0.9996506,-5.2729187,-0.270401,-0.31123352,0
7008.586346541,0.5674821,0.8228662,0.029245323,-0.8225784,0.5681404,-0.024108682,-0.036453668,-0.010375323,0.9992814,0.7926718,0.6091369,0.024973888,-0.6091166,0.79302627,-0.00928814,-0.025462696,-0.007849564,0.99964494,-4.8858185,-0.17837524,-0.34475708,0
7008.590741072,0.55996627,0.8279683,0.030103957,-0.82764167,0.5606746,-0.025557335,-0.03803919,-0.010604044,0.99921995,0.7909645,0.61134374,0.025179606,-0.6113262,0.79132426,-0.00928485,-0.025601467,-0.008048966,0.99963987,-4.520706,-0.19528198,-0.2531891,0
7008.595135603,0.55861795,0.8288444,0.031030742,-0.8284809,0.55937606,-0.026793638,-0.03956561,-0.010740971,0.9991593,0.78884685,0.6140669,0.025347546,-0.61405283,0.78921074,-0.009251619,-0.025685668,-0.008266622,0.9996359,-4.477005,-0.08380127,-0.3722992,0
7008.599530134,0.557302,0.8296956,0.031933893,-0.82929546,0.5581099,-0.027972583,-0.041031346,-0.010893457,0.9990985,0.7866025,0.6169333,0.025490724,-0.61692166,0.78697014,-0.009256588,-0.025771137,-0.008444524,0.9996322,-4.046051,-0.16850281,-0.21368408,0
7008.603924666,0.5283752,0.84841406,0.031831395,-0.84794307,0.5292195,-0.03032228,-0.042571645,-0.010969667,0.9990333,0.78449,0.6196077,0.025725415,-0.61959773,0.7848642,-0.009315543,-0.02596294,-0.0086314585,0.9996256,-4.083618,-0.22999573,-0.10772705,0
7008.608319197,0.5272625,0.8490757,0.032633413,-0.8485631,0.52815527,-0.031510863,-0.04399061,-0.011077007,0.9989705,0.7816038,0.62323546,0.025944617,-0.6232227,0.78198594,-0.0095642805,-0.026249124,-0.008693797,0.99961764,-3.8829498,-0.21458435,-0.4519043,0
7008.612713728,0.5261806,0.8497162,0.03341224,-0.84916043,0.5271221,-0.032695185,-0.04539396,-0.011168775,0.99890673,0.77857864,0.6270007,0.026180863,-0.6269864,0.77896893,-0.009771528,-0.026520833,-0.008807142,0.9996094,-3.74469,-0.0796051,-0.26934814,0
7008.617108259,0.556629,0.83000755,0.03537711,-0.829448,0.5576384,-0.032486446,-0.046691634,-0.011260576,0.9988459,0.77556324,0.63071465,0.026469888,-0.6306989,0.7759633,-0.009992473,-0.026842061,-0.008944734,0.99959964,-3.708023,-0.13616943,-0.24002075,0
7008.621502791,0.55573547,0.8305782,0.036027826,-0.8299782,0.5567879,-0.03351619,-0.047897674,-0.011276173,0.99878854,0.7727387,0.63416237,0.026702154,-0.63414496,0.7731469,-0.010198856,-0.027112419,-0.009051986,0.9995914,-3.552536,-0.045028687,-0.18675232,0
7008.625897322,0.55477345,0.8311904,0.036727615,-0.8305495,0.55587226,-0.03454965,-0.0491332,-0.011336874,0.9987279,0.7698634,0.6376422,0.026883487,-0.6376224,0.77027863,-0.010414504,-0.027348503,-0.009123769,0.9995843,-3.4638062,-0.10189819,-0.22445679,0
7008.630291853,0.54746306,0.8360072,0.037098106,-0.8353172,0.5486005,-0.035813674,-0.050292525,-0.011382026,0.9986696,0.7667681,0.64135003,0.027143564,-0.6413269,0.7671932,-0.010695311,-0.027683796,-0.009207075,0.9995743,-3.1411896,-0.22595215,0.082595825,0
7008.634686384,0.5466494,0.83650994,0.03775588,-0.8357802,0.54783195,-0.036764573,-0.05143781,-0.011458286,0.9986105,0.7667681,0.64135003,0.027143564,-0.6413269,0.7671932,-0.010695311,-0.027683796,-0.009207075,0.9995743,-3.129959,-0.22520447,0.08319092,0
7008.639080916,0.5458904,0.8369776,0.038368903,-0.8362175,0.547114,-0.03750574,-0.052383628,-0.011610724,0.9985596,0.760119,0.64919317,0.027700817,-0.64915913,0.76056683,-0.011430033,-0.02848862,-0.009294052,0.9995509,-2.804657,-0.23329163,-0.24195862,0
7008.643475447,0.57400274,0.8178727,0.040063325,-0.8171407,0.5752789,-0.0365402,-0.052932817,-0.011763195,0.9985287,0.756604,0.65327466,0.027973218,-0.6532373,0.75706255,-0.011720368,-0.028834095,-0.0094054695,0.99954,-2.239029,-0.36587524,-0.0644989,0
7008.647869978,0.5743516,0.8176405,0.03980366,-0.8169153,0.5756115,-0.03634423,-0.052627955,-0.011641852,0.9985463,0.75335515,0.65701467,0.028066961,-0.656975,0.75381833,-0.01190798,-0.028981108,-0.009468352,0.9995351,-0.039352417,0.09262085,-0.15562439,0
7008.652264509,0.57490206,0.8172734,0.039393663,-0.81655544,0.5761371,-0.03610013,-0.052199826,-0.011413071,0.99857146,0.75015175,0.6606677,0.028114451,-0.66062284,0.7506191,-0.012182554,-0.029151866,-0.009434282,0.99953043,0.21502686,-0.034118652,-0.017059326,0
7008.656659041,0.5631408,0.8254589,0.03860082,-0.8247212,0.5643511,-0.036642812,-0.052031554,-0.011199854,0.9985826,0.74705416,0.6641716,0.028037447,-0.6641175,0.7475229,-0.01254318,-0.029289458,-0.009249726,0.9995281,-0.22236633,0.10745239,0.23179626,0
7008.661053572,0.5633541,0.8253213,0.03843155,-0.82458425,0.5645548,-0.03658982,-0.05189507,-0.011077028,0.9985911,0.7437298,0.66789263,0.028024796,-0.66782963,0.74420196,-0.012923489,-0.029487612,-0.009104205,0.9995237,-0.0034332275,-0.008682251,0.116867065,0
7008.665448103,0.5635639,0.82518584,0.038264953,-0.82445335,0.5647543,-0.03645892,-0.051695675,-0.011000736,0.9986023,0.74051595,0.67144877,0.02815431,-0.67137694,0.74099606,-0.013337718,-0.029817825,-0.009025362,0.9995146,-0.04849243,0.08155823,0.26994324,0
7008.669842634,0.5637359,0.8250745,0.038128268,-0.8243432,0.5649185,-0.036403157,-0.05157469,-0.0109090125,0.99860954,0.73734397,0.67492586,0.028265659,-0.6748488,0.7378303,-0.01362299,-0.030049767,-0.009030216,0.9995076,-0.20291138,0.114151,0.2747345,0
7008.674237166,0.5638475,0.82500243,0.0380397,-0.8242746,0.56502444,-0.03631444,-0.051452857,-0.010879351,0.99861616,0.73422074,0.67831767,0.028373783,-0.6782347,0.73471344,-0.013926528,-0.03029321,-0.009018938,0.9995004,-0.14663696,0.08514404,-0.10369873,0
7008.678631697,0.5639637,0.82492733,0.03794743,-0.82420856,0.5651337,-0.03611533,-0.051237885,-0.010908862,0.9986269,0.73110557,0.68166816,0.02851486,-0.68158036,0.73160547,-0.014199264,-0.030540815,-0.009054007,0.99949247,-0.029037476,-0.0103302,-0.036819458,0
7008.683026228,0.56915605,0.8213476,0.038070984,-0.8206428,0.57032365,-0.03572608,-0.051056318,-0.010908964,0.99863625,0.728052,0.68492407,0.028620685,-0.68483293,0.72855747,-0.014412087,-0.030723002,-0.009107641,0.9994864,0.074523926,-0.0055389404,0.10205078,0
7008.687420759,0.5692466,0.821288,0.038003385,-0.8205809,0.57041085,-0.03575273,-0.05104084,-0.010832738,0.9986378,0.7251372,0.6880027,0.02878142,-0.68790674,0.7256505,-0.014686138,-0.030989353,-0.0091494685,0.9994778,-0.16503906,-0.011077881,0.025436401,0
7008.691815291,0.56918174,0.8213308,0.03805185,-0.8206232,0.5703488,-0.035774868,-0.051085826,-0.010863829,0.9986352,0.72225523,0.6910211,0.028935272,-0.6909169,0.72277725,-0.015065464,-0.03132431,-0.009110758,0.99946773,-0.11193848,-0.063446045,0.025436401,0
7008.696209822,0.54436606,0.8380185,0.037291497,-0.83726263,0.5455318,-0.037230592,-0.05154362,-0.010955703,0.99861056,0.7194344,0.6939474,0.02917616,-0.69383645,0.71996754,-0.0154170655,-0.03170452,-0.009151919,0.99945533,-0.892746,-0.18225098,0.07841492,0
7008.700604353,0.54396284,0.83826596,0.037610944,-0.83748776,0.5451511,-0.037739705,-0.05213956,-0.010969707,0.99857944,0.7161854,0.6972861,0.029503107,-0.69716614,0.7167338,-0.015873324,-0.032214124,-0.009200323,0.99943864,-1.0544891,-0.11029053,0.18884277,0
7008.704998884,0.5436253,0.8384729,0.037878264,-0.8376746,0.5448329,-0.038188208,-0.052657098,-0.01096958,0.9985524,0.71287715,0.7006529,0.029861143,-0.7005207,0.7134429,-0.016431697,-0.032817136,-0.0092045665,0.999419,-0.80041504,-0.048034668,-0.1126709,0
7008.709393416,0.55238533,0.832709,0.03829094,-0.8319066,0.5536055,-0.038109954,-0.05293257,-0.010803105,0.9985396,0.70962507,0.70393145,0.030210963,-0.70378715,0.7102081,-0.016973678,-0.033404376,-0.00921714,0.99939936,-0.19915771,0.21846008,-0.03112793,0
7008.713787947,0.5525064,0.832633,0.038197417,-0.8318244,0.55372256,-0.03820575,-0.052962136,-0.010664624,0.9985396,0.7066029,0.7069521,0.030514624,-0.70679414,0.70720196,-0.01753586,-0.033977013,-0.009176669,0.99938047,0.2464447,0.18357849,0.02154541,0
7008.718182478,0.5525674,0.8325947,0.038150307,-0.8317896,0.5537802,-0.038128115,-0.052872144,-0.010664675,0.9985444,0.7036773,0.7098528,0.030777784,-0.70968175,0.7042908,-0.0180626,-0.0344983,-0.009132191,0.999363,0.44667053,0.15007019,-0.09338379,0
7008.722577009,0.5332974,0.8451155,0.03706381,-0.84428835,0.53447926,-0.0388491,-0.052641813,-0.010574419,0.99855757,0.7008432,0.71263814,0.03107638,-0.7124589,0.7014714,-0.018445149,-0.034943905,-0.009213488,0.9993468,0.6119995,0.23536682,0.08843994,0
7008.726971541,0.53356326,0.8449563,0.036868256,-0.84413844,0.5347322,-0.03862659,-0.052352417,-0.010512183,0.9985734,0.6977548,0.7156552,0.031239552,-0.7154683,0.69839257,-0.018787153,-0.035262592,-0.009242082,0.9993353,0.7575989,0.17730713,-0.122406006,0
7008.731366072,0.53370965,0.8448684,0.036760498,-0.844059,0.53487086,-0.03844018,-0.052139018,-0.010512137,0.99858457,0.6947284,0.7185883,0.031358406,-0.71839434,0.695374,-0.019092515,-0.035525482,-0.00926359,0.9993258,0.09472656,-0.09562683,0.045043945,0
7008.735760603,0.53370786,0.84486943,0.0367618,-0.8440629,0.53486854,-0.03838428,-0.052092444,-0.010543278,0.9985866,0.6947284,0.7185883,0.031358406,-0.71839434,0.695374,-0.019092515,-0.035525482,-0.00926359,0.9993258,0.0942688,-0.095321655,0.045043945,0
7008.740155134,0.5422393,0.83940315,0.037131432,-0.8386067,0.5434075,-0.038039498,-0.05210798,-0.010512154,0.9985861,0.68885434,0.72420514,0.03172684,-0.723998,0.68952054,-0.01970513,-0.036146864,-0.009396206,0.99930227,-0.030075073,0.09591675,0.011520386,0
7008.744549666,0.54228705,0.83937395,0.037095685,-0.83857584,0.5434536,-0.03806196,-0.052108005,-0.010467036,0.9985866,0.68614346,0.7267684,0.03185644,-0.72655123,0.6868187,-0.020082524,-0.036474943,-0.009365844,0.99929065,-0.030075073,0.105026245,0.1695404,0
7008.748944197,0.5575995,0.82925224,0.037728895,-0.82847685,0.55877703,-0.037341427,-0.052047506,-0.010435953,0.9985901,0.68347096,0.7292783,0.031945184,-0.729053,0.6841532,-0.020397313,-0.03673072,-0.009348762,0.99928147,-0.088134766,0.047286987,0.025894165,0
7008.753338728,0.5576085,0.82924646,0.03772213,-0.8284688,0.5587861,-0.037383273,-0.052078556,-0.010406375,0.9985888,0.68111974,0.7314717,0.03201603,-0.7312401,0.6818077,-0.020643424,-0.03692886,-0.009350764,0.9992742,-0.09741211,0.06614685,-0.13691711,0
7008.757733259,0.55756235,0.829276,0.037756857,-0.8284972,0.55874217,-0.037414815,-0.05212355,-0.010420353,0.99858636,0.6788113,0.7336108,0.032099746,-0.73337245,0.6795055,-0.020906001,-0.037148822,-0.009349841,0.999266,-0.087387085,-0.03427124,-0.026779175,0
7008.762127791,0.5492478,0.83482474,0.03734423,-0.8340353,0.55041754,-0.037760787,-0.052078556,-0.010406375,0.9985888,0.67655474,0.7356891,0.032175083,-0.735444,0.6772549,-0.021164276,-0.03736106,-0.009344178,0.9992582,0.08934021,0.02305603,0.24615479,0
7008.766522322,0.5492279,0.834837,0.03735958,-0.8340464,0.5503987,-0.037786257,-0.05210804,-0.010406359,0.99858725,0.674164,0.73787475,0.0323077,-0.73762214,0.6748727,-0.02145633,-0.037635665,-0.009365789,0.99924767,-0.07318115,-8.8500977E-4,0.107284546,0
7008.770916853,0.5492438,0.8348272,0.0373473,-0.834036,0.550414,-0.037794128,-0.052108042,-0.0103908,0.99858737,0.6718107,0.74001336,0.032413866,-0.73975116,0.6725274,-0.021797244,-0.037929464,-0.009334574,0.9992368,-0.0013427734,0.061203003,0.059402466,0
7008.775311384,0.55784357,0.82908815,0.037727885,-0.82830673,0.5590219,-0.03744884,-0.0521391,-0.010359668,0.9985861,0.669489,0.7421083,0.032554153,-0.7418374,0.6702149,-0.022118451,-0.038232565,-0.009341828,0.99922526,-0.11117554,0.07048035,0.035461426,0
7008.779705916,0.5578318,0.8290956,0.037736703,-0.8283107,0.5590113,-0.03751604,-0.05219963,-0.0103300745,0.9985832,0.6673666,0.74401146,0.032691088,-0.74373204,0.6681015,-0.022428602,-0.0385281,-0.009345306,0.9992138,-0.14889526,0.07498169,-0.021987915,0
7008.784100447,0.5579648,0.8290108,0.037636254,-0.82822335,0.5591393,-0.037544448,-0.052168656,-0.010222741,0.99858606,0.6652907,0.74586517,0.032762706,-0.745579,0.6660314,-0.022672376,-0.038731527,-0.009343464,0.999206,-0.1300354,0.045196533,-0.089035034,0
7008.788494978,0.5511415,0.8335808,0.03723051,-0.83278596,0.5523038,-0.03778951,-0.05206316,-0.010177678,0.99859196,0.6632831,0.74765116,0.032760605,-0.7473565,0.66402704,-0.0229427,-0.038907066,-0.009266346,0.9991999,0.0029907227,-0.02708435,0.097717285,0
7008.792889509,0.5512799,0.83349395,0.037125044,-0.832701,0.55243593,-0.037728053,-0.051955312,-0.010115345,0.99859816,0.6611525,0.74953485,0.032786228,-0.7492329,0.6619005,-0.023189489,-0.039082553,-0.009232735,0.9991934,-0.089035034,0.06808472,0.011367798,0
7008.797284041,0.5514308,0.8333993,0.037010122,-0.832605,0.55258083,-0.037729543,-0.05189485,-0.010009582,0.99860245,0.65907323,0.75136393,0.032781847,-0.7510569,0.65982366,-0.023373622,-0.039192334,-0.009216104,0.9991892,-0.041748047,0.0574646,0.09277344,0
7008.801678572,0.5429159,0.83898807,0.03662364,-0.8381821,0.54405767,-0.0381048,-0.05189485,-0.010009582,0.99860245,0.65704435,0.7531382,0.032798395,-0.75282264,0.65779877,-0.023642696,-0.039380956,-0.009157071,0.99918234,0.006134033,0.02394104,0.025741577,0
7008.806073103,0.5428945,0.83900124,0.03663958,-0.838194,0.5440374,-0.038131744,-0.051925883,-0.010009565,0.9986008,0.6548809,0.75501823,0.032841124,-0.7546955,0.65564007,-0.023890778,-0.03956993,-0.009139433,0.999175,-0.09890747,0.0,0.011367798,0
7008.810467634,0.54287964,0.8390104,0.03665067,-0.83820367,0.54402304,-0.038124755,-0.05192587,-0.010023567,0.9986006,0.6528021,0.7568127,0.03292357,-0.7564837,0.6535676,-0.024121536,-0.039773267,-0.009159557,0.9991668,-0.0031280518,-0.06689453,0.1598053,0
7008.814862166,0.5508701,0.83376706,0.037077393,-0.83297133,0.55202466,-0.0377842,-0.05197085,-0.010070218,0.9985978,0.6507151,0.7586037,0.03301922,-0.7582686,0.65148747,-0.024346972,-0.03998131,-0.009194495,0.99915814,-0.08888245,-0.10952759,-0.0460968,0
7008.819256697,0.5509873,0.8336935,0.036988948,-0.8329015,0.55213624,-0.03769412,-0.051848277,-0.010039167,0.99860454,0.6488251,0.76021963,0.0330458,-0.75987774,0.64960146,-0.02457224,-0.0401469,-0.00916768,0.99915177,-0.05178833,0.038604736,0.030517578,0
7008.823651228,0.5511399,0.8335978,0.03687387,-0.8328071,0.5522822,-0.03764168,-0.0517428,-0.009962986,0.9986108,0.6469672,0.7618012,0.03305056,-0.7614553,0.6477459,-0.02471761,-0.04023827,-0.009175042,0.999148,-0.16773987,-0.062698364,0.011367798,0
7008.828045759,0.57017547,0.82065856,0.037677333,-0.819891,0.57133347,-0.03683876,-0.051758353,-0.009886742,0.99861073,0.64507204,0.76341003,0.03297338,-0.7630578,0.6458502,-0.024906902,-0.040310036,-0.009093849,0.99914587,-0.18673706,-0.0012054443,0.2460022,0
7008.832440291,0.57004416,0.8207452,0.037775304,-0.8199707,0.5712089,-0.03699361,-0.051939916,-0.0098866485,0.9986013,0.64356947,0.7646764,0.03299039,-0.76431596,0.64435124,-0.025150174,-0.04048914,-0.009029198,0.9991392,-0.462677,-0.17837524,0.059249878,0
7008.836834822,0.5697707,0.82092565,0.037979357,-0.82014227,0.5709485,-0.03720996,-0.05223087,-0.00994733,0.9985855,0.6420401,0.7659582,0.03305345,-0.7655889,0.64282763,-0.025423883,-0.0407213,-0.008982201,0.9991302,-0.56996155,-0.28312683,0.33235168,0
7008.841229353,0.5506602,0.83389866,0.037235674,-0.83307374,0.55182916,-0.038378336,-0.052551366,-0.00988664,0.9985693,0.6404473,0.76728547,0.033169754,-0.76690537,0.64124334,-0.025750566,-0.041027922,-0.008946182,0.999118,-0.08319092,-0.020355225,0.18405151,0
7008.845623884,0.55067134,0.83389163,0.037227232,-0.83305573,0.55184186,-0.03858383,-0.052718274,-0.009765352,0.9985617,0.6404473,0.76728547,0.033169754,-0.76690537,0.64124334,-0.025750566,-0.041027922,-0.008946182,0.999118,-0.08155823,-0.02154541,0.1842041,0
7008.850018416,0.5508628,0.8337716,0.037082862,-0.83292913,0.55202645,-0.03867684,-0.052718367,-0.009581762,0.99856347,0.63645095,0.77059597,0.033347975,-0.7701833,0.63726455,-0.026675541,-0.041807547,-0.0087063825,0.99908775,0.15786743,0.096343994,0.13154602,0
7008.854412947,0.54930717,0.8348162,0.036655076,-0.8339674,0.55045056,-0.03876224,-0.052536152,-0.009276761,0.99857587,0.6345495,0.7721619,0.033361606,-0.77173525,0.635368,-0.027060226,-0.042091772,-0.008575276,0.99907696,0.27578735,0.19869995,-0.11282349,0
7008.858807478,0.5496786,0.83458376,0.036379527,-0.8337371,0.5508064,-0.038665105,-0.052307338,-0.00907758,0.9985898,0.6327407,0.7736508,0.033220932,-0.77321166,0.63355696,-0.02737293,-0.04222444,-0.008366845,0.99907315,0.22087097,0.14886475,-0.122558594,0
7008.863202009,0.5499691,0.8344017,0.03616399,-0.83355695,0.5510845,-0.03858343,-0.052123494,-0.008925053,0.9986008,0.63104486,0.7750394,0.033111468,-0.7745926,0.6318591,-0.027575362,-0.042293776,-0.00824661,0.99907124,0.075424194,0.14736938,-0.0029907227,0
7008.867596541,0.54935163,0.8348154,0.036000952,-0.8339707,0.55045915,-0.038570702,-0.052016467,-0.008834864,0.9986072,0.6293618,0.7764112,0.03300641,-0.77595836,0.6301739,-0.02773885,-0.042336535,-0.008153827,0.99907017,-0.02619934,0.14648438,0.25079346,0
7008.871991072,0.5493926,0.8347899,0.035969473,-0.83394754,0.5504979,-0.038518474,-0.051955942,-0.008834891,0.99861026,0.62771034,0.7777475,0.03299325,-0.77728987,0.6285242,-0.027889911,-0.042428363,-0.008138531,0.99906635,-0.050735474,0.012420654,0.16938782,0
7008.876385603,0.5495293,0.8347043,0.035864163,-0.833864,0.5506285,-0.03845704,-0.05184809,-0.008772569,0.9986164,0.62608224,0.7790575,0.033019498,-0.7785955,0.62689936,-0.02803827,-0.04254333,-0.008154567,0.99906135,-0.06135559,0.05970764,0.23626709,0
