Time,Rot1,Rot2,Rot3,Rot4,Rot5,Rot6,Rot7,Rot8,Rot9,FRot1,FRot2,FRot3,FRot4,FRot5,FRot6,FRot7,FRot8,FRot9,AccX,AccY,AccZ,Imid
7620.330414975,0.70446575,0.70823735,0.046127893,-0.70665026,0.705974,-0.04739518,-0.066132136,7.919923E-4,0.99781066,0.6902677,0.72213393,0.04531063,-0.72048414,0.6917525,-0.04879625,-0.066581175,0.0010368857,0.9977805,0.035614014,-0.034088135,0.27772522,0
7620.334809507,0.70448583,0.70821947,0.04609628,-0.7066345,0.70599186,-0.047361095,-0.06608565,7.919946E-4,0.99781364,0.6905439,0.72188085,0.045134384,-0.72022796,0.6920163,-0.0488376,-0.06648866,0.0012174586,0.99778646,0.13093567,0.0137786865,0.30166626,0
7620.339204038,0.7059222,0.7067665,0.04642017,-0.7051823,0.7074465,-0.047299482,-0.06626949,6.5507053E-4,0.9978016,0.690844,0.72158825,0.045221034,-0.7199336,0.6923214,-0.048852816,-0.06655911,0.0011935297,0.99778175,0.017807007,0.02468872,0.23478699,0
7620.343598569,0.7057161,0.7069505,0.046751812,-0.7053628,0.7072628,-0.047354583,-0.06654317,4.4189917E-4,0.9977834,0.6911282,0.721298,0.045508876,-0.7196413,0.69262415,-0.048868842,-0.06676954,0.0010245675,0.99776787,0.010925293,0.036361694,0.13438416,0
7620.3479931,0.705573,0.7070781,0.046981826,-0.7054857,0.7071354,-0.04742809,-0.06675787,3.189764E-4,0.9977691,0.6914199,0.72099525,0.045873284,-0.7193363,0.6929396,-0.048888486,-0.06703578,8.041544E-4,0.9977503,-0.034866333,0.03756714,-0.033081055,0
7620.352387632,0.7055282,0.7071179,0.04705375,-0.7055276,0.70709544,-0.047397755,-0.0667873,2.427328E-4,0.99776715,0.6916718,0.720738,0.046117485,-0.7190771,0.6932072,-0.04890691,-0.06721804,6.65505E-4,0.99773806,-0.058517456,-0.18193054,-0.109695435,0
7620.356782163,0.705573,0.7070781,0.046981826,-0.7054857,0.7071354,-0.04742809,-0.06675787,3.189764E-4,0.9977691,0.6919923,0.7204266,0.04617448,-0.71876574,0.6935308,-0.04889498,-0.06724867,6.463116E-4,0.997736,-0.020492554,-0.09649658,-0.052230835,0
7620.361176694,0.7055862,0.7070664,0.04696068,-0.705474,0.70714706,-0.04742734,-0.06674238,3.345366E-4,0.99777013,0.69228065,0.7201553,0.046084717,-0.71849227,0.6938125,-0.04891961,-0.067203864,7.5458735E-4,0.99773896,0.008087158,0.0038909912,0.17282104,0
7620.365571225,0.67590195,0.73561764,0.044980887,-0.7339702,0.67739695,-0.049204417,-0.06666555,2.4273137E-4,0.9977753,0.6925596,0.71989065,0.04602755,-0.7182262,0.69408697,-0.048931964,-0.06717279,8.3011267E-4,0.997741,0.055221558,0.04789734,0.14874268,0
7620.369965757,0.67592263,0.7356006,0.044948786,-0.7339525,0.67741543,-0.04921292,-0.066650055,2.7385107E-4,0.9977763,0.6922252,0.7202112,0.046043307,-0.7185541,0.6937545,-0.048833963,-0.06711352,7.194975E-4,0.9977451,0.04069519,0.081100464,0.27323914,0
7620.374360288,0.67584187,0.73566705,0.045073964,-0.73402137,0.67734325,-0.04917975,-0.06671047,1.5248464E-4,0.99777234,0.6919101,0.72050965,0.046111528,-0.7188543,0.69344467,-0.048815623,-0.06714792,6.2855234E-4,0.99774283,-0.07841492,0.08708191,0.100860596,0
7620.378754819,0.6738004,0.7375463,0.044928722,-0.7358986,0.67529666,-0.04927262,-0.06668104,1.3692526E-4,0.9977743,0.6915895,0.7208088,0.04624527,-0.71915853,0.69313383,-0.048749506,-0.06719323,4.5696882E-4,0.99773985,0.112838745,-0.061187744,3.0517578E-4,0
7620.38314935,0.67381424,0.7375348,0.04490863,-0.7358887,0.6753091,-0.049249,-0.06665006,1.3692555E-4,0.99777645,0.69123006,0.7211518,0.04627161,-0.71950215,0.692777,-0.04875206,-0.067213535,4.0636503E-4,0.99773854,0.04548645,0.010620117,0.067337036,0
7620.387543882,0.67382866,0.73752296,0.044887744,-0.7358756,0.6753222,-0.049268134,-0.06665006,1.6648902E-4,0.99777645,0.69086444,0.7214991,0.0463186,-0.7198498,0.6924153,-0.04875768,-0.06725033,3.425135E-4,0.9977361,-0.011962891,0.0677948,0.115219116,0
7620.391938413,0.7001916,0.7124284,0.04666386,-0.7108357,0.7017448,-0.04761101,-0.06666555,1.6648883E-4,0.9977753,0.690512,0.72183615,0.046321187,-0.72018665,0.69206387,-0.0487724,-0.067262895,3.1802716E-4,0.9977352,-0.0357666,7.4768066E-4,3.0517578E-4,0
7620.396332944,0.70018494,0.7124342,0.046674337,-0.71084076,0.70173883,-0.047622424,-0.06668104,1.6648865E-4,0.9977743,0.6907058,0.721652,0.04630228,-0.71999985,0.6922559,-0.04880436,-0.06727279,3.7181715E-4,0.99773455,-0.026031494,0.0103302,0.0050964355,0
7620.400727475,0.7001721,0.7124455,0.046694584,-0.71085346,0.7017274,-0.04760248,-0.06668104,1.3692526E-4,0.9977743,0.69087136,0.72149247,0.046317976,-0.7198343,0.69242215,-0.048888754,-0.06734446,4.3457156E-4,0.99772966,-0.006881714,-0.089920044,-0.10983276,0
7620.405122007,0.70468664,0.707956,0.0470625,-0.7063725,0.70625645,-0.04732524,-0.06674239,1.0580693E-4,0.9977703,0.69107836,0.72129864,0.046250414,-0.7196385,0.6926241,-0.048911083,-0.06731365,5.178091E-4,0.99773175,-0.14993286,-0.05609131,0.048324585,0
7620.409516538,0.7046867,0.707956,0.047062453,-0.70637095,0.70625645,-0.04734717,-0.06675788,1.2136665E-4,0.9977692,0.6913279,0.7210593,0.046251386,-0.7194002,0.6928732,-0.04888851,-0.06729786,5.247351E-4,0.9977328,-0.054016113,0.010772705,-0.047439575,0
7620.413911069,0.704722,0.7079245,0.04700911,-0.7063403,0.7062881,-0.047333438,-0.06671047,1.5248464E-4,0.99777234,0.69159067,0.72080606,0.046271667,-0.7191492,0.6931367,-0.048847467,-0.06728214,5.062221E-4,0.9977339,0.026931763,-0.10443115,0.029037476,0
7620.4183056,0.70470804,0.707937,0.047030255,-0.70635426,0.7062756,-0.04731234,-0.06671047,1.2136532E-4,0.99777234,0.69159067,0.72080606,0.046271667,-0.7191492,0.6931367,-0.048847467,-0.06728214,5.062221E-4,0.9977339,0.026931763,-0.10412598,0.029037476,0
7620.422700132,0.6765209,0.73503506,0.04519855,-0.73339564,0.67802906,-0.04906506,-0.06671047,4.5123004E-5,0.99777234,0.6920945,0.72031534,0.04637869,-0.7186586,0.6936466,-0.048828367,-0.067342244,4.63401E-4,0.99772984,0.022140503,-0.0076141357,-0.038009644,0
7620.427094663,0.67649406,0.7350572,0.04524141,-0.7334176,0.6780052,-0.049068946,-0.06674239,1.4003859E-5,0.9977703,0.6918386,0.7205582,0.04642534,-0.71890444,0.69339436,-0.048792925,-0.0673492,3.8144505E-4,0.9977294,-0.07331848,-0.0887146,0.14888,0
7620.431489194,0.64497393,0.76298785,0.04310695,-0.76128316,0.64641285,-0.05097459,-0.06675788,6.0683324E-5,0.9977692,0.6915392,0.72084874,0.04637403,-0.71919626,0.6930923,-0.048782744,-0.06730646,3.831527E-4,0.9977323,0.084854126,0.040100098,0.110580444,0
7620.435883725,0.645052,0.7629283,0.04299044,-0.7612224,0.64648294,-0.050990887,-0.06669499,1.664885E-4,0.9977734,0.6915392,0.72084874,0.04637403,-0.71919626,0.6930923,-0.048782744,-0.06730646,3.831527E-4,0.9977323,0.084243774,0.0390625,0.110443115,0
7620.440278257,0.6450574,0.76292425,0.042982396,-0.76122046,0.6464878,-0.05095913,-0.06666555,1.524851E-4,0.9977753,0.6897867,0.7225384,0.046179898,-0.7208795,0.6913307,-0.048935708,-0.0672835,4.650584E-4,0.9977338,0.045639038,-0.032608032,0.20620728,0
7620.444672788,0.68108255,0.73079675,0.045416314,-0.729164,0.6825951,-0.048823547,-0.06668104,1.3692526E-4,0.9977743,0.68890977,0.723379,0.046110272,-0.7217183,0.690451,-0.048990436,-0.06727554,4.713617E-4,0.9977343,-0.016448975,-0.037246704,-0.1625061,0
7620.449067319,0.68108374,0.7307958,0.045414556,-0.7291617,0.68259615,-0.04884427,-0.06669499,1.524848E-4,0.9977734,0.6886974,0.72358114,0.04611162,-0.72191566,0.6902392,-0.04906754,-0.067332394,5.039819E-4,0.9977305,-0.025894165,0.03440857,0.081710815,0
7620.45346185,0.68109626,0.73078537,0.04539558,-0.7291513,0.68260735,-0.048842926,-0.06668104,1.6648865E-4,0.9977743,0.6885213,0.7237481,0.04612031,-0.7220864,0.69006413,-0.049017284,-0.06730214,4.465987E-4,0.9977325,0.0027008057,0.0103302,0.124801636,0
7620.457856382,0.693516,0.7189579,0.04620553,-0.71735007,0.69505346,-0.04805598,-0.06666555,1.8204853E-4,0.9977753,0.68838817,0.72387695,0.046085775,-0.722212,0.68992895,-0.049069136,-0.06731593,4.949101E-4,0.99773157,0.055221558,0.058059692,0.23014832,0
7620.462250913,0.6935091,0.71896386,0.046216283,-0.7173567,0.69504726,-0.048045583,-0.06666555,1.6648883E-4,0.9977753,0.68850803,0.7237687,0.045994062,-0.7221045,0.6900424,-0.0490572,-0.06724392,5.637615E-4,0.9977364,-0.011810303,-0.0519104,-0.009277344,0
7620.466645444,0.69350964,0.71896356,0.04621559,-0.7173579,0.69504786,-0.048024718,-0.06665006,1.5248526E-4,0.99777645,0.6886002,0.72368145,0.045990013,-0.7220202,0.69013405,-0.049008954,-0.067206144,5.4185593E-4,0.997739,0.02154541,-0.018249512,-0.038009644,0
7620.471039975,0.68796074,0.7242999,0.045823228,-0.7226824,0.6894851,-0.048377946,-0.066634566,1.6648918E-4,0.99777734,0.68869084,0.7235935,0.046015467,-0.7219333,0.69022626,-0.048989754,-0.06720975,5.186956E-4,0.9977387,0.0644989,0.01991272,0.115219116,0
7620.475434507,0.6879744,0.7242883,0.045801546,-0.72266936,0.6894972,-0.048398584,-0.066634566,1.9760864E-4,0.99777734,0.6886552,0.7236257,0.046041757,-0.7219643,0.69019246,-0.04900913,-0.06724194,5.098847E-4,0.9977366,-0.021697998,0.067489624,0.038604736,0
7620.479829038,0.68796754,0.72429407,0.045812383,-0.72267586,0.68949115,-0.048388265,-0.066634566,1.820489E-4,0.99777734,0.68862814,0.7236518,0.046036273,-0.72198963,0.69016504,-0.04902167,-0.06724725,5.1998417E-4,0.9977362,-0.031280518,-0.05206299,-0.11462402,0
7620.484223569,0.6879543,0.7243054,0.045833524,-0.72268724,0.6894794,-0.04838954,-0.06665006,1.6648902E-4,0.99777645,0.68862814,0.7236518,0.046036273,-0.72198963,0.69016504,-0.04902167,-0.06724725,5.1998417E-4,0.9977362,-0.03112793,-0.0519104,-0.11462402,0
7620.4886181,0.6769512,0.73464376,0.045117676,-0.73300254,0.67845297,-0.049078654,-0.06666555,1.524851E-4,0.9977753,0.6885885,0.7236895,0.046037987,-0.7220231,0.6901255,-0.049085215,-0.06729443,5.5901986E-4,0.997733,-0.040542603,-0.023040771,-0.018844604,0
7620.493012632,0.6769382,0.73465455,0.045138814,-0.7330132,0.6784414,-0.04908022,-0.06668104,1.3692526E-4,0.9977743,0.68836415,0.7239056,0.04599408,-0.7222372,0.6898987,-0.049122952,-0.06729164,5.9583556E-4,0.9977332,-0.011657715,-0.046829224,0.014663696,0
7620.497407163,0.6822654,0.72968686,0.045507632,-0.7280587,0.6837814,-0.048717167,-0.06666555,1.05805986E-4,0.9977753,0.6881402,0.7241206,0.045960844,-0.7224514,0.6896731,-0.049143538,-0.0672838,6.131729E-4,0.9977337,0.021697998,-0.07046509,0.033828735,0
7620.501801694,0.6822723,0.72968113,0.04549671,-0.72805226,0.6837875,-0.0487274,-0.06666555,1.2136569E-4,0.9977753,0.68796754,0.72428656,0.045930587,-0.7226197,0.68949884,-0.049112886,-0.06724089,5.9772644E-4,0.9977366,-0.002243042,0.020355225,0.072128296,0
7620.506196225,0.6822856,0.7296701,0.045475584,-0.72804147,0.68379945,-0.04872598,-0.06665006,1.3692555E-4,0.99777645,0.68791056,0.7243441,0.045877744,-0.72268105,0.6894384,-0.04905891,-0.067165405,5.9316435E-4,0.9977417,0.03112793,0.048934937,0.115219116,0
7620.510590757,0.65402347,0.7552182,0.043574017,-0.75353366,0.6554733,-0.05041319,-0.066634566,1.3692566E-4,0.99777734,0.6878026,0.7244478,0.0458577,-0.7227867,0.6893294,-0.049033474,-0.067133255,5.8001647E-4,0.99774384,0.0357666,0.0058288574,0.120010376,0
7620.514985288,0.6540166,0.7552236,0.04358533,-0.7535397,0.6554673,-0.050403368,-0.066634566,1.21365934E-4,0.99777734,0.68715054,0.72506964,0.045805987,-0.7234077,0.68867534,-0.049068145,-0.06712327,5.807998E-4,0.9977445,-0.026489258,-0.051467896,0.072128296,0
7620.519379819,0.6540087,0.7552297,0.04359816,-0.753548,0.65546024,-0.050371736,-0.06661908,9.024656E-5,0.9977785,0.686459,0.72572976,0.04571949,-0.7240661,0.6879796,-0.04911562,-0.067098744,6.119296E-4,0.99774617,0.035614014,-0.0703125,0.23493958,0
7620.52377435,0.7102046,0.702403,0.04732299,-0.700839,0.7117795,-0.04684791,-0.066589646,1.05806525E-4,0.99778044,0.68583375,0.7263255,0.045643516,-0.7246621,0.68735063,-0.049131483,-0.06705855,6.199015E-4,0.99774885,0.049682617,0.039657593,0.096069336,0
7620.528168882,0.71019185,0.7024146,0.04734295,-0.70085186,0.7117681,-0.046827685,-0.066589646,7.624294E-5,0.99778044,0.6862949,0.7258873,0.045683466,-0.72422224,0.6878134,-0.04914222,-0.06709341,6.4107333E-4,0.9977465,0.0018005371,-0.06538391,0.100860596,0
7620.532563413,0.7102181,0.70239085,0.047301866,-0.7008268,0.7117915,-0.046847273,-0.06657416,1.21366436E-4,0.99778146,0.68677956,0.7254267,0.045716815,-0.7237616,0.6882991,-0.049127396,-0.06710517,6.516167E-4,0.9977457,0.030380249,0.092178345,0.105651855,0
7620.536957944,0.69999766,0.7126205,0.046640523,-0.7110324,0.70154977,-0.047549147,-0.06660514,1.2136618E-4,0.9977794,0.68725663,0.7249678,0.045826975,-0.7233051,0.6887826,-0.049074996,-0.067142606,5.8022985E-4,0.9977432,-0.089019775,0.010772705,0.100860596,0
7620.541352475,0.7000102,0.7126094,0.046619922,-0.71102566,0.70156085,-0.04748246,-0.06654317,9.024702E-5,0.9977835,0.68751913,0.72471875,0.04582739,-0.7230606,0.6890446,-0.04899896,-0.06708757,5.517423E-4,0.9977469,0.14978027,-0.05593872,0.17747498,0
7620.545747007,0.7000102,0.7126094,0.046619922,-0.71102566,0.70156085,-0.04748246,-0.06654317,9.024702E-5,0.9977835,0.6877718,0.72447777,0.045847397,-0.7228229,0.6892981,-0.048940975,-0.06705917,5.206725E-4,0.99774885,0.015701294,-0.0128479,-0.014053345,0
7620.550141538,0.65215534,0.75684005,0.043434605,-0.7551578,0.65360016,-0.05043312,-0.06655867,9.024693E-5,0.9977825,0.6879776,0.7242797,0.045886893,-0.72262466,0.6895061,-0.048936807,-0.06708323,5.084291E-4,0.99774724,-0.05596924,0.006286621,0.052978516,0
7620.554536069,0.652167,0.75683105,0.043416515,-0.7551517,0.6536106,-0.050389394,-0.06651375,7.624333E-5,0.9977855,0.6872304,0.72498816,0.045896847,-0.7233324,0.6887612,-0.0489725,-0.06711645,4.5671663E-4,0.99774504,0.1159668,-0.05580139,-0.071517944,0
7620.5589306,0.6521541,0.7568411,0.04343661,-0.7551618,0.6535991,-0.050390463,-0.06652769,6.0683407E-5,0.9977846,0.6865302,0.7256519,0.045887787,-0.72399575,0.6880619,-0.04900006,-0.06713062,4.1745673E-4,0.99774414,-0.027542114,-0.022140503,-0.076309204,0
7620.563325132,0.6521468,0.7568467,0.043447923,-0.7551681,0.6535925,-0.05038069,-0.06652769,4.5123557E-5,0.9977846,0.6858592,0.7262888,0.045844615,-0.72463703,0.6873896,-0.048956156,-0.06706941,3.5632373E-4,0.99774826,-0.013168335,-0.060287476,0.014663696,0
7620.567719663,0.65215504,0.7568402,0.043435037,-0.7551593,0.6535998,-0.050412267,-0.06654317,7.6243174E-5,0.9977835,0.6852117,0.7269025,0.04580038,-0.7252507,0.6867406,-0.0489766,-0.06705419,3.425791E-4,0.99774927,-0.017807007,0.07824707,-0.033218384,0
7620.572114194,0.65214247,0.7568499,0.043454535,-0.7551674,0.65358865,-0.050436363,-0.06657416,7.624301E-5,0.99778146,0.684563,0.72752064,0.04568559,-0.7258688,0.68608564,-0.048998337,-0.06699153,3.807008E-4,0.9977535,-0.07496643,0.01600647,-0.071517944,0
7620.576508725,0.67589104,0.73562664,0.044997837,-0.7339913,0.67738724,-0.049022444,-0.06654317,1.0580685E-4,0.9977835,0.68386763,0.72817683,0.045646332,-0.7265203,0.68538916,-0.049090896,-0.06703235,4.0868408E-4,0.99775076,0.058807373,0.049240112,0.096069336,0
7620.580903257,0.67589104,0.73562664,0.044997837,-0.7339913,0.67738724,-0.049022444,-0.06654317,1.0580685E-4,0.9977835,0.68374,0.7282981,0.045622922,-0.7266397,0.6852603,-0.049123332,-0.067040004,4.361626E-4,0.99775016,0.0013427734,0.025283813,-0.066726685,0
7620.585297788,0.6758922,0.7356257,0.04499605,-0.7339875,0.67738825,-0.04906621,-0.06657416,1.3692623E-4,0.99778146,0.68361616,0.72841406,0.045628283,-0.72675717,0.6851371,-0.049104515,-0.06703004,4.0796085E-4,0.9977509,-0.07017517,0.0872345,0.052978516,0
7620.589692319,0.67411894,0.7372589,0.044866014,-0.7356164,0.6756103,-0.049185183,-0.06657416,1.5248603E-4,0.99778146,0.6834588,0.7285611,0.045637477,-0.72690517,0.6849807,-0.049095165,-0.06702962,3.804058E-4,0.99775094,-0.017501831,0.03440857,-0.023635864,0
7620.59408685,0.67411894,0.7372589,0.044866014,-0.7356164,0.6756103,-0.049185183,-0.06657416,1.5248603E-4,0.99778146,0.6833068,0.7287085,0.04555994,-0.7270525,0.6848239,-0.049101386,-0.06698113,4.2684167E-4,0.9977541,-0.012710571,-0.0038757324,0.124801636,0
7620.598481382,0.67413324,0.7372471,0.044845127,-0.73560333,0.6756232,-0.04920433,-0.06657416,1.8204965E-4,0.99778146,0.68316114,0.728845,0.045561485,-0.72718513,0.6846786,-0.04916281,-0.06702704,4.5448393E-4,0.99775106,0.030380249,0.07720947,0.100860596,0
7620.602875913,0.71587884,0.6965983,0.047627337,-0.695042,0.7174614,-0.046538837,-0.066589646,2.1316903E-4,0.99778044,0.68300205,0.72899526,0.045542106,-0.7273382,0.68451864,-0.04912645,-0.066987365,4.2895618E-4,0.9977537,-0.050872803,0.072128296,0.105651855,0
7620.607270444,0.7158921,0.6965861,0.047606196,-0.69502974,0.7174732,-0.046538375,-0.06657416,2.2872904E-4,0.99778146,0.6836706,0.72836417,0.04561023,-0.7267099,0.68519014,-0.04906397,-0.06698811,3.9818825E-4,0.99775374,0.030380249,0.019302368,0.115219116,0
7620.611664975,0.7158921,0.6965861,0.047606196,-0.69502974,0.7174732,-0.046538375,-0.06657416,2.2872904E-4,0.99778146,0.6843341,0.7277367,0.045674574,-0.72608167,0.6858565,-0.04905322,-0.06702403,4.0531723E-4,0.9977513,-0.04144287,1.373291E-4,0.15353394,0
7620.616059507,0.70541257,0.70724255,0.0469156,-0.70566493,0.706971,-0.04721252,-0.06655867,1.9760967E-4,0.9977825,0.68496054,0.7271431,0.045737904,-0.7254872,0.6864858,-0.04904767,-0.06706309,4.1345938E-4,0.9977487,0.04937744,-0.08093262,0.019454956,0
7620.620454038,0.7053992,0.70725447,0.04693676,-0.70567834,0.70695907,-0.04719136,-0.06655867,1.6649003E-4,0.9977825,0.6853853,0.72674155,0.04575786,-0.7250855,0.68691087,-0.0490355,-0.067067705,4.2984853E-4,0.9977483,-0.022445679,-0.04711914,0.120010376,0
7620.624848569,0.7054059,0.7072485,0.046926208,-0.7056731,0.70696497,-0.04718,-0.06654317,1.664902E-4,0.9977835,0.6857862,0.7263618,0.045780797,-0.72470444,0.6873124,-0.049042158,-0.06708806,4.5488784E-4,0.99774694,0.039642334,7.4768066E-4,0.096069336,0
7620.6292431,0.6812004,0.73069566,0.04527643,-0.7290693,0.6827034,-0.04872532,-0.06651375,1.820504E-4,0.9977855,0.6862142,0.72595584,0.0458065,-0.72429776,0.6877412,-0.049039267,-0.067103356,4.738974E-4,0.99774593,0.06808472,0.038909912,0.033828735,0
7620.633637632,0.6811815,0.7307115,0.0453052,-0.72908145,0.68268645,-0.04878111,-0.06657416,1.9760945E-4,0.99778146,0.6861235,0.7260435,0.045776084,-0.7243889,0.68764865,-0.04899074,-0.06704727,4.5400928E-4,0.9977497,-0.13722229,0.029174805,0.067337036,0
7620.638032163,0.6811676,0.7307231,0.045326285,-0.72909296,0.682674,-0.0487826,-0.066589646,1.8204947E-4,0.99778044,0.6860199,0.72614,0.045796778,-0.72448415,0.68754673,-0.049012147,-0.06707711,4.4426892E-4,0.99774766,-0.07002258,-0.05683899,0.100860596,0
7620.642426694,0.692892,0.71956754,0.046077535,-0.7179613,0.69442236,-0.048052307,-0.06657416,2.1316925E-4,0.99778146,0.6859494,0.7262092,0.045756083,-0.7245541,0.6874736,-0.04900334,-0.067042775,4.6105083E-4,0.99775,0.04953003,0.08169556,-0.071517944,0
7620.646821225,0.69291276,0.71954966,0.046046093,-0.7179442,0.69444096,-0.048039604,-0.06654317,2.2872952E-4,0.9977835,0.686064,0.72609985,0.045772996,-0.7244412,0.6875891,-0.049052633,-0.067090124,4.934023E-4,0.9977468,0.07316589,0.03845215,-0.014053345,0
7620.651215757,0.69289887,0.7195617,0.04606719,-0.71795624,0.69442856,-0.04804077,-0.06655867,2.1316948E-4,0.9977825,0.68621397,0.72596204,0.04571106,-0.7243058,0.6877346,-0.04901206,-0.06701797,5.2397366E-4,0.99775165,-0.012863159,-0.014053345,-0.014053345,0
7620.655610288,0.7168989,0.6955459,0.047662433,-0.6939927,0.71848154,-0.046458583,-0.06655867,2.287293E-4,0.9977825,0.68635046,0.7258324,0.045720737,-0.7241746,0.68787146,-0.049031008,-0.06703828,5.426587E-4,0.9977503,-0.017654419,0.014511108,0.115219116,0
7620.660004819,0.71689236,0.69555205,0.047673173,-0.69399804,0.71847576,-0.046469763,-0.06657416,2.2872904E-4,0.99778146,0.68695796,0.72525316,0.045789238,-0.7235989,0.68848217,-0.04895947,-0.06703308,5.0005625E-4,0.99775064,-0.03187561,0.019302368,0.1295929,0
7620.66439935,0.7168989,0.6955459,0.047662433,-0.6939927,0.71848154,-0.046458583,-0.06655867,2.287293E-4,0.9977825,0.6875454,0.72469634,0.045788504,-0.72304565,0.68906826,-0.04888783,-0.066980235,5.0542614E-4,0.99775416,0.006286621,0.004928589,0.029037476,0
7620.668793882,0.7226801,0.68950975,0.048060212,-0.6879705,0.72427636,-0.0460469,-0.06655867,2.1316948E-4,0.9977825,0.68813765,0.7241306,0.0458426,-0.72247684,0.68966275,-0.04891337,-0.0670356,5.389156E-4,0.99775046,0.006286621,-0.061935425,0.124801636,0
7620.673188413,0.72268033,0.68950945,0.048059713,-0.68797165,0.72427654,-0.046024952,-0.06654317,1.9760986E-4,0.9977835,0.68884486,0.72345436,0.045898072,-0.72180355,0.6903721,-0.048848026,-0.067026064,5.193217E-4,0.9977511,0.025283813,-0.028259277,-0.057159424,0
7620.677582944,0.7226741,0.68951535,0.048070043,-0.68797827,0.724271,-0.0460141,-0.06654317,1.8205002E-4,0.9977835,0.6895307,0.7227985,0.04593251,-0.72115016,0.6910587,-0.04878883,-0.06700655,5.1715825E-4,0.9977524,0.0013427734,-0.04248047,-0.014053345,0
7620.681977475,0.6877394,0.7245163,0.04572311,-0.72290283,0.6892576,-0.048325595,-0.06652769,1.8205022E-4,0.9977846,0.69020206,0.7221535,0.045995448,-0.7205077,0.69173276,-0.048728466,-0.067005984,4.924123E-4,0.9977524,0.063446045,-0.023330688,0.096069336,0
7620.686372007,0.68773246,0.7245222,0.045733944,-0.72290945,0.6892514,-0.048315287,-0.06652769,1.6649037E-4,0.9977846,0.69016457,0.7221921,0.045950387,-0.7205489,0.6916924,-0.048691787,-0.066948354,4.958484E-4,0.9977563,-0.027542114,-0.008804321,0.076919556,0
7620.690766538,0.6877394,0.7245163,0.04572311,-0.72290283,0.6892576,-0.048325595,-0.06652769,1.8205022E-4,0.9977846,0.69010204,0.7222522,0.045946132,-0.72061014,0.6916297,-0.048677348,-0.066935025,4.8308558E-4,0.9977572,0.015548706,0.019760132,-0.071517944,0
7620.695161069,0.71060723,0.7019976,0.047294766,-0.7004351,0.7121793,-0.046810444,-0.06654317,1.3692651E-4,0.9977835,0.69005257,0.7222955,0.04600646,-0.72065365,0.6915844,-0.0486748,-0.06697494,4.334472E-4,0.9977545,-0.07527161,-0.118652344,0.20141602,0
7620.6995556,0.7106198,0.7019862,0.04727481,-0.70042235,0.7121905,-0.0468307,-0.06654317,1.664902E-4,0.9977835,0.69041896,0.7219442,0.04602352,-0.7203039,0.6919511,-0.04864077,-0.06696195,4.3158585E-4,0.9977554,0.0013427734,0.07258606,0.1295929,0
7620.703950132,0.7106397,0.70196813,0.047243163,-0.70040363,0.71220833,-0.046840746,-0.06652769,1.9761008E-4,0.9977846,0.6908461,0.72153485,0.04603483,-0.71989465,0.692378,-0.048625495,-0.066958494,4.5250313E-4,0.99775565,0.029922485,0.100997925,-0.018844604,0
7620.708344663,0.66318727,0.7471559,0.044054575,-0.7454855,0.66464883,-0.04993446,-0.066589646,2.7385217E-4,0.99778044,0.69124466,0.7211526,0.04604102,-0.7195139,0.69277614,-0.048589747,-0.06693674,4.6025292E-4,0.9977571,-0.036514282,-0.043380737,0.124801636,0
7620.712739194,0.66320777,0.7471394,0.04402361,-0.7454698,0.6646672,-0.049920537,-0.06655866,2.8941254E-4,0.9977824,0.69067985,0.72169816,0.045967784,-0.7200512,0.69220763,-0.048731554,-0.06698872,5.5874616E-4,0.99775356,0.10684204,0.028274536,3.0517578E-4,0
7620.717133725,0.6632144,0.74713415,0.044013713,-0.74546534,0.66467315,-0.049908616,-0.06654317,2.8941286E-4,0.9977835,0.69013804,0.7222161,0.045972146,-0.72056776,0.6916673,-0.048769325,-0.067019425,5.315195E-4,0.99775153,0.015701294,0.004333496,0.13917542,0
7620.721528257,0.6987383,0.71387,0.04641475,-0.7122757,0.7002781,-0.047683652,-0.06654317,2.582932E-4,0.9977835,0.6895956,0.7227304,0.046028744,-0.72108084,0.6911299,-0.04880421,-0.067084126,4.6472144E-4,0.9977472,-0.013015747,-0.07196045,0.091278076,0
7620.725922788,0.69874513,0.7138641,0.046404075,-0.7122691,0.70028424,-0.04769413,-0.06654317,2.7385302E-4,0.9977835,0.68980134,0.7225301,0.046091266,-0.7208787,0.6913393,-0.04882469,-0.06714201,4.5312304E-4,0.9977433,0.020492554,0.0140686035,0.0050964355,0
7620.730317319,0.69873154,0.713876,0.046425436,-0.7122824,0.7002721,-0.047673177,-0.06654317,2.4273337E-4,0.9977835,0.68997467,0.7223607,0.046151318,-0.7207135,0.69151634,-0.048756845,-0.06713442,3.791147E-4,0.9977439,0.030075073,-0.11489868,-0.042785645,0
7620.73471185,0.6987185,0.7138874,0.046445947,-0.71229666,0.7002605,-0.04763135,-0.06652769,1.9761008E-4,0.9977846,0.68997467,0.7223607,0.046151318,-0.7207135,0.69151634,-0.048756845,-0.06713442,3.791147E-4,0.9977439,0.029922485,-0.11445618,-0.042785645,0
7620.739106382,0.70563084,0.70702535,0.046908192,-0.7054497,0.7071883,-0.0471762,-0.06652769,1.9761008E-4,0.9977846,0.69029355,0.7220543,0.0461764,-0.72041225,0.69183624,-0.04866955,-0.06708857,3.3023654E-4,0.99774694,0.010772705,0.019607544,-0.090667725,0
7620.743500913,0.7056301,0.7070259,0.04690927,-0.70545167,0.70718765,-0.0471554,-0.06651375,1.820504E-4,0.9977855,0.6906114,0.7217519,0.046151444,-0.7201119,0.6921517,-0.048629683,-0.067042366,3.500129E-4,0.99775004,0.048934937,-0.03289795,0.086502075,0
7620.747895444,0.69983,0.71279085,0.046554003,-0.7112074,0.7013766,-0.04748428,-0.06649825,1.2136705E-4,0.99778646,0.6909052,0.72146726,0.04620444,-0.71982586,0.6924484,-0.0486393,-0.067085855,3.4599585E-4,0.9977471,-0.0038909912,-0.16638184,0.076919556,0
7620.752289975,0.69980395,0.7128137,0.046595033,-0.7112288,0.7013534,-0.047506925,-0.06654317,1.0580685E-4,0.9977835,0.69108397,0.72129464,0.04622686,-0.71965384,0.6926282,-0.048625816,-0.06709157,3.3718537E-4,0.99774677,-0.113586426,-0.041732788,0.17747498,0
7620.756684507,0.69980377,0.7128139,0.046595406,-0.7112318,0.7013533,-0.04746528,-0.06651375,7.624333E-5,0.9977855,0.6912667,0.7211241,0.046156105,-0.7194814,0.6928058,-0.048648413,-0.06705876,4.205693E-4,0.997749,0.07287598,-0.09411621,0.014663696,0
7620.761079038,0.7005192,0.71210766,0.04664315,-0.7105271,0.70207036,-0.04741836,-0.06651375,7.624333E-5,0.9977855,0.6914271,0.72097343,0.04610655,-0.7193342,0.6929626,-0.04859238,-0.06698393,4.3207567E-4,0.9977539,-0.008529663,0.02557373,0.033828735,0
7620.765473569,0.70053864,0.7120906,0.046610948,-0.7105124,0.70208764,-0.047383398,-0.06646624,7.624238E-5,0.9977887,0.6915937,0.7208122,0.046129685,-0.71917367,0.6931303,-0.048575386,-0.06698761,4.191747E-4,0.99775374,0.12988281,-0.03186035,0.24435425,0
7620.7698681,0.70054495,0.712085,0.046600442,-0.71050745,0.7020931,-0.047371987,-0.066450745,7.624245E-5,0.9977896,0.6917728,0.7206379,0.046167333,-0.71900064,0.6933115,-0.048552085,-0.06699681,3.9267403E-4,0.99775314,0.029174805,0.02079773,0.033676147,0
7620.774262632,0.7005323,0.7120962,0.046621453,-0.71051717,0.702082,-0.047394793,-0.066481724,7.624229E-5,0.9977876,0.6919299,0.7204873,0.0461633,-0.7188496,0.693468,-0.048553,-0.06699459,4.1080522E-4,0.99775326,-0.09501648,-0.012710571,0.057617188,0
7620.778657163,0.7005006,0.71212393,0.046673954,-0.7105442,0.70205384,-0.047407568,-0.06652769,4.5123557E-5,0.9977846,0.6921078,0.72031367,0.046206456,-0.71867645,0.6936484,-0.04853974,-0.067014866,3.8724282E-4,0.9977519,-0.11373901,-0.084228516,0.091278076,0
7620.783051694,0.70050704,0.71211827,0.046663277,-0.7105378,0.70205957,-0.04741809,-0.06652769,6.0683407E-5,0.9977846,0.6923154,0.7201133,0.04621942,-0.7184769,0.69385636,-0.048520684,-0.06701003,3.8403212E-4,0.99775225,-0.008392334,0.059249878,0.105651855,0
7620.787446225,0.70560366,0.7070482,0.046972547,-0.7054782,0.7071654,-0.047092102,-0.06651375,9.02472E-5,0.9977855,0.6925042,0.71993285,0.046201285,-0.71829987,0.6940436,-0.048464224,-0.06695669,3.753017E-4,0.9977558,0.029785156,0.08769226,-0.042785645,0
7620.791840757,0.7055978,0.70705324,0.046982083,-0.7054839,0.70716023,-0.04708256,-0.06651375,7.624333E-5,0.9977855,0.6927518,0.71969277,0.04622976,-0.71805686,0.69429255,-0.048499767,-0.06700191,4.0270828E-4,0.9977528,0.0010528564,-0.06059265,0.115219116,0
7620.796235288,0.7055983,0.7070529,0.046981405,-0.70548505,0.70716065,-0.04705987,-0.06649722,6.0682585E-5,0.99778664,0.6929992,0.71944904,0.046316158,-0.7178142,0.6945451,-0.04847581,-0.067044534,3.4730227E-4,0.9977499,0.04878235,-0.041290283,0.052825928,0
7620.800629819,0.6826478,0.7293333,0.04543988,-0.727717,0.68415844,-0.04852876,-0.066481724,6.0682643E-5,0.9977876,0.6932256,0.7192294,0.04633954,-0.7175978,0.6947726,-0.04841991,-0.06702046,3.1277142E-4,0.99775153,0.0103302,0.0017852783,0.11029053,0
7620.80502435,0.6826222,0.7293548,0.045481127,-0.72773695,0.6841357,-0.048553087,-0.06652769,4.5123557E-5,0.9977846,0.6930055,0.7194407,0.046350144,-0.71781266,0.69455373,-0.04837402,-0.066994905,2.5274354E-4,0.99775326,-0.089782715,-0.021987915,-0.124191284,0
7620.809418882,0.6826279,0.72935,0.045471925,-0.7277328,0.68414074,-0.048542604,-0.06651375,4.51236E-5,0.9977855,0.69276166,0.719675,0.046359267,-0.71804285,0.69431096,-0.048443105,-0.06705104,2.7158306E-4,0.9977495,0.015411377,-0.0124053955,-0.023635864,0
7620.813813413,0.7179693,0.6944305,0.047817096,-0.6928927,0.7195598,-0.04618816,-0.066481724,2.956334E-5,0.9977876,0.6925847,0.71984524,0.046359852,-0.71821284,0.6941345,-0.04845176,-0.067057736,2.607066E-4,0.99774903,0.09172058,-0.055343628,1.5258789E-4,0
7620.818207944,0.7179889,0.69441235,0.047785185,-0.69287527,0.71957725,-0.046176616,-0.066450745,4.5123084E-5,0.9977896,0.69308245,0.7193647,0.046380706,-0.7177386,0.6946326,-0.04834073,-0.06699216,2.1488853E-4,0.9977535,0.062698364,0.059402466,0.12944031,0
7620.822602475,0.71800125,0.69440097,0.047765102,-0.6928638,0.7195882,-0.046177354,-0.066436805,6.0682825E-5,0.9977906,0.6935931,0.7188715,0.046394378,-0.71724784,0.695143,-0.048288308,-0.066963814,2.1616786E-4,0.9977554,0.043395996,0.035308838,-0.03337097,0
7620.826997007,0.6894844,0.7228455,0.045887154,-0.7212471,0.69100964,-0.04804393,-0.066436805,2.9563427E-5,0.9977906,0.69412154,0.71836114,0.046394452,-0.7167378,0.69567025,-0.04826693,-0.066948324,2.5045645E-4,0.99775636,-0.018844604,-0.06492615,0.07676697,0
7620.831391538,0.68949085,0.72283995,0.04587631,-0.7212408,0.69101536,-0.04805429,-0.066436805,4.5123128E-5,0.9977906,0.6940262,0.71845603,0.046352863,-0.7168316,0.69557226,-0.048286803,-0.06693371,2.8510706E-4,0.9977574,0.014663696,0.035461426,-0.004638672,0
7620.835786069,0.6894854,0.7228447,0.045885623,-0.7212449,0.6910105,-0.04806468,-0.066450745,4.5123084E-5,0.9977896,0.6939218,0.7185571,0.04634879,-0.71693075,0.6954678,-0.048319355,-0.06695431,3.00976E-4,0.997756,-0.037872314,0.0019378662,0.08155823,0
7620.8401806,0.6641593,0.7462827,0.04421185,-0.74463326,0.6656292,-0.04958994,-0.066436805,1.4003729E-5,0.9977906,0.6938584,0.7186201,0.046321854,-0.7169936,0.69540274,-0.04832449,-0.066939294,3.178815E-4,0.997757,0.014663696,-0.09350586,-0.018997192,0
7620.844575132,0.6641796,0.7462663,0.04418085,-0.74461776,0.6656474,-0.04957606,-0.06640582,2.9563489E-5,0.99779266,0.69328225,0.7191792,0.04627069,-0.71755236,0.6948245,-0.048347432,-0.066920474,3.1677223E-4,0.99775827,0.07661438,0.045196533,0.12464905,0
7620.848969663,0.6641796,0.7462663,0.04418085,-0.74461776,0.6656474,-0.04957606,-0.06640582,2.9563489E-5,0.99779266,0.6927079,0.7197359,0.046216637,-0.71810824,0.69424784,-0.048378866,-0.066905804,3.2387595E-4,0.9977592,0.0047912598,-0.012252808,-0.03337097,0
7620.853364194,0.6937161,0.71876657,0.046179514,-0.7171793,0.6952515,-0.04774142,-0.066421315,0.0,0.9977917,0.6921218,0.72029984,0.046211038,-0.71867216,0.6936627,-0.048397325,-0.06691546,2.862576E-4,0.99775857,-0.06210327,-0.06463623,0.19168091,0
7620.857758725,0.6937101,0.7187717,0.046189204,-0.7171851,0.69524616,-0.047732044,-0.066421315,-1.4003745E-5,0.9977917,0.69212985,0.7202914,0.046221927,-0.7186616,0.69367146,-0.04842769,-0.06694488,3.0032388E-4,0.9977566,0.024093628,-0.05491638,-0.08125305,0
7620.862153257,0.6937035,0.7187775,0.04619997,-0.7171916,0.69524026,-0.04772164,-0.066421315,-2.956346E-5,0.9977917,0.6921218,0.7203006,0.046199538,-0.718669,0.6936619,-0.048455156,-0.06694914,3.3469187E-4,0.9977563,-0.009429932,-0.030822754,0.14859009,0
7620.866547788,0.6873366,0.724897,0.04574413,-0.72329694,0.68885714,-0.04813738,-0.06640582,0.0,0.99779266,0.6921775,0.7202465,0.046208274,-0.7186139,0.6937181,-0.048468497,-0.06696478,3.4289612E-4,0.9977553,0.03352356,0.08857727,0.048034668,0
7620.870942319,0.68734336,0.72489136,0.045733854,-0.72329205,0.68886316,-0.04812578,-0.066390336,0.0,0.99779373,0.69205314,0.7203639,0.04624137,-0.7187295,0.6935962,-0.04849976,-0.06701031,3.2937562E-4,0.99775225,0.018997192,-0.03111267,0.18211365,0
7620.87533685,0.6873237,0.72490805,0.04576416,-0.7233079,0.6888456,-0.04813972,-0.066421315,-1.4003745E-5,0.9977917,0.6919343,0.7204743,0.04629981,-0.71883774,0.6934815,-0.04853527,-0.067076474,3.0116385E-4,0.9977478,-0.09082031,-0.0070343018,0.09591675,0
7620.879731382,0.699629,0.71298397,0.04661628,-0.71141076,0.7011803,-0.04733681,-0.066436805,-4.5123128E-5,0.9977906,0.69184035,0.72056305,0.04632244,-0.71892524,0.6933893,-0.048555877,-0.06710705,2.9054258E-4,0.9977457,-0.033218384,-0.097717285,0.019302368,0
7620.884125913,0.69964206,0.7129726,0.046595328,-0.71140087,0.7011919,-0.047313955,-0.06640582,-4.512322E-5,0.99779266,0.6919987,0.7204066,0.0463912,-0.7187704,0.69355196,-0.048525687,-0.067132935,2.3509141E-4,0.997744,0.06703186,0.017196655,0.03845215,0
7620.888520444,0.6996419,0.71297264,0.046595525,-0.7114024,0.7011918,-0.047292035,-0.066390336,-6.0683018E-5,0.99779373,0.6921494,0.72026354,0.046364035,-0.71862715,0.69370043,-0.04852566,-0.06711401,2.6855431E-4,0.9977453,0.03337097,-0.040100098,0.04324341,0
7620.892914975,0.68196577,0.729973,0.045409057,-0.7283645,0.6834759,-0.048432384,-0.066390336,-4.512327E-5,0.99779373,0.692304,0.7201115,0.04641797,-0.71847504,0.6938584,-0.048520405,-0.0671476,2.4071921E-4,0.99774307,-1.5258789E-4,0.021987915,-0.08125305,0
7620.897309507,0.68197924,0.7299618,0.04538794,-0.7283535,0.68348795,-0.048430942,-0.066374846,-2.9563553E-5,0.9977948,0.6920887,0.72032017,0.046390925,-0.71868527,0.6936417,-0.048504803,-0.06711767,2.2915458E-4,0.9977451,0.042785645,0.021835327,0.052825928,0
7620.901704038,0.68197817,0.72996277,0.045389675,-0.72835577,0.683487,-0.04841021,-0.0663609,-4.5123357E-5,0.9977957,0.691844,0.72055477,0.04639734,-0.7189165,0.69339806,-0.048562694,-0.06716391,2.420002E-4,0.99774194,0.061813354,-0.030670166,-0.08604431,0
7620.906098569,0.6467461,0.7614901,0.043037817,-0.7598143,0.6481765,-0.05049219,-0.06634541,-4.5123405E-5,0.9977967,0.6916567,0.7207347,0.046395455,-0.7190966,0.69321096,-0.04856637,-0.06716531,2.2844409E-4,0.9977419,0.023345947,0.021987915,0.0049438477,0
7620.9104931,0.646745,0.761491,0.043039534,-0.7598166,0.6481755,-0.050470386,-0.06632991,-6.0683255E-5,0.99779767,0.6908256,0.72153735,0.046300534,-0.7198965,0.69237536,-0.048634402,-0.06714889,2.6629813E-4,0.9977429,0.0471344,-0.06404114,0.03845215,0
7620.914887632,0.64673114,0.76150155,0.04306058,-0.759827,0.6481631,-0.050472822,-0.06634541,-7.624299E-5,0.9977967,0.6899461,0.72238374,0.04621732,-0.7207422,0.69149226,-0.048672814,-0.06711937,2.7084493E-4,0.9977449,-0.034118652,-0.03036499,-0.028579712,0
7620.919282163,0.68843544,0.7238469,0.045851592,-0.72225547,0.68996066,-0.047973,-0.0663609,-9.0246715E-5,0.9977957,0.68909997,0.7231934,0.046179,-0.7215509,0.69064546,-0.048714787,-0.067123525,2.4885783E-4,0.9977446,-0.043533325,-0.04460144,0.17732239,0
7620.923676694,0.6884482,0.723836,0.04583097,-0.722246,0.689972,-0.047949847,-0.06632991,-9.02469E-5,0.99779767,0.6890926,0.72319907,0.04620053,-0.7215585,0.6906396,-0.04868515,-0.06711697,2.1218944E-4,0.9977451,0.03277588,0.02243042,0.13423157,0
7620.928071225,0.6884482,0.723836,0.04583097,-0.722246,0.689972,-0.047949847,-0.06632991,-9.02469E-5,0.99779767,0.68912286,0.7231717,0.0461764,-0.7215286,0.69066817,-0.048722677,-0.06712743,2.583188E-4,0.9977443,0.008834839,-0.0014953613,0.09591675,0
7620.932465757,0.6943594,0.7181402,0.046257004,-0.7165649,0.6958984,-0.047539096,-0.06632991,-1.3692632E-4,0.99779767,0.68910134,0.7231934,0.046158087,-0.7215488,0.69064546,-0.048745263,-0.067131124,2.8511498E-4,0.9977441,-0.0055389404,-0.13032532,0.15338135,0
7620.936860288,0.6943529,0.7181458,0.046267394,-0.7165741,0.69589263,-0.047485888,-0.066298924,-1.8205013E-4,0.9977997,0.68921983,0.7230768,0.046215054,-0.72143143,0.6907675,-0.04875321,-0.06717617,2.6068493E-4,0.99774104,0.07556152,-0.12510681,-0.009429932,0
7620.941254819,0.6943333,0.71816283,0.046298947,-0.71659034,0.69587517,-0.047498472,-0.06632991,-1.9760958E-4,0.99779767,0.68933356,0.7229679,0.046223342,-0.7213244,0.69088155,-0.048721064,-0.067158625,2.4303995E-4,0.9977423,-0.0725708,-0.048339844,-0.047729492,0
7620.94564935,0.710454,0.7021456,0.04739917,-0.7006107,0.7120333,-0.046400804,-0.06632991,-2.4273302E-4,0.99779767,0.68943995,0.72286654,0.04622168,-0.7212238,0.69098765,-0.04870584,-0.067146435,2.4357767E-4,0.9977431,0.008834839,-0.10055542,0.033676147,0
7620.950043882,0.71044713,0.7021517,0.04740967,-0.70061755,0.7120272,-0.046390157,-0.06632991,-2.5829283E-4,0.99779767,0.68985933,0.7224652,0.046239395,-0.72082305,0.69140714,-0.048684604,-0.06714318,2.5510587E-4,0.9977433,-0.015106201,-0.03816223,0.19168091,0
7620.954438413,0.71044725,0.70215166,0.047409546,-0.70061904,0.7120273,-0.046368223,-0.06631442,-2.7385296E-4,0.99779874,0.6902474,0.7220891,0.04632346,-0.7204512,0.69180006,-0.048608948,-0.06714656,1.7841088E-4,0.9977431,-9.0026855E-4,-0.047592163,0.11029053,0
7620.958832944,0.67741877,0.73420423,0.045255825,-0.7325996,0.67892873,-0.048515018,-0.0663454,-2.8941216E-4,0.99779665,0.69060767,0.7217413,0.04637326,-0.7201036,0.6921629,-0.048592724,-0.06716923,1.6495494E-4,0.9977416,-0.07241821,-0.037857056,-0.03816223,0
7620.963227475,0.6774059,0.7342147,0.045276985,-0.7326101,0.6789173,-0.04851656,-0.0663609,-3.0497165E-4,0.9977957,0.69060767,0.7217413,0.04637326,-0.7201036,0.6921629,-0.048592724,-0.06716923,1.6495494E-4,0.9977416,-0.072265625,-0.037704468,-0.03816223,0
7620.967622007,0.67741424,0.73420787,0.04526326,-0.7325997,0.67892474,-0.048569337,-0.066390336,-2.582918E-4,0.99779373,0.6900611,0.7222643,0.04636818,-0.72062916,0.6916172,-0.048573192,-0.06715171,1.04207815E-4,0.9977428,-0.062408447,0.09111023,0.11506653,0
7620.972016538,0.7003857,0.71222883,0.046797127,-0.7106703,0.70194733,-0.04709331,-0.066390336,-2.7385156E-4,0.99779373,0.68977153,0.7225421,0.0463485,-0.72090614,0.6913269,-0.048595063,-0.067153946,1.06573585E-4,0.99774265,-0.009735107,-0.023635864,0.019302368,0
7620.976411069,0.700373,0.7122399,0.046818502,-0.7106828,0.7019361,-0.047072254,-0.066390336,-3.0497106E-4,0.99779373,0.6900251,0.72229767,0.0463831,-0.7206661,0.69158226,-0.04852036,-0.067123875,5.353443E-5,0.9977446,-0.0049438477,-0.061645508,0.13423157,0
7620.9808056,0.70039165,0.7122237,0.04678714,-0.71067005,0.7019525,-0.047018327,-0.06632991,-3.189761E-4,0.99779767,0.69022906,0.7221038,0.046368014,-0.72047585,0.69178474,-0.04846,-0.067069836,4.1461382E-5,0.99774826,0.008834839,-0.02319336,0.06718445,0
7620.985200132,0.7003853,0.71222925,0.046797827,-0.7106764,0.70194685,-0.047007795,-0.06632991,-3.345359E-4,0.99779767,0.69022906,0.7221038,0.046368014,-0.72047585,0.69178474,-0.04846,-0.067069836,4.1461382E-5,0.99774826,0.008834839,-0.023040771,0.06718445,0
7620.989594663,0.7003915,0.71222377,0.046787314,-0.7106716,0.70195234,-0.0469964,-0.06631442,-3.3453625E-4,0.9977987,0.6906369,0.7217133,0.04637539,-0.72008646,0.69219214,-0.0484319,-0.06705462,5.456609E-5,0.9977493,0.04698181,-0.0038909912,-0.009429932,0
7620.993989194,0.7004035,0.71221334,0.04676718,-0.710667,0.701963,-0.04690822,-0.06623749,-3.8121172E-4,0.9978038,0.6908358,0.72152156,0.0463961,-0.7198958,0.69239193,-0.04840965,-0.06705289,4.2760537E-5,0.99774945,0.18510437,-0.11357117,0.10055542,0
7620.998383725,0.6755746,0.7359079,0.045149785,-0.73430735,0.67708147,-0.048510704,-0.066269495,-3.8121687E-4,0.99780166,0.69103956,0.72132677,0.046390235,-0.71969885,0.6925949,-0.04843502,-0.06706712,8.351944E-5,0.9977485,-0.092315674,-0.0034332275,0.04324341,0
7621.002778257,0.67557514,0.7359075,0.045148905,-0.73430836,0.677082,-0.048489064,-0.06625298,-3.9521503E-4,0.9978028,0.6907444,0.72160935,0.046391483,-0.7199772,0.6923005,-0.048506886,-0.06711987,1.0504845E-4,0.9977449,0.0368042,-0.036819458,0.21548462,0
7621.007172788,0.6755864,0.7358982,0.045131516,-0.7343034,0.677092,-0.04842295,-0.06619255,-4.2633602E-4,0.9978067,0.6904338,0.7219117,0.046311174,-0.7202816,0.6919852,-0.04848716,-0.06705009,1.2008959E-4,0.9977496,-0.069122314,0.06881714,0.0143585205,0
7621.011567319,0.7115364,0.70104027,0.047523502,-0.69952303,0.71312153,-0.046100084,-0.06620805,-4.418953E-4,0.9978058,0.6901154,0.7222188,0.04626876,-0.7205965,0.69166464,-0.048381437,-0.06694445,4.766734E-5,0.9977567,-0.059402466,-0.045944214,0.10534668,0
7621.01596185,0.7115555,0.7010231,0.047491472,-0.6995081,0.7131385,-0.046066362,-0.06616158,-4.4189667E-4,0.99780893,0.6905849,0.72176814,0.046294875,-0.7201482,0.6921349,-0.04832998,-0.06692534,3.678266E-5,0.997758,0.09336853,0.001953125,0.11491394,0
7621.020356382,0.7115618,0.7010173,0.04748079,-0.699503,0.71314406,-0.046055112,-0.06614608,-4.418971E-4,0.9978099,0.69101095,0.7213569,0.046346493,-0.7197359,0.6925635,-0.048331913,-0.06696245,4.0644678E-5,0.99775547,0.035751343,0.030654907,0.01914978,0
7621.024750913,0.72844595,0.6833778,0.048592247,-0.6819026,0.73006475,-0.044880867,-0.06614608,-4.418971E-4,0.9978099,0.69143236,0.72095287,0.046349496,-0.719335,0.6929841,-0.048272353,-0.066921555,3.6252648E-5,0.99775827,0.002243042,-0.0028381348,0.12928772,0
7621.029145444,0.7284399,0.6833835,0.04860251,-0.6819091,0.7300594,-0.04486991,-0.06614608,-4.5745686E-4,0.9978099,0.6921839,0.72022736,0.046411287,-0.71861,0.6937381,-0.04823987,-0.066940956,3.9247734E-5,0.99775696,-0.021697998,-0.041000366,0.17237854,0
7621.033539975,0.7284157,0.6834065,0.048643883,-0.68193203,0.73003805,-0.044871084,-0.06617707,-4.870194E-4,0.99780786,0.69295055,0.7194893,0.04641928,-0.71787596,0.69450355,-0.048155475,-0.0668857,4.607653E-5,0.99776065,-0.05491638,-0.09338379,0.10534668,0
7621.037934507,0.6874793,0.7247468,0.045982383,-0.72318107,0.6890152,-0.047616635,-0.06619255,-5.181383E-4,0.9978067,0.6936719,0.71879244,0.046440955,-0.7171815,0.6952247,-0.048096612,-0.06685838,5.6671834E-5,0.9977625,-0.069122314,-0.078704834,0.14364624,0
7621.042329038,0.6874588,0.724764,0.046014354,-0.72319895,0.68899685,-0.04760762,-0.06620805,-5.4925715E-4,0.9978057,0.6935629,0.7188956,0.04647175,-0.7172853,0.69511807,-0.048090786,-0.06687561,2.0481188E-5,0.9977613,-0.030670166,-0.09754944,0.13407898,0
7621.046723569,0.6874654,0.72475845,0.04600407,-0.7231941,0.68900275,-0.047596015,-0.06619255,-5.492577E-4,0.9978067,0.6934014,0.71905106,0.04647614,-0.7174408,0.69495726,-0.048095286,-0.066881895,5.461893E-6,0.9977609,0.012268066,0.017349243,-0.0861969,0
7621.0511181,0.7174857,0.6949196,0.047967944,-0.6934225,0.7190872,-0.045593653,-0.06617706,-5.4925826E-4,0.99780774,0.69325584,0.71918994,0.046499982,-0.71757835,0.69481355,-0.048119906,-0.06691617,-7.974062E-6,0.9977586,0.06958008,0.012557983,-0.10534668,0
7621.055512632,0.7174857,0.6949196,0.047967944,-0.6934225,0.7190872,-0.045593653,-0.06617706,-5.4925826E-4,0.99780774,0.6937854,0.71867645,0.046539467,-0.71706605,0.6953446,-0.04808543,-0.066918835,-1.0901639E-5,0.99775845,-0.0070343018,-0.025726318,0.07661438,0
7621.059907163,0.71748036,0.6949246,0.047976993,-0.6934296,0.7190824,-0.04556201,-0.06616157,-5.7882234E-4,0.99780875,0.69431514,0.7181624,0.046575367,-0.7165513,0.6958755,-0.04807783,-0.06693835,7.5205726E-6,0.99775714,0.02154541,-0.082901,-0.0047912598,0
7621.064301694,0.6797734,0.7320096,0.045498278,-0.7304319,0.681294,-0.048037436,-0.06616157,-5.7882234E-4,0.99780875,0.69477975,0.7177116,0.046595164,-0.71610266,0.69634044,-0.04803089,-0.066918425,3.971277E-6,0.99775845,0.0023956299,-0.0014953613,-0.06703186,0
7621.068696225,0.6797444,0.7320339,0.0455404,-0.7304561,0.681268,-0.04804059,-0.06619255,-6.0994056E-4,0.9978067,0.69446784,0.7180157,0.046560314,-0.7164125,0.6960269,-0.04795458,-0.066839375,-5.3473726E-5,0.99776375,-0.073913574,-0.053863525,0.12928772,0
7621.073090757,0.6797877,0.73199767,0.04547753,-0.7304187,0.68130696,-0.04805674,-0.06616157,-5.4925884E-4,0.99780875,0.69420606,0.71827126,0.04652315,-0.7166642,0.69576323,-0.048021216,-0.066861354,-4.853807E-6,0.99776226,0.08857727,0.12748718,0.09576416,0
7621.077485288,0.72128814,0.6909555,0.0482058,-0.6894707,0.722897,-0.045276865,-0.066132136,-5.7882344E-4,0.9978107,0.6939016,0.7185682,0.046480037,-0.7169603,0.6954565,-0.048043482,-0.06684736,1.3102457E-5,0.9977632,0.045196533,-0.07810974,-0.0143585205,0
7621.081879819,0.7212747,0.69096816,0.048226286,-0.689482,0.72288495,-0.04529805,-0.06616157,-5.7882234E-4,0.99780875,0.6944805,0.7180066,0.04651213,-0.71639997,0.6960363,-0.048006117,-0.06684284,1.8024868E-5,0.9977635,-0.06942749,-0.0014953613,0.0095825195,0
7621.08627435,0.7212747,0.69096816,0.048226286,-0.689482,0.72288495,-0.04529805,-0.06616157,-5.7882234E-4,0.99780875,0.6949881,0.7175116,0.046569426,-0.71590763,0.69654655,-0.04794978,-0.066842295,-1.4881176E-5,0.9977636,0.02154541,-0.0014953613,-0.05267334,0
7621.090668882,0.6749127,0.736511,0.045214865,-0.73492813,0.6764252,-0.048264932,-0.066132136,-6.550663E-4,0.99781066,0.6955274,0.7169878,0.046585344,-0.71538657,0.69708574,-0.047890887,-0.06681116,-1.7105398E-5,0.99776566,0.054779053,-0.16835022,0.0,0
7621.095063413,0.6749054,0.7365171,0.045225877,-0.7349349,0.6764187,-0.04825484,-0.066132136,-6.7062606E-4,0.99781066,0.69515854,0.7173467,0.04656438,-0.71574444,0.6967163,-0.04791973,-0.06681723,-1.6387237E-5,0.99776524,-0.012268066,-0.034118652,0.15322876,0
7621.099457944,0.67492056,0.73650455,0.045203038,-0.7349197,0.6764324,-0.048294723,-0.066146076,-6.255022E-4,0.9978098,0.69475996,0.7177336,0.04655057,-0.71613497,0.69631773,-0.047877543,-0.06677731,-7.309019E-5,0.9977679,-0.036071777,0.0947113,0.13407898,0
7621.103852475,0.7000779,0.7125275,0.046855714,-0.71099627,0.70164394,-0.046692997,-0.066146076,-6.255022E-4,0.9978098,0.6943415,0.7181374,0.04656841,-0.71653783,0.69590133,-0.04790431,-0.066808894,-1.0608083E-4,0.9977658,-0.016906738,0.022888184,0.13407898,0
7621.108247007,0.7000899,0.7125171,0.046835568,-0.7109857,0.70165455,-0.04669326,-0.066132136,-6.09943E-4,0.9978107,0.6944512,0.7180339,0.046527535,-0.71643436,0.6960081,-0.04790104,-0.066778116,-6.899024E-5,0.99776787,0.059570313,0.0036010742,-0.0574646,0
7621.112641538,0.7000835,0.71252257,0.04684626,-0.710992,0.7016489,-0.046682734,-0.066132136,-6.255028E-4,0.9978107,0.69456255,0.7179208,0.04661146,-0.716324,0.6961248,-0.047856394,-0.0668045,-1.4964848E-4,0.9977661,-0.026626587,-0.034561157,-0.05267334,0
7621.117036069,0.68942666,0.72288424,0.046145845,-0.72133183,0.69096893,-0.047353785,-0.06611664,-6.395072E-4,0.9978117,0.6946795,0.717808,0.046605214,-0.71620995,0.6962411,-0.047871053,-0.06681069,-1.2407881E-4,0.99776566,0.049835205,-0.020050049,-0.01914978,0
7621.1214306,0.68942726,0.72288364,0.046144888,-0.72132856,0.6909696,-0.047395404,-0.066146076,-6.099424E-4,0.9978098,0.6945822,0.71790016,0.046635743,-0.7163015,0.6961461,-0.047882985,-0.06684049,-1.4658626E-4,0.9977637,-0.07437134,0.070617676,-0.12449646,0
7621.125825132,0.6894084,0.7228995,0.046176348,-0.72134644,0.6909529,-0.047365356,-0.066146076,-6.550657E-4,0.9978098,0.6944547,0.71802396,0.04662754,-0.7164195,0.69601834,-0.047974188,-0.066900246,-8.897741E-5,0.99775964,-0.0073394775,-0.1013031,0.14364624,0
7621.130219663,0.68214905,0.7297858,0.045665883,-0.7282138,0.6836756,-0.04787832,-0.06616157,-5.9438206E-4,0.99780875,0.69434166,0.7181354,0.046596397,-0.71653056,0.6959034,-0.0479834,-0.066885166,-7.086848E-5,0.99776065,-0.05506897,0.12313843,0.12449646,0
7621.134614194,0.6821564,0.72977966,0.045654245,-0.7282055,0.68368214,-0.04791044,-0.06617706,-5.6326203E-4,0.99780774,0.6940778,0.7183903,0.046597976,-0.7167814,0.69564027,-0.04805289,-0.06693616,-4.8115453E-5,0.99775726,-0.030975342,0.08930969,-0.05267334,0
7621.139008725,0.6821298,0.72980183,0.045696527,-0.7282276,0.6836585,-0.04791331,-0.06620805,-5.9438025E-4,0.9978057,0.69383943,0.71861935,0.046616845,-0.7170099,0.6954037,-0.04806819,-0.06696025,-7.313233E-5,0.99775565,-0.064193726,-0.06838989,0.19631958,0
7621.143403257,0.68008703,0.7317134,0.045573536,-0.7301356,0.681612,-0.048030507,-0.06620805,-6.099399E-4,0.9978057,0.6936209,0.71882683,0.04666959,-0.71721905,0.6951892,-0.04805096,-0.06698451,-1.4316836E-4,0.99775404,-0.035461426,-0.049072266,0.0909729,0
7621.147797788,0.68010145,0.73170143,0.04555247,-0.7301237,0.681625,-0.048028946,-0.06619255,-5.9438084E-4,0.9978067,0.6933612,0.71908075,0.046615526,-0.7174698,0.6949265,-0.048105966,-0.06698644,-9.0419046E-5,0.99775386,0.055374146,0.046524048,0.03829956,0
7621.152192319,0.68009406,0.7317077,0.045563396,-0.7301306,0.6816184,-0.04801878,-0.06619255,-6.0994056E-4,0.9978067,0.6930821,0.71935123,0.046594817,-0.7177438,0.69464654,-0.048062943,-0.06694107,-1.3157533E-4,0.99775696,-0.016448975,-0.034713745,0.01914978,0
7621.15658685,0.6982382,0.714337,0.04675642,-0.7127988,0.6998017,-0.046857905,-0.06619255,-6.0994056E-4,0.9978067,0.6928264,0.7195983,0.04658275,-0.7179896,0.6943906,-0.048090294,-0.06695232,-1.2770703E-4,0.9977562,0.0027008057,-0.0059814453,0.04788208,0
7621.160981382,0.6982114,0.71436054,0.046796508,-0.7128222,0.69977754,-0.04685986,-0.06622198,-6.395027E-4,0.9978047,0.6929253,0.7195023,0.046593912,-0.7178973,0.6944901,-0.048030972,-0.066917405,-1.677668E-4,0.9977585,-0.0688324,-0.06315613,0.04309082,0
7621.165375913,0.6982044,0.7143667,0.04680694,-0.7128277,0.69977134,-0.046871345,-0.06623748,-6.395021E-4,0.99780375,0.69300777,0.7194231,0.046590816,-0.7178159,0.6945721,-0.04806313,-0.06693841,-1.3550726E-4,0.99775714,-0.04953003,-0.029632568,0.09576416,0
7621.169770444,0.72369,0.68842024,0.048481572,-0.6869407,0.7253118,-0.04511449,-0.06622198,-6.550624E-4,0.9978047,0.6931146,0.71931934,0.046604365,-0.71771276,0.69467956,-0.048048705,-0.06693746,-1.4529323E-4,0.9977572,0.017349243,-0.01512146,0.06225586,0
7621.174164975,0.7237068,0.6884046,0.048452124,-0.68692434,0.72532666,-0.04512525,-0.06620805,-6.2549964E-4,0.9978057,0.69371426,0.71873844,0.046643518,-0.7171345,0.69528055,-0.04799077,-0.06692314,-1.5779347E-4,0.99775815,0.060317993,0.07077026,-0.1149292,0
7621.178559507,0.723695,0.6884156,0.048472792,-0.686934,0.7253163,-0.04514624,-0.06623748,-6.254984E-4,0.99780375,0.6943174,0.7181533,0.04668129,-0.71655226,0.6958849,-0.04792799,-0.066904455,-1.723428E-4,0.9977594,-0.09262085,-0.0010375977,0.07661438,0
7621.182954038,0.70448947,0.7081446,0.04717832,-0.7066195,0.7060672,-0.046455175,-0.06620805,-6.099399E-4,0.9978057,0.6949305,0.71755695,0.046728827,-0.7159575,0.6964998,-0.047883593,-0.06690583,-1.8008395E-4,0.9977593,0.055526733,0.013153076,0.0909729,0
7621.187348569,0.7044962,0.70813864,0.047167774,-0.7066143,0.7060732,-0.046443805,-0.06619255,-6.0994056E-4,0.9978067,0.69511056,0.7173817,0.046741314,-0.71578443,0.6966803,-0.047845848,-0.06688749,-1.9855035E-4,0.99776053,0.036209106,0.013153076,0.13407898,0
7621.1917431,0.7044894,0.7081447,0.047178373,-0.70662105,0.7060671,-0.04643325,-0.06619255,-6.255002E-4,0.99780667,0.69530475,0.717192,0.04676534,-0.71559507,0.69687563,-0.047833495,-0.066895425,-2.0619073E-4,0.99776,0.026641846,-0.044143677,-0.0574646,0
7621.196137632,0.7044698,0.7081622,0.04720911,-0.7066406,0.70604956,-0.04640263,-0.06619255,-6.706234E-4,0.99780667,0.6954547,0.71704096,0.046850055,-0.7154447,0.6970309,-0.047820423,-0.066945136,-2.6168453E-4,0.9977566,-0.035614014,-0.10115051,0.16281128,0
7621.200532163,0.7044833,0.7081501,0.04718791,-0.706627,0.70606154,-0.046423744,-0.06619255,-6.3950394E-4,0.99780667,0.69564104,0.7168594,0.046863105,-0.7152621,0.69721764,-0.047829222,-0.06696061,-2.4743518E-4,0.9977556,0.017059326,0.07090759,0.17237854,0
7621.204926694,0.70450354,0.7081321,0.04715628,-0.70661134,0.7060798,-0.046389624,-0.066146076,-6.39506E-4,0.9978098,0.695816,0.7166859,0.046918713,-0.7150876,0.697396,-0.047838815,-0.06700633,-2.63975E-4,0.9977525,0.10279846,0.018234253,0.11013794,0
7621.209321225,0.69900775,0.7135813,0.046796333,-0.7120469,0.70057213,-0.04677443,-0.066161565,-6.255015E-4,0.9978087,0.695957,0.7165467,0.04695458,-0.7149479,0.69753903,-0.047841497,-0.06703331,-2.744558E-4,0.9977507,-0.06465149,0.037246704,0.19152832,0
7621.213715757,0.69903386,0.7135584,0.04675554,-0.71202695,0.70059556,-0.046729784,-0.066101156,-6.2550406E-4,0.9978128,0.69600534,0.71650046,0.046941962,-0.7149019,0.6975865,-0.047835514,-0.067020245,-2.6512766E-4,0.99775153,0.14544678,-0.010620117,0.1197052,0
7621.218110288,0.6990407,0.7135525,0.046744864,-0.7120203,0.7006017,-0.046740267,-0.066101156,-6.099443E-4,0.9978128,0.69604707,0.7164598,0.046944745,-0.7148603,0.69762826,-0.04784829,-0.06703135,-2.542736E-4,0.9977508,-0.0029907227,0.037094116,0.03829956,0
7621.222504819,0.67955726,0.73221225,0.045466393,-0.7306399,0.6810763,-0.04796366,-0.06608566,-6.2550465E-4,0.99781376,0.6960891,0.7164189,0.046946086,-0.71481663,0.69767034,-0.04788805,-0.0670608,-2.2349271E-4,0.9977489,0.04473877,-0.048919678,0.0095825195,0
7621.22689935,0.6795643,0.73220634,0.045456257,-0.7306348,0.6810826,-0.047951926,-0.06607017,-6.2550534E-4,0.99781483,0.69573945,0.71676034,0.04691731,-0.7151637,0.6973195,-0.047815837,-0.06698885,-2.8619496E-4,0.9977537,0.04458618,-0.0058288574,0.11013794,0
7621.231293882,0.6794983,0.73226154,0.045551587,-0.7306946,0.681023,-0.047884483,-0.06608565,-7.4687117E-4,0.99781364,0.6954128,0.717081,0.046859857,-0.715484,0.6969897,-0.047832508,-0.06696062,-2.641399E-4,0.9977556,0.030380249,-0.014221191,0.15322876,0
7621.235688413,0.67950535,0.7322557,0.04554145,-0.7306895,0.6810293,-0.04787275,-0.06607016,-7.468719E-4,0.99781466,0.6954128,0.717081,0.046859857,-0.715484,0.6969897,-0.047832508,-0.06696062,-2.641399E-4,0.9977556,0.030227661,-0.014221191,0.15322876,0
7621.240082944,0.680183,0.73162365,0.04558585,-0.73005885,0.68170846,-0.04783048,-0.06607016,-7.468719E-4,0.99781466,0.69478035,0.7176912,0.04689965,-0.71610105,0.69636136,-0.047750264,-0.06692905,-4.0894683E-4,0.9977577,-0.017654419,-0.014221191,0.0861969,0
7621.244477475,0.680183,0.73162365,0.04558585,-0.73005885,0.68170846,-0.04783048,-0.06607016,-7.468719E-4,0.99781466,0.6945379,0.7179271,0.046880607,-0.71633923,0.6961181,-0.04772444,-0.06689711,-4.35988E-4,0.99775976,0.006286621,1.5258789E-4,0.01914978,0
7621.248872007,0.66899514,0.7419135,0.044830747,-0.7403258,0.6704952,-0.048517607,-0.06605467,-7.313129E-4,0.9978158,0.6942655,0.7181894,0.046898227,-0.7166036,0.6958475,-0.0477028,-0.06689366,-4.890292E-4,0.99776,0.006134033,0.0670166,0.09576416,0
7621.253266538,0.66898847,0.74191886,0.044840742,-0.7403303,0.67048913,-0.04852946,-0.06607016,-7.313121E-4,0.99781466,0.6937529,0.71869045,0.046808526,-0.71710604,0.69533,-0.04769835,-0.06682772,-4.7580898E-4,0.9977644,-0.0032958984,-0.03352356,-0.08140564,0
7621.257661069,0.6689745,0.7419303,0.04486183,-0.74034166,0.6704766,-0.04853131,-0.06608565,-7.4687117E-4,0.99781364,0.6932616,0.71916735,0.04676256,-0.71758115,0.6948368,-0.04774036,-0.06682565,-4.5937212E-4,0.9977645,-0.06060791,-0.023788452,-0.0047912598,0
7621.2620556,0.68709564,0.7251048,0.046072014,-0.72355527,0.68863815,-0.04738447,-0.06608565,-7.779908E-4,0.99781364,0.6927452,0.7196675,0.046721134,-0.7180803,0.6943188,-0.047772307,-0.06681953,-4.554887E-4,0.99776495,-0.00793457,-0.066589355,0.03829956,0
7621.266450132,0.6871167,0.7250869,0.046039477,-0.7235353,0.6886569,-0.047415346,-0.06608565,-7.3131133E-4,0.99781364,0.69263965,0.7197683,0.04673279,-0.71818346,0.6942142,-0.047740772,-0.06680486,-4.955646E-4,0.99776596,0.006439209,0.0957489,0.0574646,0
7621.270844663,0.68713,0.7250756,0.046018917,-0.7235256,0.6886689,-0.047392122,-0.06605467,-7.313129E-4,0.9978158,0.69251835,0.719886,0.046717733,-0.7182981,0.6940922,-0.047790024,-0.06682978,-4.6179284E-4,0.9977643,0.068374634,0.009552002,0.22026062,0
7621.275239194,0.6749237,0.73650193,0.045198288,-0.7349263,0.6764351,-0.04815604,-0.066040725,-7.157537E-4,0.9978167,0.69241977,0.71998245,0.046691917,-0.7183909,0.69399214,-0.04784803,-0.06685357,-4.121238E-4,0.99776274,0.020355225,0.033340454,0.12449646,0
7621.279633725,0.67491764,0.7365069,0.045207363,-0.7349306,0.6764296,-0.048166648,-0.06605467,-7.1575306E-4,0.9978158,0.69205916,0.7203289,0.04669534,-0.7187358,0.69363254,-0.04788309,-0.06688098,-4.2368463E-4,0.99776083,-0.041763306,-0.009735107,-0.04788208,0
7621.284028257,0.67491037,0.7365129,0.04521837,-0.73493725,0.67642313,-0.04815655,-0.06605467,-7.313129E-4,0.9978158,0.6916855,0.7206877,0.04669507,-0.7190908,0.6932597,-0.047951534,-0.06692989,-4.106152E-4,0.9977576,-0.0034484863,-0.02394104,0.0574646,0
7621.288422788,0.68139386,0.73049223,0.04564575,-0.7289329,0.6829207,-0.047711402,-0.066025235,-7.624341E-4,0.99781775,0.6913052,0.7210522,0.04669943,-0.7194535,0.6928806,-0.047991477,-0.06696149,-4.2131412E-4,0.9977555,0.07287598,-0.061950684,0.0,0
7621.292817319,0.6813813,0.73050267,0.04566512,-0.7289419,0.6829094,-0.04773361,-0.06605467,-7.624326E-4,0.9978158,0.6910792,0.72127044,0.046674587,-0.71967113,0.6926535,-0.048007663,-0.06695582,-4.132521E-4,0.9977559,-0.060913086,-0.004486084,-0.12449646,0
7621.29721185,0.6813611,0.7305196,0.045696434,-0.72895795,0.68289125,-0.04774677,-0.06608565,-7.779908E-4,0.99781364,0.6908719,0.7214729,0.046613958,-0.7198742,0.69244254,-0.048004683,-0.06691156,-3.9109975E-4,0.99775887,-0.07017517,-0.047424316,0.03352356,0
7621.301606382,0.6831953,0.7287942,0.045859475,-0.72723633,0.68473226,-0.047633708,-0.06611664,-8.0755283E-4,0.9978116,0.6906744,0.72166,0.04664424,-0.72006243,0.6922475,-0.047993757,-0.066924535,-4.387078E-4,0.9977579,-0.103393555,-0.0758667,0.10534668,0
7621.306000913,0.6831953,0.7287942,0.045859475,-0.72723633,0.68473226,-0.047633708,-0.06611664,-8.0755283E-4,0.9978116,0.69049996,0.72182846,0.04662177,-0.7202306,0.6920719,-0.0480051,-0.06691706,-4.3090482E-4,0.99775845,0.0067443848,-0.0184021,0.0574646,0
7621.310395444,0.6831892,0.7287994,0.045869727,-0.72724074,0.68472683,-0.047645338,-0.06613212,-8.075519E-4,0.99781054,0.69034386,0.7219801,0.046585057,-0.7203816,0.6919137,-0.048018232,-0.06690104,-4.0992626E-4,0.9977596,-0.050567627,0.010299683,0.02394104,0
7621.314789975,0.710598,0.7019811,0.047674704,-0.7004806,0.71219504,-0.04588138,-0.06616156,-7.9199066E-4,0.99780864,0.6901965,0.722124,0.046536785,-0.72052693,0.6917635,-0.04800092,-0.066855066,-4.009396E-4,0.9977626,-0.07421875,0.038879395,0.09576416,0
7621.319184507,0.71061057,0.70196974,0.047654737,-0.7004679,0.7122063,-0.04590163,-0.066161565,-7.624272E-4,0.9978087,0.69061,0.7217245,0.04660123,-0.72013164,0.69218034,-0.047925662,-0.06684557,-4.610772E-4,0.9977632,-0.011978149,0.057754517,0.09576416,0
7621.323579038,0.71059126,0.7019872,0.047685347,-0.700486,0.712189,-0.045892667,-0.066177055,-7.9198985E-4,0.9978076,0.6910404,0.72131115,0.04661963,-0.7197203,0.69261104,-0.047881853,-0.066826984,-4.6479786E-4,0.99776447,-0.0644989,-0.056869507,0.22026062,0
7621.327973569,0.69305784,0.71937686,0.046558317,-0.7178366,0.6946195,-0.04705771,-0.066192545,-8.0754876E-4,0.9978066,0.6914347,0.7209306,0.04666129,-0.7193452,0.6930072,-0.047787055,-0.06678776,-5.239517E-4,0.9977671,-0.030822754,-0.05671692,0.12449646,0
7621.3323681,0.6930784,0.71935916,0.046526834,-0.71781963,0.6946379,-0.04704501,-0.06616156,-7.9199066E-4,0.99780864,0.6914768,0.7208877,0.04669719,-0.7193062,0.6930516,-0.047729917,-0.06677147,-5.854414E-4,0.9977681,0.05027771,0.058044434,0.0861969,0
7621.336762632,0.693085,0.71935356,0.046516765,-0.71781194,0.69464386,-0.047076274,-0.066177055,-7.6242635E-4,0.9978076,0.6914978,0.7208665,0.04671478,-0.7192862,0.6930737,-0.047709618,-0.06676905,-6.1019947E-4,0.9977683,-0.0357666,0.052963257,0.18675232,0
7621.341157163,0.72361743,0.6884934,0.04852673,-0.6870245,0.7252423,-0.044956774,-0.06614607,-8.075512E-4,0.99780965,0.6914962,0.72086555,0.046753857,-0.71928525,0.6930747,-0.047710095,-0.066796474,-6.3800835E-4,0.99776644,0.06448364,-0.09501648,0.04788208,0
7621.345551694,0.7236108,0.68849945,0.04853813,-0.68702847,0.7252365,-0.044989776,-0.066177055,-7.9198985E-4,0.9978076,0.69214046,0.72024417,0.046796754,-0.7186629,0.6937204,-0.047704484,-0.06682274,-6.12886E-4,0.9977647,-0.0692749,0.029312134,-0.14364624,0
7621.349946225,0.7236348,0.68847716,0.048496734,-0.6870061,0.72525764,-0.044988338,-0.06614607,-7.624279E-4,0.99780965,0.6927878,0.7196201,0.046817854,-0.718042,0.6943677,-0.04763509,-0.06678797,-6.161747E-4,0.99776703,0.10758972,0.09126282,-0.07182312,0
7621.354340757,0.68094385,0.7309104,0.045666773,-0.7293436,0.68247306,-0.047838684,-0.066132136,-7.313092E-4,0.99781066,0.6934086,0.7190209,0.046833906,-0.71744376,0.6949882,-0.047600996,-0.06677512,-5.937543E-4,0.99776787,0.016464233,0.07180786,0.0047912598,0
7621.358735288,0.6809575,0.730899,0.045646008,-0.7293308,0.68248534,-0.047858052,-0.066132136,-7.017456E-4,0.99781066,0.6931876,0.7192307,0.046883646,-0.7176544,0.69477093,-0.047596823,-0.066806495,-6.527271E-4,0.9977657,0.0068969727,0.057159424,-0.03352356,0
7621.363129819,0.6809575,0.730899,0.045646008,-0.7293308,0.68248534,-0.047858052,-0.066132136,-7.017456E-4,0.99781066,0.69293046,0.71947974,0.04686407,-0.7179002,0.69451314,-0.047651898,-0.06683229,-6.2427536E-4,0.99776405,-0.0026855469,0.023635864,0.0095825195,0
7621.36752435,0.67938894,0.7323643,0.045532484,-0.7307936,0.6809127,-0.047944706,-0.06611664,-7.017463E-4,0.9978117,0.6926598,0.71974313,0.046821207,-0.71816045,0.6942402,-0.04770822,-0.066842824,-5.7957566E-4,0.99776334,0.035461426,-0.024230957,-0.0574646,0
7621.371918882,0.67937386,0.7323768,0.045554023,-0.7308089,0.680899,-0.047903545,-0.06610115,-7.468705E-4,0.9978127,0.69239396,0.71999854,0.046827037,-0.71841896,0.6939753,-0.047670554,-0.06681953,-6.3462916E-4,0.9977649,0.06404114,-0.08604431,0.01914978,0
7621.376313413,0.6793956,0.7323587,0.045522843,-0.73079157,0.68091863,-0.04789021,-0.06607016,-7.313121E-4,0.99781466,0.69209313,0.72028667,0.0468415,-0.7187068,0.6936761,-0.04768547,-0.066840045,-6.6251657E-4,0.99776345,0.04937744,0.0047912598,-0.0047912598,0
7621.380707944,0.66486394,0.74563295,0.044580728,-0.7440353,0.66635644,-0.04878942,-0.06608565,-7.3131133E-4,0.99781364,0.6918044,0.72056484,0.0468284,-0.7189834,0.69338715,-0.047717985,-0.06685412,-6.5732887E-4,0.9977625,-0.04623413,0.028717041,0.19152832,0
7621.385102475,0.6648765,0.7456229,0.044560816,-0.7440269,0.66636777,-0.04876564,-0.06605467,-7.313129E-4,0.9978158,0.69124633,0.7211028,0.046789907,-0.71952146,0.69282776,-0.047734357,-0.06683873,-6.701403E-4,0.9977636,0.058807373,-0.02394104,0.11491394,0
7621.389497007,0.6648323,0.74565816,0.044630706,-0.74405825,0.66632825,-0.048825815,-0.06614607,-7.468682E-4,0.99780965,0.69069374,0.7216368,0.046717554,-0.720055,0.69227153,-0.04775846,-0.0668055,-6.527426E-4,0.9977658,-0.23239136,-0.03337097,0.11491394,0
7621.393891538,0.7048266,0.7078011,0.047297653,-0.7062847,0.70641136,-0.04631378,-0.066192545,-7.624256E-4,0.9978066,0.69016874,0.7221446,0.046628475,-0.7205558,0.6917419,-0.047880586,-0.066831574,-5.52731E-4,0.9977641,-0.13137817,-0.052368164,-0.0095825195,0
7621.398286069,0.7048266,0.7078011,0.047297653,-0.7062847,0.70641136,-0.04631378,-0.066192545,-7.624256E-4,0.9978066,0.6904531,0.7218679,0.04670394,-0.7202801,0.6920306,-0.047856804,-0.066866845,-5.970387E-4,0.9977617,0.012268066,0.009857178,0.16758728,0
7621.4026806,0.7048134,0.7078128,0.04731882,-0.7062964,0.7063997,-0.04631456,-0.066208035,-7.779845E-4,0.9978056,0.6907293,0.7216044,0.04669148,-0.7200169,0.6923054,-0.047842894,-0.066848405,-5.7216425E-4,0.997763,-0.059402466,-0.033065796,0.06703186,0
7621.407075132,0.70481414,0.70781225,0.047317807,-0.7062972,0.70640033,-0.04629369,-0.066192545,-7.9198903E-4,0.9978066,0.69098437,0.7213582,0.04672282,-0.7197717,0.6925619,-0.047818955,-0.06685304,-5.8761257E-4,0.9977627,0.050582886,-0.047286987,0.0861969,0
7621.411469663,0.7047878,0.70783556,0.047360186,-0.7063219,0.70637673,-0.04627332,-0.066208035,-8.386672E-4,0.9978055,0.6912814,0.72107506,0.046699733,-0.71948564,0.69285685,-0.04785279,-0.06686168,-5.2004145E-4,0.99776214,-0.064193726,-0.12823486,0.23942566,0
7621.415864194,0.7047687,0.7078525,0.04739094,-0.70634097,0.7063597,-0.046242647,-0.06620803,-8.8379026E-4,0.9978054,0.6915203,0.7208487,0.04665765,-0.71926093,0.69309235,-0.04782025,-0.06680922,-4.903512E-4,0.99776566,-0.0019378662,-0.10385132,0.13407898,0
7621.420258725,0.67360353,0.7377003,0.045350455,-0.73612285,0.6751278,-0.048224445,-0.06619254,-8.9935085E-4,0.99780643,0.69178593,0.72058916,0.04672844,-0.71900326,0.6933622,-0.047783658,-0.06683212,-5.4183806E-4,0.9977641,0.031433105,-0.04623413,0.09576416,0
7621.424653257,0.67359525,0.7377071,0.04536242,-0.7361318,0.6751203,-0.04819251,-0.06617704,-9.3047123E-4,0.99780744,0.6914122,0.7209486,0.0467162,-0.7193566,0.69298846,-0.04788706,-0.06689789,-4.9590576E-4,0.9977597,0.0121154785,-0.055511475,0.06703186,0
7621.429108823,0.673589,0.7377122,0.04537151,-0.7361347,0.6751147,-0.048226196,-0.06620803,-9.1490964E-4,0.9978054,0.69107115,0.72127336,0.046747964,-0.7196827,0.69265026,-0.04787924,-0.06691401,-5.557384E-4,0.99775857,-0.088134766,0.006591797,0.0287323,0
7621.43356439,0.70504534,0.70756984,0.0474968,-0.70605904,0.70664275,-0.04622328,-0.06626947,-9.4603986E-4,0.9978013,0.69073886,0.7215944,0.046705034,-0.7200046,0.6923158,-0.047876954,-0.06688237,-5.573663E-4,0.9977607,-0.14021301,-0.07929993,0.07676697,0
7621.438019956,0.70505923,0.70755756,0.04747494,-0.70604676,0.7066551,-0.046221737,-0.06625295,-9.3046646E-4,0.9978024,0.6910483,0.7212963,0.046731517,-0.71970737,0.69262636,-0.047854617,-0.06688484,-5.6316215E-4,0.99776053,0.0368042,0.059402466,0.09576416,0
7621.442475522,0.70503974,0.7075749,0.04750566,-0.7060663,0.7066377,-0.046191093,-0.06625295,-9.7558944E-4,0.9978024,0.69129586,0.7210537,0.046813864,-0.7194634,0.6928789,-0.047866575,-0.06695071,-5.9089775E-4,0.9977561,-0.025436401,-0.13168335,0.18675232,0
7621.446931089,0.6640381,0.7463547,0.044810176,-0.7447575,0.6655476,-0.04881146,-0.066253975,-9.6004474E-4,0.9978023,0.6915423,0.72081584,0.046837207,-0.71922284,0.6931264,-0.047899473,-0.0669908,-5.618742E-4,0.99775344,-0.020645142,0.035736084,0.10070801,0
7621.451386655,0.66403186,0.7463598,0.044820122,-0.7447618,0.66554207,-0.04882337,-0.06626947,-9.6004375E-4,0.9978013,0.69099855,0.7213408,0.046780914,-0.71974665,0.69258004,-0.047933694,-0.066976056,-5.4829166E-4,0.9977544,-0.044433594,0.0070343018,0.019302368,0
7621.455842222,0.6640255,0.74636483,0.04483006,-0.74476606,0.6655363,-0.048835266,-0.066284955,-9.600427E-4,0.99780023,0.6904513,0.7218622,0.04681801,-0.7202674,0.69203657,-0.047960762,-0.06702083,-6.0691556E-4,0.9977514,-0.0059814453,0.0070343018,0.033676147,0
7621.46026727,0.6934096,0.71902716,0.04672406,-0.7174912,0.69498134,-0.046982415,-0.066253975,-9.4604085E-4,0.9978023,0.6899064,0.7223835,0.046810865,-0.7207847,0.69149244,-0.048038468,-0.06707155,-5.985084E-4,0.997748,0.04159546,0.040390015,0.10549927,0
7621.464722837,0.6933969,0.719038,0.046744134,-0.71750194,0.6949701,-0.04698458,-0.06626947,-9.6004375E-4,0.9978013,0.6899368,0.72235435,0.046812255,-0.7207557,0.69152284,-0.04803478,-0.06706987,-5.992379E-4,0.9977481,-0.044433594,-0.036071777,0.033676147,0
7621.469178403,0.69337,0.7190612,0.04678682,-0.7175265,0.694946,-0.04696491,-0.066284955,-0.0010067222,0.99780023,0.69000006,0.7222946,0.046801604,-0.72069705,0.69158524,-0.048016664,-0.06704947,-5.9827766E-4,0.99774945,-0.025131226,-0.11222839,0.10070801,0
7621.47363397,0.6879741,0.72424966,0.046411574,-0.7227033,0.6895371,-0.047313746,-0.06626947,-9.911634E-4,0.9978013,0.6900869,0.72221136,0.046807054,-0.72061133,0.6916722,-0.04805142,-0.06707841,-5.7003746E-4,0.99774754,0.051330566,0.04083252,-0.06210327,0
7621.478089536,0.6879936,0.7242331,0.0463801,-0.72268456,0.68955445,-0.047343675,-0.06626947,-9.4603986E-4,0.9978013,0.69002026,0.7222715,0.046860732,-0.72067213,0.6916094,-0.0480442,-0.06711028,-6.1975064E-4,0.9977454,-0.015701294,0.083496094,0.22041321,0
7621.482545102,0.68797374,0.72424996,0.046412118,-0.72270495,0.68953675,-0.04729184,-0.066253975,-0.0010067243,0.99780226,0.68999404,0.72229576,0.046872377,-0.7206987,0.69158393,-0.048009813,-0.06709347,-6.543782E-4,0.99774647,-0.025436401,0.017044067,-0.03337097,0
7621.487000669,0.6879674,0.72425544,0.04642243,-0.7227098,0.68953115,-0.047303434,-0.06626947,-0.0010067234,0.9978013,0.68999404,0.72229576,0.046872377,-0.7206987,0.69158393,-0.048009813,-0.06709347,-6.543782E-4,0.99774647,-0.025283813,0.017044067,-0.03337097,0
7621.491456235,0.7112236,0.70133126,0.04791106,-0.69983524,0.71283484,-0.045794047,-0.06626947,-9.6004375E-4,0.9978013,0.689893,0.72239196,0.046877697,-0.72079015,0.69148356,-0.048084397,-0.067150936,-6.158896E-4,0.99774265,-0.020492554,0.10757446,0.15338135,0
7621.495911802,0.7112241,0.7013308,0.04791019,-0.69983625,0.71283525,-0.045771368,-0.06625295,-9.7558944E-4,0.9978024,0.6903287,0.72197586,0.046873834,-0.72037405,0.691918,-0.048069246,-0.06713768,-5.83116E-4,0.99774355,0.060760498,-0.05506897,0.01914978,0
7621.500367368,0.7218452,0.69034857,0.048561715,-0.6888789,0.7234763,-0.045033358,-0.066221975,-9.4602816E-4,0.9978045,0.6907451,0.7215767,0.04688464,-0.71997595,0.69233423,-0.04804073,-0.06712491,-5.7191175E-4,0.9977444,0.0796051,0.088272095,-0.03831482,0
7621.504822934,0.7218698,0.69032586,0.04852041,-0.688856,0.72349805,-0.045033976,-0.06619254,-9.149106E-4,0.99780643,0.69134325,0.7210012,0.046923377,-0.7194046,0.69293356,-0.04795956,-0.06709368,-6.0037704E-4,0.9977465,0.060165405,0.0736084,0.0861969,0
7621.509278501,0.7218572,0.69033754,0.048541605,-0.6888677,0.72348684,-0.045034222,-0.06620803,-9.304693E-4,0.9978054,0.6919707,0.7203923,0.047025908,-0.71879673,0.69356656,-0.04792367,-0.06713944,-6.4028986E-4,0.9977434,-0.025878906,-0.017196655,-0.02394104,0
7621.513734067,0.70046383,0.7121291,0.047142405,-0.71061015,0.7020478,-0.0464969,-0.06620803,-9.304693E-4,0.9978054,0.6925661,0.7198199,0.047026858,-0.71822697,0.6941606,-0.047865808,-0.06709895,-6.257229E-4,0.99774617,-0.030670166,-0.0076293945,0.1771698,0
7621.518159116,0.700489,0.7121072,0.047100175,-0.7105897,0.7020701,-0.046473227,-0.06616155,-9.1491244E-4,0.9978085,0.6927119,0.7196792,0.04703358,-0.71809036,0.69430643,-0.047800235,-0.06705655,-6.625662E-4,0.9977489,0.10774231,0.011352539,0.06225586,0
7621.522614682,0.7005016,0.7120962,0.04707898,-0.71057874,0.7020813,-0.04647236,-0.06614606,-8.993537E-4,0.9978096,0.69282955,0.71956515,0.047044102,-0.7179768,0.69442457,-0.04778927,-0.067056075,-6.667534E-4,0.997749,0.035751343,0.04472351,-0.03831482,0
7621.527070249,0.67059296,0.740452,0.045120757,-0.7388692,0.6721086,-0.04839679,-0.06616155,-8.83793E-4,0.9978085,0.6929737,0.7194261,0.047048792,-0.7178404,0.69456863,-0.047745556,-0.067028016,-6.87108E-4,0.9977509,-0.04548645,0.058944702,0.08140564,0
7621.531525815,0.67059237,0.74045265,0.04512181,-0.73887134,0.6721081,-0.04837493,-0.06614606,-8.993537E-4,0.9978096,0.69251543,0.71986914,0.04701892,-0.71828157,0.69410944,-0.047787312,-0.06703689,-6.793677E-4,0.9977503,0.045333862,-0.05102539,0.16758728,0
7621.535981382,0.67060614,0.74044126,0.045099683,-0.7388572,0.67212045,-0.048415896,-0.06616156,-8.542296E-4,0.99780864,0.69205207,0.7203182,0.046963684,-0.7187315,0.6936434,-0.04778899,-0.06699933,-6.818094E-4,0.9977528,-0.02633667,0.101745605,-0.11013794,0
7621.540436948,0.7203153,0.6919601,0.048342608,-0.690487,0.7219352,-0.045135386,-0.06613212,-8.68235E-4,0.99781054,0.69161814,0.7207361,0.046944387,-0.71914774,0.6932092,-0.04782725,-0.06701311,-6.817557E-4,0.99775183,0.06434631,-0.0034484863,-0.06703186,0
7621.544892515,0.7203086,0.69196635,0.048352957,-0.69049406,0.7219292,-0.045124598,-0.06613212,-8.837948E-4,0.99781054,0.6922063,0.72016776,0.046998106,-0.718582,0.6937996,-0.04777072,-0.0670102,-7.047962E-4,0.9977521,-0.0074768066,-0.07511902,0.12928772,0
7621.549348081,0.7202756,0.69199705,0.04840407,-0.6905271,0.7218996,-0.045091476,-0.06614606,-9.4603293E-4,0.9978096,0.6927546,0.71964025,0.046998497,-0.7180562,0.6943467,-0.04772694,-0.06697948,-6.845005E-4,0.9977541,-0.031280518,-0.127182,0.16281128,0
7621.553803647,0.72293216,0.68921065,0.048556037,-0.6877454,0.72456044,-0.04492715,-0.06614606,-9.149134E-4,0.9978096,0.69332093,0.7190908,0.04705719,-0.71751463,0.69491565,-0.0475916,-0.06692346,-7.679686E-4,0.9977578,-0.0073394775,0.05445862,0.0047912598,0
7621.558259214,0.7229262,0.6892163,0.048566397,-0.6877518,0.72455513,-0.04491628,-0.06614606,-9.304732E-4,0.9978096,0.6939233,0.7185089,0.047067042,-0.7169356,0.6955173,-0.04752917,-0.066886075,-7.624402E-4,0.9977603,-0.0073394775,-0.041152954,0.01914978,0
7621.56271478,0.7229199,0.68922204,0.04857726,-0.6877568,0.72454953,-0.04492734,-0.06616155,-9.3047216E-4,0.9978085,0.694493,0.7179547,0.0471226,-0.71638334,0.6960894,-0.047481194,-0.06689089,-7.824926E-4,0.99776,-0.04071045,0.0067443848,0.06225586,0
7621.567170347,0.6931664,0.71926826,0.046621606,-0.7177362,0.6947319,-0.04693179,-0.06614606,-9.304732E-4,0.9978096,0.69508594,0.717379,0.047146898,-0.71581054,0.6966827,-0.04741809,-0.06686317,-7.8859564E-4,0.99776185,0.026184082,0.001953125,0.13887024,0
7621.571625913,0.6931928,0.71924555,0.046580367,-0.7177134,0.6947555,-0.046930667,-0.06611663,-8.9935545E-4,0.99781156,0.69500583,0.71745473,0.047177255,-0.7158839,0.6966047,-0.047457602,-0.06691258,-7.901302E-4,0.99775857,0.073776245,0.06866455,0.06703186,0
7621.576081479,0.69317204,0.7192633,0.046612658,-0.7177332,0.6947368,-0.046899494,-0.06611662,-9.460347E-4,0.9978114,0.6949809,0.71747774,0.04719296,-0.715907,0.696581,-0.047456775,-0.066922896,-8.0421846E-4,0.99775785,-0.0076293945,-0.09844971,0.22026062,0
7621.580506528,0.693382,0.7190595,0.046635307,-0.7175264,0.69494796,-0.04693971,-0.06616155,-9.1491244E-4,0.9978085,0.6949201,0.71753603,0.04720249,-0.71596754,0.6965209,-0.04742511,-0.06690674,-8.387871E-4,0.99775887,-0.11732483,0.06402588,-0.06703186,0
7621.584962095,0.69337505,0.71906555,0.046646465,-0.7175346,0.69494176,-0.046907395,-0.06614606,-9.4603293E-4,0.9978096,0.6948658,0.71758884,0.047199734,-0.71601844,0.6964665,-0.047455728,-0.06692673,-8.205178E-4,0.99775755,0.040542603,-0.07929993,0.10055542,0
7621.589417661,0.69331676,0.7191157,0.046738956,-0.7175824,0.6948897,-0.04694521,-0.06623746,-9.911502E-4,0.99780345,0.69480515,0.71764624,0.04721921,-0.7160736,0.6964074,-0.047490466,-0.066965155,-8.1580796E-4,0.99775493,-0.02558899,-0.07885742,0.12928772,0
7621.593873227,0.67498416,0.7364234,0.04557242,-0.7348501,0.6765201,-0.048122864,-0.06626947,-0.0010067234,0.9978013,0.6947271,0.7177182,0.04727342,-0.7161421,0.69633317,-0.04754538,-0.06704224,-8.234211E-4,0.9977498,-0.08753967,-0.045181274,0.062408447,0
7621.598328794,0.67498416,0.7364234,0.04557242,-0.7348501,0.6765201,-0.048122864,-0.06626947,-0.0010067234,0.9978013,0.6943501,0.7180852,0.04723867,-0.71650636,0.69595474,-0.04759925,-0.06705629,-7.9626427E-4,0.9977489,-0.010925293,-0.016448975,0.10549927,0
7621.60278436,0.6749776,0.73642886,0.04558251,-0.73485476,0.6765142,-0.04813464,-0.066284955,-0.0010067222,0.99780023,0.69399226,0.71843493,0.047179785,-0.71685326,0.6955937,-0.047653154,-0.06705365,-7.500617E-4,0.9977491,-0.025131226,0.0027008057,0.08155823,0
7621.607239927,0.68612283,0.7260046,0.046399,-0.72445834,0.68768895,-0.04736997,-0.06629889,-0.001112528,0.9977991,0.69360363,0.71881336,0.047130696,-0.717233,0.69520265,-0.047645625,-0.067013696,-7.565147E-4,0.9977518,-0.115982056,0.008529663,-0.05731201,0
7621.611695493,0.68613654,0.7259929,0.04637839,-0.72444546,0.68770134,-0.047389466,-0.066298895,-0.0010829645,0.9977993,0.69347453,0.718935,0.047176104,-0.71736085,0.6950768,-0.047557678,-0.0669819,-8.6225086E-4,0.99775386,0.0037384033,0.07046509,-0.06210327,0
7621.616151059,0.68614274,0.7259877,0.04636916,-0.7244408,0.68770695,-0.04737899,-0.066284955,-0.0010829654,0.9978002,0.69332904,0.7190746,0.04718669,-0.71749675,0.6949324,-0.047617413,-0.06703203,-8.4176403E-4,0.99775046,0.070632935,0.017791748,-0.11955261,0
7621.620606626,0.686151,0.7259806,0.046356693,-0.72443163,0.6877144,-0.04740999,-0.066298895,-0.0010518448,0.9977993,0.69317067,0.71922594,0.04720648,-0.71764576,0.69477576,-0.047656592,-0.06707378,-8.4338104E-4,0.99774766,-0.063308716,0.07015991,0.06718445,0
7621.625062192,0.68615794,0.72597474,0.04634634,-0.7244237,0.68772066,-0.04744113,-0.06631439,-0.0010222801,0.99779826,0.6930234,0.719372,0.04714299,-0.7177885,0.6946246,-0.04771018,-0.06706805,-7.744279E-4,0.9977481,-0.039215088,0.060302734,0.10549927,0
7621.629517759,0.6861583,0.72597444,0.04634574,-0.724422,0.68772095,-0.04746303,-0.06632988,-0.0010067192,0.99779725,0.692912,0.71947956,0.047139555,-0.71789753,0.6945132,-0.047692746,-0.067053,-7.9449295E-4,0.9977491,-0.03427124,0.040985107,0.028884888,0
7621.633973325,0.6992775,0.71329,0.04720484,-0.7117649,0.7008683,-0.0466304,-0.06634538,-9.911584E-4,0.9977963,0.69276524,0.7196246,0.047082055,-0.71804416,0.6943629,-0.047673654,-0.06699917,-7.8034477E-4,0.9977527,-0.053268433,0.04083252,-0.042938232,0
7621.638398374,0.6992775,0.71329,0.04720484,-0.7117649,0.7008683,-0.0466304,-0.06634538,-9.911584E-4,0.9977963,0.69290155,0.7194885,0.047156576,-0.7179122,0.69450384,-0.047607612,-0.067003556,-8.668899E-4,0.99775237,0.013763428,-0.002243042,0.10070801,0
7621.64285394,0.69929093,0.7132783,0.047183696,-0.71175313,0.7008802,-0.046629436,-0.06632988,-9.755996E-4,0.99779725,0.69303155,0.7193604,0.04719926,-0.7177847,0.6946364,-0.047595654,-0.06702475,-8.936143E-4,0.9977509,0.02798462,0.05984497,0.052825928,0
7621.647309507,0.69433314,0.7181287,0.046826,-0.71659327,0.6959097,-0.046944555,-0.0662989,-9.600418E-4,0.99779934,0.69314194,0.7192533,0.047211844,-0.7176803,0.6947473,-0.047551777,-0.06700207,-9.2287903E-4,0.9977524,0.08035278,0.026168823,0.062408447,0
7621.651765073,0.6943323,0.71812946,0.04682741,-0.7165954,0.6959089,-0.046923786,-0.066284955,-9.7560254E-4,0.99780023,0.69315356,0.71923804,0.047273986,-0.71766716,0.694763,-0.047519915,-0.06702235,-9.883943E-4,0.997751,0.027542114,-0.05506897,0.11029053,0
7621.65622064,0.6943451,0.7181184,0.046806216,-0.71658444,0.6959203,-0.046922725,-0.06626947,-9.6004375E-4,0.9978013,0.6931984,0.71919465,0.047277205,-0.71762365,0.69480795,-0.047520537,-0.067025095,-9.860826E-4,0.9977508,0.032180786,0.054901123,0.10070801,0
7621.660676206,0.71774364,0.69462687,0.048348833,-0.6931453,0.7193696,-0.045354247,-0.066284955,-9.600427E-4,0.99780023,0.69319296,0.7192014,0.04725359,-0.7176303,0.694801,-0.047522295,-0.06700994,-9.684884E-4,0.99775183,-0.044281006,-0.016906738,0.07197571,0
7621.665131772,0.7177251,0.69464386,0.048379354,-0.6931631,0.71935314,-0.045342743,-0.0662989,-9.911616E-4,0.99779934,0.6936792,0.71873087,0.047276143,-0.71716076,0.69528764,-0.0474915,-0.06700413,-9.607311E-4,0.9977522,-0.020202637,-0.045333862,-0.10040283,0
7621.669587339,0.71774364,0.69462687,0.048348833,-0.6931453,0.7193696,-0.045354247,-0.066284955,-9.600427E-4,0.99780023,0.6941867,0.7182395,0.047295965,-0.7166728,0.69579524,-0.04742432,-0.06697033,-9.7440387E-4,0.9977545,0.037109375,0.045318604,0.04324341,0
7621.674042905,0.6993169,0.7132555,0.04714265,-0.7117318,0.7009034,-0.046606734,-0.066284955,-9.600427E-4,0.99780023,0.69467366,0.71776855,0.04729524,-0.7161995,0.6962812,-0.047441583,-0.06698286,-9.1641257E-4,0.9977537,-0.044281006,0.016586304,0.12944031,0
7621.678498472,0.6993101,0.7132614,0.047153328,-0.7117384,0.70089734,-0.04659625,-0.066284955,-9.7560254E-4,0.99780023,0.6947748,0.7176733,0.047253784,-0.7161045,0.6963793,-0.047434725,-0.066949196,-8.8219723E-4,0.99775594,-0.0011901855,-0.03112793,0.09112549,0
7621.682954038,0.69931674,0.71325564,0.047142856,-0.7117334,0.7009033,-0.04658482,-0.06626947,-9.756036E-4,0.9978013,0.6948459,0.71760744,0.047208846,-0.71604085,0.6964473,-0.047398806,-0.066892214,-8.685916E-4,0.9977598,0.041748047,-0.03112793,0.10549927,0
7621.687409604,0.68698937,0.7251866,0.046369124,-0.723638,0.6885517,-0.04737735,-0.066284955,-0.0010067222,0.99780023,0.6949206,0.71753335,0.047235426,-0.7159677,0.69652355,-0.04738289,-0.06689939,-8.916911E-4,0.9977593,-0.044281006,-0.078704834,0.009735107,0
7621.691865171,0.68696994,0.72520304,0.04639898,-0.72365516,0.6885343,-0.047368266,-0.066298895,-0.001036285,0.9977993,0.69476956,0.71767837,0.04725437,-0.7161101,0.6963741,-0.047426663,-0.06694381,-8.887296E-4,0.9977563,-0.039367676,-0.059265137,-0.004638672,0
7621.69629022,0.68697596,0.725198,0.046389733,-0.7236508,0.6885397,-0.047357813,-0.066284955,-0.001036286,0.99780023,0.694609,0.7178327,0.047271576,-0.7162635,0.69621503,-0.047446992,-0.066970184,-9.0179726E-4,0.9977546,0.032333374,0.0029907227,0.21084595,0
7621.700745786,0.7052348,0.7073751,0.04758418,-0.70586836,0.7068376,-0.0461575,-0.066284955,-0.001036286,0.99780023,0.69444346,0.71799445,0.047247052,-0.71642315,0.6960483,-0.047482375,-0.06697831,-8.750579E-4,0.9977541,0.013168335,-0.011383057,-0.03337097,0
7621.705201352,0.7052412,0.7073695,0.0475736,-0.7058634,0.7068432,-0.04614616,-0.06626946,-0.0010362869,0.9978012,0.6946753,0.71777076,0.047236085,-0.7162033,0.69627887,-0.04741849,-0.06692509,-8.901856E-4,0.99775755,0.013015747,0.017333984,0.11506653,0
7621.709656919,0.7052348,0.7073752,0.047584247,-0.7058714,0.7068376,-0.046113648,-0.066253975,-0.0010674078,0.99780226,0.6948918,0.7175599,0.047257237,-0.71599454,0.69649625,-0.047379326,-0.06691199,-9.124191E-4,0.99775845,0.027236938,-0.07331848,-0.052520752,0
7621.714112485,0.6760268,0.7354588,0.045696888,-0.7338911,0.6775687,-0.04800634,-0.06626946,-0.0010829666,0.9978012,0.69507456,0.7173827,0.0472575,-0.71581745,0.69667864,-0.047372475,-0.06690749,-9.003386E-4,0.99775875,-0.044433594,-0.058807373,0.15338135,0
7621.718568052,0.67601335,0.73546976,0.045718018,-0.7339021,0.67755663,-0.04800796,-0.066284955,-0.0010985252,0.9978002,0.69473577,0.7177175,0.047156572,-0.7161516,0.6963339,-0.047391586,-0.06685049,-8.466283E-4,0.9977626,-0.034713745,-0.053863525,-0.10998535,0
7621.723023618,0.67602855,0.7354573,0.045694094,-0.7338868,0.6775703,-0.04804893,-0.066298895,-0.0010518448,0.9977993,0.694374,0.71807384,0.04705953,-0.71650714,0.6959665,-0.0474157,-0.06679983,-7.942569E-4,0.9977661,-0.010635376,0.11804199,0.0049438477,0
7621.727479184,0.6935794,0.7188541,0.046864785,-0.7173214,0.69516003,-0.046930037,-0.066314384,-0.0010674035,0.9977982,0.69400024,0.71843463,0.047067165,-0.71686876,0.69559395,-0.0474154,-0.066804506,-8.346798E-4,0.9977657,-0.07272339,-0.04458618,0.09112549,0
7621.731934751,0.69356626,0.7188655,0.046885554,-0.7173313,0.69514835,-0.046953086,-0.06634537,-0.0010674013,0.9977961,0.693988,0.7184459,0.04707532,-0.7168802,0.6955824,-0.047412083,-0.06680778,-8.4394566E-4,0.9977655,-0.10115051,0.0032958984,0.2156372,0
7621.736390317,0.6935796,0.71885395,0.046864405,-0.7173198,0.6951603,-0.046951957,-0.06632988,-0.0010518427,0.99779725,0.69399786,0.7184397,0.047025736,-0.71687263,0.6955888,-0.04743352,-0.066788696,-7.9270074E-4,0.99776685,-0.05821228,-0.09262085,0.07197571,0
7621.740845884,0.69355255,0.71887726,0.046907082,-0.7173445,0.69513613,-0.0469323,-0.06634537,-0.0010985208,0.9977961,0.69399786,0.7184397,0.047025736,-0.71687263,0.6955888,-0.04743352,-0.066788696,-7.9270074E-4,0.99776685,-0.058059692,-0.092163086,0.07197571,0
7621.74530145,0.71077424,0.7017791,0.048022274,-0.700286,0.7123938,-0.04576812,-0.066329874,-0.001098522,0.99779713,0.69401646,0.7184179,0.047083654,-0.7168508,0.6956113,-0.0474324,-0.066828206,-8.33089E-4,0.9977641,0.05671692,-0.0011901855,0.009735107,0
7621.749757016,0.71080047,0.70175534,0.047980078,-0.70026076,0.71241724,-0.04578883,-0.06631439,-0.0010518437,0.99779826,0.69435865,0.71808535,0.047112353,-0.71652037,0.69595456,-0.047390178,-0.06681825,-8.5118343E-4,0.9977648,0.018249512,0.11325073,0.19647217,0
7621.754212583,0.67394835,0.7373719,0.045568403,-0.73579633,0.6754863,-0.04818948,-0.06631439,-0.0010518437,0.99779826,0.69464785,0.717804,0.047136772,-0.71623915,0.6962448,-0.04737928,-0.06682777,-8.4928714E-4,0.99776417,-0.010482788,-0.0016479492,0.09591675,0
7621.758637632,0.6739415,0.73737746,0.04557846,-0.7358011,0.6754802,-0.048201278,-0.06632988,-0.0010518427,0.99779725,0.6942566,0.71818286,0.047128268,-0.7166225,0.69585377,-0.047325213,-0.06678254,-9.1733446E-4,0.99776715,-0.05342102,-0.011230469,0.033676147,0
7621.763093198,0.67393464,0.73738307,0.045588523,-0.73580587,0.6754739,-0.04821308,-0.06634537,-0.0010518415,0.9977961,0.69383425,0.7185913,0.047123693,-0.71702504,0.69543207,-0.04742711,-0.06685203,-8.8231533E-4,0.9977625,-0.038909912,0.0031433105,-0.004638672,0
7621.767548765,0.6869008,0.7252646,0.046460513,-0.7237165,0.6884694,-0.047374062,-0.06634537,-0.0010829611,0.9977961,0.6934568,0.71895707,0.047099233,-0.71739054,0.6950539,-0.04744345,-0.0668463,-8.885605E-4,0.99776286,-0.010177612,-0.08274841,0.11985779,0
7621.772004331,0.6868871,0.7252763,0.046481702,-0.72373104,0.6884571,-0.04733262,-0.066329874,-0.0011280855,0.99779713,0.6932996,0.7191118,0.04705182,-0.7175467,0.6948938,-0.047427673,-0.066801816,-8.802952E-4,0.99776584,0.05192566,-0.11103821,0.1581726,0
7621.776459897,0.6868662,0.72529393,0.04651367,-0.7237494,0.68843836,-0.047323674,-0.066345364,-0.0011592039,0.99779606,0.69313115,0.7192735,0.047062453,-0.7177107,0.6947264,-0.047398414,-0.06678795,-9.23908E-4,0.9977668,-0.048477173,-0.07241821,0.12464905,0
7621.780915464,0.69936305,0.71319854,0.047318965,-0.7116851,0.700961,-0.046452884,-0.06629889,-0.0011887712,0.9977991,0.6929556,0.7194429,0.047057837,-0.7178787,0.694551,-0.047424946,-0.066803604,-9.184345E-4,0.9977657,0.0947113,-0.091278076,1.5258789E-4,0
7621.78537103,0.699369,0.71319336,0.047309756,-0.7116821,0.70096636,-0.046420664,-0.06626946,-0.0012043334,0.99780107,0.6930757,0.71932805,0.0470447,-0.7177653,0.6946699,-0.047399003,-0.06677597,-9.159556E-4,0.99776757,0.07048035,-0.057617188,0.06718445,0
7621.789826597,0.699369,0.71319336,0.047309756,-0.7116821,0.70096636,-0.046420664,-0.06626946,-0.0012043334,0.99780107,0.6932021,0.71920687,0.047035925,-0.7176442,0.6947954,-0.047393173,-0.06676584,-9.020105E-4,0.9977682,0.017807007,0.028564453,0.028884888,0
7621.794282163,0.7047937,0.7078108,0.047642566,-0.70631033,0.70640117,-0.04607827,-0.06626946,-0.0011747696,0.99780107,0.6933419,0.71906847,0.047090244,-0.7175043,0.6949386,-0.047411602,-0.066817015,-9.1500016E-4,0.9977648,0.0034484863,0.080947876,-0.023788452,0
7621.798737729,0.7048068,0.70779914,0.047621403,-0.7062987,0.7064129,-0.046077482,-0.06625397,-0.001159211,0.9978022,0.6935612,0.7188541,0.047132943,-0.71729153,0.6951602,-0.04738199,-0.06682569,-9.457513E-4,0.99776417,0.017654419,0.013748169,0.10070801,0
7621.803193296,0.7047937,0.7078108,0.04764252,-0.7063089,0.7064011,-0.04610019,-0.06628494,-0.0011592085,0.9978,0.6937716,0.71864736,0.047189884,-0.7170883,0.69537395,-0.047322676,-0.06682293,-0.0010081807,0.9977643,-0.077804565,-0.010177612,0.20126343,0
7621.807648862,0.6767017,0.7348304,0.045816325,-0.73326474,0.67824996,-0.04795591,-0.06631438,-0.0011436465,0.9977981,0.69396794,0.7184608,0.0471439,-0.71690434,0.6955667,-0.04727654,-0.066758074,-9.892607E-4,0.9977687,-0.08230591,0.07585144,0.18211365,0
7621.812104429,0.6767017,0.7348304,0.045816325,-0.73326474,0.67824996,-0.04795591,-0.06631438,-0.0011436465,0.9977981,0.6936053,0.7188107,0.047147665,-0.71725154,0.69520515,-0.047328092,-0.06679724,-9.897229E-4,0.9977661,-0.029632568,-0.02468872,0.019302368,0
7621.816529477,0.676708,0.73482525,0.04580618,-0.7332604,0.67825556,-0.04794418,-0.06629889,-0.0011436477,0.9977991,0.69326967,0.7191387,0.047081474,-0.71757454,0.69486594,-0.047413446,-0.06681216,-9.141621E-4,0.9977651,0.037246704,0.008834839,0.10549927,0
7621.820985044,0.68065584,0.7311537,0.04606429,-0.7295972,0.6822118,-0.047696248,-0.06629889,-0.0011436477,0.9977991,0.69292104,0.71947205,0.047120914,-0.71790814,0.69452065,-0.047422405,-0.06684555,-9.6850685E-4,0.99776286,0.0037384033,-0.019897461,0.07676697,0
7621.82544061,0.6806757,0.73113704,0.046034086,-0.7295828,0.6822296,-0.047661535,-0.06625294,-0.0011436334,0.9978022,0.6926799,0.7197092,0.047045775,-0.7181391,0.69427514,-0.047521144,-0.06686412,-8.6847E-4,0.9977617,0.10385132,0.004043579,0.18675232,0
7621.829896177,0.6806614,0.73114914,0.046055887,-0.72959477,0.68221676,-0.04766383,-0.06626946,-0.0011592098,0.99780107,0.69243747,0.7199445,0.047014028,-0.71837807,0.69403106,-0.047474515,-0.06680821,-9.0071437E-4,0.9977654,-0.025283813,-0.010177612,-0.023788452,0
7621.834351743,0.6806548,0.7311545,0.04606579,-0.72960234,0.68221086,-0.047632,-0.06625294,-0.0011887563,0.9978022,0.6922115,0.72016436,0.046973873,-0.7185982,0.6938029,-0.047478117,-0.06678265,-8.9043984E-4,0.99776715,0.017654419,-0.115234375,0.22026062,0
7621.838807309,0.68064046,0.7311665,0.04608758,-0.7296142,0.682198,-0.04763429,-0.06626946,-0.0012043334,0.99780107,0.69195974,0.7204027,0.047029126,-0.7188347,0.6935554,-0.04751365,-0.06684627,-9.286385E-4,0.99776286,-0.07316589,-0.0049438477,0.09591675,0
7621.843262876,0.68064743,0.7311607,0.04607699,-0.7296063,0.6822042,-0.04766534,-0.06628494,-0.0011747683,0.9978,0.6917066,0.72064996,0.04696405,-0.7190793,0.6932986,-0.047560655,-0.066834696,-8.7285915E-4,0.9977637,-0.010772705,0.061798096,0.08155823,0
7621.847718442,0.6864625,0.72568035,0.046446137,-0.72413915,0.688031,-0.047284007,-0.06626946,-0.0011747696,0.99780107,0.6914619,0.7208885,0.04690531,-0.719316,0.69305056,-0.047596175,-0.06681929,-8.287945E-4,0.9977647,0.0034484863,-0.010025024,0.052825928,0
7621.852174009,0.68647635,0.72566855,0.04642502,-0.7241275,0.6880435,-0.04728265,-0.06625397,-0.001159211,0.9978022,0.69136447,0.7209788,0.046955522,-0.7194081,0.69295657,-0.04757375,-0.066837795,-8.893823E-4,0.99776345,0.0368042,0.03768921,0.03845215,0
7621.856629575,0.6864768,0.72566825,0.04642444,-0.7241257,0.6880438,-0.047304552,-0.06626946,-0.0011436499,0.99780107,0.69126695,0.7210716,0.046964914,-0.7194966,0.69286007,-0.047639467,-0.06689158,-8.5950334E-4,0.9977599,-0.030075073,0.03276062,0.08155823,0
7621.861085141,0.67656136,0.73496497,0.045731816,-0.7334013,0.6781043,-0.047929514,-0.06623744,-0.0011125152,0.9978032,0.6911798,0.72115886,0.046908572,-0.71958387,0.6927692,-0.047642425,-0.066854574,-8.2517095E-4,0.9977624,0.06538391,0.080337524,0.10534668,0
7621.865540708,0.67655957,0.7349663,0.04573458,-0.7334055,0.6781026,-0.04788692,-0.06620801,-0.0011436368,0.9978052,0.69090736,0.7214231,0.046857443,-0.71984935,0.69249403,-0.047632437,-0.06681164,-8.206936E-4,0.99776524,0.07467651,-0.05821228,0.12449646,0
7621.869996274,0.67655957,0.7349663,0.04573458,-0.7334055,0.6781026,-0.04788692,-0.06620801,-0.0011436368,0.9978052,0.6906257,0.72169363,0.046844937,-0.720119,0.69221216,-0.047655385,-0.06681922,-8.2189427E-4,0.99776477,0.0076446533,-0.019897461,-0.18196106,0
7621.874451841,0.7219457,0.6902334,0.048705604,-0.68877494,0.7235859,-0.044862106,-0.06620801,-0.0011591965,0.9978052,0.69033664,0.7219723,0.046812583,-0.7203957,0.6919216,-0.047694094,-0.06682444,-7.9860364E-4,0.99776447,0.012420654,-0.029327393,-0.03831482,0
7621.87887689,0.72195166,0.690228,0.048695233,-0.68876874,0.72359115,-0.044872973,-0.06620801,-0.0011436368,0.9978052,0.6909421,0.7213873,0.0468972,-0.7198133,0.69253135,-0.047635693,-0.066841565,-8.437234E-4,0.9977632,-0.0019378662,0.03276062,0.05267334,0
7621.883332456,0.72196376,0.69021684,0.048674,-0.6887576,0.7236019,-0.044872764,-0.06619252,-0.0011280783,0.9978063,0.6915734,0.7207809,0.046916336,-0.71921,0.69316244,-0.047568433,-0.06680706,-8.4563444E-4,0.99776554,0.036209106,0.027816772,0.05267334,0
7621.887788022,0.70961,0.70296454,0.047901876,-0.7014772,0.711224,-0.045719307,-0.06620801,-0.0011591965,0.9978052,0.69218665,0.72018874,0.046966933,-0.71862054,0.69377774,-0.047508497,-0.06679969,-8.6665264E-4,0.997766,-0.049819946,-0.053268433,0.0095825195,0
7621.892243589,0.70959115,0.70298153,0.047931433,-0.701495,0.7112072,-0.04570928,-0.06622195,-0.0011887588,0.9978043,0.69253767,0.7198504,0.04697768,-0.7182865,0.6941286,-0.047432512,-0.066752866,-8.9463714E-4,0.9977691,-0.025741577,-0.072128296,-0.0095825195,0
7621.896699155,0.7095906,0.70298207,0.047932297,-0.70149827,0.71120656,-0.04566653,-0.06619251,-0.0012198803,0.9978061,0.69285125,0.71955085,0.046944357,-0.71798605,0.6944393,-0.04743564,-0.06673236,-8.3955174E-4,0.99777055,0.055374146,-0.0909729,0.22026062,0
7621.901154722,0.70500225,0.70760566,0.047600508,-0.7061106,0.7066064,-0.04598916,-0.066177025,-0.0011887623,0.9978072,0.69319844,0.7192128,0.046998776,-0.7176502,0.69478935,-0.047391802,-0.066739045,-8.767557E-4,0.99777013,0.03605652,0.066711426,0.13407898,0
7621.905610288,0.7049892,0.70761746,0.04762164,-0.70612097,0.7065947,-0.046011876,-0.066208005,-0.0011887598,0.9978051,0.69345295,0.7189662,0.04701756,-0.71740305,0.6950446,-0.047391783,-0.06675239,-8.665674E-4,0.99776924,-0.102493286,0.018829346,0.01914978,0
7621.910065854,0.70500827,0.7076005,0.047590967,-0.7061048,0.7066118,-0.04599868,-0.066177025,-0.0011747585,0.99780726,0.69368464,0.7187404,0.047051515,-0.7171784,0.6952779,-0.047367692,-0.06675895,-8.8609045E-4,0.9977687,0.09352112,0.009140015,-0.01914978,0
7621.914521421,0.68758994,0.72461087,0.04646651,-0.72307867,0.6891572,-0.04711328,-0.06616153,-0.0012043231,0.9978082,0.6939261,0.7185068,0.04705858,-0.716944,0.6955194,-0.047371604,-0.06676698,-8.6597423E-4,0.9977682,0.02633667,-0.052825928,0.0143585205,0
7621.918976987,0.68759644,0.7246054,0.046456214,-0.72307396,0.689163,-0.04710169,-0.066146046,-0.0012043245,0.9978093,0.69382066,0.7186115,0.047016136,-0.7170509,0.6954113,-0.047341272,-0.06671553,-8.6660654E-4,0.9977717,0.016601563,-0.009735107,0.20111084,0
7621.923432554,0.68760157,0.72460103,0.046448052,-0.7230732,0.68916756,-0.047047436,-0.06610111,-0.0012354476,0.9978122,0.69369364,0.7187343,0.047012147,-0.7171758,0.6952842,-0.04731576,-0.06669427,-8.9333276E-4,0.99777305,0.11192322,-0.06210327,0.03829956,0
7621.92788812,0.6643493,0.74607056,0.044931717,-0.7444909,0.6658659,-0.04853912,-0.0661321,-0.0012043256,0.9978102,0.69359535,0.71882874,0.047018524,-0.7172678,0.6951866,-0.04735407,-0.06672611,-8.8031346E-4,0.9977709,-0.08409119,0.07165527,0.0861969,0
7621.932343686,0.66433656,0.7460806,0.044951845,-0.74450094,0.6658545,-0.04853986,-0.06614604,-0.0012198841,0.99780923,0.6930132,0.7193923,0.04698354,-0.7178295,0.6946035,-0.047399648,-0.066733874,-8.775919E-4,0.9977704,-0.031280518,-0.03352356,0.15802002,0
7621.936768735,0.6643271,0.74608815,0.044966973,-0.7445013,0.6658462,-0.048648886,-0.06623744,-0.0011591942,0.9978032,0.6924164,0.7199697,0.046937387,-0.71840835,0.6940049,-0.047398467,-0.066700235,-9.0073096E-4,0.99777263,-0.006439209,-0.0053863525,0.10534668,0
7621.941224302,0.6990905,0.71346897,0.04726956,-0.711957,0.7006857,-0.046439085,-0.06625396,-0.0011887746,0.997802,0.6918847,0.7204816,0.04692375,-0.7189121,0.6934736,-0.04753603,-0.06678922,-8.4459974E-4,0.99776673,-0.04458618,-0.081710815,-0.07167053,0
7621.945679868,0.6991098,0.7134521,0.047238473,-0.7119423,0.7007029,-0.046405166,-0.066208005,-0.0011887598,0.9978051,0.6920112,0.720359,0.046940602,-0.7187926,0.6936009,-0.04748646,-0.066765346,-8.793967E-4,0.99776834,0.117767334,-0.009887695,0.10055542,0
7621.950135434,0.69910395,0.7134573,0.0472479,-0.7119469,0.7006977,-0.046415467,-0.06622195,-0.0011887588,0.9978043,0.6921845,0.7201938,0.0469197,-0.7186314,0.6937723,-0.04742266,-0.06670509,-8.927375E-4,0.99777234,-0.040115356,-3.0517578E-4,0.09576416,0
7621.954591001,0.67461085,0.7367607,0.045650117,-0.7351972,0.67615265,-0.04798778,-0.06622195,-0.0011887588,0.9978043,0.6923193,0.7200647,0.04691315,-0.7185004,0.6939064,-0.047445636,-0.06671727,-8.5958786E-4,0.99777156,-0.025741577,0.009277344,0.0143585205,0
7621.959046567,0.6745898,0.736778,0.045681976,-0.73521364,0.6761337,-0.048002027,-0.06625396,-0.0012043345,0.997802,0.69196165,0.7204126,0.04684851,-0.71884483,0.6935453,-0.04750829,-0.06671713,-8.029E-4,0.9977716,-0.08769226,-0.048034668,-0.004638672,0
7621.963502134,0.6745692,0.7367949,0.045713153,-0.73522973,0.6761153,-0.0480155,-0.06628494,-0.001219892,0.9978,0.69162714,0.7207365,0.046805907,-0.71916676,0.6932087,-0.04754901,-0.06671657,-7.7506754E-4,0.9977717,-0.049072266,-0.0287323,0.11029053,0
7621.9679577,0.6761415,0.7353466,0.045802616,-0.7337813,0.6776901,-0.047969747,-0.06631438,-0.0011747661,0.9977981,0.6912866,0.7210645,0.04678426,-0.71949583,0.6928675,-0.047544673,-0.06669807,-7.940795E-4,0.99777293,-0.11582947,0.109680176,-0.023788452,0
7621.972413266,0.6761415,0.7353466,0.045802616,-0.7337813,0.6776901,-0.047969747,-0.06631438,-0.0011747661,0.9977981,0.69100076,0.7213411,0.04674341,-0.7197738,0.69257957,-0.0475313,-0.06665981,-8.0052216E-4,0.99777544,0.0038909912,0.004348755,0.052825928,0
7621.976868833,0.67612153,0.7353632,0.045834564,-0.7337999,0.67767227,-0.04794036,-0.06631438,-0.0012198896,0.9977981,0.69065624,0.72167015,0.04675616,-0.72010416,0.6922366,-0.047523517,-0.06666263,-8.46889E-4,0.9977752,0.013458252,-0.10055542,0.024093628,0
7621.981324399,0.72084004,0.6913863,0.048731256,-0.68992186,0.7224844,-0.044991937,-0.06631438,-0.0011887699,0.9977981,0.69031745,0.72199583,0.046731237,-0.7204292,0.6918969,-0.04754431,-0.066659994,-8.4587757E-4,0.9977754,-0.020050049,0.076293945,0.23478699,0
7621.985779966,0.7208458,0.69138074,0.048721932,-0.6899156,0.7224896,-0.045001656,-0.06631438,-0.0011747661,0.9977981,0.69096977,0.72136563,0.046823766,-0.7197983,0.69255394,-0.04753335,-0.06671691,-8.5956143E-4,0.99777156,0.0038909912,0.013900757,0.11985779,0
7621.990235532,0.7208656,0.6913624,0.048690427,-0.6898964,0.7225072,-0.04501214,-0.06629889,-0.0011436477,0.9977991,0.6915754,0.7207792,0.046912797,-0.71921515,0.69316417,-0.047465883,-0.066730686,-9.141575E-4,0.9977706,-0.010635376,0.04232788,0.014511108,0
7621.994691099,0.7208654,0.6913627,0.04869087,-0.68989533,0.72250706,-0.04503409,-0.06631438,-0.0011280867,0.9977981,0.6915754,0.7207792,0.046912797,-0.71921515,0.69316417,-0.047465883,-0.066730686,-9.141575E-4,0.9977706,-0.010482788,0.042175293,0.014511108,0
7621.999116147,0.7113033,0.7012405,0.048055444,-0.6997514,0.7129238,-0.04568905,-0.06629889,-0.0011280879,0.9977991,0.6928191,0.71958125,0.046952933,-0.7180193,0.6944078,-0.047394227,-0.066708475,-8.7748084E-4,0.99777216,0.018096924,0.008682251,0.18211365,0
7622.003571714,0.711297,0.70124626,0.048065968,-0.6997578,0.71291816,-0.045678373,-0.06629889,-0.0011436477,0.9977991,0.69317555,0.7192328,0.047030117,-0.71766865,0.69476855,-0.047416896,-0.06677883,-8.83807E-4,0.9977674,-0.005844116,-0.0438385,-0.07167053,0
7622.00802728,0.68679327,0.72536397,0.046498254,-0.7238228,0.6883645,-0.047274385,-0.06629889,-0.0011887712,0.9977991,0.6935167,0.718905,0.047013238,-0.7173386,0.6951079,-0.047437437,-0.06678228,-8.2575734E-4,0.9977672,-0.0010528564,-0.124801636,0.10070801,0
7622.012482847,0.68681884,0.72534233,0.04645869,-0.72380275,0.6883874,-0.047249954,-0.06625397,-0.0011747709,0.9978022,0.6934162,0.7189999,0.047044203,-0.7174326,0.6950097,-0.047455776,-0.066816874,-8.4444147E-4,0.9977649,0.09906006,0.037841797,0.11985779,0
7622.016938413,0.68684036,0.72532403,0.04642544,-0.7237823,0.68840665,-0.04728004,-0.06625294,-0.0011280738,0.9978022,0.6933148,0.7190947,0.047088236,-0.71752864,0.6949115,-0.04744026,-0.06683619,-8.9612085E-4,0.9977635,0.022445679,0.10922241,0.09576416,0
7622.021393979,0.7107925,0.7017621,0.048000142,-0.70027465,0.71241045,-0.045680918,-0.06625294,-0.0011436334,0.9978022,0.6931632,0.71924496,0.047026437,-0.7176804,0.6947561,-0.047422398,-0.066780224,-8.784901E-4,0.9977673,-0.006286621,-0.03427124,0.0,0
7622.025849546,0.71078634,0.7017676,0.048010543,-0.7002824,0.71240497,-0.045648295,-0.06623744,-0.0011747539,0.9978032,0.6935257,0.71889347,0.047055565,-0.71732986,0.6951196,-0.04739717,-0.066782765,-8.832065E-4,0.9977671,0.017501831,-0.062698364,-0.06225586,0
7622.030305112,0.7107612,0.70179015,0.04805275,-0.7003033,0.7123827,-0.045673184,-0.06628494,-0.0011887723,0.9978,0.69387406,0.71855724,0.04705699,-0.71699214,0.69546735,-0.047407366,-0.066791505,-8.4475434E-4,0.9977666,-0.120895386,-0.043395996,0.17732239,0
7622.034760679,0.6881026,0.7241171,0.04657412,-0.7225794,0.6896759,-0.047180064,-0.06628494,-0.0011887723,0.9978,0.69425064,0.71819305,0.047061894,-0.71662927,0.6958434,-0.047375765,-0.066772655,-8.3527586E-4,0.99776787,-0.010772705,0.004486084,0.057617188,0
7622.039216245,0.688116,0.7241059,0.046552807,-0.72256976,0.6896879,-0.04715614,-0.06625294,-0.0011887563,0.9978022,0.6941461,0.7182952,0.0470451,-0.71673185,0.69573796,-0.047371805,-0.066758,-8.357734E-4,0.9977688,0.09906006,-0.014663696,-0.10534668,0
7622.043671811,0.68812203,0.7241006,0.046543032,-0.7225667,0.6896933,-0.04712264,-0.06622195,-0.0012043184,0.9978043,0.69403255,0.71840316,0.04707137,-0.71683705,0.6956265,-0.047417533,-0.066809,-8.331922E-4,0.9977654,0.07481384,-0.024093628,-0.10055542,0
7622.048127378,0.6881279,0.72409576,0.046533756,-0.7225625,0.6896984,-0.04711221,-0.066208005,-0.0012043194,0.9978051,0.69390774,0.71852577,0.047039483,-0.71695894,0.69549984,-0.047432248,-0.06679725,-8.117713E-4,0.9977662,0.036361694,-0.033676147,0.06225586,0
7622.052582944,0.688154,0.7240735,0.046491977,-0.72254175,0.68972164,-0.04708776,-0.06616153,-0.0011887634,0.9978082,0.69377244,0.71866053,0.046976723,-0.7170947,0.69536066,-0.04742199,-0.06674608,-7.8668393E-4,0.9977697,0.12689209,0.061935425,-0.15802002,0
7622.057007993,0.68815917,0.7240693,0.046483774,-0.72254115,0.6897263,-0.04703353,-0.06611661,-0.0012198866,0.99781126,0.6936858,0.71874434,0.04697425,-0.7171805,0.695274,-0.04739458,-0.06672456,-8.12065E-4,0.9977711,0.102508545,-0.10055542,0.0287323,0
7622.061463559,0.6940133,0.7184352,0.04686517,-0.7169213,0.69559276,-0.04663195,-0.06610111,-0.0012354476,0.9978122,0.6936017,0.7188251,0.046980444,-0.7172646,0.6951905,-0.04734747,-0.06669491,-8.571202E-4,0.99777305,0.044891357,-0.009429932,-0.04309082,0
7622.065919126,0.69403946,0.71841276,0.046822447,-0.7168974,0.69561607,-0.046651702,-0.06608562,-0.0011887695,0.9978132,0.6936045,0.7188241,0.04695422,-0.71726614,0.6951915,-0.04730841,-0.0666486,-8.653407E-4,0.99777615,0.05432129,0.109817505,0.12928772,0
7622.070374692,0.6940522,0.7184018,0.046801616,-0.71688366,0.6956275,-0.046693414,-0.06610112,-0.0011436449,0.9978123,0.69360256,0.7188264,0.046947774,-0.7172667,0.6951891,-0.047335453,-0.066663556,-8.4208127E-4,0.99777514,-0.036514282,0.09500122,0.0861969,0
7622.074830259,0.67578983,0.7356797,0.045644153,-0.7341216,0.6773285,-0.047868665,-0.0661321,-0.0011592022,0.9978102,0.6936263,0.71880764,0.046884853,-0.71724576,0.6952086,-0.047366932,-0.06664246,-7.730132E-4,0.9977766,-0.11282349,-0.034118652,0.09576416,0
7622.079285825,0.67579573,0.7356749,0.045634937,-0.73411906,0.67733383,-0.047835033,-0.06610112,-0.0011747645,0.9978123,0.69327056,0.71915174,0.046869446,-0.7175905,0.69485265,-0.04736817,-0.066632256,-7.9410896E-4,0.9977773,0.08798218,-0.043533325,0.1197052,0
7622.083741391,0.6758027,0.7356691,0.04562392,-0.7341125,0.67734003,-0.047845155,-0.06610112,-0.0011592046,0.9978123,0.6929297,0.719486,0.046777997,-0.7179228,0.69450647,-0.04740806,-0.06659706,-7.325387E-4,0.99777967,-0.0029907227,0.05206299,0.06703186,0
7622.088196958,0.7048478,0.70776534,0.04751563,-0.706272,0.7064466,-0.045967016,-0.06610112,-0.0011592046,0.9978123,0.69261813,0.7197863,0.04677307,-0.7182219,0.6941953,-0.04743595,-0.06661339,-7.3844416E-4,0.99777853,-0.026931763,-0.014953613,-0.05267334,0
7622.092652524,0.7048412,0.70777124,0.047526225,-0.7062787,0.70644075,-0.045956448,-0.06610112,-0.0011747645,0.9978123,0.69285727,0.719558,0.046745423,-0.71799135,0.694432,-0.04746165,-0.06661293,-6.786584E-4,0.99777865,0.020950317,-0.019592285,-0.10534668,0
7622.097108091,0.7048612,0.7077534,0.047494475,-0.7062601,0.7064586,-0.04596622,-0.06608563,-0.0011436462,0.99781334,0.6930938,0.7193299,0.046749458,-0.71776634,0.6946683,-0.04740676,-0.066576466,-6.9785997E-4,0.9977811,0.03994751,0.0519104,0.01914978,0
7622.101563657,0.69953567,0.7130392,0.047170054,-0.7115354,0.7011232,-0.04629985,-0.06608562,-0.0011747656,0.9978132,0.69331604,0.71911585,0.046746213,-0.7175542,0.69488984,-0.04737157,-0.066549115,-6.9947145E-4,0.9977829,-0.01272583,-0.077056885,0.02394104,0
7622.105988706,0.69954205,0.71303356,0.04715956,-0.71153045,0.7011289,-0.046288423,-0.06607013,-0.0011747669,0.9978143,0.6934535,0.718986,0.046706233,-0.71742594,0.69502425,-0.047342427,-0.06650051,-6.784924E-4,0.99778616,0.0541687,0.023483276,0.17237854,0
7622.110413755,0.6995418,0.7130338,0.047159947,-0.7115334,0.70112854,-0.046246767,-0.066040695,-0.0012043328,0.99781615,0.6935596,0.7188842,0.046696283,-0.71732336,0.69512945,-0.047352016,-0.06650058,-6.548908E-4,0.99778616,0.082611084,-0.09112549,-0.07182312,0
7622.114869321,0.68152016,0.730353,0.045988083,-0.7288134,0.68306893,-0.047412243,-0.066040695,-0.0012043328,0.99781615,0.6936732,0.7187749,0.04669176,-0.71721524,0.69524246,-0.047329735,-0.06648152,-6.5667526E-4,0.9977874,-0.008377075,0.004638672,-0.0574646,0
7622.1191723,0.681521,0.7303522,0.04598669,-0.7288099,0.68306977,-0.04745384,-0.06607013,-0.0011747669,0.9978143,0.6934349,0.71900445,0.04669636,-0.71744597,0.69500506,-0.047319423,-0.06647709,-6.891773E-4,0.9977877,-0.07511902,0.057006836,0.07661438,0
7622.123475278,0.68152755,0.73034674,0.04597649,-0.7288051,0.68307555,-0.047442153,-0.066054635,-0.001174768,0.99781525,0.6931843,0.7192484,0.046660826,-0.717689,0.69475263,-0.047342762,-0.06646894,-6.706986E-4,0.99778825,0.025283813,0.009140015,0.0287323,0
7622.127808774,0.67304575,0.7382012,0.04547964,-0.73664385,0.6745795,-0.047941536,-0.06607013,-0.0012354502,0.99781424,0.69295436,0.7194711,0.046642914,-0.71790844,0.69452214,-0.047397375,-0.066495575,-6.411245E-4,0.9977865,-0.027236938,-0.16265869,-0.1484375,0
7622.132111753,0.6730279,0.7382156,0.045510843,-0.7366589,0.67456365,-0.047934044,-0.066085614,-0.0012650124,0.99781317,0.69258684,0.71983,0.04656614,-0.71826434,0.6941502,-0.04745401,-0.06648271,-5.8077654E-4,0.9977874,-0.05581665,-0.057022095,0.13407898,0
7622.136414731,0.6730527,0.73819566,0.045467567,-0.73663616,0.67458564,-0.04797354,-0.06608562,-0.0012043292,0.9978132,0.69221246,0.72019184,0.046535105,-0.71862453,0.6937747,-0.047491476,-0.06648785,-5.670721E-4,0.99778706,-0.01272583,0.15785217,0.02394104,0
7622.140748227,0.6880093,0.7242123,0.04647515,-0.72268665,0.68957615,-0.04699931,-0.066085614,-0.0012510086,0.99781317,0.6918358,0.72055894,0.04645481,-0.7189915,0.6933936,-0.04750338,-0.06644045,-5.360729E-4,0.9977903,0.01600647,-0.11462402,-0.03352356,0
7622.145051206,0.6879904,0.72422826,0.04650554,-0.72270185,0.6895593,-0.047013197,-0.0661166,-0.0012650099,0.99781114,0.6917378,0.7206554,0.046419322,-0.71908563,0.69329333,-0.04754133,-0.06644312,-4.933374E-4,0.9977901,-0.084243774,-0.066589355,0.0047912598,0
7622.149384702,0.6879715,0.7242443,0.04653598,-0.7227171,0.68954235,-0.04702489,-0.06614603,-0.001280567,0.99780905,0.69167894,0.7207113,0.04642739,-0.7191432,0.6932352,-0.047518503,-0.06643222,-5.2039605E-4,0.9977908,-0.0791626,-0.047286987,0.0,0
7622.153687681,0.7097083,0.70286405,0.047918722,-0.70138484,0.7113231,-0.045594025,-0.0661321,-0.0012510049,0.9978102,0.6915908,0.72079545,0.04643477,-0.71922535,0.6931477,-0.047551997,-0.066461414,-5.1054073E-4,0.99778885,0.035614014,0.08648682,0.0047912598,0
7622.157990659,0.7097083,0.70286405,0.047918722,-0.70138484,0.7113231,-0.045594025,-0.0661321,-0.0012510049,0.9978102,0.6919084,0.72048825,0.046470284,-0.7189168,0.693467,-0.047562875,-0.0664941,-4.991135E-4,0.9977867,0.016464233,-0.004486084,0.0287323,0
7622.162324155,0.70971453,0.7028584,0.04790858,-0.7013727,0.71132874,-0.045690224,-0.066192515,-0.0011747573,0.99780613,0.6922731,0.72013557,0.046505306,-0.7185608,0.69383323,-0.04760059,-0.06654581,-4.64282E-4,0.99778324,-0.002090454,0.033065796,0.07182312,0
7622.166627134,0.71132344,0.70122457,0.047991678,-0.69973963,0.7129396,-0.045624256,-0.06620801,-0.0011280772,0.9978052,0.69258547,0.71983385,0.04652599,-0.7182548,0.6941463,-0.04765539,-0.0665998,-4.1208375E-4,0.9977797,-0.059402466,0.12358093,0.05267334,0
7622.170930112,0.71133566,0.70121354,0.047970444,-0.69972867,0.71295047,-0.04562372,-0.06619252,-0.0011125186,0.9978063,0.6929518,0.71947706,0.046588507,-0.7178947,0.69451606,-0.047693018,-0.0666705,-3.9667528E-4,0.99777496,0.050582886,0.037231445,0.01914978,0
7622.175263608,0.71132964,0.7012189,0.04798083,-0.69973624,0.7129451,-0.04559108,-0.066177025,-0.0011436391,0.99780726,0.6932886,0.7191491,0.046641592,-0.71756876,0.69485563,-0.047652427,-0.066678375,-4.3166394E-4,0.9977744,0.0025482178,-0.08215332,0.06225586,0
7622.179566587,0.6932689,0.7191568,0.046814777,-0.71763414,0.6948468,-0.04678802,-0.066177025,-0.0011591988,0.99780726,0.6936449,0.7188055,0.046641614,-0.7172284,0.6952111,-0.047590252,-0.0666339,-4.4195828E-4,0.99777734,0.016906738,-0.043685913,0.14364624,0
7622.183869565,0.6932753,0.7191514,0.046804786,-0.71763086,0.6948524,-0.046754587,-0.066146046,-0.001174761,0.9978093,0.6936095,0.7188399,0.046638984,-0.7172645,0.6951756,-0.047567915,-0.06661599,-4.5892753E-4,0.9977786,0.08842468,-0.033966064,0.0,0
7622.188203061,0.6932879,0.71914047,0.046784665,-0.7176199,0.6948637,-0.046754606,-0.0661321,-0.0011592022,0.9978102,0.69358975,0.7188585,0.04664518,-0.7172835,0.69515634,-0.047560953,-0.06661528,-4.7002934E-4,0.9977786,-0.0026855469,0.028121948,0.07661438,0
7622.19250604,0.687938,0.7242839,0.046413474,-0.7227502,0.689501,-0.047122367,-0.066132106,-0.0011280827,0.99781024,0.6935845,0.7188625,0.0466609,-0.71729106,0.69515216,-0.04750794,-0.066588104,-5.186703E-4,0.99778044,0.030838013,0.08528137,0.0047912598,0
7622.196809018,0.6879191,0.7242998,0.046443917,-0.72276545,0.6894842,-0.04713406,-0.06616154,-0.0011436404,0.99780834,0.6934935,0.71895146,0.046642907,-0.71737874,0.69506013,-0.047530964,-0.06659208,-4.982141E-4,0.99778014,-0.10774231,-0.03427124,-0.07661438,0
7622.201142515,0.6879191,0.7242998,0.046443917,-0.72276545,0.6894842,-0.04713406,-0.06616154,-0.0011436404,0.99780834,0.6934382,0.71900403,0.04665599,-0.71743125,0.6950058,-0.047533773,-0.066603154,-5.1073584E-4,0.9977794,0.0071868896,0.004043579,0.0861969,0
7622.205445493,0.69935745,0.7132092,0.047243707,-0.7117007,0.7009503,-0.04637774,-0.066192515,-0.001188761,0.99780613,0.69333583,0.7190984,0.046722993,-0.71752733,0.6949081,-0.047511507,-0.06663363,-5.835952E-4,0.99777734,-0.06434631,-0.120010376,0.09576416,0
7622.209778989,0.6993696,0.71319836,0.04722359,-0.71169,0.70096123,-0.046375755,-0.066177025,-0.0011747585,0.99780726,0.69346064,0.71897805,0.046721376,-0.717409,0.69503254,-0.04747628,-0.066607274,-5.95406E-4,0.9977791,0.03605652,0.018692017,0.0287323,0
7622.214081968,0.69938254,0.7131872,0.047202617,-0.7116803,0.7009727,-0.046352904,-0.066146046,-0.001174761,0.9978093,0.6936242,0.718819,0.046741337,-0.71725345,0.69519705,-0.047420483,-0.066581175,-6.3338474E-4,0.99778086,0.05491638,0.023483276,-0.01914978,0
7622.218384946,0.68062025,0.7311914,0.04598987,-0.7296414,0.6821713,-0.047599096,-0.066177025,-0.0011591988,0.99780726,0.6937267,0.71872056,0.046733607,-0.7171573,0.6952988,-0.047381517,-0.066547886,-6.455228E-4,0.99778306,-0.08843994,0.013748169,0.03829956,0
7622.222718442,0.6806416,0.7311737,0.045957845,-0.7296231,0.68219054,-0.04760776,-0.06616154,-0.0011280807,0.99780834,0.6934814,0.71895796,0.046724252,-0.71739286,0.69505334,-0.047417037,-0.0665667,-6.3681667E-4,0.9977818,0.03590393,0.08049011,0.06225586,0
7622.227021421,0.6806351,0.731179,0.045967594,-0.7296247,0.68218464,-0.04766222,-0.06620801,-0.0010985137,0.9978052,0.6932585,0.7191756,0.0466807,-0.71760976,0.6948281,-0.047435977,-0.06654986,-6.131259E-4,0.99778295,-0.102493286,0.084991455,0.14364624,0
7622.231324399,0.7161403,0.69628567,0.048263054,-0.6948105,0.7177639,-0.045313355,-0.06619252,-0.0010829552,0.9978063,0.69299865,0.71942735,0.046660062,-0.7178613,0.69456744,-0.047446713,-0.06654302,-6.149447E-4,0.99778336,0.012268066,0.03694153,0.03829956,0
7622.235657895,0.71614695,0.6962796,0.04825232,-0.69480515,0.71776986,-0.04530216,-0.06617703,-0.0010829563,0.9978073,0.6934572,0.7189795,0.046751507,-0.7174146,0.695031,-0.04741487,-0.06658406,-6.60035E-4,0.99778056,0.045639038,-0.010925293,-0.03831482,0
7622.239960874,0.7161403,0.69628567,0.048263054,-0.6948105,0.7177639,-0.045313355,-0.06619252,-0.0010829552,0.9978063,0.6938914,0.71855825,0.046784893,-0.7169917,0.6954666,-0.047425315,-0.06661517,-6.363596E-4,0.99777853,-0.035614014,-0.025283813,0.01914978,0
7622.244263852,0.7161271,0.6962977,0.048284214,-0.6948225,0.7177521,-0.04531381,-0.06620801,-0.0010985137,0.9978052,0.6938914,0.71855825,0.046784893,-0.7169917,0.6954666,-0.047425315,-0.06661517,-6.363596E-4,0.99777853,-0.035461426,-0.025131226,0.01914978,0
7622.248597349,0.71254396,0.699984,0.04799575,-0.6984982,0.7141579,-0.045595318,-0.06619253,-0.0010362762,0.9978064,0.6947962,0.71767795,0.04686839,-0.7161197,0.69637483,-0.047272667,-0.066564515,-7.1850873E-4,0.9977819,0.031433105,0.122680664,-0.0047912598,0
7622.252900327,0.7125306,0.69999605,0.048016902,-0.6985102,0.71414596,-0.045595888,-0.06620802,-0.0010518348,0.9978053,0.6951411,0.717339,0.046943903,-0.71578205,0.69672394,-0.04724324,-0.06659635,-7.608868E-4,0.9977797,-0.045028687,-0.006439209,0.0095825195,0
7622.257203306,0.71254414,0.6999838,0.04799537,-0.6985009,0.71415794,-0.04555144,-0.06616154,-0.0010673978,0.9978084,0.69549894,0.71698916,0.04698649,-0.7154327,0.6970839,-0.047224753,-0.06661316,-7.709056E-4,0.9977786,0.09815979,-0.03981018,0.06225586,0
7622.261536802,0.71255064,0.69997793,0.047985073,-0.6984928,0.7141637,-0.04558406,-0.06617703,-0.0010362772,0.9978073,0.69585055,0.7166474,0.046994783,-0.71509236,0.69743526,-0.04719134,-0.06659537,-7.6748925E-4,0.9977798,-0.050125122,0.079589844,0.07182312,0
7622.26583978,0.71254987,0.69997865,0.047986317,-0.6984922,0.7141631,-0.045604937,-0.06619253,-0.0010222724,0.9978064,0.6961893,0.71631867,0.046990268,-0.7147651,0.6977729,-0.047159098,-0.06656947,-7.553424E-4,0.9977815,-0.026031494,0.036346436,-0.0095825195,0
7622.270173276,0.70042056,0.7121669,0.04721508,-0.7106528,0.7020094,-0.04642533,-0.06620802,-0.0010362751,0.9978053,0.6965183,0.7159972,0.047012974,-0.71444136,0.6981028,-0.04718083,-0.06660123,-7.256984E-4,0.9977794,-0.025878906,-0.0688324,0.0095825195,0
7622.274476255,0.7004204,0.71216714,0.047215436,-0.71065605,0.7020092,-0.046381485,-0.06617703,-0.0010673966,0.9978073,0.6966032,0.7159113,0.047062654,-0.71435845,0.69819075,-0.047134947,-0.066603154,-7.8525126E-4,0.99777925,0.07437134,-0.06375122,0.01914978,0
7622.278779233,0.70043856,0.7121513,0.047184948,-0.7106423,0.7020253,-0.046348423,-0.06613211,-0.0010673999,0.99781036,0.6966656,0.7158482,0.047099542,-0.7142951,0.6982555,-0.047135722,-0.06662954,-8.0513925E-4,0.99777746,0.09307861,-0.011077881,0.04309082,0
7622.283112729,0.68159026,0.7302923,0.045911487,-0.7287409,0.683134,-0.04758769,-0.06611662,-0.0010222776,0.9978114,0.69674903,0.7157661,0.04711314,-0.71421134,0.6983397,-0.047157228,-0.06665452,-7.9198414E-4,0.9977758,0.054626465,0.14648438,0.0143585205,0
7622.287415708,0.68157744,0.730303,0.045931526,-0.72875154,0.68312263,-0.047590178,-0.06613211,-0.0010362803,0.99781036,0.696454,0.71605235,0.047126163,-0.7144977,0.6980461,-0.04716661,-0.06666999,-8.2216325E-4,0.9977747,-0.031417847,-0.040115356,0.1197052,0
7622.291718686,0.6815507,0.7303254,0.045973506,-0.72877526,0.6830986,-0.047570046,-0.066146046,-0.0010829585,0.99780935,0.69616795,0.7163314,0.047111284,-0.7147758,0.6977597,-0.047190934,-0.066676706,-8.211867E-4,0.9977743,-0.050430298,-0.14978027,0.0287323,0
7622.296052182,0.6924763,0.719927,0.04670782,-0.71840185,0.6940488,-0.046849933,-0.066146046,-0.001112522,0.9978093,0.6958744,0.7166181,0.047088232,-0.7150616,0.6974653,-0.04721268,-0.066675864,-8.1689504E-4,0.9977743,-0.016906738,-0.06808472,0.2059021,0
7622.300355161,0.6924754,0.7199279,0.04670927,-0.7184041,0.69404805,-0.04682918,-0.066132106,-0.0011280827,0.99781024,0.6957684,0.716722,0.047074016,-0.71516466,0.6973586,-0.047230087,-0.06667831,-8.044676E-4,0.99777424,0.011672974,-0.05357361,0.01914978,0
7622.30465814,0.69248897,0.71991605,0.046688564,-0.71839374,0.69406015,-0.04680607,-0.06610112,-0.0011280851,0.9978123,0.6957086,0.7167772,0.047116622,-0.7152229,0.69730175,-0.047185637,-0.066676095,-8.714328E-4,0.9977743,0.10714722,0.013442993,0.1197052,0
7622.308991636,0.6749253,0.7364791,0.045543768,-0.73491925,0.6764593,-0.04792072,-0.06610112,-0.0011280851,0.9978123,0.69563395,0.7168501,0.04711066,-0.71529466,0.6972269,-0.047205977,-0.06668642,-8.5991755E-4,0.99777365,-0.031723022,-0.015258789,0.0861969,0
7622.313294614,0.6749326,0.7364732,0.04553276,-0.73491263,0.67646575,-0.04793082,-0.06610112,-0.0011125254,0.9978123,0.69522953,0.71724665,0.047044303,-0.7156901,0.6968189,-0.047234215,-0.06665994,-8.3052454E-4,0.9977754,-0.017349243,0.046813965,0.14364624,0
7622.317597593,0.6748976,0.736502,0.04558597,-0.7349421,0.6764344,-0.04792408,-0.0661321,-0.0011592022,0.9978102,0.69480413,0.7176646,0.04695457,-0.716105,0.6963885,-0.047294177,-0.066639975,-7.6421426E-4,0.9977768,-0.055358887,-0.11552429,-0.0861969,0
7622.321931089,0.6881688,0.7240608,0.046472553,-0.7225305,0.6897352,-0.04706559,-0.0661321,-0.0011887657,0.9978102,0.69437975,0.71807975,0.046884805,-0.7165239,0.6959604,-0.047250893,-0.06655987,-7.8402105E-4,0.9977821,-0.012268066,-0.072128296,-0.0095825195,0
7622.326234067,0.68818104,0.7240504,0.046452448,-0.72252303,0.68974596,-0.047020525,-0.06608562,-0.0012043292,0.9978132,0.69425553,0.7182026,0.046843223,-0.71665037,0.6958337,-0.047200352,-0.0664945,-8.0110674E-4,0.99778646,0.10699463,-0.033676147,0.14364624,0
7622.330567563,0.68818766,0.72404486,0.04644159,-0.7225167,0.68975186,-0.04703086,-0.06608562,-0.0011887695,0.9978132,0.6941141,0.7183439,0.04677379,-0.71679646,0.6956877,-0.04713322,-0.06639781,-8.114592E-4,0.9977929,0.006439209,0.042770386,0.19152832,0
7622.334870542,0.7041479,0.70846707,0.047437064,-0.70697284,0.705743,-0.046003215,-0.06607013,-0.0011436472,0.9978143,0.6939994,0.7184586,0.04671228,-0.7169147,0.6955692,-0.047080874,-0.06631728,-8.146247E-4,0.9977982,0.006286621,0.114151,0.0909729,0
7622.33917352,0.704141,0.70847297,0.047447663,-0.70697945,0.7057368,-0.045992658,-0.06607013,-0.0011592071,0.9978143,0.6941805,0.7182821,0.046737254,-0.71674365,0.6957515,-0.046994675,-0.06627295,-8.758439E-4,0.9978012,0.015853882,-0.058059692,0.06225586,0
7622.343507016,0.70413435,0.7084791,0.047458276,-0.7069863,0.70573086,-0.045982115,-0.06607013,-0.0011747669,0.9978143,0.69437087,0.7180997,0.046711996,-0.7165644,0.6959398,-0.046940137,-0.06621643,-8.7828963E-4,0.99780494,-0.017654419,-0.033966064,-0.04309082,0
7622.347809995,0.65821236,0.7515166,0.04448904,-0.74992603,0.6597131,-0.048881978,-0.06608562,-0.0011887695,0.9978132,0.69455767,0.7179195,0.0467033,-0.7163892,0.6961255,-0.046858896,-0.066152275,-9.115368E-4,0.9978091,-0.02708435,-0.052978516,-0.0095825195,0
7622.352112974,0.658261,0.7514784,0.044414267,-0.74988616,0.6597567,-0.048906304,-0.06605465,-0.0011125288,0.99781543,0.6938257,0.71863025,0.046652667,-0.7170978,0.6953918,-0.0469142,-0.06615584,-9.042522E-4,0.9978089,0.063583374,0.2144165,0.07182312,0
7622.35644647,0.6582612,0.75147825,0.044413995,-0.74988467,0.65975696,-0.048927158,-0.06607014,-0.0010985238,0.9978144,0.6931146,0.71932006,0.046593074,-0.71778584,0.69467825,-0.04696411,-0.06614941,-8.923427E-4,0.9978093,-0.012878418,0.017944336,0.0,0
7622.360749448,0.68228525,0.7296361,0.04602286,-0.72809035,0.6838348,-0.04748201,-0.066116616,-0.0011125243,0.9978113,0.69242346,0.71998864,0.046541072,-0.71845347,0.6939852,-0.047001068,-0.06613905,-8.9295267E-4,0.99781,-0.1273346,-0.034576416,0.15322876,0
7622.365052427,0.68230456,0.72962,0.04599186,-0.7280737,0.68385214,-0.047489792,-0.06610113,-0.0010829619,0.99781245,0.69220006,0.7202,0.046595037,-0.7186628,0.6937659,-0.047039695,-0.066204034,-9.252426E-4,0.9978057,-0.0077819824,0.09440613,0.2059021,0
7622.369385923,0.68231726,0.7296093,0.04597141,-0.7280645,0.68386334,-0.047466464,-0.06607014,-0.001082964,0.9978144,0.6920251,0.7203681,0.046593912,-0.7188323,0.69359124,-0.047024585,-0.06619214,-9.510113E-4,0.99780643,0.11161804,-0.015701294,-0.0047912598,0
7622.373688901,0.6711813,0.73991245,0.045223225,-0.7383444,0.6727023,-0.048158236,-0.06605465,-0.0010674053,0.9978155,0.6918254,0.72055876,0.046612576,-0.7190235,0.6933932,-0.047021747,-0.066202775,-9.84705E-4,0.9978057,0.010910034,0.0415802,-0.06225586,0
