Time,Rot1,Rot2,Rot3,Rot4,Rot5,Rot6,Rot7,Rot8,Rot9,FRot1,FRot2,FRot3,FRot4,FRot5,FRot6,FRot7,FRot8,FRot9,AccX,AccY,AccZ,Imid
6153.88878835,0.57803357,0.81507146,0.039186835,-0.81355816,0.5793519,-0.04974324,-0.06324727,-0.0031275095,0.997993,0.5657577,0.82365286,0.038914178,-0.82205343,0.56708694,-0.05138676,-0.06439257,-0.0029170818,0.9979204,-0.71824646,0.08378601,9.344559,0
6153.893213399,0.57890934,0.8145026,0.038072236,-0.813071,0.58015233,-0.04835982,-0.061476897,-0.00295948,0.9981041,0.56607276,0.8234869,0.037827175,-0.82195395,0.56732917,-0.050291892,-0.062875174,-0.002623325,0.9980179,-0.5506592,0.08857727,9.751572,0
6153.897638448,0.5795349,0.8140945,0.03727488,-0.8127449,0.58072424,-0.046958607,-0.059875168,-0.0030808148,0.99820113,0.5664156,0.823303,0.03668239,-0.8218581,0.5675967,-0.04881865,-0.06101334,-0.0024960747,0.99813384,-0.40222168,0.11730957,10.37886,0
6153.902063497,0.5464554,0.8367555,0.035025727,-0.8354166,0.54756653,-0.047433645,-0.058869276,-0.0033407076,0.9982601,0.5667667,0.8230897,0.036039814,-0.8217209,0.56790507,-0.047523517,-0.059583314,-0.0026799247,0.9982197,-0.24899292,-0.026321411,10.589554,0
6153.906488546,0.54638326,0.83679855,0.035121437,-0.8354854,0.54749864,-0.04700411,-0.058561914,-0.0036611895,0.99827707,0.5664244,0.82333857,0.03573452,-0.8220224,0.56754273,-0.046631236,-0.058674168,-0.0029615047,0.9982728,-0.15800476,-0.09815979,10.7332,0
6153.910913595,0.5461306,0.83694935,0.03545706,-0.8356173,0.5472674,-0.04735126,-0.059035096,-0.0037685619,0.99824876,0.5660199,0.82361007,0.035887383,-0.8223089,0.56714714,-0.046392262,-0.058562562,-0.0032515707,0.99827844,-0.11491394,-0.07899475,10.407593,0
6153.915338643,0.5963928,0.8017488,0.038913857,-0.80044377,0.597649,-0.045882896,-0.060043395,-0.0037841233,0.99818856,0.5655636,0.823903,0.036352906,-0.8225724,0.5667208,-0.046926837,-0.059265114,-0.003362781,0.9982366,-0.4740448,-0.13166809,10.326187,0
6153.919763692,0.59588045,0.8020976,0.039572917,-0.80073065,0.5971815,-0.046954658,-0.061294425,-0.0037078825,0.9981128,0.5661228,0.82349205,0.0369576,-0.82211375,0.56731796,-0.047741443,-0.060281407,-0.0033558325,0.9981758,-0.6799469,-0.04069519,9.804245,0
6153.924188741,0.59545726,0.80238485,0.04011681,-0.80095464,0.59679663,-0.048016705,-0.06246944,-0.0035398519,0.9980406,0.5666722,0.8230855,0.037589107,-0.82164925,0.5679081,-0.04871317,-0.06144226,-0.0032806592,0.9981052,-0.8140259,-0.05984497,9.464264,0
6153.92861379,0.57447433,0.81758815,0.039099425,-0.81608474,0.57579356,-0.049674325,-0.06312634,-0.003371821,0.9979999,0.56720376,0.82269377,0.038141966,-0.8211947,0.56847626,-0.049739625,-0.06260328,-0.0031094763,0.99803364,-0.7805023,-0.007171631,9.392441,0
6153.933038839,0.57443243,0.81761503,0.039153308,-0.81609654,0.57575583,-0.049915195,-0.063354164,-0.0032799712,0.99798566,0.5673104,0.82261056,0.038350496,-0.82107776,0.56859744,-0.050282102,-0.063168585,-0.0029631786,0.9979984,-0.9289398,-0.05984497,9.267944,0
6153.937463888,0.5745699,0.81752694,0.038976658,-0.81602466,0.57588106,-0.049647443,-0.06303404,-0.003279992,0.99800605,0.56744933,0.8225156,0.03833204,-0.8209735,0.56873536,-0.050424185,-0.06327547,-0.0028564224,0.99799204,-0.8571167,-0.002380371,9.315826,0
6153.941888936,0.58871853,0.80737364,0.039475057,-0.8059289,0.5900311,-0.04839154,-0.06236157,-0.0033250996,0.998048,0.5676398,0.82239324,0.03813681,-0.8208728,0.56891215,-0.050069217,-0.06287308,-0.0028841887,0.9980174,-0.6943054,0.06942749,9.646225,0
6153.946313985,0.5890496,0.8071533,0.039039414,-0.80575264,0.5903321,-0.047650907,-0.061507814,-0.0033873643,0.9981008,0.5681295,0.82206947,0.03782408,-0.8205905,0.5693793,-0.049380414,-0.06213038,-0.0029836122,0.99806356,-0.59854126,-0.04548645,9.847351,0
6153.950739034,0.58924013,0.8070264,0.038788617,-0.80566907,0.59050447,-0.04692529,-0.060774796,-0.0036005243,0.99814504,0.5686026,0.8217596,0.037446484,-0.82032245,0.56982625,-0.048673242,-0.06133569,-0.0030424614,0.9981125,-0.5506592,-0.12689209,10.014938,0
6153.955164083,0.5717041,0.8196038,0.037468378,-0.81824404,0.57291925,-0.047328237,-0.060256768,-0.003600531,0.9981764,0.56906736,0.8214491,0.037198775,-0.8200569,0.5702727,-0.04791386,-0.06057224,-0.0032388982,0.9981586,-0.4453125,-0.05984497,10.187317,0
6153.959589132,0.57173586,0.8195838,0.037426554,-0.81822765,0.57294816,-0.047264643,-0.0601808,-0.0036005473,0.9981809,0.5691751,0.821385,0.036963813,-0.8200131,0.57036495,-0.04756352,-0.060150824,-0.0032388414,0.998184,-0.43095398,-0.04069519,10.230423,0
6153.963983663,0.5717494,0.8195751,0.0374087,-0.81820923,0.5729612,-0.0474246,-0.06030175,-0.0034931602,0.9981741,0.5692233,0.8213532,0.03692963,-0.8199807,0.57041097,-0.047571737,-0.060138263,-0.0032026405,0.9981849,-0.3256073,0.05984497,10.149017,0
6153.968408712,0.57155013,0.81970197,0.03767152,-0.81830996,0.5727798,-0.047875755,-0.060821336,-0.0034635905,0.99814266,0.56923646,0.82134,0.03701868,-0.8199532,0.5704303,-0.04781282,-0.06038716,-0.0031367843,0.9981701,-0.5458679,-0.06463623,10.038879,0
6153.972833761,0.57134616,0.8198318,0.03794066,-0.81841266,0.5725942,-0.048339605,-0.061354943,-0.0034324662,0.9981101,0.569253,0.8213166,0.03728377,-0.8199033,0.57046425,-0.048261575,-0.060907092,-0.0030960354,0.99813867,-0.6081238,-0.01675415,9.938324,0
6153.977258809,0.57111156,0.81998086,0.038249984,-0.81853735,0.57238054,-0.048756596,-0.061873015,-0.003463582,0.998078,0.56927353,0.82128763,0.037605975,-0.81984574,0.5705059,-0.0487428,-0.061486293,-0.003083115,0.99810314,-0.6224823,-0.06942749,9.651016,0
6153.981683858,0.5763663,0.8162709,0.038777925,-0.8148223,0.57765865,-0.048733555,-0.062180184,-0.003508741,0.9980587,0.56924933,0.82129097,0.037898764,-0.81982654,0.5705011,-0.04912322,-0.061965745,-0.003107048,0.99807346,-0.6368561,-0.10772705,9.612717,0
6153.986108907,0.57634944,0.8162818,0.038799234,-0.81482977,0.5776434,-0.04879262,-0.06224064,-0.0034931689,0.9980551,0.5694046,0.821174,0.038101155,-0.8196949,0.57066935,-0.049364228,-0.062279776,-0.0031231046,0.99805385,-0.7565613,-0.05027771,9.651016,0
6153.990533956,0.5764164,0.81623846,0.038714584,-0.8147939,0.5777044,-0.048664924,-0.062087778,-0.0034931474,0.9980645,0.5694046,0.821174,0.038101155,-0.8196949,0.57066935,-0.049364228,-0.062279776,-0.0031231046,0.99805385,-0.7565613,-0.05027771,9.651016,0
6153.994959005,0.5266613,0.8493336,0.03550257,-0.84783167,0.5278453,-0.050605867,-0.061721124,-0.0034480554,0.9980875,0.5696488,0.82100767,0.038033854,-0.8195426,0.5709082,-0.049129587,-0.062049612,-0.0031837544,0.998068,-0.6416321,0.002380371,9.588776,0
6153.999384054,0.5268416,0.84923095,0.0352822,-0.8477494,0.52801055,-0.05025797,-0.06130999,-0.0034324757,0.99811286,0.56887156,0.8215608,0.037722826,-0.82011354,0.5701123,-0.0488447,-0.061635133,-0.0031506405,0.9980938,-0.6512146,-0.08857727,9.928741,0
6154.003809102,0.5270329,0.84912187,0.035048287,-0.8476603,0.5281861,-0.04991662,-0.06089731,-0.0034013367,0.9981383,0.5680596,0.82213604,0.037425406,-0.8207061,0.56928253,-0.048568137,-0.061235245,-0.0031256652,0.99811846,-0.51234436,-0.03111267,9.909592,0
6154.008234151,0.592691,0.8044932,0.03883396,-0.8031395,0.59395176,-0.046778966,-0.060698863,-0.0034636164,0.9981501,0.567299,0.8226739,0.03714007,-0.821261,0.568505,-0.048294637,-0.06084506,-0.0031041917,0.99814236,-0.58895874,-0.16519165,9.981415,0
6154.0126592,0.5927018,0.804486,0.03881909,-0.8031349,0.5939615,-0.04673402,-0.060653906,-0.0034776295,0.9981528,0.5678153,0.8223207,0.037075043,-0.8209174,0.56901586,-0.048121117,-0.060667273,-0.0031116467,0.9981532,-0.47883606,-0.09815979,9.923965,0
6154.017084249,0.5926299,0.8045341,0.038917962,-0.80317646,0.59389615,-0.046850212,-0.060805827,-0.003493157,0.99814355,0.56831896,0.82197076,0.0371153,-0.8205702,0.569521,-0.048066597,-0.06064728,-0.0031385457,0.9981543,-0.5171356,-0.03590393,10.029297,0
6154.021509298,0.58259964,0.81184447,0.03855037,-0.81046313,0.58386266,-0.047474615,-0.061050132,-0.0035849605,0.9981283,0.5688074,0.82162625,0.037262067,-0.82021856,0.5700178,-0.048179023,-0.06082519,-0.0031584552,0.99814343,-0.59854126,-0.13645935,9.895233,0
6154.025934347,0.58244133,0.8119477,0.038768988,-0.81055385,0.5837187,-0.0476936,-0.061354894,-0.0036456308,0.9981093,0.569022,0.82146734,0.037489336,-0.82004887,0.5702465,-0.048360486,-0.061104722,-0.0032249056,0.99812615,-0.5793915,-0.11251831,9.8138275,0
6154.030359395,0.5823816,0.81198657,0.03885146,-0.810584,0.5836648,-0.047841962,-0.061523262,-0.0036300903,0.99809897,0.56930274,0.8212635,0.037691325,-0.81983244,0.57053983,-0.048570737,-0.061393775,-0.0032491137,0.9981083,-0.6033325,0.05027771,9.84256,0
6154.034784444,0.5158938,0.85593873,0.034964245,-0.8544317,0.51706463,-0.050898924,-0.06164513,-0.003616116,0.9980916,0.569563,0.8210767,0.037829783,-0.81963867,0.5708085,-0.04868383,-0.061566718,-0.0032782485,0.9980976,-0.6703644,-0.20350647,9.742004,0
6154.039209493,0.51592284,0.85592264,0.03492876,-0.8544173,0.5170913,-0.05086658,-0.06159922,-0.00360051,0.9980944,0.56853604,0.82179064,0.03777463,-0.8203431,0.5697805,-0.048860602,-0.06167643,-0.0032091439,0.99809104,-0.727829,-0.011962891,9.765945,0
6154.043634542,0.51592696,0.8559204,0.034923706,-0.8544138,0.51709515,-0.05088773,-0.061614726,-0.0035849474,0.99809355,0.5674726,0.822531,0.037652183,-0.82108617,0.5687113,-0.048836693,-0.06158291,-0.0032022034,0.9980968,-0.65600586,0.011962891,9.928741,0
6154.048059591,0.5800816,0.8136364,0.03874383,-0.8122362,0.5813622,-0.047857482,-0.061462793,-0.003707902,0.9981025,0.56644917,0.8232412,0.03754038,-0.82179904,0.56768274,-0.048811864,-0.06149496,-0.0032012102,0.99810225,-0.58895874,-0.06463623,9.756363,0
6154.052484639,0.5802044,0.8135565,0.038583126,-0.812167,0.5814743,-0.047671407,-0.06121848,-0.003676781,0.9981177,0.5667395,0.8230399,0.037571717,-0.8216093,0.5679739,-0.048618242,-0.06135451,-0.0033153922,0.99811053,-0.54107666,0.03590393,9.837769,0
6154.056909688,0.5802644,0.81351745,0.03850468,-0.8121379,0.58152866,-0.04750116,-0.0610346,-0.0037078839,0.9981287,0.5667395,0.8230399,0.037571717,-0.8216093,0.5679739,-0.048618242,-0.06135451,-0.0033153922,0.99811053,-0.54107666,0.03590393,9.837769,0
6154.061334737,0.58028686,0.81350285,0.038475227,-0.8121242,0.5815492,-0.047483988,-0.0610036,-0.0036923315,0.9981307,0.5667395,0.8230399,0.037571717,-0.8216093,0.5679739,-0.048618242,-0.06135451,-0.0033153922,0.99811053,-0.54107666,0.03590393,9.837769,0
6154.065759786,0.5450364,0.83762085,0.036423076,-0.83619016,0.5462395,-0.049076952,-0.0610036,-0.003707891,0.9981307,0.5675276,0.8225033,0.037426796,-0.82109374,0.5687505,-0.04824913,-0.060971573,-0.0033481966,0.9981339,-0.58895874,-0.07899475,9.900009,0
6154.070184835,0.5450022,0.8376413,0.036466625,-0.8362047,0.5462084,-0.049176417,-0.061110567,-0.0036923075,0.9981242,0.5670966,0.82280093,0.037417088,-0.8213885,0.56831986,-0.048306584,-0.061011575,-0.003339466,0.99813145,-0.5602417,-0.03590393,9.885651,0
6154.074609884,0.57591677,0.81660545,0.03840981,-0.815206,0.5771843,-0.047930595,-0.06130993,-0.0037078792,0.9981119,0.56663615,0.8231161,0.037461624,-0.8216973,0.56786335,-0.04842373,-0.061131425,-0.0033434774,0.9981241,-0.6655731,-0.09815979,9.751572,0
6154.079034932,0.5758789,0.81662995,0.038456492,-0.81522477,0.5771497,-0.048028037,-0.061416294,-0.003692353,0.9981054,0.56680346,0.82299596,0.037570473,-0.8215678,0.56803745,-0.04857887,-0.06132165,-0.003332019,0.9981125,-0.6033325,0.002380371,9.794678,0
6154.083459981,0.5758957,0.81661916,0.03843578,-0.81521416,0.5771652,-0.048023615,-0.061400797,-0.0036767968,0.9981064,0.5669817,0.82286936,0.037655026,-0.8214368,0.56822085,-0.04864925,-0.061428342,-0.0033479899,0.9981059,-0.5650177,0.011962891,9.832977,0
6154.08788503,0.53770876,0.84235394,0.036181424,-0.8408919,0.5389122,-0.04974416,-0.061400797,-0.0036767968,0.9981064,0.5671739,0.8227367,0.037658677,-0.82129824,0.5684133,-0.048740704,-0.06150645,-0.0032845454,0.9981013,-0.6033325,-0.04069519,9.789886,0
6154.092310079,0.537715,0.8423503,0.036173686,-0.840889,0.53891784,-0.049731385,-0.061385892,-0.003676743,0.9981073,0.5665582,0.82316047,0.03766335,-0.82172155,0.567799,-0.04876429,-0.06152605,-0.0033209806,0.9980999,-0.5602417,-0.03590393,9.866501,0
6154.096735128,0.53776664,0.8423201,0.03610941,-0.84086156,0.5389653,-0.049682092,-0.061309945,-0.0036456413,0.99811214,0.5660352,0.8235216,0.037635226,-0.8220873,0.567275,-0.048699424,-0.06145455,-0.0033738504,0.9981042,-0.65600586,-0.03590393,9.880859,0
6154.101160177,0.5675467,0.82247156,0.03783297,-0.8210565,0.56879485,-0.048360646,-0.061294448,-0.0036160816,0.99811316,0.565454,0.82392573,0.037525427,-0.8224936,0.56668794,-0.048673406,-0.06136848,-0.0033418522,0.9981096,-0.55545044,0.03590393,9.70369,0
6154.105585225,0.5675467,0.82247156,0.03783297,-0.8210565,0.56879485,-0.048360646,-0.061294448,-0.0036160816,0.99811316,0.5655205,0.8238814,0.037497807,-0.82245386,0.5667523,-0.048594896,-0.061288398,-0.0033588088,0.9981144,-0.59854126,-0.05027771,9.751572,0
6154.110010274,0.567563,0.82246125,0.037812266,-0.82104635,0.56880975,-0.048356034,-0.06127895,-0.0036005254,0.99811417,0.5655705,0.82384837,0.037468787,-0.822422,0.5668004,-0.048573002,-0.061254114,-0.0033437,0.99811655,-0.58418274,0.026321411,9.794678,0
6154.114435323,0.61025757,0.79117614,0.04032345,-0.7898307,0.6115777,-0.046263434,-0.06126345,-0.0036160885,0.9981151,0.56559086,0.8238324,0.037512314,-0.82240504,0.5668235,-0.04859119,-0.06129386,-0.003367581,0.9981141,-0.55545044,-0.07421875,9.943115,0
6154.118860372,0.61026603,0.79117024,0.040311616,-0.7898241,0.6115854,-0.04627254,-0.06126345,-0.003600529,0.9981151,0.5665483,0.8231685,0.03763696,-0.82174176,0.5677868,-0.048565634,-0.06134747,-0.0034130828,0.9981106,-0.6320648,-0.02154541,10.043671,0
6154.123285421,0.61026603,0.79117024,0.040311616,-0.7898241,0.6115854,-0.04627254,-0.06126345,-0.003600529,0.9981151,0.5674332,0.82255566,0.037706245,-0.82112586,0.5686745,-0.048596177,-0.061415646,-0.003386489,0.99810654,-0.5793915,-0.026321411,9.856918,0
6154.12771047,0.56339467,0.82533455,0.037540983,-0.8239122,0.5646328,-0.04856465,-0.061278954,-0.0035694062,0.9981143,0.568295,0.82195777,0.037765197,-0.8205244,0.5695386,-0.04863692,-0.061486237,-0.0033471447,0.9981023,-0.6655731,0.03111267,9.866501,0
6154.132135518,0.56343204,0.8253112,0.037493017,-0.82388663,0.5646672,-0.04859729,-0.061278973,-0.0035087243,0.9981145,0.5681828,0.82203335,0.03780815,-0.82059515,0.5694295,-0.048719443,-0.06157808,-0.0033436324,0.99809664,-0.59375,0.11251831,9.852127,0
6154.136560567,0.5634985,0.82526964,0.03740781,-0.8238479,0.56472814,-0.048544455,-0.06118752,-0.0034636206,0.99812025,0.56806076,0.8221178,0.037806064,-0.82067424,0.56930786,-0.048809677,-0.061650593,-0.0032995988,0.99809235,-0.58418274,-0.11730957,9.799454,0
6154.140985616,0.5748517,0.8173706,0.038087852,-0.8159666,0.5761016,-0.04801376,-0.06118752,-0.0034776244,0.99812025,0.56795424,0.8221968,0.037688736,-0.82075363,0.5691942,-0.04880029,-0.06157565,-0.0032168375,0.99809724,-0.59854126,-0.09815979,9.74678,0
6154.145410665,0.5748517,0.8173706,0.038087852,-0.8159666,0.5761016,-0.04801376,-0.06118752,-0.0034776244,0.99812025,0.5680915,0.8221034,0.037657015,-0.8206644,0.5693291,-0.048727095,-0.061497945,-0.0032223235,0.998102,-0.58895874,-0.011962891,9.832977,0
6154.149835714,0.5748227,0.8173894,0.038124368,-0.81598717,0.57607484,-0.047988173,-0.06118751,-0.0035243034,0.99812007,0.5682021,0.8220301,0.037586965,-0.8205949,0.56943494,-0.04865974,-0.061403107,-0.003195107,0.9981079,-0.6033325,-0.16040039,9.761154,0
6154.154260763,0.59471947,0.80297357,0.039271403,-0.8016026,0.5960043,-0.047032785,-0.06117201,-0.003508747,0.998121,0.5683629,0.82191974,0.037569817,-0.8204894,0.56959414,-0.04857535,-0.06132459,-0.0032172124,0.9981127,-0.5793915,0.011962891,9.967056,0
6154.158685811,0.5947106,0.8029795,0.039283402,-0.8016092,0.59599614,-0.04702393,-0.06117201,-0.003524307,0.998121,0.56890625,0.82154286,0.037590962,-0.8201175,0.5701376,-0.0484826,-0.061262555,-0.0032469458,0.99811643,-0.58418274,-0.08378601,9.794678,0
6154.16311086,0.59472346,0.80297077,0.039265927,-0.8016018,0.5960078,-0.046998955,-0.0611416,-0.0035242583,0.9981228,0.5694309,0.8211761,0.037659332,-0.81975174,0.5706654,-0.048456997,-0.06128261,-0.0032783914,0.99811506,-0.5219269,-0.03590393,9.876068,0
6154.167535909,0.59707886,0.8012152,0.03938222,-0.79985017,0.5983659,-0.046880193,-0.06112611,-0.0035087024,0.9981239,0.5699131,0.82084054,0.03768176,-0.819415,0.57114816,-0.048465434,-0.061304256,-0.0032559107,0.9981138,-0.55545044,-0.01675415,9.914383,0
6154.171960958,0.59705293,0.8012328,0.039416917,-0.79986954,0.59834206,-0.04685441,-0.061126094,-0.0035538245,0.9981237,0.5704975,0.8204309,0.03775895,-0.81900615,0.5717362,-0.048441894,-0.061331388,-0.0032888318,0.998112,-0.61769104,-0.15083313,10.038879,0
6154.176386007,0.59706104,0.8012274,0.03940615,-0.7998636,0.5983496,-0.046862416,-0.061126098,-0.0035398211,0.99812376,0.5710618,0.8200362,0.037803374,-0.81860983,0.5723023,-0.048456572,-0.0613711,-0.0032745148,0.99810964,-0.6081238,0.03111267,9.670166,0
6154.180811056,0.5970373,0.8012435,0.039437793,-0.79988015,0.5983278,-0.04685825,-0.061141595,-0.0035693808,0.99812275,0.5716073,0.8196534,0.03786055,-0.8182283,0.5728503,-0.048426054,-0.06138101,-0.0032978882,0.998109,-0.6416321,-0.14604187,9.804245,0
6154.185236104,0.59702843,0.80124956,0.03944976,-0.7998867,0.5983196,-0.046849363,-0.061141588,-0.00358494,0.9981226,0.5721275,0.81928676,0.03793887,-0.8178627,0.57337433,-0.04840018,-0.061406802,-0.0033377106,0.99810725,-0.58895874,-0.06463623,9.66539,0
6154.189661153,0.59703505,0.801245,0.03944084,-0.79988295,0.59832567,-0.046836637,-0.06112609,-0.0035849437,0.99812365,0.57257193,0.8189762,0.037938993,-0.8175549,0.57381785,-0.048343062,-0.061361887,-0.0033373302,0.99811,-0.5602417,-0.04548645,9.852127,0
6154.194086202,0.56828547,0.82196313,0.03779176,-0.82055783,0.56952906,-0.04818047,-0.061126076,-0.0036300658,0.9981234,0.57304966,0.81864285,0.037919756,-0.8172228,0.5742934,-0.048310958,-0.06132649,-0.0033043115,0.99811226,-0.59854126,-0.13166809,9.70369,0
6154.198511251,0.568287,0.8219622,0.03778977,-0.8205556,0.56953067,-0.04820186,-0.061142534,-0.0036161153,0.9981225,0.57292765,0.81873006,0.03788128,-0.8173113,0.57416916,-0.04829146,-0.061287932,-0.0032932886,0.9981147,-0.6607971,0.011962891,9.789886,0
6154.2029363,0.56829005,0.8219603,0.037785992,-0.8205524,0.5695335,-0.04822332,-0.06115804,-0.0036005522,0.9981216,0.57282203,0.818805,0.037859343,-0.8173882,0.5740623,-0.048261,-0.06124997,-0.0033008172,0.998117,-0.6416321,-0.01675415,9.890442,0
6154.207361348,0.59940946,0.7994623,0.039602276,-0.7981039,0.60070544,-0.046722945,-0.061142534,-0.0036005555,0.9981225,0.57270443,0.8188884,0.03783284,-0.8174729,0.57394326,-0.048241742,-0.06121851,-0.0032990605,0.99811894,-0.56980896,-0.05027771,9.880859,0
6154.211786397,0.59943205,0.7994469,0.039571833,-0.79808944,0.6007261,-0.046705738,-0.06111059,-0.003584947,0.9981246,0.5732776,0.8184857,0.037868433,-0.81707215,0.57451737,-0.048196204,-0.061203975,-0.0033114399,0.9981198,-0.49798584,0.007171631,9.804245,0
6154.216211446,0.59937996,0.7994824,0.03964197,-0.7981238,0.6006785,-0.046730112,-0.061171986,-0.0036301126,0.99812067,0.57381624,0.81810653,0.0379027,-0.81669176,0.57505727,-0.048204575,-0.061232705,-0.0032942554,0.9981181,-0.7709198,-0.15560913,9.923965,0
6154.220636495,0.6012167,0.79809654,0.039756574,-0.7967435,0.60251856,-0.046596438,-0.06114252,-0.0036612381,0.9981223,0.5743699,0.81771874,0.037883993,-0.81630325,0.5756088,-0.04820167,-0.061221775,-0.0032392375,0.99811894,-0.5458679,-0.09336853,9.84256,0
6154.225061544,0.6012167,0.79809654,0.039756574,-0.7967435,0.60251856,-0.046596438,-0.06114252,-0.0036612381,0.9981223,0.57487696,0.8173588,0.037961747,-0.81594545,0.5761196,-0.048158318,-0.061233133,-0.0032896094,0.99811804,-0.5793915,-0.05027771,9.828186,0
6154.229486593,0.6012167,0.79809654,0.039756574,-0.7967435,0.60251856,-0.046596438,-0.06114252,-0.0036612381,0.9981223,0.57543564,0.8169607,0.038067188,-0.8155469,0.57668376,-0.048157174,-0.061295245,-0.003334226,0.9981141,-0.59854126,-0.011962891,9.789886,0
6154.233911641,0.557118,0.8296026,0.03713564,-0.8281806,0.5583425,-0.048687976,-0.061126076,-0.0036300658,0.9981234,0.5759647,0.81658846,0.038053587,-0.8151743,0.57721096,-0.048149724,-0.061283454,-0.0032877678,0.99811494,-0.5650177,0.04069519,9.84256,0
6154.23833669,0.557102,0.82961243,0.03715689,-0.82819027,0.5583279,-0.04869359,-0.06114253,-0.0036456787,0.99812245,0.5755912,0.8168528,0.03803078,-0.81543934,0.5768368,-0.04814572,-0.06126552,-0.0032995439,0.9981161,-0.65600586,-0.09336853,9.818619,0
6154.242761739,0.55707717,0.82962763,0.037189975,-0.82820576,0.558305,-0.04869013,-0.061158024,-0.0036767945,0.9981213,0.5752105,0.81712484,0.037944954,-0.81570905,0.5764516,-0.04818899,-0.061249852,-0.00323323,0.9981172,-0.6368561,-0.10293579,9.890442,0
6154.247186788,0.55638134,0.8300962,0.037149068,-0.8286733,0.557608,-0.048721343,-0.061158024,-0.0036767945,0.9981213,0.57483834,0.81738794,0.037920643,-0.81597126,0.5760787,-0.048211582,-0.061252836,-0.0032282853,0.9981171,-0.6033325,-0.05505371,9.86171,0
6154.251611837,0.5563595,0.8301096,0.0371772,-0.8286857,0.557588,-0.04873803,-0.061187465,-0.003692347,0.99811935,0.57446533,0.81765276,0.037861887,-0.81623495,0.5757028,-0.048236333,-0.061237764,-0.0031940932,0.99811804,-0.67515564,-0.07421875,9.818619,0
6154.256036886,0.55637556,0.83009976,0.037156533,-0.82867616,0.5576028,-0.048733164,-0.06117197,-0.0036767912,0.9981205,0.5741077,0.8179055,0.03782776,-0.81649023,0.5753436,-0.048202053,-0.061188683,-0.0032128226,0.998121,-0.59375,-0.002380371,9.981415,0
6154.260461934,0.5689209,0.82151896,0.03788975,-0.8201162,0.57016927,-0.048129074,-0.061142515,-0.0036923576,0.9981222,0.57378227,0.8181366,0.03776955,-0.81672376,0.5750151,-0.048166092,-0.0611245,-0.0032104338,0.998125,-0.50756836,-0.05505371,9.828186,0
6154.264886983,0.56893003,0.8215132,0.03787748,-0.82010984,0.5701776,-0.04813754,-0.061142515,-0.0036767977,0.9981222,0.57368004,0.81820875,0.03775764,-0.8167923,0.57491255,-0.04822877,-0.06116854,-0.003172262,0.99812245,-0.6081238,-0.002380371,9.856918,0
6154.269312032,0.56890535,0.8215288,0.037910506,-0.8201259,0.570155,-0.04813362,-0.061158016,-0.003707914,0.99812126,0.573558,0.81828964,0.037860338,-0.8168718,0.574797,-0.048258428,-0.06125138,-0.0032480399,0.9981171,-0.6512146,-0.11730957,9.828186,0
6154.273737081,0.56333977,0.82536805,0.03762896,-0.82395774,0.5645826,-0.048375145,-0.061171956,-0.0037530335,0.9981202,0.5734639,0.8183546,0.03787887,-0.81693566,0.57470435,-0.048280913,-0.061280064,-0.0032572374,0.9981153,-0.6224823,-0.17955017,9.732422,0
6154.27816213,0.56332564,0.82537687,0.037645694,-0.8239651,0.56456965,-0.048401333,-0.061202962,-0.0037530265,0.99811834,0.5732535,0.8185007,0.037909266,-0.81708205,0.57449615,-0.04828193,-0.06129752,-0.0032971927,0.9981141,-0.71347046,-0.026321411,9.981415,0
6154.282587179,0.5632949,0.82539624,0.03768222,-0.8239828,0.5645413,-0.048430976,-0.06124791,-0.0037685756,0.9981155,0.5730725,0.81862706,0.03791791,-0.8172068,0.5743161,-0.048311852,-0.061326254,-0.0033005853,0.9981123,-0.727829,-0.05505371,9.804245,0
6154.287012227,0.53674453,0.84297216,0.03609868,-0.8415198,0.53794396,-0.04960411,-0.06123396,-0.003753019,0.9981164,0.5728806,0.81876135,0.03791601,-0.81734014,0.5741245,-0.048333567,-0.06134217,-0.0033009117,0.99811137,-0.5458679,-0.011962891,9.799454,0
6154.291437276,0.53674096,0.84297436,0.03610324,-0.84152335,0.5379406,-0.04958284,-0.061218455,-0.0037685821,0.99811727,0.57217133,0.8192583,0.037892897,-0.8178348,0.57341516,-0.04838657,-0.06136946,-0.0033047209,0.99810964,-0.5506592,-0.07899475,9.761154,0
6154.295862325,0.5367389,0.84297556,0.03610588,-0.84152246,0.5379388,-0.049616102,-0.06124791,-0.0037530158,0.9981155,0.5714944,0.81973314,0.03783699,-0.8183085,0.57273614,-0.048420064,-0.061362147,-0.0032905373,0.9981101,-0.6703644,0.01675415,9.809036,0
6154.300287374,0.57784945,0.81523514,0.038494434,-0.81384426,0.5791182,-0.04774775,-0.061218463,-0.0037374632,0.9981174,0.5708497,0.8201841,0.03779708,-0.81875926,0.57209015,-0.04843647,-0.061350163,-0.0032967648,0.99811083,-0.55545044,0.007171631,9.804245,0
6154.304681905,0.57785916,0.81522876,0.0384823,-0.8138373,0.57912713,-0.04775632,-0.06121847,-0.0037219038,0.99811745,0.57099634,0.82008106,0.03781889,-0.81865525,0.5722379,-0.048449274,-0.061373737,-0.0032962754,0.9981094,-0.58418274,-0.026321411,9.900009,0
6154.309106954,0.5778437,0.81523883,0.0385015,-0.81385064,0.57911277,-0.047704734,-0.061187457,-0.0037685896,0.99811924,0.57116103,0.8199636,0.03788015,-0.81853807,0.57240605,-0.04844397,-0.06140512,-0.0033370377,0.9981074,-0.5793915,-0.007171631,9.880859,0
6154.313532003,0.5778604,0.815228,0.03848077,-0.8138399,0.5791281,-0.04770036,-0.061171956,-0.0037530335,0.9981202,0.57116103,0.8199636,0.03788015,-0.81853807,0.57240605,-0.04844397,-0.06140512,-0.0033370377,0.9981074,-0.5793915,-0.007171631,9.880859,0
6154.317957052,0.5650821,0.82417005,0.037761707,-0.8227615,0.56632984,-0.048312083,-0.061202955,-0.0037685859,0.9981182,0.57141614,0.8197881,0.03782892,-0.81836814,0.5726573,-0.04834442,-0.06129519,-0.0033331981,0.9981141,-0.67515564,-0.07899475,9.794678,0
6154.3223821,0.5650769,0.82417333,0.037768196,-0.8227673,0.56632483,-0.04827003,-0.06117194,-0.003798156,0.99811995,0.5712933,0.8198747,0.037808474,-0.8184538,0.57253337,-0.04836234,-0.061297677,-0.0033154069,0.99811405,-0.5506592,-0.11730957,9.962265,0
6154.326807149,0.5517626,0.83318084,0.036983386,-0.8317536,0.55298764,-0.048892256,-0.061187446,-0.003784149,0.99811906,0.5711589,0.8199691,0.037791874,-0.81854844,0.5723982,-0.048360795,-0.061286356,-0.003312782,0.9981147,-0.6224823,0.002380371,9.885651,0
6154.331232198,0.55174977,0.8331886,0.036999833,-0.8317599,0.5529761,-0.04891862,-0.061218455,-0.003784142,0.99811727,0.5707773,0.8202354,0.03777888,-0.81881326,0.5720166,-0.0483933,-0.061304044,-0.0033120466,0.99811363,-0.6943054,-0.05984497,9.799454,0
6154.335657247,0.55173135,0.83319974,0.03702342,-0.8317721,0.552959,-0.048903055,-0.061218448,-0.0038137052,0.9981171,0.5704096,0.82049036,0.037793733,-0.81906784,0.5716505,-0.048409365,-0.061324228,-0.0033424662,0.99811226,-0.58895874,-0.09336853,9.919174,0
6154.340082296,0.54624295,0.8368238,0.03667057,-0.8353891,0.54745924,-0.049128395,-0.061187442,-0.0037981526,0.998119,0.5700408,0.82074755,0.037772834,-0.81932074,0.5712813,-0.048488997,-0.061376147,-0.00330736,0.9981092,-0.5602417,-0.007171631,9.847351,0
6154.344507345,0.5462307,0.8368309,0.03668742,-0.8353981,0.5474479,-0.0490989,-0.061171938,-0.0038292755,0.9981199,0.5695513,0.821088,0.037760526,-0.8196611,0.57079196,-0.048500545,-0.06137662,-0.0033272835,0.9981091,-0.5506592,-0.09815979,9.876068,0
6154.348932393,0.54625106,0.8368189,0.036659308,-0.8353836,0.5474667,-0.049135715,-0.061187446,-0.003784149,0.99811906,0.5691018,0.82140106,0.037729427,-0.81997424,0.57034135,-0.04850745,-0.06136272,-0.0033314843,0.99811,-0.64642334,0.07899475,9.718063,0
6154.353357442,0.560869,0.8270546,0.03750551,-0.82564044,0.56210893,-0.048491683,-0.061187457,-0.0037685896,0.99811924,0.56859565,0.82175344,0.037687328,-0.8203269,0.5698335,-0.048513293,-0.06134147,-0.0033314829,0.99811125,-0.6033325,-0.03590393,9.818619,0
6154.357782491,0.56083715,0.82707435,0.03754562,-0.8256597,0.56207967,-0.048502073,-0.06121845,-0.0037981456,0.99811715,0.5684256,0.82187176,0.037672564,-0.8204418,0.56966305,-0.048573714,-0.06138203,-0.0032976028,0.9981089,-0.6799469,-0.08378601,9.765945,0
6154.36220754,0.5608274,0.8270805,0.037557937,-0.8256664,0.5620706,-0.048493754,-0.061218448,-0.0038137052,0.9981171,0.56829816,0.82196194,0.037626952,-0.8205295,0.5695332,-0.048613988,-0.06138865,-0.0032467812,0.9981087,-0.5746002,-0.08857727,9.799454,0
6154.366632589,0.58244765,0.81194043,0.03882615,-0.8105597,0.5837278,-0.04748445,-0.061218448,-0.0038137052,0.9981171,0.56813043,0.82208145,0.03754724,-0.8206515,0.56936073,-0.048575386,-0.06131085,-0.0032160361,0.9981135,-0.6224823,-0.05505371,9.785095,0
6154.371057638,0.5824703,0.81192565,0.038796663,-0.81054574,0.5837485,-0.047467344,-0.061187442,-0.0037981526,0.998119,0.5684719,0.8218446,0.037565906,-0.82041657,0.5697026,-0.048534848,-0.061289497,-0.0032289922,0.9981148,-0.53630066,0.007171631,9.9048,0
6154.375482686,0.5824906,0.81191236,0.03877023,-0.8105301,0.5837674,-0.04750534,-0.061202962,-0.0037530265,0.99811834,0.56875354,0.8216497,0.03756557,-0.8202214,0.5699838,-0.048531253,-0.061287455,-0.003209763,0.998115,-0.62727356,0.10293579,9.847351,0
6154.379907735,0.5728685,0.81875616,0.038209785,-0.8173603,0.57412905,-0.0479387,-0.061187457,-0.0037685896,0.99811924,0.5690458,0.82144487,0.037619703,-0.8200182,0.57027864,-0.048502225,-0.061295617,-0.0032488555,0.99811435,-0.5793915,-0.07421875,9.876068,0
6154.384332784,0.5728716,0.8187542,0.038205765,-0.81736034,0.5741317,-0.047905535,-0.061158,-0.0037841562,0.99812096,0.5691588,0.82136863,0.037573725,-0.8199408,0.57038873,-0.04851515,-0.06128045,-0.003195405,0.9981154,-0.48840332,-0.08857727,9.789886,0
6154.388757833,0.5728698,0.81875545,0.038208216,-0.81736284,0.57413,-0.047884896,-0.061142493,-0.0037981633,0.99812186,0.5692691,0.82129276,0.03756247,-0.8198634,0.5704982,-0.04853756,-0.061292868,-0.0031651615,0.9981148,-0.5793915,-0.06463623,9.8138275,0
6154.393182882,0.57288444,0.8187461,0.03818903,-0.8173503,0.5741436,-0.047934245,-0.061171956,-0.0037530335,0.9981202,0.5693313,0.82124877,0.037581798,-0.8198148,0.5705617,-0.04861046,-0.061364014,-0.0031346602,0.99811053,-0.6799469,0.08378601,9.775513,0
6154.397607931,0.5728713,0.81875443,0.038206123,-0.81735724,0.5741317,-0.047960192,-0.061202962,-0.0037530265,0.99811834,0.569373,0.8212173,0.03763625,-0.81978476,0.57060665,-0.048588887,-0.061377533,-0.0031884268,0.9981095,-0.67515564,-0.04069519,9.9048,0
6154.402032979,0.57288533,0.81874543,0.03818779,-0.817345,0.5741448,-0.04801084,-0.061233975,-0.0037078967,0.9981166,0.56946605,0.8211523,0.037647087,-0.8197179,0.57070035,-0.048618637,-0.061408505,-0.003173325,0.9981077,-0.6703644,0.08378601,9.646225,0
6154.406458028,0.56156147,0.8265838,0.037522197,-0.82516617,0.5628015,-0.0485328,-0.061233975,-0.0037078967,0.9981166,0.569495,0.8211332,0.037625603,-0.81969804,0.57072794,-0.048628993,-0.06140486,-0.0031476608,0.99810797,-0.6081238,-0.05505371,9.852127,0
6154.410883077,0.5615375,0.8265987,0.037553143,-0.8251815,0.5627794,-0.048528735,-0.061247922,-0.0037374566,0.99811566,0.5693579,0.82122815,0.03762834,-0.819795,0.57059103,-0.048599653,-0.061381802,-0.003176932,0.9981093,-0.64642334,-0.10293579,9.86171,0
6154.415308126,0.5615556,0.8265874,0.03752973,-0.825169,0.5627961,-0.048544575,-0.061247926,-0.0037078934,0.9981157,0.56914884,0.8213732,0.037625063,-0.819942,0.5703821,-0.048572738,-0.06135701,-0.003205256,0.9981107,-0.61769104,0.04069519,9.8138275,0
6154.419733175,0.5820901,0.8122001,0.038756825,-0.8108132,0.58336705,-0.047591686,-0.061263427,-0.0037218935,0.99811476,0.56899285,0.821483,0.037587,-0.82004935,0.57022417,-0.048615146,-0.06136954,-0.003161524,0.9981101,-0.65600586,-0.07421875,9.876068,0
6154.424158223,0.5821134,0.81218493,0.038725067,-0.8107976,0.5833884,-0.04759529,-0.06124793,-0.0036923338,0.9981158,0.56924844,0.8213066,0.03757381,-0.8198709,0.5704786,-0.048641764,-0.061384853,-0.0031164242,0.99810934,-0.5315094,0.01675415,9.828186,0
6154.428583272,0.5821086,0.81218815,0.0387316,-0.81080335,0.58338386,-0.047554366,-0.06121847,-0.0037219038,0.99811745,0.5694819,0.821145,0.0375666,-0.819707,0.5707114,-0.048672188,-0.061406605,-0.00307567,0.9981081,-0.53630066,-0.10772705,9.938324,0
6154.433008321,0.5648696,0.8243188,0.03769508,-0.82290626,0.5661139,-0.048377853,-0.061218474,-0.0036923403,0.99811757,0.56972915,0.82097286,0.037579034,-0.81953645,0.5709588,-0.048641782,-0.061389666,-0.003084748,0.9981091,-0.59375,0.04548645,9.761154,0
6154.43743337,0.5648497,0.82433146,0.037718322,-0.82291996,0.5660954,-0.048361994,-0.06121847,-0.0037219038,0.99811745,0.5696578,0.82102346,0.03755584,-0.8195873,0.5708862,-0.048638176,-0.061373193,-0.0030731694,0.9981102,-0.61291504,-0.11251831,9.66539,0
6154.441858419,0.5648497,0.82433146,0.037718322,-0.82291996,0.5660954,-0.048361994,-0.06121847,-0.0037219038,0.99811745,0.5695606,0.82108915,0.03759476,-0.81965256,0.57079154,-0.048649646,-0.061404463,-0.0031057228,0.99810815,-0.6081238,-0.03111267,9.880859,0
6154.446283468,0.5794539,0.81408954,0.03861841,-0.81270033,0.58072716,-0.047686584,-0.06124791,-0.0037530158,0.9981155,0.56944066,0.82117116,0.03762042,-0.81973445,0.5706734,-0.048654318,-0.061422497,-0.0031330101,0.99810696,-0.6799469,-0.14125061,9.823395,0
6154.450708516,0.57942134,0.8141107,0.03865994,-0.81272113,0.5806973,-0.04769521,-0.061278906,-0.0037841275,0.99811345,0.5696249,0.8210438,0.037611336,-0.8196053,0.5708568,-0.04867938,-0.06143859,-0.0030974622,0.99810606,-0.6607971,-0.11251831,9.698898,0
6154.455133565,0.5794197,0.81411195,0.03866223,-0.81272376,0.58069575,-0.04767456,-0.06126341,-0.0037981353,0.99811447,0.56984705,0.8208903,0.03759514,-0.8194517,0.5710776,-0.04867518,-0.06142673,-0.0030699978,0.9981069,-0.5602417,-0.05984497,9.708481,0
6154.459558614,0.57799745,0.8151274,0.038552668,-0.81373906,0.5792693,-0.04770552,-0.06121845,-0.0037981456,0.99811715,0.570058,0.82074094,0.03765926,-0.81930226,0.5712921,-0.048673578,-0.06146284,-0.0031075557,0.9981045,-0.50756836,-0.05984497,9.799454,0
6154.463983663,0.5779992,0.8151263,0.038550343,-0.81373674,0.57927096,-0.04772618,-0.061233956,-0.0037841385,0.9981163,0.5702263,0.82062626,0.03761028,-0.81918913,0.571457,-0.048642416,-0.061409898,-0.00307275,0.9981079,-0.6512146,0.02154541,9.856918,0
6154.468408712,0.57797945,0.815139,0.03857774,-0.81374854,0.579253,-0.04774295,-0.06126341,-0.0037981353,0.99811447,0.570354,0.8205365,0.037632465,-0.81910145,0.5715858,-0.04860594,-0.061393127,-0.0031022106,0.9981088,-0.6703644,-0.07899475,9.732422,0
6154.472833761,0.5493346,0.8347889,0.036866333,-0.83335596,0.55055726,-0.04903867,-0.061233956,-0.0037841385,0.9981163,0.5704797,0.82044774,0.037661605,-0.8190159,0.5717129,-0.048551727,-0.061365783,-0.003147681,0.99811035,-0.50756836,0.01675415,9.885651,0
6154.477258809,0.54935074,0.83477914,0.036845706,-0.83334637,0.5505721,-0.049033616,-0.061218455,-0.0037685821,0.99811727,0.5700692,0.8207363,0.037590895,-0.8193049,0.57129866,-0.04855174,-0.061323803,-0.0031205574,0.99811304,-0.58418274,-0.011962891,9.895233,0
6154.481683858,0.549358,0.83477473,0.036836382,-0.8333394,0.550579,-0.04907502,-0.061247922,-0.0037374566,0.99811566,0.5696696,0.8210177,0.037501197,-0.8195895,0.57089424,-0.048505627,-0.0612332,-0.0031034038,0.99811864,-0.70388794,0.04548645,10.067612,0
6154.486108907,0.5567746,0.82982737,0.037265744,-0.82840025,0.558008,-0.048786473,-0.061278924,-0.003707886,0.99811375,0.5692559,0.8213067,0.037458073,-0.8198767,0.5704787,-0.048543066,-0.061237775,-0.0030775738,0.99811846,-0.6607971,0.02154541,9.775513,0
6154.490533956,0.55673635,0.8298508,0.037313934,-0.828426,0.55797267,-0.048754256,-0.061278913,-0.0037685684,0.99811363,0.5690293,0.8214664,0.03739943,-0.82003677,0.57024884,-0.048537992,-0.06119931,-0.003049374,0.9981209,-0.6033325,-0.17955017,9.871292,0
6154.494959005,0.5567243,0.82985824,0.037329126,-0.8284353,0.5579615,-0.04872543,-0.06126341,-0.0037981353,0.99811447,0.56876403,0.8216484,0.03743391,-0.8202154,0.56998634,-0.048602153,-0.061270703,-0.003060716,0.99811643,-0.5650177,-0.10772705,9.670166,0
6154.499384054,0.53893495,0.84156466,0.036308017,-0.84011674,0.540143,-0.049493387,-0.061263394,-0.003829254,0.9981143,0.5684889,0.8218403,0.037401557,-0.8204079,0.5697098,-0.048595503,-0.06124578,-0.00305853,0.99811804,-0.59854126,-0.11251831,9.732422,0
6154.503809102,0.5389321,0.84156626,0.03631153,-0.8401162,0.5401405,-0.049527984,-0.061294403,-0.0038136872,0.99811244,0.5679286,0.82222813,0.037391454,-0.82079303,0.56915,-0.048653413,-0.061285548,-0.0030589818,0.9981156,-0.6703644,-0.026321411,9.828186,0
6154.508234151,0.538922,0.84157217,0.036324054,-0.84012276,0.5401312,-0.049519997,-0.061294403,-0.0038292469,0.99811244,0.56735927,0.8226229,0.03735064,-0.8211873,0.5685792,-0.048673797,-0.061276976,-0.0030563413,0.99811614,-0.6320648,-0.06463623,9.809036,0
6154.5126592,0.54983747,0.8344542,0.03694549,-0.8330208,0.55106413,-0.049037527,-0.061278902,-0.003813691,0.9981134,0.56676096,0.82303745,0.037301585,-0.82160145,0.567979,-0.048692662,-0.0612624,-0.0030499354,0.998117,-0.5602417,-0.01675415,9.847351,0
6154.517084249,0.5498106,0.8344703,0.036981765,-0.8330352,0.5510396,-0.049067575,-0.06132385,-0.0038292396,0.99811053,0.5664288,0.82326484,0.03732908,-0.82183117,0.56764895,-0.048664976,-0.06125398,-0.0031129569,0.9981174,-0.6990967,-0.05027771,9.679749,0
6154.521509298,0.54980683,0.8344725,0.036986835,-0.8330387,0.5510361,-0.049047522,-0.061309896,-0.0038448025,0.99811137,0.5660745,0.8235097,0.03730314,-0.8220755,0.5672937,-0.048680086,-0.06125036,-0.0031094442,0.99811757,-0.55545044,-0.08857727,9.847351,0
6154.525934347,0.5370298,0.84278524,0.036220882,-0.84133226,0.53823626,-0.049614664,-0.0613099,-0.0038292431,0.9981114,0.56576025,0.8237277,0.037255153,-0.82229525,0.566977,-0.04865769,-0.061203506,-0.003106148,0.9981205,-0.6224823,-0.01675415,9.909592,0
6154.530359395,0.5369961,0.8428049,0.036264524,-0.8413528,0.5382053,-0.049603514,-0.06132384,-0.0038743622,0.9981104,0.5651738,0.8241325,0.037204053,-0.8227023,0.5663884,-0.048632376,-0.061151467,-0.0031221162,0.9981236,-0.62727356,-0.12210083,9.718063,0
6154.534784444,0.5369726,0.84281856,0.03629501,-0.84136885,0.5381835,-0.04956761,-0.061309878,-0.003921044,0.99811107,0.56459653,0.82453054,0.037149936,-0.8231016,0.5658088,-0.0486232,-0.061111078,-0.0031256839,0.9981261,-0.5746002,-0.15560913,9.900009,0
6154.539209493,0.5006061,0.86500144,0.034146193,-0.86350346,0.50175387,-0.05103562,-0.06127887,-0.0039366107,0.99811286,0.5640495,0.8249056,0.03713323,-0.8234751,0.56526184,-0.048659842,-0.06112978,-0.0031317314,0.9981249,-0.5458679,-0.10772705,9.799454,0
6154.543634542,0.5005799,0.8650154,0.034178063,-0.86351764,0.5017296,-0.051035184,-0.061294366,-0.0039661704,0.99811184,0.562805,0.8257595,0.037038382,-0.8243289,0.5640138,-0.048686333,-0.06109336,-0.0031308958,0.99812716,-0.62727356,-0.12689209,9.804245,0
6154.548059591,0.5005754,0.8650178,0.034183476,-0.86352146,0.5017255,-0.05101415,-0.061278865,-0.0039817337,0.9981128,0.5616078,0.8265782,0.036948822,-0.8251454,0.5628133,-0.048747227,-0.061088685,-0.0031113317,0.9981275,-0.5793915,-0.05027771,9.871292,0
6154.552484639,0.5425039,0.8392552,0.036608487,-0.8378164,0.5437234,-0.049279973,-0.06126337,-0.003936615,0.9981139,0.5604182,0.82738876,0.036869284,-0.8259521,0.5616211,-0.048835058,-0.06111215,-0.0030842095,0.99812615,-0.52671814,0.06942749,9.737213,0
6154.556909688,0.54254115,0.83923304,0.036562983,-0.83779335,0.5437579,-0.0492908,-0.061247885,-0.0038899402,0.99811506,0.56002367,0.8276567,0.036850553,-0.82622164,0.5612262,-0.048816048,-0.06108442,-0.0031085825,0.99812776,-0.59854126,0.06942749,9.880859,0
6154.561334737,0.54252434,0.83924305,0.036583528,-0.8378031,0.54374236,-0.04929604,-0.06126338,-0.0039054956,0.998114,0.5596519,0.82790947,0.036820352,-0.8264733,0.56085324,-0.048842028,-0.061087597,-0.0030965065,0.99812764,-0.70388794,0.04069519,9.919174,0
6154.565759786,0.54252493,0.8392427,0.03658277,-0.8377993,0.5437431,-0.04935194,-0.061309893,-0.0038743657,0.99811125,0.5596519,0.82790947,0.036820352,-0.8264733,0.56085324,-0.048842028,-0.061087597,-0.0030965065,0.99812764,-0.70388794,0.04069519,9.919174,0
6154.570184835,0.5588982,0.82838506,0.03756292,-0.82696456,0.5601457,-0.048647225,-0.06133935,-0.0038743587,0.9981095,0.5589277,0.8284007,0.036772393,-0.8269637,0.5601275,-0.04886947,-0.061080728,-0.0030949332,0.99812806,-0.67515564,-0.06463623,9.670166,0
6154.574609884,0.5588663,0.82840466,0.037603255,-0.8269904,0.5601159,-0.048547134,-0.061278865,-0.003966174,0.9981128,0.55891865,0.82840586,0.036793265,-0.8269669,0.5601198,-0.048903767,-0.061120804,-0.0030935882,0.9981256,-0.6368561,-0.03111267,9.914383,0
6154.579034932,0.5717425,0.81953794,0.038316447,-0.81814384,0.57301146,-0.04794422,-0.06124787,-0.0039366186,0.9981148,0.55892694,0.82839787,0.036846526,-0.8269653,0.560131,-0.048802953,-0.061067145,-0.0031935147,0.99812853,-0.53630066,0.02154541,9.847351,0
6154.583459981,0.57175183,0.8195319,0.038304225,-0.8181372,0.5730201,-0.04795272,-0.061247878,-0.003921059,0.99811494,0.5591727,0.82823056,0.036878753,-0.8267995,0.5603782,-0.04877241,-0.06106085,-0.0032191374,0.99812883,-0.56980896,0.026321411,9.770737,0
6154.58788503,0.57177365,0.81951815,0.0382758,-0.8181243,0.57304007,-0.047936548,-0.06121843,-0.0039055068,0.9981168,0.559437,0.828051,0.03690369,-0.8266215,0.5606435,-0.048742987,-0.061051488,-0.0032367539,0.99812937,-0.5315094,0.007171631,9.780304,0
6154.592310079,0.55061084,0.8339404,0.037029814,-0.8325133,0.55184096,-0.048923608,-0.061233934,-0.0038899435,0.99811596,0.5597044,0.8278691,0.036928773,-0.8264383,0.5609121,-0.048758555,-0.061079495,-0.003228976,0.9981277,-0.58418274,0.04548645,9.86171,0
6154.596735128,0.5506347,0.833926,0.03699794,-0.8324985,0.5518628,-0.04892598,-0.061218433,-0.0038603835,0.9981169,0.5597044,0.8278691,0.036928773,-0.8264383,0.5609121,-0.048758555,-0.061079495,-0.003228976,0.9981277,-0.58418274,0.04548645,9.86171,0
6154.601160177,0.55063546,0.83392566,0.03699693,-0.83250153,0.55186325,-0.048870888,-0.061171923,-0.003889958,0.99811965,0.55931973,0.82813066,0.03689193,-0.8266988,0.56052583,-0.048784513,-0.06107883,-0.003212373,0.99812776,-0.49798584,-0.11730957,9.765945,0
6154.605585225,0.5506199,0.83393484,0.037017602,-0.83251053,0.551849,-0.04887587,-0.06118742,-0.0039055138,0.99811864,0.5591468,0.82824796,0.0368807,-0.8268159,0.56035256,-0.04878989,-0.061076317,-0.0032128405,0.9981279,-0.6320648,-0.07421875,9.722839,0
6154.610010274,0.55062926,0.83392924,0.03700515,-0.83250433,0.5518576,-0.04888406,-0.061187424,-0.0038899544,0.9981187,0.55901086,0.8283374,0.036932856,-0.8269022,0.56022024,-0.048847027,-0.06115235,-0.0032338416,0.99812317,-0.59854126,0.02154541,9.852127,0
6154.614435323,0.550641,0.83392227,0.036989532,-0.83249885,0.5518683,-0.048859023,-0.06115797,-0.0038899614,0.99812055,0.5588244,0.82846224,0.036953833,-0.82702565,0.56003547,-0.048876647,-0.06118791,-0.0032483027,0.99812096,-0.5027771,-0.04548645,9.8138275,0
6154.618860372,0.60653764,0.7940353,0.04024959,-0.79270023,0.60785913,-0.04618987,-0.061142467,-0.003889965,0.9981214,0.5586335,0.82859147,0.036942195,-0.82715714,0.55984414,-0.048842326,-0.061152205,-0.0032720412,0.99812305,-0.55545044,-0.04548645,9.761154,0
6154.623285421,0.60651094,0.7940539,0.040285166,-0.79272074,0.60783464,-0.046162795,-0.061142463,-0.003936644,0.9981213,0.5595808,0.8279488,0.037013613,-0.826521,0.56079376,-0.048717823,-0.06109287,-0.0033309644,0.9981265,-0.62727356,-0.14604187,9.9048,0
6154.62771047,0.60651773,0.79404914,0.040276106,-0.7927166,0.6078408,-0.04615016,-0.061126955,-0.0039366474,0.9981222,0.56049216,0.8273292,0.037079193,-0.82590485,0.56170726,-0.048643406,-0.06107176,-0.0033596368,0.9981277,-0.5602417,-0.04548645,9.780304,0
6154.632135518,0.55518407,0.83089185,0.037273344,-0.829477,0.55642,-0.048625853,-0.061142463,-0.003921084,0.9981213,0.56142795,0.8266952,0.03706291,-0.825271,0.56264037,-0.04861556,-0.06104334,-0.0032928104,0.99812967,-0.6512146,-0.01675415,9.818619,0
6154.636560567,0.55518407,0.83089185,0.037273344,-0.829477,0.55642,-0.048625853,-0.061142463,-0.003921084,0.9981213,0.5612828,0.82679474,0.03704262,-0.825372,0.56249416,-0.04859534,-0.061014622,-0.003298215,0.99813145,-0.6033325,-0.03590393,9.765945,0
6154.640985616,0.55517894,0.830895,0.03727976,-0.82948285,0.5564152,-0.048583124,-0.061110504,-0.0039505935,0.99812317,0.5611808,0.8268634,0.03705418,-0.8254397,0.562393,-0.04861491,-0.061036903,-0.0033042398,0.99813,-0.5171356,-0.11730957,9.832977,0
6154.645410665,0.5759504,0.81657785,0.038492955,-0.81519604,0.5772218,-0.047647607,-0.061126955,-0.0039366474,0.9981222,0.56105524,0.826947,0.037090547,-0.8255207,0.5622701,-0.04866112,-0.061095078,-0.003317435,0.99812645,-0.6224823,0.011962891,9.9048,0
6154.649805196,0.57591605,0.8166,0.038536835,-0.81521916,0.5771902,-0.047635764,-0.06114245,-0.0039817668,0.99812114,0.56132644,0.826763,0.037090305,-0.8253362,0.5625408,-0.048660617,-0.061095603,-0.0032974838,0.99812645,-0.65600586,-0.14125061,9.66539,0
6154.654230245,0.5759061,0.81660646,0.038549554,-0.8152228,0.5771812,-0.047681876,-0.06118741,-0.0039661964,0.9981184,0.56162465,0.826561,0.03707689,-0.8251355,0.5628376,-0.048632436,-0.061065946,-0.0032802888,0.99812835,-0.6990967,-0.03590393,9.890442,0
6154.658655294,0.5924809,0.8046153,0.039503746,-0.80326086,0.5937831,-0.046837028,-0.06114245,-0.0039817668,0.99812114,0.5619214,0.8263604,0.03705037,-0.82493776,0.56313205,-0.048577983,-0.061007176,-0.0032672405,0.99813193,-0.49319458,-0.07899475,9.962265,0
6154.663080343,0.59247243,0.8046209,0.039515793,-0.803267,0.5937753,-0.046828184,-0.061142445,-0.0039973264,0.998121,0.5625657,0.8259206,0.037080906,-0.82449985,0.5637769,-0.048533592,-0.060990255,-0.0032698677,0.998133,-0.61769104,-0.07899475,9.823395,0
6154.667505391,0.59249157,0.8046082,0.039488588,-0.8032565,0.59379256,-0.046789177,-0.06109499,-0.0039972756,0.9981239,0.5631725,0.825506,0.037102222,-0.8240875,0.56438386,-0.048482735,-0.060962684,-0.003271333,0.9981347,-0.48840332,-0.02154541,9.804245,0
6154.67193044,0.5427371,0.83910465,0.036602825,-0.8376764,0.5439552,-0.04910018,-0.061110485,-0.004012831,0.9981229,0.5637249,0.82512677,0.037149582,-0.8237082,0.5649381,-0.048474498,-0.06098482,-0.0032741353,0.9981333,-0.6368561,-0.06463623,9.789886,0
6154.676355489,0.54274666,0.8390991,0.036590304,-0.83767027,0.5439639,-0.04910825,-0.061110485,-0.0039972714,0.9981229,0.563313,0.82541096,0.037082974,-0.8239913,0.564523,-0.048498556,-0.060965434,-0.0032361804,0.9981346,-0.59854126,-0.011962891,9.698898,0
6154.680780538,0.54275274,0.8390954,0.0365822,-0.8376674,0.54396945,-0.049094994,-0.06109499,-0.0039972756,0.9981239,0.5629248,0.8256762,0.03707334,-0.8242552,0.56413496,-0.048528425,-0.060983136,-0.003240041,0.99813354,-0.56980896,-0.05984497,9.770737,0
6154.685205587,0.5606918,0.8271684,0.037645373,-0.8257676,0.56193984,-0.04828588,-0.06109499,-0.004012835,0.9981239,0.562565,0.8259241,0.037013914,-0.824502,0.5637723,-0.048552386,-0.060968,-0.0032041695,0.99813455,-0.59375,-0.06463623,10.00058,0
6154.689630636,0.56070703,0.82715905,0.037625507,-0.82575834,0.5619538,-0.04828243,-0.061081037,-0.003997279,0.9981248,0.5624987,0.8259682,0.03703736,-0.8245471,0.5637074,-0.048539642,-0.060970433,-0.0032355604,0.9981343,-0.58895874,0.011962891,9.9479065,0
6154.694055684,0.5607043,0.82716066,0.03762906,-0.825758,0.5619514,-0.048315637,-0.061110497,-0.0039817123,0.99812305,0.56247854,0.82598114,0.037056107,-0.8245593,0.56368846,-0.04855349,-0.060992364,-0.00324466,0.99813294,-0.67515564,-0.007171631,9.880859,0
6154.698480733,0.56207424,0.82622504,0.037744313,-0.82482475,0.5633258,-0.04824907,-0.06112694,-0.0040128897,0.9981219,0.56248194,0.82597923,0.0370437,-0.824555,0.5636913,-0.048591428,-0.061016724,-0.0032127656,0.9981315,-0.6224823,-0.13645935,9.799454,0
6154.702905782,0.5620853,0.82621825,0.037730556,-0.82482076,0.5633358,-0.048202835,-0.06108103,-0.004026842,0.99812466,0.562492,0.8259734,0.03702181,-0.82455164,0.56369984,-0.04854947,-0.060969763,-0.003217703,0.99813443,-0.50756836,-0.05027771,9.856918,0
6154.707330831,0.5620853,0.82621825,0.037730556,-0.82482076,0.5633358,-0.048202835,-0.06108103,-0.004026842,0.99812466,0.56247663,0.82598066,0.0370938,-0.82456195,0.56368876,-0.048503082,-0.06097196,-0.0033042822,0.99813396,-0.5746002,-0.06942749,9.885651,0
6154.71175588,0.5718093,0.8194918,0.03830651,-0.8181085,0.5730768,-0.047764253,-0.06109498,-0.004026838,0.99812376,0.5624285,0.8260133,0.03709689,-0.82459533,0.56364083,-0.04849171,-0.060964122,-0.0033168064,0.99813443,-0.65600586,-0.04069519,9.698898,0
6154.716180929,0.5718174,0.8194866,0.03829549,-0.81810284,0.57308424,-0.04777192,-0.06109499,-0.004012835,0.9981239,0.5625836,0.8259059,0.03713467,-0.824488,0.56379807,-0.048489325,-0.06098408,-0.0033377907,0.9981332,-0.6033325,-0.007171631,9.756363,0
6154.720605977,0.57184654,0.81946814,0.0382561,-0.81808937,0.57311064,-0.0476877,-0.061003525,-0.0040268614,0.9981294,0.56281215,0.82574993,0.037141204,-0.8243313,0.56402653,-0.04849718,-0.06099517,-0.0033218553,0.9981325,-0.5506592,-0.02154541,9.895233,0
6154.725031026,0.564297,0.8247054,0.03781304,-0.82331383,0.5655483,-0.048058286,-0.061019033,-0.004012854,0.9981286,0.56293136,0.82566947,0.03712334,-0.8242557,0.5641442,-0.048413426,-0.060916405,-0.0033456893,0.99813724,-0.6655731,-0.06942749,9.718063,0
6154.729456075,0.5642816,0.82471514,0.037832506,-0.8233232,0.56553406,-0.04806382,-0.061034523,-0.0040268535,0.99812746,0.56293136,0.82566947,0.03712334,-0.8242557,0.5641442,-0.048413426,-0.060916405,-0.0033456893,0.99813724,-0.6655731,-0.06942749,9.718063,0
6154.733881124,0.5642718,0.8247212,0.03784479,-0.8233299,0.56552505,-0.048055444,-0.061034523,-0.004042413,0.99812746,0.5629921,0.82562923,0.037097096,-0.82421786,0.5642031,-0.048371337,-0.060867086,-0.0033434075,0.9981403,-0.58895874,-0.07899475,9.9479065,0
6154.738306173,0.5769275,0.8158843,0.03856771,-0.81451064,0.57820123,-0.04749464,-0.06105003,-0.004012846,0.9981266,0.56303865,0.8255973,0.037102688,-0.82418424,0.56425,-0.04839791,-0.06089237,-0.0033295571,0.9981388,-0.6368561,0.026321411,9.742004,0
6154.742731222,0.57691294,0.8158937,0.0385873,-0.8145198,0.57818794,-0.047499843,-0.061065532,-0.004026846,0.9981257,0.5633046,0.8254133,0.037159733,-0.8239997,0.564519,-0.04840299,-0.060929842,-0.003353981,0.9981364,-0.64642334,-0.07421875,9.631866,0
6154.74715627,0.5769211,0.8158884,0.038576327,-0.814514,0.57819545,-0.047507565,-0.061065532,-0.004012842,0.9981257,0.5636143,0.82520014,0.03719816,-0.82378733,0.5648304,-0.04838386,-0.060937025,-0.0033735356,0.9981359,-0.59375,0.007171631,9.789886,0
6154.751581319,0.54655045,0.83661604,0.036826864,-0.83519334,0.54777503,-0.04893356,-0.061111435,-0.0040128934,0.9981229,0.5638823,0.8250186,0.03716346,-0.82360446,0.5650959,-0.048397478,-0.060929734,-0.003317513,0.9981366,-0.727829,-0.03111267,9.770737,0
6154.756006368,0.5465385,0.83662325,0.036841847,-0.8352025,0.5477639,-0.04890416,-0.06109498,-0.004042398,0.99812376,0.56352323,0.82526374,0.037165325,-0.82384926,0.5647376,-0.048412826,-0.06094201,-0.003336869,0.99813575,-0.52671814,-0.11730957,9.847351,0
6154.760431417,0.5465443,0.8366196,0.03683452,-0.83519953,0.54776925,-0.048892234,-0.061081026,-0.0040424014,0.9981246,0.5631577,0.8255145,0.037138186,-0.8241003,0.564371,-0.04841551,-0.06092742,-0.0033400278,0.9981366,-0.59854126,-0.04069519,9.837769,0
6154.764856466,0.570441,0.82044965,0.03820232,-0.8190631,0.5717048,-0.04784515,-0.06109499,-0.0039972756,0.9981239,0.5627949,0.82576454,0.037077967,-0.8243475,0.5640054,-0.048467863,-0.060935218,-0.0032876655,0.9981363,-0.61291504,0.08378601,9.832977,0
6154.769281514,0.5704555,0.8204404,0.038182374,-0.819054,0.571718,-0.047841962,-0.061081044,-0.0039817197,0.99812484,0.5629632,0.82564926,0.03709197,-0.82423306,0.5641742,-0.048450813,-0.06092971,-0.0032964053,0.99813664,-0.5746002,-0.007171631,9.756363,0
6154.773706563,0.5705331,0.8203914,0.038075686,-0.81900793,0.5717887,-0.047785528,-0.060974095,-0.0039210636,0.99813163,0.56307006,0.825577,0.03707818,-0.82416236,0.5642799,-0.04842147,-0.060898118,-0.0032937627,0.99813855,-0.52671814,-0.08378601,9.885651,0
6154.778131612,0.5957669,0.8021839,0.039533142,-0.80083954,0.59706426,-0.046585668,-0.060974095,-0.0039055038,0.99813163,0.5632623,0.82544935,0.036998447,-0.8240363,0.56446683,-0.04838708,-0.060825482,-0.003233449,0.99814314,-0.59854126,-0.007171631,9.742004,0
6154.782556661,0.5957956,0.80216444,0.039494455,-0.8008217,0.5970904,-0.04655633,-0.060927596,-0.0038899553,0.99813455,0.56391114,0.8250078,0.036965262,-0.82359594,0.5651124,-0.048350636,-0.060779177,-0.0031789776,0.9981462,-0.50756836,-0.007171631,9.943115,0
6154.78698171,0.5958045,0.8021584,0.03948247,-0.80081505,0.5970987,-0.046565205,-0.0609276,-0.003874396,0.9981346,0.5645168,0.82459,0.03704225,-0.8231787,0.5657217,-0.04833015,-0.06080816,-0.0032092095,0.9981443,-0.58895874,0.007171631,9.660599,0
6154.791406759,0.57578135,0.81670487,0.03832942,-0.81533045,0.5770426,-0.0475201,-0.060927596,-0.0038899553,0.99813455,0.5651363,0.82416546,0.03704237,-0.8227565,0.56633997,-0.04827623,-0.06076618,-0.0031942003,0.9981469,-0.6033325,-0.05505371,9.876068,0
6154.795831807,0.57577205,0.81671077,0.038341604,-0.81533694,0.57703406,-0.047511537,-0.060927596,-0.0039055152,0.99813455,0.5653106,0.8240447,0.037071858,-0.8226367,0.5665157,-0.048258867,-0.06076925,-0.0032154245,0.99814665,-0.61291504,-0.09815979,9.885651,0
6154.800256856,0.575734,0.8167352,0.038391773,-0.81536037,0.5769992,-0.04753324,-0.06097409,-0.003936623,0.9981316,0.5655388,0.82388574,0.03712373,-0.8224798,0.56674665,-0.04822072,-0.060768105,-0.0032628293,0.9981466,-0.71824646,-0.11251831,9.8138275,0
6154.804681905,0.5807285,0.813179,0.038657494,-0.8118107,0.58200055,-0.047314815,-0.060974095,-0.0039055038,0.99813163,0.56573826,0.8237455,0.037197042,-0.8223399,0.5669501,-0.048216004,-0.06080658,-0.003310975,0.9981441,-0.59375,0.03590393,9.847351,0
6154.809106954,0.58076227,0.8131569,0.03861366,-0.81178766,0.5820317,-0.047326945,-0.060958605,-0.003860385,0.9981328,0.5660429,0.82353294,0.037268735,-0.8221286,0.5672585,-0.04819042,-0.060827408,-0.003361851,0.9981426,-0.5793915,0.06942749,9.938324,0
6154.813532003,0.58078104,0.8131447,0.038589403,-0.81177425,0.5820491,-0.04734421,-0.060958616,-0.003829266,0.99813294,0.56632763,0.8233382,0.037244078,-0.82193375,0.56754124,-0.048185192,-0.060810264,-0.003323559,0.9981438,-0.59375,-0.05505371,9.943115,0
6154.817957052,0.5807877,0.8131404,0.03858074,-0.81177074,0.58205515,-0.04733132,-0.060943116,-0.0038292697,0.9981339,0.56632763,0.8233382,0.037244078,-0.82193375,0.56754124,-0.048185192,-0.060810264,-0.003323559,0.9981438,-0.59375,-0.05505371,9.943115,0
6154.8223821,0.5807743,0.81314903,0.038598064,-0.81177783,0.5820429,-0.047357105,-0.060974114,-0.003829262,0.99813193,0.5669104,0.82293713,0.03724381,-0.8215349,0.5681228,-0.04813514,-0.060771253,-0.003308776,0.99814624,-0.6799469,-0.04548645,9.9479065,0
6154.826807149,0.5807904,0.8131386,0.038577273,-0.8117676,0.5820577,-0.047352843,-0.06095862,-0.0038137066,0.998133,0.56716216,0.8227602,0.037318744,-0.82135683,0.5683788,-0.048150554,-0.060827546,-0.003342833,0.99814266,-0.5315094,-0.007171631,9.8138275,0
6154.831232198,0.59115934,0.8056014,0.03920685,-0.804248,0.5924455,-0.046835434,-0.060958605,-0.0038448253,0.9981328,0.5674244,0.822577,0.037372224,-0.82117325,0.5686438,-0.048152566,-0.060860675,-0.003366132,0.9981406,-0.6320648,-0.08857727,10.043671,0
6154.835657247,0.5911685,0.80559504,0.03919483,-0.80424106,0.592454,-0.046844214,-0.060958616,-0.003829266,0.99813294,0.5679065,0.8222441,0.037374217,-0.8208449,0.5691249,-0.04806742,-0.060793754,-0.0033806358,0.9981446,-0.59375,-0.002380371,9.765945,0
6154.840082296,0.59118706,0.8055827,0.0391708,-0.80422753,0.5924712,-0.046861798,-0.060958624,-0.003798147,0.9981331,0.56835914,0.82193035,0.037394915,-0.8205329,0.5695779,-0.04802809,-0.060775068,-0.0033865566,0.99814576,-0.59375,0.04548645,9.780304,0
6154.844507345,0.5604946,0.8273152,0.03735452,-0.8259115,0.5617253,-0.048319727,-0.060958624,-0.0037685833,0.9981331,0.56882167,0.8216112,0.037375994,-0.820215,0.5700384,-0.04799547,-0.060739372,-0.0033554889,0.998148,-0.59375,0.02154541,9.742004,0
6154.848932393,0.5604895,0.82731825,0.03736125,-0.8259171,0.5617205,-0.048277706,-0.06092762,-0.003798154,0.9981349,0.5686514,0.82172763,0.03740709,-0.8203314,0.56987035,-0.04800133,-0.060761213,-0.0033901858,0.9981466,-0.5315094,-0.09336853,9.856918,0
6154.853357442,0.56046474,0.8273336,0.03739433,-0.8259329,0.5616978,-0.04827412,-0.060943116,-0.0038292697,0.9981339,0.56855786,0.8217936,0.037380338,-0.8203967,0.5697754,-0.04801275,-0.060754966,-0.0033686808,0.998147,-0.6512146,-0.11730957,9.727631,0
6154.857782491,0.5362419,0.84329677,0.035989743,-0.84186137,0.53743446,-0.049331363,-0.060943104,-0.0038448288,0.9981338,0.56836075,0.8219308,0.03736015,-0.8205334,0.5695774,-0.0480268,-0.060754202,-0.0033587036,0.9981471,-0.56980896,0.06942749,9.751572,0
6154.86220754,0.5362769,0.8432764,0.035944,-0.8418401,0.53746665,-0.049341958,-0.06092762,-0.003798154,0.9981349,0.56836075,0.8219308,0.03736015,-0.8205334,0.5695774,-0.0480268,-0.060754202,-0.0033587036,0.9981471,-0.56980896,0.06942749,9.751572,0
6154.866632589,0.5362769,0.8432764,0.035944,-0.8418401,0.53746665,-0.049341958,-0.06092762,-0.003798154,0.9981349,0.56709445,0.82280993,0.03725271,-0.8214113,0.56830686,-0.04807033,-0.060723715,-0.0033393812,0.998149,-0.5746002,-0.05505371,9.890442,0
6154.871057638,0.54981446,0.8344797,0.03671217,-0.8330618,0.55102587,-0.04877084,-0.060927626,-0.0037685907,0.9981351,0.56651324,0.82321364,0.037175324,-0.8218168,0.5677219,-0.048051972,-0.06066229,-0.0033292288,0.9981528,-0.61769104,0.04548645,9.823395,0
6154.875482686,0.5498018,0.83448726,0.036728427,-0.8330711,0.5510141,-0.048743445,-0.060913667,-0.0037981572,0.9981358,0.56622475,0.82341456,0.037120264,-0.82202065,0.56743044,-0.048008356,-0.060593948,-0.0033301,0.99815696,-0.55545044,-0.12210083,9.890442,0
6154.879907735,0.54982984,0.8344704,0.036692347,-0.8330526,0.55104,-0.048767127,-0.060913675,-0.0037530342,0.9981359,0.56588936,0.8236453,0.037116583,-0.82225436,0.5670952,-0.04796712,-0.06055653,-0.0033751884,0.99815905,-0.6081238,0.07899475,10.00058,0
6154.884332784,0.52897674,0.8478959,0.035440505,-0.8464496,0.53014946,-0.049645133,-0.06088268,-0.003737482,0.998138,0.56552833,0.8238945,0.03708716,-0.8224995,0.5667333,-0.048039332,-0.060597878,-0.0033365684,0.99815667,-0.5315094,0.007171631,9.6558075,0
6154.888757833,0.5290008,0.8478821,0.03541166,-0.84643674,0.53017163,-0.04962537,-0.06085073,-0.0037218714,0.9981399,0.56477803,0.8244121,0.037020337,-0.82301307,0.56598043,-0.04812219,-0.060625304,-0.0032898632,0.9981552,-0.52671814,0.007171631,9.856918,0
6154.893182882,0.5289972,0.84788424,0.035416044,-0.84643686,0.5301684,-0.04965922,-0.060881738,-0.0037078608,0.99813807,0.56405544,0.8249083,0.03698364,-0.82350665,0.5652571,-0.04818006,-0.060649395,-0.0032800473,0.99815375,-0.6416321,-0.011962891,9.794678,0
6154.897607931,0.5784698,0.8148033,0.038316853,-0.8134309,0.5797254,-0.04741938,-0.060850725,-0.0037374308,0.99813986,0.56335896,0.8253853,0.036958158,-0.8239804,0.5645604,-0.048248798,-0.06068896,-0.0032714033,0.99815136,-0.55545044,-0.10293579,9.880859,0
6154.902032979,0.5784809,0.81479603,0.038302388,-0.8134217,0.5797357,-0.04744864,-0.060866237,-0.0037078643,0.998139,0.5636653,0.8251736,0.037013266,-0.8237669,0.5648697,-0.048273116,-0.060741376,-0.0032804238,0.99814814,-0.6224823,0.04069519,9.895233,0
6154.906458028,0.5784766,0.81479895,0.03830807,-0.81342256,0.5797319,-0.047483843,-0.060898192,-0.0036923555,0.9981372,0.56397426,0.8249615,0.0370356,-0.82355523,0.56517947,-0.048259422,-0.060743924,-0.0032837905,0.998148,-0.67515564,-0.007171631,9.780304,0
6154.910883077,0.56339794,0.82533675,0.03744376,-0.8239361,0.5646288,-0.048205562,-0.060927644,-0.0036923487,0.9981354,0.564263,0.8247637,0.037042964,-0.8233582,0.5654681,-0.048240773,-0.06073385,-0.0032791444,0.9981486,-0.6990967,-0.01675415,9.938324,0
6154.915308126,0.56339437,0.825339,0.03744851,-0.82393956,0.5646254,-0.048185427,-0.060913686,-0.0037079111,0.9981361,0.5642672,0.824762,0.03701527,-0.82335746,0.56547064,-0.04822278,-0.060703367,-0.0032662635,0.9981505,-0.5506592,-0.07899475,10.005356,0
6154.919733175,0.5634007,0.825335,0.0374401,-0.82393634,0.56463116,-0.048172362,-0.060898185,-0.003707915,0.9981371,0.56429046,0.82474667,0.03700431,-0.8233429,0.56549305,-0.04820891,-0.06068582,-0.0032634086,0.9981516,-0.5650177,-0.04548645,9.694122,0
6154.924158223,0.57133526,0.81984127,0.03789992,-0.8184532,0.572579,-0.047829986,-0.060913693,-0.003692352,0.9981362,0.56432045,0.8247287,0.03694546,-0.8233282,0.5655192,-0.048153143,-0.06060665,-0.0032444326,0.9981565,-0.64642334,0.026321411,9.799454,0
6154.928583272,0.571311,0.81985676,0.037930794,-0.8184691,0.5725567,-0.047825564,-0.060927633,-0.003721912,0.9981352,0.5644206,0.8246599,0.03695164,-0.82325745,0.5656197,-0.048182175,-0.060634486,-0.0032256977,0.9981548,-0.62727356,-0.12210083,9.756363,0
6154.933008321,0.5712814,0.81987566,0.037968554,-0.81848633,0.5725295,-0.04785607,-0.06097414,-0.003737461,0.99813235,0.56456,0.8245658,0.0369221,-0.8231636,0.565757,-0.048173115,-0.060610842,-0.0031963221,0.9981563,-0.74697876,-0.10293579,9.880859,0
6154.93743337,0.57189053,0.8194482,0.03802616,-0.8180562,0.5731412,-0.04788618,-0.0610346,-0.0037218877,0.9981287,0.5646795,0.82448196,0.036966227,-0.8230795,0.56587905,-0.048177514,-0.060639907,-0.00322129,0.9981545,-0.727829,-0.002380371,9.880859,0
6154.941858419,0.57187784,0.8194562,0.038043242,-0.81806284,0.5731298,-0.04791213,-0.061065603,-0.0037218805,0.9981268,0.564832,0.8243781,0.03695473,-0.8229753,0.5660305,-0.048178356,-0.060634688,-0.003200156,0.9981549,-0.68473816,-0.02154541,9.8138275,0
6154.946283468,0.5718969,0.8194442,0.03801762,-0.818053,0.57314706,-0.047873203,-0.061019093,-0.003721891,0.9981296,0.5649608,0.82429063,0.036937393,-0.8228855,0.5661581,-0.04821194,-0.06065305,-0.0031573945,0.99815387,-0.48362732,-0.026321411,9.923965,0
6154.950708516,0.5466044,0.8365939,0.036526833,-0.835166,0.54781085,-0.049000833,-0.061003596,-0.0037218947,0.9981306,0.56510365,0.8241921,0.036949307,-0.82278717,0.56630147,-0.04820667,-0.060656004,-0.0031596532,0.9981537,-0.5793915,-0.06463623,9.995789,0
6154.955103048,0.54659706,0.83659834,0.036536295,-0.8351729,0.54780394,-0.048959468,-0.060974132,-0.0037530202,0.9981322,0.5647281,0.82444876,0.03696402,-0.82304406,0.5659275,-0.04821261,-0.060667787,-0.0031960024,0.99815285,-0.52671814,-0.09815979,9.84256,0
6154.959497579,0.54659706,0.83659834,0.036536295,-0.8351729,0.54780394,-0.048959468,-0.060974132,-0.0037530202,0.9981322,0.56438583,0.82468295,0.03696778,-0.8232777,0.5655861,-0.048229724,-0.060682695,-0.003214579,0.9981519,-0.61291504,-0.03111267,9.914383,0
6154.963922628,0.5462657,0.83681595,0.03650835,-0.83539087,0.5474715,-0.04896101,-0.060958635,-0.0037530242,0.99813324,0.56399083,0.8249515,0.03700434,-0.82354575,0.56519413,-0.048249114,-0.060717817,-0.0032627068,0.99814963,-0.56980896,-0.05505371,9.885651,0
6154.968317159,0.54625934,0.83681977,0.036516495,-0.8353938,0.5474656,-0.04897424,-0.060974132,-0.0037530202,0.9981322,0.5636387,0.8251953,0.036935452,-0.82379323,0.5648382,-0.04819251,-0.060630783,-0.0032640148,0.99815494,-0.6224823,-0.01675415,9.837769,0
6154.972742208,0.54625595,0.8368218,0.03652082,-0.8353972,0.5474624,-0.048952896,-0.060958624,-0.0037685833,0.9981331,0.5633128,0.82541937,0.036900237,-0.8240182,0.5645107,-0.04818418,-0.060602732,-0.0032637038,0.99815667,-0.5746002,-0.09336853,9.818619,0
6154.977136739,0.55797243,0.82902306,0.03724889,-0.8276153,0.5592015,-0.04844255,-0.06098963,-0.0037981397,0.9981312,0.56299156,0.8256391,0.036885556,-0.82423973,0.564189,-0.048162743,-0.06057547,-0.0032873242,0.99815816,-0.67515564,-0.10293579,9.86171,0
6154.981561788,0.55800074,0.8290056,0.037213076,-0.8275961,0.55922765,-0.048466563,-0.060989637,-0.003753017,0.99813133,0.56287235,0.8257186,0.036925625,-0.8243186,0.5640725,-0.048177574,-0.060609855,-0.0033206532,0.998156,-0.62727356,0.06463623,9.919174,0
6154.985956319,0.5579856,0.82901496,0.037232265,-0.8276087,0.5592135,-0.0484163,-0.060958624,-0.003798147,0.9981331,0.5628133,0.8257622,0.036852274,-0.82436126,0.5640091,-0.048189677,-0.06057823,-0.0032578013,0.99815816,-0.5171356,-0.13166809,9.928741,0
6154.99035085,0.57934207,0.8141773,0.038446955,-0.812803,0.58060414,-0.047435205,-0.060943123,-0.003768587,0.9981341,0.5627326,0.8258182,0.03682933,-0.8244183,0.5639271,-0.04817264,-0.0605509,-0.0032544602,0.99815977,-0.5746002,0.007171631,9.761154,0
6154.994775899,0.57935137,0.81417114,0.038434803,-0.8127963,0.5806128,-0.047443815,-0.06094313,-0.0037530276,0.9981342,0.5627326,0.8258182,0.03682933,-0.8244183,0.5639271,-0.04817264,-0.0605509,-0.0032544602,0.99815977,-0.5746002,0.007171631,9.761154,0
6154.999170431,0.57936394,0.814163,0.03841838,-0.81278956,0.58062416,-0.047419287,-0.060913675,-0.0037530342,0.9981359,0.56335634,0.8253908,0.03687408,-0.8239885,0.5645526,-0.04820149,-0.060602427,-0.0032292022,0.9981568,-0.5219269,-0.03590393,9.84256,0
6155.003595479,0.5478274,0.835793,0.036540534,-0.83436865,0.5490322,-0.048913084,-0.06094314,-0.003692345,0.9981343,0.5637284,0.8251355,0.036899403,-0.82373184,0.5649256,-0.04821666,-0.060630698,-0.0032141118,0.99815506,-0.6895294,0.08857727,9.919174,0
6155.007990011,0.54783374,0.83578914,0.03653236,-0.8343656,0.54903805,-0.04889987,-0.060927644,-0.0036923487,0.9981354,0.5634281,0.8253404,0.036904737,-0.82393575,0.5646263,-0.048239913,-0.060651734,-0.0032274085,0.9981538,-0.58895874,-0.02154541,9.8138275,0
6155.012384542,0.5478115,0.8358025,0.03656117,-0.83437794,0.5490177,-0.048918158,-0.060958643,-0.003707901,0.9981334,0.5631064,0.82556224,0.03685433,-0.8241533,0.56430227,-0.04831422,-0.060683373,-0.0031675738,0.998152,-0.6703644,-0.09336853,9.871292,0
6155.016809591,0.5792588,0.81423837,0.03840699,-0.8128588,0.5805189,-0.0475213,-0.06098965,-0.0036923348,0.9981316,0.5627485,0.8258071,0.03683637,-0.82439804,0.5639439,-0.04832395,-0.0606799,-0.0031736004,0.99815226,-0.67515564,0.01675415,9.68454,0
6155.021204122,0.5792588,0.81423837,0.03840699,-0.8128588,0.5805189,-0.0475213,-0.06098965,-0.0036923348,0.9981316,0.5630767,0.8255814,0.036878843,-0.8241731,0.56427395,-0.04830677,-0.06069094,-0.0031941351,0.9981515,-0.6033325,-0.026321411,9.957474,0
6155.025629171,0.5792622,0.81423616,0.03840263,-0.8128554,0.5805221,-0.04754153,-0.061003607,-0.003676772,0.9981308,0.5634023,0.82535887,0.036886685,-0.82394975,0.56459963,-0.048312355,-0.060701236,-0.0031734859,0.99815094,-0.6368561,-0.002380371,9.837769,0
6155.030023702,0.5792917,0.814217,0.038365476,-0.8128378,0.58054924,-0.047512658,-0.060958657,-0.0036612225,0.9981336,0.5637072,0.82515234,0.036848716,-0.8237444,0.5649016,-0.04828453,-0.060657993,-0.0031355864,0.9981537,-0.50756836,-0.007171631,9.9479065,0
6155.034418233,0.5792725,0.8142295,0.03838973,-0.8128515,0.58053154,-0.04749546,-0.06095865,-0.003692342,0.99813354,0.56401527,0.82494295,0.03682198,-0.8235362,0.5652074,-0.04825565,-0.060620215,-0.0031073124,0.9981561,-0.58418274,-0.11251831,9.962265,0
6155.038843282,0.5792821,0.8142233,0.038377605,-0.81284463,0.5805403,-0.04750406,-0.06095865,-0.0036767821,0.99813354,0.56435746,0.82470584,0.03689238,-0.8232991,0.56555325,-0.04825122,-0.06065766,-0.003142527,0.9981537,-0.6224823,0.011962891,9.885651,0
6155.043237813,0.5662644,0.8233643,0.037629087,-0.82196647,0.5675013,-0.048100337,-0.06095865,-0.003692342,0.99813354,0.56467557,0.82448804,0.03689181,-0.82308334,0.56587064,-0.04820977,-0.060624372,-0.003142154,0.9981557,-0.56980896,-0.08857727,9.751572,0
6155.047632345,0.5662709,0.8233602,0.037620645,-0.82196295,0.5675071,-0.04808729,-0.06094314,-0.003692345,0.9981343,0.5646989,0.82447034,0.03692994,-0.82306427,0.5658963,-0.048233934,-0.06066596,-0.0031580685,0.9981531,-0.59375,-0.03111267,9.86171,0
6155.052057393,0.56631166,0.8233345,0.037567757,-0.821937,0.56754464,-0.048087765,-0.060913697,-0.0036456727,0.9981363,0.56470513,0.82446605,0.036930494,-0.8230582,0.5659027,-0.048263956,-0.06069106,-0.003141038,0.99815166,-0.5219269,0.07899475,9.737213,0
6155.056451925,0.5918356,0.80511165,0.03906177,-0.8037503,0.5931122,-0.04693839,-0.06095866,-0.0036160995,0.99813366,0.56474584,0.82443786,0.036937818,-0.8230325,0.5659436,-0.048221733,-0.060660545,-0.003168002,0.99815345,-0.6224823,-0.06942749,9.895233,0
6155.060876973,0.5918276,0.8051171,0.039072596,-0.8037563,0.59310484,-0.046930466,-0.06095866,-0.0036301033,0.99813366,0.56474584,0.82443786,0.036937818,-0.8230325,0.5659436,-0.048221733,-0.060660545,-0.003168002,0.99815345,-0.6224823,-0.06942749,9.895233,0
6155.065271505,0.5918356,0.80511165,0.03906177,-0.8037503,0.5931122,-0.04693839,-0.06095866,-0.0036160995,0.99813366,0.5658039,0.8237109,0.03696235,-0.8223067,0.56700134,-0.04817918,-0.060643416,-0.0031344187,0.9981546,-0.54107666,-0.05984497,9.923965,0
6155.069666036,0.5918488,0.8051028,0.03904409,-0.803743,0.5931243,-0.046912845,-0.06092766,-0.0036161065,0.9981356,0.5658039,0.8237109,0.03696235,-0.8223067,0.56700134,-0.04817918,-0.060643416,-0.0031344187,0.9981546,-0.54107666,-0.05984497,9.923965,0
6155.074091085,0.5713913,0.819804,0.0378601,-0.81841296,0.5726326,-0.04787452,-0.06092765,-0.0036301098,0.9981355,0.56685525,0.822983,0.037068855,-0.8215825,0.56805706,-0.048098747,-0.060641676,-0.0031900913,0.9981545,-0.59375,-0.06942749,9.751572,0
6155.078485616,0.57137054,0.8198172,0.037889473,-0.8184252,0.57261384,-0.04789193,-0.060958657,-0.0036456627,0.9981336,0.56692445,0.82293427,0.03709191,-0.8215342,0.5681275,-0.048089344,-0.06064731,-0.0032092496,0.9981541,-0.68473816,-0.08378601,9.895233,0
6155.082880147,0.5392044,0.84140277,0.03605445,-0.8399626,0.54039603,-0.04934607,-0.061003607,-0.003676772,0.9981308,0.5670356,0.8228584,0.037075844,-0.8214608,0.56823736,-0.048047766,-0.06060439,-0.0032115548,0.99815667,-0.7230377,-0.09336853,9.914383,0
6155.087305196,0.5391748,0.8414201,0.036090743,-0.83998156,0.54036856,-0.049322903,-0.061003596,-0.0037218947,0.9981306,0.56651145,0.82322264,0.03700245,-0.8218239,0.56770974,-0.04807351,-0.06058186,-0.003175303,0.99815816,-0.61291504,-0.16040039,9.837769,0
6155.091699727,0.53914416,0.8414382,0.03612829,-0.84000117,0.5403401,-0.049298942,-0.061003584,-0.003768573,0.9981304,0.56597495,0.82359284,0.0369747,-0.8221941,0.5671725,-0.04808413,-0.06057278,-0.003185969,0.9981587,-0.6033325,-0.15083313,9.713272,0
6155.096124776,0.5672248,0.8226953,0.037795424,-0.82129943,0.56847,-0.048053663,-0.061019085,-0.0037841294,0.9981294,0.56547946,0.823937,0.03688924,-0.82254016,0.56667256,-0.048060387,-0.060502853,-0.003165723,0.998163,-0.6224823,-0.07421875,9.84256,0
6155.100519307,0.56725603,0.8226755,0.0377548,-0.8212766,0.5684989,-0.04810041,-0.0610346,-0.0037218877,0.9981287,0.56552833,0.8239015,0.03693276,-0.8225049,0.566724,-0.048058704,-0.06052632,-0.003198815,0.99816144,-0.6320648,0.09815979,9.828186,0
6155.104913839,0.56724006,0.8226857,0.03777553,-0.8212866,0.56848425,-0.048105016,-0.0610501,-0.0037374436,0.9981277,0.56559044,0.8238566,0.036983352,-0.8224596,0.56678903,-0.048065905,-0.060561176,-0.0032316973,0.9981592,-0.64642334,-0.05505371,9.828186,0
6155.109338888,0.573131,0.818577,0.03811153,-0.8171876,0.5743846,-0.047819473,-0.061034597,-0.003737447,0.99812865,0.565627,0.8238304,0.037008878,-0.8224335,0.56682706,-0.048065305,-0.060575288,-0.0032503107,0.99815834,-0.5746002,-0.04548645,9.809036,0
6155.113733419,0.57314354,0.81856894,0.038094398,-0.81718105,0.5743959,-0.047793545,-0.06100359,-0.0037374538,0.9981305,0.5657638,0.8237376,0.036981326,-0.82233995,0.566962,-0.048073407,-0.060566887,-0.003213033,0.99815893,-0.5219269,-0.03590393,9.775513,0
6155.11812795,0.5731582,0.8185597,0.038074452,-0.81717193,0.5744094,-0.047790434,-0.060989648,-0.003721898,0.9981315,0.5659351,0.8236182,0.037020303,-0.8222192,0.5671355,-0.04809222,-0.06060516,-0.0032217302,0.9981566,-0.5602417,0.007171631,9.818619,0
6155.122552999,0.594308,0.80327475,0.039338097,-0.8019227,0.5955966,-0.046739284,-0.060974132,-0.00376858,0.9981322,0.56609887,0.8235038,0.037061367,-0.82210755,0.5673013,-0.04804597,-0.060591005,-0.0032696603,0.9981573,-0.6703644,-0.06942749,9.9048,0
6155.12694753,0.59429544,0.8032833,0.03935496,-0.8019297,0.59558517,-0.046763513,-0.061003584,-0.003768573,0.9981304,0.56609887,0.8235038,0.037061367,-0.82210755,0.5673013,-0.04804597,-0.060591005,-0.0032696603,0.9981573,-0.6703644,-0.06942749,9.9048,0
6155.131372579,0.59427184,0.8032992,0.039386638,-0.80194604,0.5955635,-0.046759453,-0.061019078,-0.0037981325,0.9981293,0.56721926,0.8227296,0.037125397,-0.82133543,0.5684235,-0.04798794,-0.06058405,-0.0032727171,0.99815774,-0.62727356,-0.10772705,9.86171,0
6155.13576711,0.57892555,0.8144723,0.038472217,-0.81309175,0.58019036,-0.047550905,-0.0610501,-0.0037530032,0.9981277,0.56773853,0.82237077,0.037139423,-0.8209772,0.56894267,-0.04796487,-0.06057511,-0.0032591142,0.99815834,-0.67515564,0.08378601,9.799454,0
6155.140161641,0.5788931,0.8144935,0.038510803,-0.8131159,0.58016014,-0.047504548,-0.06103458,-0.0038136886,0.99812835,0.56796145,0.8222134,0.03721428,-0.8208187,0.5691698,-0.047983315,-0.060633767,-0.0032935017,0.99815464,-0.58418274,-0.17955017,9.890442,0
6155.14458669,0.5789033,0.81448686,0.038498703,-0.8131086,0.58016956,-0.047513112,-0.06103458,-0.0037981288,0.99812835,0.5681983,0.8220495,0.037220333,-0.82065254,0.56940675,-0.04801439,-0.06066371,-0.0032632626,0.9981529,-0.58895874,-0.007171631,9.914383,0
6155.148981222,0.5790836,0.8143583,0.03850924,-0.81298035,0.58035016,-0.04750458,-0.06103458,-0.0037981288,0.99812835,0.568413,0.8219,0.037243422,-0.8205026,0.56962246,-0.04801829,-0.060680926,-0.0032640998,0.9981519,-0.6081238,-0.026321411,9.722839,0
6155.153375753,0.57909554,0.8143505,0.038491886,-0.8129741,0.58036095,-0.047478814,-0.06100358,-0.0037981365,0.9981303,0.5686134,0.82175916,0.037290074,-0.82036406,0.5698253,-0.047977522,-0.060674798,-0.0033107754,0.9981521,-0.5458679,-0.04548645,9.866501,0
6155.157800802,0.57910687,0.81434315,0.038475398,-0.81296825,0.5803712,-0.047454335,-0.06097413,-0.0037981432,0.99813217,0.5688169,0.8216183,0.037292585,-0.8202226,0.57002854,-0.04798276,-0.06068135,-0.0032948202,0.9981517,-0.48840332,-0.03590393,9.708481,0
6155.162195333,0.60295165,0.79678077,0.039871875,-0.7954419,0.6042567,-0.046324834,-0.061003584,-0.003784133,0.9981304,0.5689769,0.8215075,0.03729231,-0.82011485,0.5701881,-0.04792915,-0.060637787,-0.003313399,0.99815434,-0.6799469,-0.011962891,9.84256,0
6155.166620382,0.6029663,0.79677063,0.039851855,-0.7954319,0.6042701,-0.046322428,-0.060989633,-0.0037685765,0.9981313,0.5697233,0.82098705,0.03735812,-0.8195946,0.57093716,-0.04791021,-0.060662802,-0.003322951,0.99815273,-0.5793915,0.002380371,9.84256,0
6155.171014913,0.6029471,0.79678386,0.039877996,-0.795443,0.6042527,-0.046359133,-0.06103459,-0.0037685663,0.9981286,0.57040614,0.8205109,0.037397705,-0.8191194,0.5716211,-0.04788129,-0.060664445,-0.0033214043,0.9981527,-0.71824646,-0.03590393,9.871292,0
6155.175409444,0.60090023,0.79833555,0.03973995,-0.7969928,0.6022011,-0.046436794,-0.061003584,-0.003768573,0.9981304,0.5710934,0.82003236,0.03740713,-0.81864375,0.5723076,-0.047816534,-0.060619492,-0.0033154036,0.9981554,-0.5315094,-0.04548645,9.718063,0
6155.179834493,0.60089725,0.7983376,0.039743792,-0.79699606,0.60219824,-0.046416435,-0.06098963,-0.003784136,0.9981312,0.5717199,0.81959486,0.0374249,-0.8182077,0.5729339,-0.04777853,-0.060601033,-0.0033054075,0.99815655,-0.5219269,-0.05984497,9.679749,0
6155.184229024,0.60092026,0.79832166,0.039713953,-0.796981,0.60221934,-0.04639997,-0.060958624,-0.0037685833,0.9981331,0.57229745,0.8191869,0.037527688,-0.8178007,0.5735167,-0.04775512,-0.06064313,-0.0033600354,0.9981538,-0.5315094,-0.01675415,9.74678,0
6155.188623556,0.54229844,0.8394027,0.036271963,-0.83797395,0.5434971,-0.04909911,-0.060927626,-0.0037685907,0.9981351,0.5729019,0.8187623,0.037573274,-0.8173763,0.5741228,-0.04773861,-0.06065825,-0.003361964,0.9981529,-0.5315094,-0.02154541,9.770737,0
6155.193048604,0.5422922,0.83940643,0.036280055,-0.8379769,0.54349136,-0.049112372,-0.060943123,-0.003768587,0.9981341,0.5722964,0.81918824,0.03751744,-0.8177981,0.57351524,-0.04781733,-0.060688216,-0.0033160064,0.99815124,-0.64642334,-0.04069519,9.856918,0
6155.197443136,0.54232347,0.8393877,0.036239658,-0.8379586,0.5435201,-0.049103275,-0.06091368,-0.0037374746,0.99813604,0.57170314,0.81960225,0.037519608,-0.8182119,0.5729232,-0.047835607,-0.060702022,-0.0033512267,0.9981503,-0.48840332,0.04069519,9.402023,0
6155.201868184,0.57553333,0.8168861,0.03819019,-0.8155055,0.5767869,-0.047619898,-0.06092763,-0.0037374713,0.99813515,0.5711549,0.81998646,0.037473977,-0.8185947,0.5723733,-0.047870185,-0.060702007,-0.003334708,0.99815035,-0.61769104,-0.01675415,9.84256,0
6155.206262716,0.575557,0.8168709,0.038159307,-0.8154899,0.57680863,-0.047624506,-0.060913686,-0.0037079111,0.9981361,0.57126683,0.8199076,0.03749236,-0.81851625,0.57248604,-0.047862414,-0.060706615,-0.003345899,0.99815005,-0.5746002,0.007171631,9.809036,0
6155.210657247,0.5755501,0.8168753,0.03816832,-0.81549823,0.5768021,-0.047560085,-0.060866226,-0.003752987,0.9981389,0.57137454,0.8198308,0.037531897,-0.81844115,0.5725959,-0.047834072,-0.06070646,-0.003386477,0.99814993,-0.49319458,-0.12210083,9.885651,0
6155.215082296,0.54407704,0.83824986,0.03629485,-0.8368257,0.5452736,-0.04898313,-0.06085073,-0.0037218714,0.9981399,0.57148707,0.81975245,0.037528083,-0.81836337,0.57270795,-0.047822174,-0.06069498,-0.0033818528,0.99815065,-0.5746002,0.04548645,9.943115,0
6155.219476827,0.54403996,0.83827204,0.03634036,-0.83684874,0.54523927,-0.048972208,-0.060866218,-0.0037685458,0.9981387,0.5709416,0.8201356,0.03745926,-0.81874436,0.5721594,-0.047866046,-0.06068932,-0.0033408399,0.99815106,-0.61291504,-0.15560913,9.765945,0
6155.223871358,0.5440333,0.8382759,0.03634845,-0.8368519,0.5452332,-0.048985466,-0.060881723,-0.0037685425,0.9981379,0.57038677,0.82052463,0.03739251,-0.81913567,0.57160133,-0.047839556,-0.060627144,-0.003342486,0.9981549,-0.6320648,-0.05984497,9.895233,0
6155.228296407,0.5797419,0.8138947,0.03840369,-0.81252486,0.5810004,-0.047350314,-0.060850725,-0.0037529904,0.99813986,0.56987697,0.820879,0.037388496,-0.81948894,0.57109225,-0.047869086,-0.06064701,-0.003359969,0.99815357,-0.5602417,0.011962891,9.909592,0
6155.232690938,0.5797547,0.81388634,0.038388103,-0.81251454,0.5810123,-0.04738042,-0.06086623,-0.0037218677,0.99813896,0.57004225,0.820763,0.03741634,-0.8193728,0.57125896,-0.047869634,-0.060664043,-0.0033702184,0.99815255,-0.6224823,0.05027771,9.761154,0
6155.237115987,0.5797706,0.81387585,0.03836858,-0.81250435,0.58102703,-0.047375232,-0.060850736,-0.003707868,0.99814004,0.5702408,0.8206243,0.037432145,-0.8192332,0.57145816,-0.047880515,-0.060682822,-0.0033622321,0.9981514,-0.56980896,-0.007171631,9.837769,0
6155.241510518,0.5797547,0.81388634,0.038388103,-0.81251454,0.5810123,-0.04738042,-0.06086623,-0.0037218677,0.99813896,0.57046175,0.82046896,0.03747068,-0.8190807,0.5716809,-0.047830097,-0.060664386,-0.0034062706,0.99815243,-0.6368561,-0.07421875,9.871292,0
6155.24590505,0.5797167,0.81391114,0.03843441,-0.81253695,0.5809773,-0.047423,-0.06092763,-0.0037374713,0.99813515,0.57064986,0.82033557,0.03752871,-0.8189452,0.5718723,-0.04786276,-0.060725156,-0.0034210805,0.9981487,-0.75177,-0.09815979,9.938324,0
6155.250330098,0.57973844,0.81389695,0.038407926,-0.81252027,0.5809975,-0.047460843,-0.06094314,-0.003692345,0.9981343,0.5708214,0.82021844,0.03747709,-0.8188286,0.5720404,-0.047848765,-0.060684852,-0.0033742138,0.99815124,-0.62727356,0.07899475,9.799454,0
6155.25472463,0.56830806,0.8219487,0.03776415,-0.8205557,0.5695492,-0.047976945,-0.060943138,-0.0037219082,0.99813426,0.5710208,0.8200766,0.037545472,-0.8186869,0.57224363,-0.047843706,-0.06072066,-0.0034182337,0.9981489,-0.6081238,-0.10293579,9.737213,0
6155.259119161,0.5683166,0.8219434,0.037753116,-0.8205499,0.5695571,-0.04798455,-0.06094314,-0.0037079048,0.9981343,0.57094955,0.8201266,0.037535623,-0.81873447,0.57217205,-0.04788626,-0.060749635,-0.003391063,0.9981473,-0.6224823,-0.007171631,9.871292,0
6155.26354421,0.56835425,0.82191956,0.03770401,-0.82052714,0.5695916,-0.04796369,-0.060898192,-0.0036767956,0.9981372,0.5708874,0.82017046,0.03752247,-0.81877977,0.5721091,-0.047863103,-0.06072285,-0.003398196,0.99814886,-0.48840332,0.03590393,9.86171,0
6155.267938741,0.5272207,0.8489948,0.035299134,-0.8475444,0.5283882,-0.049742393,-0.060882684,-0.0036923587,0.99813807,0.57080615,0.8202264,0.03753705,-0.81883943,0.57202864,-0.047803447,-0.060681917,-0.0034503173,0.9981512,-0.5506592,-0.06942749,9.8138275,0
6155.27236379,0.52719635,0.8490087,0.035331063,-0.84755844,0.5283658,-0.0497409,-0.060898177,-0.0037219184,0.998137,0.56993544,0.8208343,0.0374786,-0.8194464,0.571156,-0.04783743,-0.060672726,-0.0034474556,0.9981517,-0.6224823,-0.09815979,9.737213,0
6155.276758321,0.5271927,0.8490108,0.03533586,-0.8475621,0.52836245,-0.04971968,-0.06088268,-0.003737482,0.998138,0.5690663,0.82143825,0.03745456,-0.82005,0.57028687,-0.047863945,-0.060677122,-0.0034768546,0.9981514,-0.5793915,-0.07899475,9.9526825,0
6155.281152852,0.5634294,0.8253136,0.037479084,-0.8239166,0.56466204,-0.04814552,-0.060898174,-0.003753038,0.9981369,0.56821835,0.8220262,0.037426442,-0.8206377,0.5694388,-0.04788671,-0.060676202,-0.0035034406,0.99815136,-0.6320648,-0.08857727,9.9479065,0
6155.285577901,0.56341964,0.82531977,0.037491377,-0.82392335,0.5646531,-0.048137162,-0.060898174,-0.0037685977,0.9981369,0.5681654,0.8220622,0.037441064,-0.82067275,0.5693869,-0.047903717,-0.060698286,-0.0035096253,0.99815,-0.6224823,-0.05505371,9.823395,0
6155.289972432,0.5634401,0.8253069,0.03746564,-0.8239128,0.56467175,-0.048097167,-0.06085072,-0.0037685498,0.99813974,0.5680668,0.82212895,0.03747165,-0.8207411,0.5692903,-0.0478819,-0.06069734,-0.0035544042,0.9981499,-0.46925354,-0.03590393,9.909592,0
6155.294366964,0.5548627,0.8311176,0.037028763,-0.8297101,0.55608374,-0.04849744,-0.06089816,-0.0038137203,0.9981367,0.5679431,0.8222145,0.037470955,-0.82082844,0.5691666,-0.0478547,-0.06067404,-0.0035784813,0.99815124,-0.70388794,-0.16519165,9.86171,0
6155.298792013,0.5548502,0.83112514,0.03704529,-0.8297196,0.55607224,-0.04846779,-0.06088265,-0.0038448432,0.9981375,0.5676798,0.82239527,0.03749181,-0.8210115,0.56890494,-0.04782579,-0.06066098,-0.0036314698,0.9981518,-0.5793915,-0.10772705,9.789886,0
6155.303186544,0.5548596,0.8311194,0.037032887,-0.8297133,0.5560808,-0.04847604,-0.060882654,-0.0038292836,0.99813753,0.5674429,0.8225595,0.037476502,-0.821179,0.5686673,-0.047777385,-0.060611397,-0.003663979,0.9981547,-0.58418274,-0.01675415,9.751572,0
6155.307611593,0.58512795,0.8100102,0.0388439,-0.80865115,0.586403,-0.047061093,-0.06089814,-0.0038744027,0.9981364,0.5671965,0.8227279,0.03750958,-0.8213493,0.5684232,-0.047751825,-0.060608078,-0.0037238009,0.9981547,-0.6607971,-0.14125061,9.84256,0
6155.312006124,0.58513457,0.8100058,0.038835164,-0.8086475,0.5864091,-0.047048245,-0.060882643,-0.0038744067,0.9981374,0.56757444,0.82246697,0.03751458,-0.82108855,0.5688008,-0.04774145,-0.060604088,-0.0037059656,0.998155,-0.54107666,-0.04069519,9.694122,0
6155.316400655,0.5851254,0.81001186,0.038847256,-0.80865425,0.5864006,-0.047039542,-0.060882643,-0.0038899665,0.9981374,0.56791365,0.8222319,0.037532788,-0.82085323,0.5691406,-0.047738947,-0.060613915,-0.0036973108,0.9981544,-0.47883606,-0.002380371,9.871292,0
6155.320825704,0.5851543,0.80999285,0.038809262,-0.80863684,0.58642703,-0.04701023,-0.060836744,-0.003874357,0.9981402,0.56791365,0.8222319,0.037532788,-0.82085323,0.5691406,-0.047738947,-0.060613915,-0.0036973108,0.9981544,-0.47883606,-0.002380371,9.871292,0
6155.325220235,0.541253,0.84007806,0.03625025,-0.8386561,0.54245174,-0.049010605,-0.060836744,-0.003874357,0.9981402,0.5686226,0.821742,0.03752866,-0.8203635,0.569848,-0.047717523,-0.06059712,-0.0036538788,0.9981556,-0.6081238,-0.03590393,9.933533,0
6155.329614766,0.541253,0.84007806,0.03625025,-0.8386561,0.54245174,-0.049010605,-0.060836744,-0.003874357,0.9981402,0.5686226,0.821742,0.03752866,-0.8203635,0.569848,-0.047717523,-0.06059712,-0.0036538788,0.9981556,-0.6081238,-0.03590393,9.933533,0
6155.334039815,0.5564272,0.8300682,0.037090067,-0.82866734,0.5576488,-0.04835509,-0.06082125,-0.0038292382,0.9981413,0.56756884,0.82247674,0.0373844,-0.8210948,0.5687875,-0.047790583,-0.060570423,-0.0035716915,0.9981575,-0.5602417,0.05027771,9.871292,0
6155.338434347,0.5564207,0.8300721,0.037098363,-0.82867056,0.5576429,-0.048368227,-0.060836755,-0.003829235,0.9981404,0.56733215,0.8226404,0.037375253,-0.8212571,0.56855077,-0.047820084,-0.060588464,-0.0035648183,0.9981564,-0.6320648,-0.03111267,9.742004,0
6155.342859395,0.5564176,0.8300741,0.037102442,-0.82867384,0.55764,-0.048346832,-0.06082125,-0.003844798,0.9981413,0.56711125,0.822792,0.03739136,-0.82140934,0.5683312,-0.047816142,-0.060593415,-0.0035965412,0.998156,-0.59375,-0.07899475,9.914383,0
6155.347253927,0.59154844,0.80531746,0.039169535,-0.80397093,0.59283125,-0.046709307,-0.060836744,-0.0038603535,0.9981402,0.56688476,0.8229464,0.03742818,-0.8215624,0.5681074,-0.047845144,-0.060637217,-0.0036269098,0.99815327,-0.6320648,-0.05984497,9.9526825,0
6155.351648458,0.59152985,0.80532986,0.03919564,-0.80398583,0.59281415,-0.046670943,-0.06082123,-0.0039054796,0.998141,0.56741923,0.8225757,0.037477683,-0.82119304,0.56864387,-0.047813118,-0.060641363,-0.003646328,0.9981529,-0.5506592,-0.15083313,9.756363,0
6155.356073507,0.59152985,0.80532986,0.03919564,-0.80398583,0.59281415,-0.046670943,-0.06082123,-0.0039054796,0.998141,0.56788135,0.82225543,0.03750736,-0.8208719,0.56910706,-0.04781823,-0.060664497,-0.0036336544,0.9981516,-0.6033325,-0.04069519,9.789886,0
6155.360468038,0.5709002,0.82013756,0.0380425,-0.8187623,0.5721527,-0.047639083,-0.060836725,-0.003950598,0.9981399,0.56832576,0.8219471,0.037534755,-0.8205621,0.56955236,-0.047832336,-0.060693655,-0.0036152499,0.9981499,-0.64642334,-0.16040039,9.9048,0
6155.364862569,0.5709002,0.82013756,0.0380425,-0.8187623,0.5721527,-0.047639083,-0.060836725,-0.003950598,0.9981399,0.56836253,0.8219211,0.037546266,-0.8205357,0.5695898,-0.047838155,-0.060705163,-0.0036186366,0.99814916,-0.58418274,-0.06463623,9.847351,0
6155.369287618,0.57090676,0.8201335,0.03803398,-0.8187591,0.57215863,-0.0476261,-0.060821228,-0.0039506024,0.99814093,0.5684045,0.8218915,0.03755927,-0.820505,0.5696326,-0.047855984,-0.06072741,-0.003616011,0.9981478,-0.5746002,-0.04548645,9.718063,0
6155.373682149,0.56342405,0.82531226,0.037589736,-0.82392716,0.56466275,-0.04795784,-0.06080572,-0.0039506056,0.9981418,0.5684336,0.8218713,0.0375624,-0.82048607,0.5696618,-0.047834504,-0.060711667,-0.003628681,0.99814874,-0.5746002,-0.04069519,9.866501,0
6155.378107198,0.56341285,0.82531935,0.037602972,-0.8239316,0.5646526,-0.04800332,-0.060850684,-0.0039365916,0.9981392,0.5682944,0.8219678,0.037555456,-0.8205849,0.56952226,-0.04780024,-0.060678925,-0.0036528285,0.99815065,-0.6895294,0.026321411,9.799454,0
6155.382501729,0.56343675,0.8253043,0.03757482,-0.82391745,0.5646747,-0.04798677,-0.06082123,-0.0039210394,0.998141,0.5682264,0.8220157,0.037538163,-0.82063276,0.5694533,-0.047800936,-0.060669344,-0.003643292,0.9981513,-0.51234436,-0.011962891,9.789886,0
6155.386896261,0.58615756,0.8092616,0.03892025,-0.8079109,0.58743507,-0.046904612,-0.060821228,-0.0039506024,0.99814093,0.56815743,0.82206357,0.037530817,-0.82068306,0.56938386,-0.047762323,-0.060633108,-0.0036643906,0.9981534,-0.6320648,-0.10772705,9.818619,0
6155.391321309,0.5861592,0.8092606,0.03891813,-0.8079085,0.5874366,-0.046925295,-0.060836725,-0.003936595,0.9981399,0.56851685,0.8218137,0.037559677,-0.8204353,0.5697443,-0.047720924,-0.060617123,-0.0036851342,0.9981543,-0.6320648,-0.026321411,9.923965,0
6155.395715841,0.58615756,0.8092616,0.03892025,-0.8079109,0.58743507,-0.046904612,-0.060821228,-0.0039506024,0.99814093,0.5688793,0.8215613,0.037595578,-0.8201831,0.5701083,-0.04771002,-0.060630254,-0.0036940135,0.99815345,-0.55545044,-0.06463623,9.890442,0
6155.400110372,0.55967516,0.82786864,0.037380204,-0.8264773,0.5609082,-0.048140936,-0.060821228,-0.0039506024,0.99814093,0.5692079,0.8213334,0.03759888,-0.81995624,0.5704365,-0.047686465,-0.06061426,-0.0036859184,0.99815446,-0.6081238,-0.04069519,9.9479065,0
6155.404535421,0.5596568,0.82787997,0.037404947,-0.8264896,0.5608912,-0.048124265,-0.060821213,-0.0039817207,0.9981407,0.5690237,0.82146055,0.037609756,-0.8200809,0.57025343,-0.04773285,-0.060657743,-0.003681915,0.9981518,-0.59375,-0.10772705,9.933533,0
6155.408929952,0.5596716,0.8278708,0.037384957,-0.82647747,0.56090504,-0.048173305,-0.060850684,-0.0039365916,0.9981392,0.56881475,0.8216046,0.037625365,-0.820224,0.57004577,-0.04775361,-0.060682762,-0.0036982703,0.9981502,-0.6799469,0.09336853,9.70369,0
6155.413355001,0.5805743,0.8132931,0.03857279,-0.81192905,0.58184123,-0.047243673,-0.060866196,-0.0038899097,0.99813837,0.5686066,0.821748,0.03763768,-0.8203647,0.56983894,-0.047803972,-0.060730238,-0.0036949716,0.9981473,-0.6607971,0.06942749,9.804245,0
6155.417749532,0.58058345,0.81328714,0.038560644,-0.8119225,0.5818497,-0.047252312,-0.060866196,-0.00387435,0.99813837,0.56887925,0.82155746,0.037679356,-0.8201749,0.5701136,-0.047787644,-0.06074181,-0.0037182604,0.9981466,-0.5793915,0.002380371,9.66539,0
6155.422144063,0.58056724,0.8132976,0.03858203,-0.81193286,0.58183485,-0.047257323,-0.060882643,-0.0038899665,0.9981374,0.56911576,0.8213951,0.037645075,-0.82001305,0.5703476,-0.047771245,-0.06070985,-0.0036820828,0.9981486,-0.6368561,-0.06942749,9.852127,0
6155.426569112,0.56336445,0.82535344,0.037579708,-0.8239624,0.56460303,-0.04805823,-0.060882643,-0.0038899665,0.9981374,0.56934255,0.8212348,0.037715264,-0.81985575,0.57057804,-0.047720104,-0.060708914,-0.0037519906,0.99814844,-0.6081238,-0.04069519,9.818619,0
6155.430963643,0.56335783,0.8253575,0.0375881,-0.82396555,0.564597,-0.0480713,-0.06089814,-0.0038899626,0.9981364,0.56925046,0.8212984,0.037719525,-0.8199162,0.57048655,-0.04777524,-0.060756214,-0.0037307723,0.99814564,-0.61291504,-0.04548645,9.780304,0
6155.435358175,0.563374,0.82534736,0.0375674,-0.82395566,0.56461185,-0.048066586,-0.060882643,-0.0038744067,0.9981374,0.5691541,0.8213686,0.03764624,-0.8199847,0.570386,-0.047800228,-0.06073449,-0.003663651,0.9981472,-0.56980896,-0.002380371,9.713272,0
6155.439783223,0.5769868,0.81585306,0.038339842,-0.8144823,0.5782463,-0.047430504,-0.0608662,-0.0038603467,0.9981384,0.56904876,0.82144105,0.03765714,-0.820056,0.5702816,-0.047823492,-0.060759354,-0.003667066,0.9981457,-0.56980896,0.007171631,9.727631,0
6155.444177755,0.5769868,0.81585306,0.038339842,-0.8144823,0.5782463,-0.047430504,-0.0608662,-0.0038603467,0.9981384,0.5692151,0.8213265,0.03764312,-0.8199382,0.57044697,-0.04787081,-0.060790963,-0.003616242,0.9981439,-0.59375,-0.05984497,9.86171,0
6155.448602804,0.5769706,0.81586367,0.03835993,-0.81449264,0.57823133,-0.047436517,-0.060882643,-0.0038744067,0.9981374,0.569378,0.82121193,0.037677485,-0.8198246,0.5706117,-0.047853187,-0.060796823,-0.0036423763,0.9981435,-0.6368561,-0.08857727,9.923965,0
6155.452997335,0.5769636,0.81586814,0.03836852,-0.81449634,0.57822496,-0.047449462,-0.06089814,-0.0038744027,0.9981364,0.5695146,0.8211204,0.037608434,-0.8197338,0.5707437,-0.047833234,-0.060741622,-0.0035871833,0.9981471,-0.62727356,-0.03111267,9.832977,0
6155.457391866,0.5769593,0.815871,0.03837391,-0.81449723,0.5782211,-0.047481775,-0.0609276,-0.0038603921,0.9981346,0.5696486,0.821028,0.03759626,-0.81964195,0.5708768,-0.0478207,-0.060724963,-0.0035744736,0.99814814,-0.67515564,0.002380371,9.799454,0
6155.461816915,0.57695234,0.8158755,0.038382497,-0.81450105,0.57821476,-0.04749472,-0.060943104,-0.0038603886,0.9981338,0.5698091,0.8209162,0.037607443,-0.8195289,0.57103765,-0.047838353,-0.060746543,-0.0035616588,0.9981469,-0.6512146,-0.011962891,9.909592,0
6155.466211446,0.59974116,0.79920864,0.03970012,-0.79786634,0.6010416,-0.0464562,-0.06098962,-0.003813699,0.99813104,0.5699648,0.82080674,0.03763344,-0.81942093,0.57119465,-0.047812276,-0.060740665,-0.0035863125,0.99814713,-0.71347046,0.05505371,9.828186,0
6155.470605977,0.59973735,0.7992113,0.039705206,-0.79786706,0.60103816,-0.046489257,-0.061019078,-0.0037981325,0.9981293,0.5705986,0.8203671,0.03761791,-0.81898266,0.5718262,-0.047772635,-0.060702004,-0.0035494163,0.9981496,-0.6895294,0.026321411,9.962265,0
6155.475031026,0.5997476,0.79920423,0.039691485,-0.7978582,0.6010478,-0.046518914,-0.06103459,-0.0037685663,0.9981286,0.5711852,0.8199583,0.037627768,-0.8185732,0.5724124,-0.04777039,-0.06070833,-0.003515342,0.99814934,-0.67515564,0.01675415,9.847351,0
6155.479425557,0.58022153,0.8135453,0.038560674,-0.8121673,0.58148926,-0.04748041,-0.061050087,-0.0037685623,0.9981276,0.5717825,0.8195377,0.037718557,-0.8181533,0.5730142,-0.047747787,-0.060744382,-0.0035582108,0.998147,-0.6368561,-0.04069519,9.856918,0
6155.483850606,0.5802057,0.8135557,0.038581472,-0.8121776,0.5814747,-0.047484696,-0.061065592,-0.0037841185,0.9981266,0.5719308,0.81943125,0.03778294,-0.8180431,0.5731664,-0.047810547,-0.06083337,-0.0035637482,0.9981415,-0.61769104,-0.05984497,9.828186,0
6155.488245138,0.5802057,0.8135557,0.038581472,-0.8121776,0.5814747,-0.047484696,-0.061065592,-0.0037841185,0.9981266,0.5720809,0.8193258,0.037796117,-0.8179381,0.57331705,-0.0478001,-0.06083302,-0.0035693531,0.9981415,-0.61769104,-0.04069519,9.856918,0
6155.492639669,0.54669416,0.83653,0.03664763,-0.83510375,0.54790765,-0.04897679,-0.061050072,-0.003829244,0.9981273,0.5722261,0.8192247,0.03779032,-0.8178362,0.5734616,-0.04780898,-0.060837597,-0.0035487493,0.99814135,-0.5506592,-0.16040039,9.957474,0
6155.497064718,0.5467655,0.8364873,0.036558636,-0.83505595,0.5479738,-0.04905326,-0.061065603,-0.003707877,0.9981268,0.57172203,0.81957906,0.037737038,-0.81819093,0.5729552,-0.047811396,-0.06080685,-0.003541275,0.99814326,-0.6224823,-0.011962891,9.933533,0
6155.501459249,0.54675,0.8364966,0.036577985,-0.83506495,0.5479595,-0.049059197,-0.0610811,-0.0037218768,0.9981258,0.57124704,0.81991476,0.037637815,-0.81852007,0.5724753,-0.047925513,-0.060841557,-0.0034300005,0.9981415,-0.61291504,-0.05984497,9.9479065,0
6155.50585378,0.5681692,0.82204366,0.03778789,-0.82064635,0.56941235,-0.04805366,-0.061019104,-0.0037078876,0.9981297,0.5707639,0.82025033,0.037656248,-0.8188535,0.5719943,-0.047974262,-0.060890064,-0.0034529746,0.9981385,-0.45010376,-0.011962891,9.976624,0
6155.510278829,0.56816226,0.82204807,0.037796345,-0.8206499,0.569406,-0.048066698,-0.0610346,-0.0037078839,0.9981287,0.5707151,0.8202831,0.03768104,-0.81888545,0.57194716,-0.047990356,-0.060917243,-0.0034676322,0.99813676,-0.65600586,-0.01675415,9.804245,0
6155.51467336,0.56816226,0.82204807,0.037796345,-0.8206499,0.569406,-0.048066698,-0.0610346,-0.0037078839,0.9981287,0.57065654,0.82032347,0.037690833,-0.81892514,0.5718893,-0.04800261,-0.060932655,-0.0034729685,0.99813586,-0.6081238,-0.05984497,9.770737,0
6155.519098409,0.5695599,0.8210756,0.03789859,-0.8196794,0.5708073,-0.048006915,-0.061050102,-0.003721884,0.99812776,0.5706231,0.8203456,0.03771542,-0.81894535,0.5718576,-0.048036147,-0.060974088,-0.0034763326,0.9981333,-0.6512146,-0.07899475,9.9048,0
6155.52349294,0.56955326,0.82107985,0.03790708,-0.8196829,0.5708012,-0.048019927,-0.061065603,-0.0037218805,0.9981268,0.5705905,0.82036954,0.037687607,-0.8189694,0.57182336,-0.04803346,-0.060955837,-0.0034575632,0.9981345,-0.56980896,-0.15560913,9.780304,0
6155.527887472,0.5695312,0.8210938,0.037935305,-0.8196993,0.57078075,-0.047981534,-0.061050087,-0.0037685623,0.9981276,0.5705905,0.82036954,0.037687607,-0.8189694,0.57182336,-0.04803346,-0.060955837,-0.0034575632,0.9981345,-0.56980896,-0.15560913,9.780304,0
6155.53231252,0.5458801,0.83706504,0.03656601,-0.83563393,0.5470904,-0.049071666,-0.061081093,-0.0037685554,0.9981257,0.5705409,0.82040626,0.037638776,-0.8190053,0.5717709,-0.048046082,-0.060938057,-0.003414099,0.9981357,-0.6895294,-0.002380371,9.923965,0
6155.536707052,0.5459176,0.8370427,0.036517333,-0.8356095,0.54712504,-0.049103305,-0.06108111,-0.0037078736,0.998126,0.57006145,0.82074124,0.03759981,-0.81934214,0.5712898,-0.048025858,-0.06089719,-0.0034294177,0.9981381,-0.58418274,0.09336853,9.818619,0
6155.541101583,0.5459119,0.837046,0.03652466,-0.83561206,0.54711986,-0.049115207,-0.06109506,-0.0037078704,0.9981251,0.5696233,0.82104737,0.03755572,-0.81964576,0.5708499,-0.048075352,-0.06091082,-0.0033975479,0.9981374,-0.6607971,-0.04069519,9.694122,0
6155.545526632,0.5441179,0.8382194,0.036385443,-0.83678234,0.54532075,-0.049198788,-0.061081115,-0.0036767544,0.99812603,0.5691101,0.8214046,0.037525978,-0.82000124,0.5703359,-0.048113465,-0.060923032,-0.0033894859,0.9981367,-0.53630066,0.04548645,9.818619,0
6155.549921163,0.54413396,0.83820987,0.03636484,-0.83677304,0.5453354,-0.04919362,-0.061065614,-0.0036611983,0.998127,0.5686805,0.8217039,0.03748522,-0.8203,0.56990457,-0.04813208,-0.060913313,-0.0033773484,0.9981373,-0.5746002,0.02154541,9.780304,0
6155.554346212,0.5441534,0.8381983,0.03633985,-0.83676034,0.5453534,-0.04920978,-0.06106562,-0.0036300793,0.9981271,0.5682042,0.8220359,0.037429772,-0.82063305,0.5694257,-0.048122745,-0.0608721,-0.003372564,0.9981399,-0.6081238,0.03590393,9.8138275,0
6155.558740743,0.5542288,0.83154446,0.036936816,-0.8301192,0.55544645,-0.048799146,-0.061095078,-0.0036160692,0.9981254,0.5677147,0.82237756,0.037352383,-0.82097405,0.5689324,-0.048140824,-0.060840912,-0.003335082,0.9981419,-0.6895294,0.007171631,9.957474,0
6155.563135274,0.5542473,0.83153313,0.03691285,-0.8301101,0.5554634,-0.048761,-0.061050124,-0.0036160792,0.9981281,0.5674743,0.8225436,0.037348494,-0.82113874,0.56869227,-0.048168916,-0.06086083,-0.003333672,0.9981407,-0.48362732,-0.03590393,9.86171,0
6155.567560323,0.5542506,0.8315312,0.036908723,-0.8301069,0.5554665,-0.04878239,-0.06106563,-0.0036005164,0.9981273,0.5671901,0.82273954,0.03735036,-0.8213358,0.5684086,-0.048157547,-0.060851384,-0.0033627055,0.99814117,-0.5027771,-0.10772705,9.775513,0
6155.571954854,0.55424505,0.83153445,0.036915746,-0.83011264,0.55546117,-0.04874043,-0.06103462,-0.0036300863,0.998129,0.5671901,0.82273954,0.03735036,-0.8213358,0.5684086,-0.048157547,-0.060851384,-0.0033627055,0.99814117,-0.5027771,-0.10772705,9.775513,0
6155.576349386,0.58045644,0.8133818,0.038474254,-0.81199944,0.5817187,-0.04754092,-0.06105012,-0.0036456424,0.99812806,0.56669444,0.8230821,0.0373277,-0.82168156,0.5679123,-0.048115328,-0.060801722,-0.0034047945,0.9981441,-0.6224823,-0.05505371,9.727631,0
6155.580774434,0.5804691,0.8133737,0.038456902,-0.81199276,0.5817302,-0.047515154,-0.06101911,-0.0036456492,0.9981299,0.5670013,0.8228721,0.0372973,-0.82147175,0.5682167,-0.04810377,-0.0607762,-0.003363783,0.99814576,-0.5506592,-0.05984497,9.765945,0
6155.585168966,0.55343515,0.83207643,0.03685652,-0.8306529,0.55464923,-0.0487842,-0.06103462,-0.0036160825,0.998129,0.56728894,0.82267076,0.037364822,-0.82127386,0.5685078,-0.048043687,-0.060766328,-0.003432099,0.9981461,-0.61769104,0.03111267,9.780304,0
6155.589594014,0.55342877,0.83208025,0.03686477,-0.83065605,0.55464345,-0.04879736,-0.061050124,-0.0036160792,0.9981281,0.56701607,0.8228585,0.03737328,-0.82145995,0.568236,-0.048077576,-0.060797885,-0.0034398942,0.99814415,-0.6224823,-0.03590393,9.780304,0
6155.593988546,0.55342567,0.83208215,0.03686887,-0.8306558,0.5546407,-0.048831906,-0.061081134,-0.003600513,0.9981263,0.5667786,0.8230231,0.03735104,-0.82162404,0.56799763,-0.04808978,-0.060794298,-0.003432255,0.9981444,-0.6990967,0.026321411,9.890442,0
6155.598383077,0.581348,0.8127427,0.038520504,-0.81135917,0.5826116,-0.047541045,-0.061081126,-0.0036160725,0.99812627,0.56653214,0.8231935,0.03733391,-0.8217914,0.56775075,-0.048145674,-0.06082956,-0.003404613,0.99814236,-0.58895874,-0.09815979,9.756363,0
6155.602808126,0.5813361,0.81275046,0.03853702,-0.8113655,0.58260083,-0.047565505,-0.061110582,-0.0036160662,0.9981245,0.56682277,0.82299185,0.03736629,-0.8215899,0.5680428,-0.048138518,-0.060843267,-0.0034137547,0.99814147,-0.6799469,-0.03111267,9.756363,0
6155.607202657,0.5813344,0.8127515,0.038539264,-0.81136775,0.58259916,-0.047544826,-0.061095078,-0.003630073,0.9981254,0.56709045,0.8228066,0.037385717,-0.8214048,0.56831115,-0.048130136,-0.060848515,-0.0034146695,0.99814117,-0.5650177,-0.05027771,9.919174,0
6155.611597188,0.5771331,0.8157518,0.038292363,-0.8143649,0.5783905,-0.04768874,-0.061050117,-0.003661202,0.998128,0.5673774,0.8226081,0.03740028,-0.821207,0.5685984,-0.048113964,-0.060844682,-0.0034145953,0.9981414,-0.5171356,-0.14125061,9.900009,0
6155.616022237,0.57712406,0.8157577,0.038304545,-0.81437135,0.5783821,-0.047680147,-0.061050106,-0.0036767612,0.9981279,0.5675848,0.82246405,0.03742254,-0.8210646,0.56880677,-0.048081268,-0.06083131,-0.00343613,0.9981421,-0.59854126,-0.08378601,9.914383,0
6155.620416768,0.577115,0.81576353,0.038316727,-0.81437784,0.5783738,-0.047671556,-0.061050106,-0.0036923208,0.9981279,0.56781155,0.8223074,0.037423335,-0.82090485,0.5690333,-0.048126865,-0.060870208,-0.0033940128,0.99813986,-0.59375,-0.05027771,9.847351,0
6155.624841817,0.58776385,0.80809534,0.03893053,-0.80672693,0.58904004,-0.04715156,-0.0610346,-0.003692324,0.9981287,0.56798697,0.8221845,0.037461977,-0.820782,0.56921077,-0.048124798,-0.06089123,-0.003413861,0.99813855,-0.5506592,-0.05984497,9.713272,0
6155.629236348,0.58777297,0.8080893,0.038918473,-0.8067204,0.58904856,-0.047160313,-0.06103461,-0.003676765,0.9981289,0.56835794,0.8219289,0.037445504,-0.82052565,0.56958014,-0.04812571,-0.060884126,-0.0033723675,0.99813914,-0.61769104,0.026321411,9.84256,0
6155.63363088,0.5878596,0.8080317,0.03880354,-0.80665827,0.5891282,-0.047224462,-0.061019138,-0.0035398444,0.9981303,0.5687418,0.82166064,0.037504196,-0.8202585,0.56996685,-0.048102636,-0.06090019,-0.0034051542,0.99813807,-0.6224823,0.01675415,9.86171,0
6155.638055929,0.57324296,0.8185057,0.037958603,-0.81711024,0.5744874,-0.047907293,-0.061019138,-0.0035538482,0.9981303,0.5690885,0.82142377,0.037431594,-0.82001936,0.5703087,-0.048127327,-0.060880493,-0.0033059204,0.99813956,-0.59375,-0.07899475,9.928741,0
6155.64245046,0.5732224,0.8185189,0.037986744,-0.8171259,0.5744684,-0.047868714,-0.06100362,-0.00360053,0.99813104,0.5691825,0.8213569,0.03747267,-0.8199511,0.57040507,-0.04814962,-0.06092262,-0.0033198365,0.998137,-0.5602417,-0.15560913,9.832977,0
6155.646844991,0.57321346,0.81852454,0.037998974,-0.8171321,0.5744602,-0.047860164,-0.061003618,-0.0036160897,0.998131,0.56928056,0.8212872,0.03750975,-0.81988126,0.57050514,-0.04815204,-0.06094616,-0.0033415202,0.99813545,-0.59854126,-0.04548645,9.804245,0
6155.65127004,0.55888826,0.82840943,0.03717088,-0.826996,0.56011117,-0.048507154,-0.061003614,-0.003630093,0.9981309,0.56939214,0.82120806,0.03755026,-0.81980443,0.57061887,-0.048112895,-0.06093758,-0.0033887664,0.99813586,-0.61291504,-0.08378601,9.780304,0
6155.655664571,0.5588903,0.82840824,0.03716809,-0.8269935,0.56011313,-0.048527747,-0.061019123,-0.0036160862,0.99813,0.56917566,0.8213588,0.03753441,-0.81995434,0.57040185,-0.04813182,-0.060943186,-0.0033810402,0.9981355,-0.6703644,0.002380371,9.914383,0
6155.66008962,0.558867,0.82842255,0.03719997,-0.8270081,0.5600918,-0.048525017,-0.061034612,-0.0036456457,0.99812895,0.5689481,0.8215155,0.0375528,-0.82011,0.570176,-0.048153773,-0.06097078,-0.003400427,0.9981337,-0.6224823,-0.11730957,9.789886,0
6155.664484151,0.5588821,0.82841325,0.03717923,-0.82699907,0.5601057,-0.048520256,-0.061019123,-0.00363009,0.99813,0.56872606,0.82167095,0.03751803,-0.8202619,0.5699523,-0.0482163,-0.061001416,-0.0033527443,0.99813205,-0.58418274,0.007171631,9.933533,0
6155.668878682,0.55887306,0.8284188,0.03719161,-0.82700515,0.5600973,-0.048511922,-0.06101911,-0.0036456492,0.9981299,0.5685736,0.8217774,0.037496563,-0.82036847,0.5697988,-0.048216585,-0.060988795,-0.003346321,0.9981328,-0.58895874,-0.07899475,9.756363,0
6155.673303731,0.55888826,0.82840943,0.03717088,-0.826996,0.56011117,-0.048507154,-0.061003614,-0.003630093,0.9981309,0.5684114,0.82188857,0.03751817,-0.8204782,0.5696384,-0.048245125,-0.061023902,-0.003359761,0.9981306,-0.5650177,-0.011962891,9.909592,0
6155.677698263,0.5736704,0.81820333,0.038020223,-0.8168136,0.5749175,-0.04780678,-0.060974162,-0.0036300998,0.99813277,0.5682152,0.82202536,0.037494034,-0.82061553,0.56944096,-0.04824097,-0.06100594,-0.0033569355,0.9981317,-0.5027771,-0.03590393,9.909592,0
6155.682092794,0.5736676,0.8182052,0.03802387,-0.81681675,0.5749148,-0.04778529,-0.060958657,-0.0036456627,0.9981336,0.56831753,0.82195634,0.037455294,-0.820545,0.56954086,-0.04826117,-0.061000895,-0.0033060873,0.9981322,-0.5746002,-0.07421875,9.919174,0
6155.686517843,0.57365537,0.818213,0.03803972,-0.8168265,0.5749035,-0.047755267,-0.06094315,-0.0036767856,0.9981345,0.56840116,0.821898,0.0374676,-0.8204886,0.569625,-0.04822709,-0.06098023,-0.0033294016,0.9981334,-0.56980896,-0.10772705,9.84256,0
6155.690912374,0.55877095,0.82848966,0.037147157,-0.8270809,0.55999243,-0.048432138,-0.060927648,-0.0036612293,0.99813545,0.5685421,0.8218008,0.037458837,-0.82039034,0.5697652,-0.048242338,-0.060988333,-0.0033030668,0.998133,-0.5602417,-0.002380371,9.971848,0
6155.695337423,0.5587768,0.82848614,0.037139658,-0.82707804,0.5599977,-0.048420344,-0.060913697,-0.0036612325,0.9981363,0.5683601,0.82192844,0.03742268,-0.82051724,0.56958133,-0.048254862,-0.060977302,-0.003279817,0.9981338,-0.58418274,-0.03590393,9.804245,0
6155.699731954,0.5587801,0.828484,0.037135344,-0.82707804,0.5600006,-0.04838581,-0.060882688,-0.0036767991,0.9981381,0.5681573,0.8220681,0.0374319,-0.82065576,0.56937957,-0.048279684,-0.061002154,-0.003288245,0.99813217,-0.5219269,-0.08857727,9.880859,0
6155.704126485,0.6054259,0.7949025,0.03986863,-0.79356974,0.606726,-0.046159633,-0.06088174,-0.0036923015,0.9981382,0.56797403,0.8221965,0.03739602,-0.82078254,0.56919444,-0.048307788,-0.061004102,-0.0032564336,0.99813217,-0.5793915,-0.05984497,9.74678,0
6155.708551534,0.60542744,0.79490143,0.039866388,-0.79356724,0.6067275,-0.04618203,-0.060898192,-0.0036767956,0.9981372,0.5687234,0.8216762,0.037443794,-0.8202641,0.5699453,-0.048262037,-0.06099668,-0.0032660507,0.99813265,-0.6368561,0.02154541,9.832977,0
6155.712946065,0.60543567,0.7948958,0.03985448,-0.79356104,0.60673493,-0.046191078,-0.060898196,-0.003661236,0.99813724,0.56948066,0.8211512,0.03745096,-0.81974,0.5707016,-0.048229735,-0.060977224,-0.003234148,0.9981339,-0.61769104,-0.03111267,9.761154,0
6155.717340597,0.57099694,0.8200784,0.037867364,-0.81868917,0.57223934,-0.047854565,-0.060913693,-0.0036767921,0.9981362,0.570228,0.82063025,0.03749689,-0.81922185,0.57145023,-0.048168324,-0.060955986,-0.003251345,0.99813515,-0.61769104,-0.06463623,9.804245,0
6155.721765645,0.57097435,0.82009274,0.037895735,-0.81870264,0.5722186,-0.047870792,-0.06094314,-0.003692345,0.9981343,0.5702328,0.82062674,0.037501797,-0.8192189,0.5714553,-0.048158456,-0.060950715,-0.0032606528,0.99813545,-0.67515564,-0.05027771,9.780304,0
6155.726160177,0.57095593,0.8201046,0.037918948,-0.81871563,0.57220155,-0.0478547,-0.060943138,-0.0037219082,0.99813426,0.57022965,0.8206304,0.037470154,-0.8192211,0.5714503,-0.048180237,-0.06095049,-0.0032225414,0.99813557,-0.5746002,-0.06463623,9.876068,0
6155.730585225,0.5709627,0.82010025,0.037910443,-0.818712,0.5722078,-0.047841694,-0.060927633,-0.003721912,0.9981352,0.57022965,0.8206304,0.037470154,-0.8192211,0.5714503,-0.048180237,-0.06095049,-0.0032225414,0.99813557,-0.5746002,-0.06463623,9.876068,0
6155.734979757,0.5447298,0.8378228,0.03636348,-0.83639526,0.5459296,-0.049026754,-0.060927633,-0.0037079079,0.9981352,0.57021725,0.82063836,0.03748267,-0.81922895,0.5714387,-0.048183613,-0.060960367,-0.0032317631,0.9981349,-0.58418274,0.026321411,9.880859,0
6155.739374288,0.54474556,0.83781344,0.036343697,-0.8363861,0.5459441,-0.049022917,-0.060913693,-0.003692352,0.9981362,0.5697388,0.8209718,0.03745657,-0.8195655,0.57095945,-0.04814344,-0.06091058,-0.0032689236,0.99813783,-0.55545044,-0.026321411,9.837769,0
6155.743799337,0.56767255,0.8223918,0.03767698,-0.82099897,0.5689096,-0.047986124,-0.060898192,-0.0036923555,0.9981372,0.5692158,0.8213377,0.037387446,-0.81992984,0.57043314,-0.04817793,-0.060897384,-0.0032314444,0.9981388,-0.59854126,-0.02154541,9.933533,0
6155.748193868,0.5677017,0.82237357,0.03763873,-0.82098246,0.5689362,-0.04795475,-0.060850743,-0.003676749,0.99814016,0.5692183,0.8213362,0.03738323,-0.81992996,0.5704353,-0.048151016,-0.06087288,-0.0032431912,0.9981403,-0.45010376,-0.011962891,9.785095,0
6155.752588399,0.5676804,0.82238686,0.0376667,-0.8209981,0.5689165,-0.047918532,-0.060836777,-0.0037218747,0.9981408,0.5691947,0.82135314,0.0373706,-0.8199454,0.570411,-0.04817532,-0.06088555,-0.0032207146,0.99813956,-0.58895874,-0.15083313,9.890442,0
6155.757013448,0.59208703,0.8049262,0.039073646,-0.8035733,0.59336346,-0.046794184,-0.060850736,-0.0036923084,0.99814004,0.5691556,0.82138026,0.037369072,-0.8199693,0.57037216,-0.048228532,-0.06092824,-0.0031919542,0.99813706,-0.6224823,0.06463623,9.871292,0
6155.761407979,0.59208703,0.8049262,0.039073646,-0.8035733,0.59336346,-0.046794184,-0.060850736,-0.0036923084,0.99814004,0.5696119,0.821065,0.03734356,-0.81965506,0.57082605,-0.048200253,-0.06089222,-0.0031533996,0.9981394,-0.5793915,-0.05984497,9.679749,0
6155.765833028,0.592072,0.80493623,0.03909454,-0.8035832,0.5933497,-0.046798117,-0.060866237,-0.0037078643,0.998139,0.57007426,0.82074267,0.03737296,-0.8193362,0.5712891,-0.048134036,-0.060856424,-0.003181047,0.99814147,-0.65600586,-0.04548645,9.880859,0
6155.770227559,0.57198304,0.8193892,0.03790152,-0.81800514,0.5732255,-0.0477485,-0.060850736,-0.0036923084,0.99814004,0.5704833,0.82045925,0.037355836,-0.81905407,0.5716964,-0.048102137,-0.06082204,-0.00315498,0.9981437,-0.5650177,-0.002380371,9.713272,0
6155.774622091,0.57201034,0.8193719,0.0378648,-0.8179861,0.5732506,-0.04777405,-0.060850747,-0.00364563,0.9981402,0.5705172,0.820434,0.037392974,-0.81903076,0.5717323,-0.048071478,-0.060818244,-0.0032003925,0.99814373,-0.59375,0.05027771,9.823395,0
6155.779047139,0.57199216,0.8193835,0.037889283,-0.8179989,0.5732339,-0.047757022,-0.060850743,-0.003676749,0.99814016,0.57055885,0.82040495,0.03739463,-0.8190036,0.5717739,-0.048038997,-0.060792703,-0.0032172608,0.9981452,-0.58895874,-0.11251831,9.890442,0
6155.783441671,0.5565148,0.83001447,0.03697707,-0.8286074,0.5577297,-0.048449248,-0.06083679,-0.003676752,0.99814093,0.5705653,0.82040143,0.03737361,-0.819003,0.5717789,-0.047988992,-0.06073968,-0.0032282472,0.99814844,-0.58895874,-0.026321411,9.799454,0
6155.787836202,0.55651164,0.83001643,0.036981154,-0.8286107,0.5577268,-0.048427846,-0.060821284,-0.0036923152,0.9981419,0.57029325,0.8205914,0.03735602,-0.81919265,0.57150626,-0.047999617,-0.06073727,-0.0032279193,0.99814856,-0.5315094,-0.05505371,9.928741,0
6155.792261251,0.55653083,0.8300046,0.036956396,-0.82859766,0.5577445,-0.04844438,-0.06082129,-0.0036611962,0.99814194,0.57002336,0.82078004,0.037329584,-0.8193807,0.5712353,-0.04801537,-0.060734034,-0.0032172573,0.9981488,-0.62727356,0.007171631,9.809036,0
6155.796655782,0.5226708,0.85181653,0.034983423,-0.8503645,0.5238272,-0.049852297,-0.060790278,-0.003692322,0.99814373,0.5697558,0.8209642,0.0373645,-0.8195611,0.57097054,-0.048084855,-0.060809974,-0.0032258693,0.99814415,-0.50756836,-0.08857727,9.871292,0
6155.801080831,0.5226586,0.8518234,0.034998994,-0.8503698,0.5238161,-0.04987917,-0.060821284,-0.0036923152,0.9981419,0.56882036,0.82161397,0.037334494,-0.82021034,0.5700349,-0.04811492,-0.060813855,-0.0032533987,0.9981438,-0.6799469,-0.05505371,9.837769,0
6155.805475362,0.5226196,0.8518453,0.03504849,-0.8503938,0.52378005,-0.04984892,-0.06082127,-0.003752997,0.9981416,0.56791586,0.8222433,0.03725098,-0.8208413,0.5691269,-0.048105534,-0.060754985,-0.0032572472,0.99814737,-0.58895874,-0.16998291,9.933533,0
6155.809869893,0.5747014,0.81747687,0.038074933,-0.81610215,0.5759491,-0.04753778,-0.060790267,-0.0037530044,0.99814355,0.5670032,0.82287246,0.037258588,-0.8214699,0.56821644,-0.048138022,-0.0607824,-0.0033123938,0.9981455,-0.5171356,-0.06942749,9.670166,0
6155.814294942,0.5746951,0.817481,0.03808352,-0.8161055,0.57594335,-0.047550723,-0.060805764,-0.0037530004,0.99814254,0.56716025,0.8227631,0.037284452,-0.8213666,0.5683744,-0.048035886,-0.060713682,-0.0033801552,0.99814945,-0.64642334,-0.002380371,9.866501,0
6155.818689473,0.5746706,0.81749666,0.03811653,-0.8161216,0.57592094,-0.047546558,-0.06082126,-0.0037841161,0.9981415,0.56731707,0.82265526,0.0372779,-0.82126206,0.5685303,-0.047978137,-0.06066308,-0.0033961104,0.9981525,-0.58418274,-0.07899475,9.804245,0
6155.823084005,0.5746624,0.8175019,0.038127523,-0.8161274,0.57591337,-0.04753886,-0.06082126,-0.0037981197,0.9981415,0.56731707,0.82265526,0.0372779,-0.82126206,0.5685303,-0.047978137,-0.06066308,-0.0033961104,0.9981525,-0.58418274,-0.07899475,9.804245,0
6155.827509054,0.5798372,0.8138248,0.038445186,-0.8124601,0.5810977,-0.04726489,-0.06080575,-0.003829242,0.99814224,0.56759834,0.82245994,0.03730618,-0.82106733,0.56881285,-0.04796174,-0.060666848,-0.0034078786,0.99815226,-0.56980896,-0.12210083,9.74678,0
6155.831903585,0.57981944,0.8138362,0.038469523,-0.8124728,0.58108145,-0.047247604,-0.06080574,-0.003860361,0.9981422,0.56783205,0.82229996,0.037277628,-0.8209095,0.56904423,-0.047919847,-0.060617108,-0.0033911357,0.99815536,-0.59375,-0.12689209,9.919174,0
6155.836328634,0.5611924,0.826841,0.037376333,-0.82544994,0.56242245,-0.048097454,-0.06079024,-0.0038603647,0.99814314,0.56806487,0.82213855,0.037289456,-0.8207481,0.5692774,-0.04791504,-0.060620848,-0.003386395,0.9981551,-0.55545044,-0.02154541,9.828186,0
6155.840723165,0.56117684,0.8268507,0.03739577,-0.8254594,0.5624081,-0.048103064,-0.060805738,-0.0038743645,0.9981421,0.5679272,0.82223153,0.03733708,-0.82084185,0.5691428,-0.047908124,-0.060641702,-0.0034395095,0.9981537,-0.6607971,-0.06463623,9.895233,0
6155.845117696,0.56118566,0.82684517,0.037384685,-0.82545334,0.56241626,-0.048110556,-0.06080574,-0.003860361,0.9981422,0.5677978,0.82232094,0.03733564,-0.8209272,0.5690138,-0.04797744,-0.06069735,-0.0034083587,0.9981504,-0.6033325,0.007171631,9.823395,0
6155.849542745,0.5810262,0.8129726,0.03852341,-0.811609,0.5822893,-0.04722112,-0.06082125,-0.0038292382,0.9981413,0.5677025,0.822386,0.037352756,-0.82099307,0.5689196,-0.047968905,-0.060699668,-0.0034342844,0.99815017,-0.6320648,0.007171631,9.847351,0
6155.853937276,0.5810137,0.81298083,0.038538966,-0.8116192,0.58227766,-0.04719098,-0.06080574,-0.003860361,0.9981422,0.5679789,0.822193,0.037396684,-0.820797,0.5691984,-0.048014406,-0.060763247,-0.003423917,0.99814636,-0.5458679,-0.10293579,9.909592,0
6155.858331807,0.58104366,0.81296116,0.038501777,-0.8116012,0.58230525,-0.04716216,-0.060760792,-0.0038448123,0.99814504,0.5682659,0.8219939,0.037415333,-0.8205994,0.56948596,-0.047983207,-0.06074941,-0.0034357798,0.99814713,-0.48840332,0.007171631,10.005356,0
6155.862756856,0.5720004,0.81937355,0.037979834,-0.818001,0.57324696,-0.047564946,-0.060745288,-0.0038603754,0.9981459,0.5685257,0.8218127,0.037449677,-0.8204177,0.56974745,-0.04798496,-0.06077151,-0.0034436937,0.99814576,-0.5746002,-0.06942749,9.670166,0
6155.867151388,0.57201916,0.8193616,0.03795539,-0.8179878,0.57326424,-0.047581952,-0.06074529,-0.0038292562,0.99814594,0.56856424,0.8217889,0.037386417,-0.8203938,0.569782,-0.047985267,-0.060735866,-0.003388874,0.99814814,-0.59375,0.007171631,9.823395,0
6155.871576436,0.5720351,0.81935155,0.037934624,-0.81797785,0.5732788,-0.047577478,-0.06072979,-0.0038137,0.9981469,0.5686183,0.8217482,0.037457895,-0.8203584,0.5698401,-0.04789967,-0.06070648,-0.0034922664,0.9981496,-0.5458679,0.03111267,9.823395,0
6155.875970968,0.5720605,0.81933516,0.03790133,-0.81796443,0.57330203,-0.047526844,-0.060669333,-0.0038137143,0.99815065,0.5686943,0.8216964,0.037440855,-0.82030636,0.5699148,-0.04790103,-0.060698207,-0.003471931,0.9981501,-0.43572998,-0.04548645,9.876068,0
6155.880365499,0.57202405,0.8193585,0.03794902,-0.81799006,0.5732684,-0.047493674,-0.060669318,-0.0038743967,0.9981504,0.5687716,0.82164115,0.03747958,-0.8202485,0.56999457,-0.04794478,-0.06075656,-0.0034729366,0.9981466,-0.6081238,-0.18913269,9.799454,0
6155.884790548,0.5720119,0.81936634,0.037964936,-0.81799984,0.5732571,-0.047463685,-0.06065381,-0.0039055196,0.99815124,0.5688418,0.82159245,0.037481744,-0.8201957,0.570065,-0.048009854,-0.060811564,-0.0034323526,0.9981433,-0.5506592,-0.11730957,9.804245,0
6155.889185079,0.5853861,0.8098279,0.038752943,-0.8084827,0.58665437,-0.046823803,-0.06065381,-0.0039210794,0.99815124,0.56895983,0.8215116,0.037459858,-0.82011527,0.5701814,-0.047999542,-0.060791105,-0.0034115924,0.9981446,-0.6081238,-0.07899475,9.794678,0
6155.89357961,0.5853819,0.80983067,0.038758326,-0.80848336,0.5866506,-0.046858206,-0.06068481,-0.0039055122,0.99814934,0.5693114,0.8212662,0.037501827,-0.8198726,0.5705348,-0.047947384,-0.06077366,-0.0034497248,0.9981456,-0.6895294,-0.01675415,9.775513,0
6155.898004659,0.5853852,0.8098285,0.038754106,-0.8084799,0.5866537,-0.04687848,-0.06069877,-0.0038899495,0.99814856,0.5696459,0.8210329,0.037530836,-0.8196404,0.57087034,-0.047923405,-0.06077193,-0.0034624222,0.99814564,-0.59854126,-0.007171631,9.809036,0
6155.90239919,0.5500048,0.8343538,0.036719736,-0.83295155,0.5512153,-0.04850913,-0.060714263,-0.003905505,0.9981475,0.5699747,0.8208059,0.03750175,-0.8194114,0.57119703,-0.04794616,-0.06077538,-0.0034012632,0.99814564,-0.6607971,-0.06463623,9.799454,0
6155.906824239,0.55000716,0.83435243,0.036716588,-0.8329522,0.5512174,-0.0484759,-0.060684808,-0.0039210715,0.9981492,0.5695415,0.821108,0.037471253,-0.8197105,0.5707628,-0.048005085,-0.06080456,-0.0033746941,0.998144,-0.49798584,-0.07899475,9.871292,0
6155.91121877,0.55001086,0.8343502,0.036711518,-0.8329488,0.55122083,-0.048495956,-0.060698766,-0.003905509,0.9981485,0.56913483,0.8213905,0.037459232,-0.8199908,0.5703563,-0.048049666,-0.06083265,-0.0033694867,0.9981423,-0.6703644,0.01675415,9.976624,0
6155.915613302,0.5752243,0.81710637,0.03813479,-0.8157428,0.57647395,-0.04734464,-0.060669318,-0.0038743967,0.9981504,0.56875116,0.82165825,0.037414704,-0.8202569,0.5699706,-0.048085112,-0.060834814,-0.003341208,0.99814224,-0.51234436,0.026321411,10.077194,0
6155.92003835,0.57522535,0.8171057,0.03813343,-0.81574553,0.5764747,-0.047288682,-0.060622804,-0.003905527,0.9981531,0.56885785,0.82158285,0.037448,-0.8201802,0.57007927,-0.04810519,-0.06087073,-0.003349089,0.99814004,-0.5027771,-0.11251831,9.775513,0
6155.924432882,0.57525283,0.81708795,0.03809809,-0.8157261,0.5765002,-0.047313463,-0.060622815,-0.0038604042,0.9981533,0.5689636,0.821508,0.037482962,-0.8201039,0.57018703,-0.0481281,-0.060909916,-0.0033567874,0.9981376,-0.6081238,0.05505371,9.923965,0
6155.928827413,0.6064153,0.7941461,0.039904024,-0.7928349,0.6077145,-0.045782078,-0.060607918,-0.0038743508,0.99815416,0.5691146,0.82140183,0.037518255,-0.8199989,0.57033986,-0.048106566,-0.060912978,-0.0033867776,0.99813735,-0.55545044,-0.05984497,9.785095,0
6155.933252462,0.60641307,0.7941476,0.039906822,-0.7928377,0.6077123,-0.045760427,-0.060592413,-0.003889914,0.99815506,0.56984156,0.8208975,0.03752105,-0.8194966,0.5710656,-0.048056122,-0.06087613,-0.003363995,0.9981396,-0.5506592,-0.06942749,9.895233,0
6155.937646993,0.606418,0.79414433,0.039900586,-0.7928364,0.60771674,-0.045726143,-0.060561404,-0.0039054807,0.99815685,0.5706215,0.82035214,0.037596676,-0.8189549,0.5718485,-0.047980793,-0.06086075,-0.0034111114,0.9981404,-0.5219269,-0.10293579,9.856918,0
6155.942072042,0.6016497,0.7977751,0.039656676,-0.7964586,0.60294247,-0.04598002,-0.0605924,-0.003921033,0.9981549,0.57135093,0.81984013,0.037685454,-0.81844395,0.57258207,-0.047950447,-0.060889717,-0.0034468998,0.99813855,-0.6655731,-0.06942749,10.034088,0
6155.946466573,0.6016783,0.79775536,0.039617766,-0.7964404,0.6029685,-0.045950968,-0.060545895,-0.0039054842,0.99815774,0.5719244,0.81943935,0.03770435,-0.8180435,0.5731556,-0.047932774,-0.06088846,-0.003429872,0.99813867,-0.46446228,-0.007171631,9.636658,0
6155.950861104,0.60168874,0.7977482,0.039603602,-0.79643595,0.60297793,-0.045905262,-0.06050094,-0.0039210543,0.9981604,0.57250136,0.8190355,0.037724875,-0.817639,0.57373285,-0.047928292,-0.060898967,-0.0034063156,0.9981381,-0.49798584,-0.05505371,9.895233,0
6155.955286153,0.6148565,0.7876055,0.04036189,-0.7863149,0.61616737,-0.04523999,-0.06050094,-0.0039210543,0.9981604,0.57311505,0.8186064,0.03771967,-0.8172115,0.574345,-0.0478872,-0.06086487,-0.0033800777,0.9981403,-0.61291504,-0.05027771,9.761154,0
