Time,Rot1,Rot2,Rot3,Rot4,Rot5,Rot6,Rot7,Rot8,Rot9,FRot1,FRot2,FRot3,FRot4,FRot5,FRot6,FRot7,FRot8,FRot9,AccX,AccY,AccZ,Imid
4739.638297943,0.6382048,0.7698282,0.007687822,-0.7697772,0.63825107,-0.0088680275,-0.011733619,-2.582921E-4,0.99993116,0.6305758,0.77608526,0.008116797,-0.77602935,0.6306279,-0.009327799,-0.012357846,-4.1698775E-4,0.9999236,-0.16758728,-0.06463623,9.856918,0
4739.642722992,0.6383286,0.7697282,0.0074178805,-0.76967704,0.63837165,-0.0088735605,-0.011565595,-4.5123405E-5,0.99993306,0.6307084,0.77597994,0.007872875,-0.7759264,0.63075745,-0.009122634,-0.012044856,-3.5504895E-4,0.9999274,0.04309082,0.002380371,9.818619,0
4739.647117523,0.6242859,0.78116393,0.007071227,-0.7811108,0.62432593,-0.009114257,-0.01153448,1.6648987E-4,0.99993354,0.63090974,0.7758185,0.00764951,-0.7757643,0.6309561,-0.009173332,-0.011943346,-1.4667238E-4,0.99992865,0.0622406,-0.02154541,9.84256,0
4739.651512055,0.62433857,0.78112286,0.0069551207,-0.7810677,0.6243772,-0.009286748,-0.01159671,3.6565503E-4,0.9999327,0.6307672,0.7759359,0.007502462,-0.7758797,0.6308118,-0.009338788,-0.011978942,6.959367E-5,0.99992824,-0.13406372,0.04069519,9.785095,0
4739.655937103,0.6243259,0.7811328,0.0069831437,-0.7810773,0.62436485,-0.009322102,-0.011641828,3.6565485E-4,0.9999322,0.63060415,0.7760695,0.0073758033,-0.77601135,0.6306472,-0.009507946,-0.0120303575,2.720426E-4,0.9999276,-0.21546936,-0.01675415,9.569611,0
4739.660331635,0.64611906,0.76320237,0.007230919,-0.76314765,0.6461594,-0.009152303,-0.011657386,3.9521838E-4,0.99993205,0.6304827,0.7761687,0.0073266835,-0.7761108,0.6305252,-0.009481381,-0.01197881,2.9152792E-4,0.9999282,-0.15322876,0.09336853,9.770737,0
4739.664726166,0.64604574,0.7632627,0.0074100317,-0.763209,0.64608824,-0.009059749,-0.011702503,1.9760909E-4,0.9999316,0.6307865,0.77592117,0.0074067162,-0.77586395,0.63082993,-0.009427189,-0.011987133,1.999397E-4,0.9999282,-0.07182312,0.03590393,9.789886,0
4739.669151215,0.64596933,0.7633256,0.007596713,-0.7632722,0.646014,-0.009021983,-0.011794293,2.9563533E-5,0.99993044,0.63106644,0.7756916,0.0075915284,-0.7756353,0.6311121,-0.009348494,-0.012042654,1.1263344E-5,0.99992746,-0.08618164,-0.02154541,9.86171,0
4739.673545746,0.6213326,0.7835117,0.007431803,-0.78345543,0.62137705,-0.009393505,-0.011977873,1.4003748E-5,0.99992836,0.63136274,0.7754487,0.0077774194,-0.7753927,0.6314106,-0.009320458,-0.012138282,-1.459641E-4,0.9999263,-0.12927246,-0.002380371,9.799454,0
4739.677970795,0.62131566,0.78352475,0.0074704355,-0.783467,0.6213606,-0.009517742,-0.012099221,6.068282E-5,0.99992687,0.63114256,0.7756266,0.007906246,-0.77556884,0.631192,-0.009465416,-0.012331988,-1.5781207E-4,0.99992394,-0.16758728,-0.02154541,9.871292,0
4739.682365326,0.6213051,0.7835329,0.0074946918,-0.7834754,0.62135035,-0.009498506,-0.012099221,2.9563425E-5,0.99992687,0.6309122,0.7758139,0.007916187,-0.77575463,0.63096184,-0.009586707,-0.012432312,-9.264894E-5,0.9999227,-0.12449646,-0.08378601,9.890442,0
4739.686759857,0.60996526,0.7923937,0.0073980223,-0.7923351,0.61001015,-0.00963287,-0.012145892,1.4003719E-5,0.9999262,0.63072056,0.77597016,0.0078623,-0.7759097,0.6307696,-0.009685421,-0.012474897,8.359973E-6,0.99992216,-0.20111084,-0.05505371,9.66539,0
4739.691184906,0.6100315,0.792344,0.0072564813,-0.79228646,0.61007464,-0.0095494315,-0.01199343,7.624261E-5,0.9999281,0.6302797,0.77632916,0.0077836467,-0.7762691,0.63032776,-0.0096617965,-0.0124069825,4.743054E-5,0.99992305,-0.07661438,0.002380371,9.828186,0
4739.695579437,0.61004245,0.7923358,0.007233187,-0.79227805,0.6100853,-0.00956737,-0.01199343,1.0580607E-4,0.9999281,0.6298646,0.7766675,0.007635627,-0.77660817,0.6299108,-0.009599932,-0.012265719,1.1676629E-4,0.9999248,-0.13885498,0.07899475,9.756363,0
4739.699973969,0.6088963,0.793217,0.0072098714,-0.7931593,0.608939,-0.009565477,-0.011977872,1.05806095E-4,0.99992824,0.62944156,0.777011,0.0075729,-0.7769515,0.6294871,-0.009615501,-0.012238392,1.6861982E-4,0.99992514,-0.04788208,-0.007171631,9.880859,0
4739.704399017,0.6088549,0.79324794,0.007309676,-0.79319054,0.60889876,-0.009545737,-0.012022989,1.400374E-5,0.99992776,0.6290244,0.7773483,0.007611323,-0.7772887,0.62907046,-0.009622609,-0.012268177,1.3666054E-4,0.9999247,0.0,0.026321411,9.780304,0
4739.708793549,0.60883576,0.79326224,0.007355868,-0.7932041,0.6088802,-0.009606382,-0.012099221,1.4003728E-5,0.99992687,0.6285783,0.7777077,0.0077467323,-0.7776479,0.62862605,-0.009639668,-0.012366642,3.5056022E-5,0.9999235,-0.04309082,0.04548645,9.909592,0
4739.71318808,0.5898446,0.8074845,0.007226286,-0.80742544,0.5898889,-0.0097626485,-0.012145892,-7.624247E-5,0.9999262,0.6281967,0.7780152,0.007825205,-0.77795464,0.6282455,-0.009704346,-0.012466278,8.583629E-6,0.9999223,-0.15322876,-0.03111267,9.933533,0
4739.717613129,0.5898419,0.8074863,0.007231771,-0.8074278,0.58988625,-0.0097201085,-0.012114778,-1.0580592E-4,0.9999266,0.6273856,0.7786688,0.0078861555,-0.7786085,0.6274352,-0.0096919425,-0.012494864,-5.9641538E-5,0.9999219,-0.0622406,-0.07421875,9.847351,0
4739.72200766,0.5898216,0.8075008,0.0072750137,-0.8074422,0.5898664,-0.009727055,-0.012145892,-1.3692526E-4,0.9999262,0.6266523,0.7792589,0.007906517,-0.7791993,0.62670213,-0.00964054,-0.012467507,-1.19486715E-4,0.9999223,-0.16279602,-0.06942749,9.785095,0
4739.726402191,0.61195713,0.79085493,0.007541611,-0.7907976,0.61200356,-0.009521847,-0.012145892,-1.3692526E-4,0.9999262,0.6259286,0.77984047,0.007895167,-0.7797807,0.62597835,-0.009658359,-0.012474182,-1.1105537E-4,0.9999222,-0.11012268,-0.07899475,9.890442,0
4739.731559662,0.611956,0.79085577,0.0075443797,-0.7907988,0.6120025,-0.009500032,-0.012130336,-1.5248498E-4,0.9999265,0.6259286,0.77984047,0.007895167,-0.7797807,0.62597835,-0.009658359,-0.012474182,-1.1105537E-4,0.9999222,-0.11012268,-0.07899475,9.890442,0
4739.736686615,0.6119514,0.7908592,0.0075554014,-0.79080236,0.6119981,-0.009491505,-0.012130336,-1.6648871E-4,0.9999265,0.6259286,0.77984047,0.007895167,-0.7797807,0.62597835,-0.009658359,-0.012474182,-1.1105537E-4,0.9999222,-0.11012268,-0.07899475,9.890442,0
4739.741813568,0.60227823,0.79825175,0.0074299118,-0.7981944,0.60232407,-0.00957037,-0.012114778,-1.6648872E-4,0.9999266,0.6251591,0.780459,0.0077385423,-0.7803991,0.625207,-0.009669293,-0.012384676,5.694794E-6,0.9999233,-0.07661438,0.02154541,9.698898,0
4739.746940521,0.60226226,0.7982634,0.0074669844,-0.7982064,0.6023085,-0.0095424,-0.012114777,-2.131678E-4,0.99992657,0.62475765,0.7807805,0.0077279815,-0.7807202,0.62480545,-0.0097058695,-0.012406638,3.0425208E-5,0.99992305,-0.15800476,0.06942749,9.809036,0
4739.752067474,0.6022689,0.7982586,0.0074515934,-0.7982013,0.60231495,-0.009573503,-0.012130336,-1.820484E-4,0.9999265,0.62475765,0.7807805,0.0077279815,-0.7807202,0.62480545,-0.0097058695,-0.012406638,3.0425208E-5,0.99992305,-0.15800476,0.06942749,9.809036,0
4739.757194428,0.58081716,0.8140014,0.0072936825,-0.81394213,0.5808629,-0.009827374,-0.012236125,-2.2872716E-4,0.99992514,0.62392324,0.7814469,0.007782701,-0.7813868,0.6239718,-0.009688675,-0.012427371,-3.630941E-5,0.99992275,-0.1819458,0.03590393,9.8138275,0
4739.762351898,0.5808289,0.8139932,0.0072676125,-0.8139344,0.5808743,-0.009790547,-0.012191009,-2.287273E-4,0.9999257,0.62308943,0.7821109,0.007881106,-0.7820505,0.62313926,-0.009724972,-0.012517033,-1.038953E-4,0.9999217,-0.004776001,0.02154541,9.674957,0
4739.767478851,0.5808084,0.8140074,0.0073131374,-0.81394875,0.5808544,-0.00977718,-0.012206566,-2.738503E-4,0.9999255,0.6222779,0.78275645,0.007907143,-0.78269595,0.62232816,-0.009731042,-0.012537873,-1.334763E-4,0.9999214,-0.13406372,-0.12210083,9.751572,0
4739.772483734,0.6700668,0.7422532,0.008416632,-0.7422003,0.6701196,-0.008867561,-0.012222124,-3.049696E-4,0.9999253,0.62152034,0.78335816,0.007903648,-0.7832978,0.6215706,-0.009725541,-0.012531256,-1.4628799E-4,0.9999215,-0.1819458,-0.07899475,9.823395,0
4739.776878265,0.67007524,0.7422458,0.008395879,-0.74219316,0.67012775,-0.008844372,-0.012191008,-3.049697E-4,0.9999256,0.6225296,0.78255665,0.007870104,-0.7824963,0.62257934,-0.009723062,-0.012508612,-1.0543327E-4,0.99992174,-0.04309082,-0.007171631,9.852127,0
4739.781272797,0.6700681,0.742252,0.008413359,-0.7421986,0.67012084,-0.0089103365,-0.012251682,-2.7385014E-4,0.9999249,0.6235327,0.78175753,0.007885523,-0.7816981,0.62358254,-0.0096408725,-0.012454099,-1.5269873E-4,0.99992245,-0.25856018,0.07421875,9.928741,0
4739.785667328,0.62715787,0.7788522,0.00789526,-0.77879566,0.6272076,-0.009392378,-0.012267239,-2.5829044E-4,0.9999248,0.62448,0.78100103,0.007882939,-0.7809416,0.6245297,-0.00963753,-0.012450051,-1.376701E-4,0.9999225,-0.16279602,0.026321411,9.708481,0
4739.790061859,0.62716913,0.77884346,0.007870009,-0.77878636,0.6272185,-0.009432684,-0.012282797,-2.1316737E-4,0.99992454,0.6245451,0.780949,0.007877753,-0.78088933,0.62459475,-0.009649539,-0.012456203,-1.250815E-4,0.9999224,-0.1819458,0.11730957,9.9479065,0
4739.79445639,0.6271463,0.7788611,0.007921061,-0.7788038,0.62719625,-0.009449504,-0.012327913,-2.427306E-4,0.999924,0.6246179,0.78089064,0.007895357,-0.7808306,0.62466776,-0.009681441,-0.012492122,-1.1773522E-4,0.999922,-0.2394104,-0.07421875,9.880859,0
4739.798850922,0.65044504,0.75950885,0.008213731,-0.759453,0.6504969,-0.009217093,-0.012343471,-2.4273056E-4,0.9999239,0.6247301,0.78080076,0.007901319,-0.78074104,0.62478006,-0.009655586,-0.012475677,-1.3674908E-4,0.99992216,-0.16279602,-0.026321411,9.86171,0
4739.803245453,0.6504494,0.7595053,0.008203663,-0.75944954,0.65050113,-0.0092052305,-0.012327913,-2.427306E-4,0.999924,0.6252547,0.7803802,0.007959247,-0.78032005,0.62530535,-0.009687583,-0.012536957,-1.5355281E-4,0.9999214,-0.05744934,-0.002380371,9.900009,0
4739.807639984,0.6504539,0.7595016,0.008193081,-0.7594457,0.65050554,-0.009214293,-0.012327913,-2.287269E-4,0.999924,0.6257412,0.77998984,0.0079944525,-0.7799297,0.6257922,-0.00968754,-0.012559049,-1.73218E-4,0.99992114,-0.13406372,0.03590393,9.86171,0
4739.812034515,0.65045893,0.75949734,0.008181323,-0.7594414,0.6505104,-0.009224361,-0.012327913,-2.1316725E-4,0.999924,0.62618804,0.77963126,0.007978685,-0.77957094,0.6262389,-0.009700472,-0.012559353,-1.4563183E-4,0.99992114,-0.07661438,-0.01675415,9.68454,0
4739.816429047,0.65046316,0.75949377,0.008171253,-0.759438,0.6505145,-0.0092125,-0.012312356,-2.131673E-4,0.99992424,0.62618804,0.77963126,0.007978685,-0.77957094,0.6262389,-0.009700472,-0.012559353,-1.4563183E-4,0.99992114,-0.07661438,-0.01675415,9.68454,0
4739.820823578,0.65045464,0.7595009,0.008191392,-0.75944483,0.6505062,-0.009236222,-0.012343471,-2.1316722E-4,0.9999239,0.6271444,0.77886266,0.007929215,-0.7788016,0.6271945,-0.009749321,-0.012566542,-6.105339E-5,0.999921,-0.20111084,0.002380371,9.9048,0
4739.825218109,0.6453295,0.76386094,0.008137379,-0.763804,0.6453807,-0.009325085,-0.012374777,-1.9761054E-4,0.99992335,0.62759376,0.7785013,0.007861593,-0.7784404,0.627643,-0.009734805,-0.012512832,-1.027974E-5,0.99992174,-0.1819458,0.026321411,9.914383,0
4739.82961264,0.6453233,0.7638661,0.008150907,-0.7638096,0.6453747,-0.009293041,-0.012359029,-2.2872683E-4,0.99992365,0.6279548,0.77821,0.007873632,-0.7781485,0.62800413,-0.009783429,-0.012558236,1.669636E-5,0.99992114,-0.08139038,-0.08378601,9.938324,0
4739.834007172,0.6453388,0.7638534,0.008117282,-0.76379687,0.64538985,-0.009301078,-0.012343471,-1.9760757E-4,0.9999239,0.6283321,0.7779053,0.007885516,-0.7778438,0.62838155,-0.009781325,-0.0125640575,1.22213805E-5,0.9999211,-0.10533142,0.07899475,9.68454,0
4739.838401703,0.65294087,0.7573642,0.008221627,-0.7573083,0.65299267,-0.009209318,-0.012343471,-2.1316722E-4,0.9999239,0.62868875,0.7776171,0.007881539,-0.7775554,0.62873816,-0.009795731,-0.012572752,3.0133117E-5,0.99992096,-0.11491394,-0.03111267,9.880859,0
4739.842796234,0.65292454,0.75737786,0.008262808,-0.75732166,0.6529768,-0.009233644,-0.01238878,-2.287303E-4,0.9999233,0.6291699,0.7772282,0.0078539485,-0.7771661,0.6292189,-0.009817843,-0.012572557,7.326742E-5,0.99992096,-0.24420166,-0.03590393,9.780304,0
4739.847190765,0.6529252,0.7573773,0.00826119,-0.7573208,0.6529774,-0.00925558,-0.0124043375,-2.1317037E-4,0.99992305,0.62967765,0.77681684,0.00784945,-0.7767547,0.6297266,-0.009829445,-0.012578686,9.228494E-5,0.9999209,-0.1771698,0.026321411,9.789886,0
4739.851585297,0.57862234,0.81556267,0.007334738,-0.8155017,0.5786688,-0.009969061,-0.012374777,-2.1317042E-4,0.99992335,0.6301415,0.7764406,0.007853219,-0.7763784,0.63019043,-0.009833197,-0.012583917,9.923629E-5,0.99992085,-0.009567261,0.002380371,9.919174,0
4739.855979828,0.5786247,0.81556094,0.0073293364,-0.81550056,0.57867116,-0.009934505,-0.012343471,-2.2872687E-4,0.9999239,0.62914616,0.7772471,0.007875568,-0.77718467,0.62919545,-0.009848948,-0.012610339,7.5656615E-5,0.9999205,-0.05744934,-0.05505371,9.823395,0
4739.860374359,0.578618,0.8155656,0.007344363,-0.81550545,0.57866454,-0.00990477,-0.012327912,-2.5829024E-4,0.99992394,0.62818664,0.77802265,0.007892877,-0.77796036,0.62823623,-0.009846956,-0.012619745,4.5380835E-5,0.99992037,-0.0909729,-0.05984497,9.828186,0
4739.86476889,0.6186945,0.7855925,0.007842943,-0.7855349,0.61874413,-0.009515286,-0.012327912,-2.7384987E-4,0.99992394,0.62724227,0.77878416,0.007894652,-0.7787219,0.627292,-0.009843606,-0.012618296,2.6587099E-5,0.99992037,-0.10533142,-0.06942749,9.828186,0
4739.869163422,0.6187171,0.7855752,0.007795165,-0.78551596,0.6187661,-0.009650194,-0.0124043375,-1.5248683E-4,0.99992305,0.6271141,0.7788874,0.007893591,-0.77882487,0.62716377,-0.009868609,-0.0126371095,4.101806E-5,0.9999201,-0.09576416,0.14125061,9.708481,0
4739.873557953,0.6187164,0.7855757,0.0077965306,-0.78551674,0.6187656,-0.009629314,-0.01238878,-1.6649076E-4,0.9999233,0.626977,0.77899784,0.007889096,-0.77893406,0.6270266,-0.00997291,-0.012715548,1.077008E-4,0.9999192,-0.11012268,-0.03590393,9.737213,0
4739.877952484,0.6429825,0.76583886,0.008028406,-0.76578116,0.6430326,-0.009397139,-0.01235922,-1.05807245E-4,0.9999236,0.6267951,0.779144,0.007908432,-0.77907985,0.62684494,-0.009999486,-0.0127484,1.0632824E-4,0.99991876,-0.14364624,-0.05984497,9.890442,0
4739.882347015,0.64297277,0.76584667,0.008050211,-0.765789,0.64302313,-0.009399147,-0.012374778,-1.2136711E-4,0.9999234,0.6267951,0.779144,0.007908432,-0.77907985,0.62684494,-0.009999486,-0.0127484,1.0632824E-4,0.99991876,-0.14364624,-0.05984497,9.890442,0
4739.886741547,0.64297646,0.76584375,0.0080420375,-0.7657865,0.64302677,-0.00936513,-0.012343471,-1.3692494E-4,0.9999239,0.6274432,0.7786223,0.007896363,-0.77855843,0.62749285,-0.0099757165,-0.012722227,1.1141523E-4,0.99991906,-0.04788208,-0.02154541,9.761154,0
4739.891136078,0.6410009,0.7674981,0.0080298195,-0.7674409,0.64105123,-0.009375848,-0.012343471,-1.5248459E-4,0.9999239,0.62774915,0.77837545,0.007916054,-0.7783111,0.62779903,-0.010012041,-0.0127628185,1.2389748E-4,0.9999186,-0.10055542,-0.05027771,9.617508,0
4739.895530609,0.6409998,0.7674991,0.008032548,-0.76744246,0.6410501,-0.009333029,-0.012312356,-1.8204798E-4,0.99992424,0.62800044,0.7781722,0.0079699885,-0.7781079,0.628051,-0.010008384,-0.0127938045,8.3758285E-5,0.99991816,-0.07182312,-0.06942749,9.871292,0
4739.89992514,0.6410087,0.7674919,0.008011736,-0.7674351,0.6410587,-0.009332166,-0.012298354,-1.6648835E-4,0.9999243,0.6282931,0.77793604,0.007958951,-0.77787226,0.62834346,-0.009965535,-0.012753504,7.022891E-5,0.9999187,-0.08618164,0.026321411,9.789886,0
4739.904319672,0.6449702,0.7641654,0.00804987,-0.7641091,0.64502037,-0.009278709,-0.012282797,-1.6648837E-4,0.99992454,0.62855256,0.7777262,0.007981097,-0.77766204,0.6286032,-0.009986584,-0.012783771,7.049646E-5,0.9999183,-0.08139038,-0.011962891,9.794678,0
4739.908714203,0.644975,0.76416147,0.008039227,-0.7641051,0.6450251,-0.009287692,-0.012282797,-1.5248469E-4,0.99992454,0.628877,0.7774637,0.007994229,-0.77739996,0.6289278,-0.0099518215,-0.012764973,4.3757867E-5,0.9999185,-0.10055542,0.06463623,9.832977,0
4739.913108734,0.6449739,0.76416236,0.008041733,-0.76410645,0.64502394,-0.009244857,-0.012251682,-1.8204811E-4,0.9999249,0.6292493,0.7771621,0.008025279,-0.7770987,0.6293005,-0.009919944,-0.012759717,5.6839694E-6,0.9999186,-0.028717041,-0.08857727,9.909592,0
4739.917503265,0.6222593,0.7827727,0.0077509093,-0.782716,0.62230754,-0.009432003,-0.012206566,-1.976079E-4,0.9999255,0.62960494,0.7768744,0.007981153,-0.7768114,0.62965554,-0.009898223,-0.012715054,3.212003E-5,0.9999192,-0.009567261,-0.03111267,9.900009,0
4739.921897797,0.62226886,0.7827655,0.0077316584,-0.78270906,0.6223169,-0.0094075585,-0.012175452,-1.9760798E-4,0.9999259,0.62951624,0.7769462,0.007998302,-0.7768833,0.629567,-0.009888101,-0.012717989,1.0974332E-5,0.9999191,-0.04788208,-0.01675415,9.909592,0
4739.926292328,0.62227,0.7827645,0.007729174,-0.78270775,0.62231797,-0.009429405,-0.012191009,-1.8204826E-4,0.9999257,0.6293675,0.77706647,0.008017756,-0.7770029,0.62941855,-0.009940638,-0.012771061,2.6495807E-5,0.99991846,-0.16279602,0.04548645,9.727631,0
4739.930686859,0.61337715,0.78975344,0.0076124817,-0.7896963,0.6134244,-0.00950394,-0.012175452,-1.8204829E-4,0.9999259,0.62925303,0.7771588,0.0080509195,-0.7770952,0.6293045,-0.00994388,-0.012794454,8.858258E-7,0.99991816,-0.10533142,0.007171631,9.9479065,0
4739.93508139,0.61337304,0.78975654,0.0076219765,-0.7896992,0.61342037,-0.009516265,-0.012191009,-1.8204826E-4,0.9999257,0.62893474,0.7774164,0.008050677,-0.77735317,0.62898624,-0.00991121,-0.012768903,-2.4715684E-5,0.99991846,-0.1484375,-0.002380371,9.713272,0
4739.939475922,0.6133636,0.7897637,0.0076436973,-0.78970635,0.6134112,-0.009519097,-0.012206566,-1.976079E-4,0.9999255,0.62859124,0.77769405,0.008064291,-0.7776307,0.628643,-0.009923371,-0.012786906,-3.3297056E-5,0.9999182,-0.16758728,-0.04069519,9.775513,0
4739.943870453,0.62187517,0.7830784,0.007714741,-0.7830218,0.621923,-0.009421121,-0.012175452,-1.8204829E-4,0.9999259,0.6282853,0.777941,0.008084468,-0.7778775,0.6283373,-0.009937157,-0.0128102945,-4.5356053E-5,0.9999179,-0.03829956,0.002380371,9.84256,0
4739.948264984,0.62187207,0.78308076,0.007721872,-0.7830237,0.62192,-0.009455193,-0.012206566,-1.6648853E-4,0.9999255,0.62816775,0.77803564,0.008116474,-0.7779725,0.62822014,-0.00990621,-0.012806317,-9.163335E-5,0.999918,-0.19152832,0.06942749,9.837769,0
4739.952659515,0.6218667,0.78308487,0.0077339928,-0.78302795,0.6219148,-0.009445567,-0.012206566,-1.8204821E-4,0.9999255,0.62807274,0.778112,0.008147608,-0.7780492,0.62812555,-0.009890979,-0.0128140105,-1.2698484E-4,0.9999179,-0.11012268,-0.04548645,9.809036,0
4739.957054047,0.60855126,0.79347867,0.0075609894,-0.7934208,0.6085982,-0.009584333,-0.012206566,-1.6648853E-4,0.9999255,0.62793493,0.7782231,0.008155841,-0.77815974,0.6279879,-0.00993064,-0.012850024,-1.1075062E-4,0.99991745,-0.13406372,0.04069519,9.727631,0
4739.961448578,0.6085494,0.79347986,0.0075649694,-0.79342127,0.6085964,-0.009638137,-0.012251682,-1.3692507E-4,0.9999249,0.6275242,0.7785543,0.008158312,-0.77849114,0.6275772,-0.009918534,-0.012842089,-1.2705375E-4,0.99991757,-0.22026062,0.06942749,9.9048,0
4739.965843109,0.60856277,0.79346997,0.0075347917,-0.7934116,0.6086094,-0.00962403,-0.012222124,-1.21365454E-4,0.9999253,0.6271343,0.7788685,0.008150504,-0.77880484,0.62718725,-0.009960311,-0.0128696645,-1.01198726E-4,0.9999172,-0.07182312,0.03111267,9.832977,0
4739.97023764,0.6407856,0.76767844,0.00797911,-0.7676221,0.6408352,-0.009298669,-0.012251682,-1.6648843E-4,0.9999249,0.62677956,0.7791539,0.008161341,-0.7790898,0.6268327,-0.00999685,-0.01290488,-9.2595554E-5,0.99991673,-0.19152832,-0.11730957,9.775513,0
4739.974632172,0.6407902,0.76767457,0.0079684155,-0.7676181,0.64083976,-0.009307594,-0.012251682,-1.5248473E-4,0.9999249,0.6270542,0.7789325,0.008198422,-0.7788692,0.6271078,-0.009931161,-0.012876998,-1.5812195E-4,0.9999171,-0.12449646,0.03590393,9.732422,0
4739.979026703,0.6407911,0.76767397,0.007966452,-0.7676173,0.64084065,-0.009329501,-0.012267239,-1.3692505E-4,0.9999248,0.6273412,0.77870214,0.008120939,-0.7786384,0.6273938,-0.0099605415,-0.012851322,-7.461713E-5,0.99991745,-0.13406372,0.026321411,9.866501,0
4739.983421234,0.6507278,0.75926846,0.008046025,-0.75921273,0.6507776,-0.009200897,-0.012222124,-1.21365454E-4,0.9999253,0.6276041,0.77849025,0.008126681,-0.77842605,0.62765676,-0.00999779,-0.012883947,-5.136615E-5,0.999917,-0.028717041,0.03590393,9.880859,0
4739.987815765,0.6507318,0.75926507,0.0080359485,-0.75920945,0.65078145,-0.009189042,-0.012206566,-1.21365476E-4,0.9999255,0.62807214,0.7781125,0.0081479745,-0.7780485,0.628125,-0.009974755,-0.012879428,-7.4653595E-5,0.99991703,-0.0622406,0.01675415,9.866501,0
4739.992210297,0.65074056,0.7592578,0.008014114,-0.7592022,0.6507899,-0.009187266,-0.012191009,-1.0580582E-4,0.9999257,0.6285438,0.7777311,0.008184697,-0.7776664,0.6285971,-0.010034564,-0.012949069,-5.7800775E-5,0.99991614,-0.10055542,0.03590393,9.900009,0
4739.996604828,0.5850656,0.8109541,0.0071858,-0.81089455,0.5851098,-0.009829126,-0.012175452,-7.6242446E-5,0.9999259,0.629016,0.77734935,0.0081785945,-0.77728486,0.62906915,-0.010013607,-0.012928972,-5.8378115E-5,0.99991643,-0.07661438,0.05984497,9.880859,0
4740.000999359,0.5850601,0.810958,0.0071970904,-0.8108986,0.5851044,-0.009820981,-0.012175452,-9.024616E-5,0.9999259,0.62816244,0.77803934,0.008171051,-0.7779754,0.62821555,-0.009977852,-0.012896342,-8.916404E-5,0.99991685,-0.12449646,-0.011962891,9.837769,0
4740.00539389,0.5850612,0.81095725,0.0071948506,-0.8108975,0.5851054,-0.00984178,-0.012191009,-7.624243E-5,0.9999257,0.62728035,0.7787505,0.008190191,-0.7786864,0.6273338,-0.00998899,-0.012916914,-1.116944E-4,0.99991655,-0.15800476,0.002380371,9.799454,0
4740.009788422,0.6386584,0.7694502,0.007861985,-0.7693931,0.6387068,-0.009376333,-0.012236125,-6.0682716E-5,0.99992514,0.6264988,0.77937895,0.00823133,-0.7793152,0.6265529,-0.009969047,-0.012927028,-1.6920408E-4,0.99991643,-0.22984314,0.05984497,9.832977,0
4740.014182953,0.63864386,0.769462,0.007893657,-0.7694047,0.6386927,-0.009390483,-0.012267239,-7.624236E-5,0.9999248,0.6267639,0.7791657,0.008238445,-0.7791019,0.626818,-0.009967977,-0.012930712,-1.7102102E-4,0.9999164,-0.2106781,-0.05027771,9.765945,0
4740.018577484,0.63864475,0.7694612,0.007891633,-0.76940364,0.63869345,-0.009412381,-0.012282797,-6.068268E-5,0.99992454,0.62699515,0.77897966,0.008233257,-0.7789158,0.6270492,-0.009973982,-0.012932186,-1.5937477E-4,0.9999164,-0.12927246,0.05027771,9.727631,0
4740.022972015,0.6386416,0.7694638,0.007898503,-0.76940584,0.6386905,-0.009445095,-0.012312356,-4.5123004E-5,0.99992424,0.62722266,0.77879685,0.008201315,-0.7787327,0.62727624,-0.009994164,-0.012927913,-1.1806614E-4,0.99991643,-0.2106781,0.04548645,9.818619,0
4740.027366547,0.6386457,0.7694605,0.007889609,-0.7694026,0.6386944,-0.00943428,-0.012298354,-4.5123008E-5,0.9999243,0.6274762,0.778593,0.008161265,-0.7785287,0.62752926,-0.010010587,-0.012915605,-7.237317E-5,0.9999166,-0.10533142,-0.026321411,9.933533,0
4740.031761078,0.6386566,0.7694516,0.007865796,-0.7693935,0.638705,-0.0094540445,-0.012298354,-1.4003692E-5,0.9999243,0.62770057,0.77841204,0.008166058,-0.7783474,0.6277537,-0.010035069,-0.012937691,-5.7011803E-5,0.9999163,-0.10533142,0.10772705,9.727631,0
4740.036155609,0.66393256,0.7477481,0.008145234,-0.7476918,0.6639825,-0.009172805,-0.012267239,0.0,0.9999248,0.62796205,0.77820116,0.008163488,-0.778137,0.6280151,-0.009992567,-0.012903021,-7.735968E-5,0.99991673,-0.028717041,0.02154541,9.880859,0
4740.04055014,0.6639326,0.747748,0.008145093,-0.74769145,0.6639825,-0.009193734,-0.012282797,1.40036955E-5,0.99992454,0.62869865,0.77760637,0.008146137,-0.7775417,0.6287514,-0.010023949,-0.012916582,-3.191815E-5,0.99991655,-0.15800476,0.03111267,9.718063,0
4740.044944672,0.66393745,0.74774396,0.008133517,-0.7476873,0.6639872,-0.009204016,-0.012282797,2.9563356E-5,0.99992454,0.6294319,0.77701265,0.008178226,-0.7769482,0.629485,-0.010006945,-0.012923593,-5.5367705E-5,0.9999165,-0.13406372,0.04548645,9.895233,0
4740.049339203,0.6101459,0.79225403,0.007452452,-0.7921943,0.6101914,-0.009724482,-0.012251682,2.9563367E-5,0.9999249,0.6301144,0.77645916,0.008186143,-0.7763947,0.63016754,-0.010000834,-0.012923881,-5.4008076E-5,0.9999165,-0.04309082,0.002380371,9.809036,0
4740.053733734,0.61015135,0.79225,0.0074401903,-0.79219013,0.61019665,-0.0097339265,-0.012251682,4.5123033E-5,0.9999249,0.6297192,0.7767798,0.008175575,-0.776716,0.6297723,-0.0099540735,-0.012880875,-8.182828E-5,0.99991703,-0.13885498,0.026321411,9.74678,0
4740.058128265,0.61014724,0.79225314,0.007449634,-0.7921932,0.6101927,-0.009746291,-0.012267239,4.512303E-5,0.9999248,0.6293829,0.7770525,0.0081564365,-0.7769891,0.6294358,-0.00993084,-0.012850736,-8.716053E-5,0.99991745,-0.15800476,0.026321411,9.976624,0
4740.062522797,0.6457399,0.76351726,0.007829371,-0.76345885,0.64578736,-0.0094446195,-0.012267239,1.2136539E-4,0.9999248,0.6289984,0.77736396,0.008144235,-0.7773004,0.6290511,-0.00993697,-0.012847782,-8.018046E-5,0.99991745,-0.1197052,0.16519165,9.828186,0
4740.066917328,0.6457391,0.7635179,0.0078311935,-0.76345974,0.6457865,-0.009422701,-0.012251682,1.0580574E-4,0.9999249,0.62931716,0.77710605,0.008129462,-0.77704287,0.6293697,-0.009908528,-0.012816414,-8.133393E-5,0.99991786,-0.08618164,-0.04069519,9.722839,0
4740.071311859,0.6457296,0.76352584,0.00785365,-0.7634679,0.6457773,-0.009403707,-0.012251682,7.6242366E-5,0.9999249,0.62964165,0.776843,0.008141267,-0.7767802,0.6296943,-0.009878726,-0.012800729,-1.03917664E-4,0.99991804,-0.10055542,-0.06463623,9.751572,0
4740.07570639,0.63917255,0.7690241,0.007772891,-0.7689657,0.6392198,-0.009470571,-0.012251682,7.6242366E-5,0.9999249,0.6299732,0.7765745,0.008114017,-0.7765104,0.63002545,-0.009975311,-0.012858609,-1.6439844E-5,0.9999173,-0.12449646,0.007171631,9.722839,0
4740.080100922,0.6391765,0.76902086,0.007762993,-0.7689627,0.63922364,-0.009458568,-0.012236125,7.624239E-5,0.99992514,0.63014454,0.77643526,0.008132943,-0.7763718,0.63019705,-0.009927348,-0.0128333,-5.8523332E-5,0.9999176,-0.07182312,-0.011962891,9.928741,0
4740.084495453,0.63918436,0.7690146,0.0077433675,-0.7689564,0.63923126,-0.009456676,-0.012222124,9.024611E-5,0.9999253,0.63034004,0.7762773,0.008061245,-0.77621406,0.6303916,-0.009908123,-0.012773192,-1.1765396E-5,0.9999184,-0.11491394,0.04548645,9.957474,0
4740.088889984,0.5956385,0.8032204,0.0071881325,-0.80315906,0.59568185,-0.009922358,-0.012251682,1.3692507E-4,0.9999249,0.6305216,0.77613,0.008040364,-0.77606684,0.63057286,-0.009904521,-0.0127572315,5.1542997E-6,0.99991864,-0.1819458,0.14125061,9.756363,0
4740.093284515,0.59564537,0.8032155,0.007173737,-0.8031539,0.5956885,-0.0099524055,-0.012267239,1.6648842E-4,0.9999248,0.6298256,0.77669495,0.008039552,-0.7766319,0.6298769,-0.009897814,-0.01275151,-9.875E-6,0.9999187,-0.15800476,0.05505371,9.919174,0
4740.097679047,0.59565556,0.8032082,0.0071520978,-0.80314654,0.5956984,-0.009949088,-0.012251682,1.8204811E-4,0.9999249,0.62914973,0.77724266,0.00802503,-0.7771792,0.62920094,-0.009930933,-0.012768102,1.115719E-5,0.99991846,-0.07182312,0.05027771,9.823395,0
4740.102073578,0.6431601,0.7656921,0.007783636,-0.76563317,0.6432072,-0.009502913,-0.012282797,1.5248469E-4,0.99992454,0.62850183,0.7777662,0.008072085,-0.77770257,0.6285537,-0.009949289,-0.01281196,-2.4534093E-5,0.9999179,-0.19631958,-0.09815979,9.718063,0
4740.106468109,0.6431593,0.7656927,0.007785532,-0.76563406,0.64320636,-0.009481001,-0.012267239,1.3692505E-4,0.9999248,0.6288004,0.77752453,0.008106083,-0.7774609,0.6288526,-0.00994753,-0.01283198,-4.7152203E-5,0.9999177,-0.10533142,-0.03111267,9.919174,0
4740.11086264,0.6431688,0.76568514,0.0077637266,-0.76562643,0.64321566,-0.009479005,-0.012251682,1.5248473E-4,0.9999249,0.6291127,0.77727205,0.008085192,-0.77720845,0.6291647,-0.009943535,-0.012815748,-2.8274979E-5,0.99991786,-0.0909729,0.06942749,9.828186,0
4740.115257172,0.6571791,0.753693,0.007904708,-0.7536351,0.6572267,-0.00934192,-0.012236125,1.8204814E-4,0.99992514,0.62940294,0.7770375,0.0080419425,-0.776974,0.6294543,-0.009930221,-0.01277819,1.7301505E-6,0.99991834,-0.05744934,0.07421875,9.789886,0
4740.119651703,0.6571922,0.7536818,0.007875214,-0.7536243,0.6572393,-0.009307781,-0.012191009,1.8204826E-4,0.9999257,0.6299733,0.776575,0.008056071,-0.77651143,0.6300248,-0.009938643,-0.012793626,5.4488273E-6,0.99991816,0.0,-0.007171631,9.6558075,0
4740.124046234,0.6571975,0.7536774,0.007863552,-0.75361985,0.65724444,-0.009317956,-0.012191009,1.9760794E-4,0.9999257,0.6305104,0.776139,0.008061129,-0.7760757,0.6305619,-0.009912651,-0.012776635,-6.0168304E-6,0.9999184,-0.1197052,0.03111267,9.895233,0
4740.128440765,0.6059161,0.79549575,0.0072300695,-0.7954352,0.6059592,-0.009817629,-0.012191009,1.9760794E-4,0.9999257,0.63104457,0.77570486,0.008041576,-0.77564085,0.6310958,-0.009964231,-0.012804308,5.0499155E-5,0.99991804,-0.13885498,-0.002380371,9.818619,0
4740.132835297,0.60592055,0.7954924,0.0072206957,-0.79543203,0.6059636,-0.009805215,-0.012175452,1.9760798E-4,0.9999259,0.63055176,0.7761052,0.00807463,-0.7760409,0.63060343,-0.00999135,-0.012846228,3.3820088E-5,0.9999175,-0.08618164,0.01675415,9.794678,0
4740.137229828,0.6059264,0.795488,0.0072083888,-0.7954275,0.60596925,-0.00981459,-0.012175452,2.1316766E-4,0.9999259,0.6300581,0.7765061,0.008060287,-0.7764415,0.63010967,-0.010019528,-0.012859089,5.4543878E-5,0.9999173,-0.1197052,0.02154541,9.84256,0
4740.141624359,0.6407468,0.76771456,0.007615598,-0.76765585,0.6407921,-0.009502801,-0.012175452,2.4273105E-4,0.9999259,0.62957484,0.7768986,0.008005264,-0.77683437,0.62962574,-0.009990137,-0.0128016425,7.077455E-5,0.99991804,-0.09576416,0.07421875,9.775513,0
4740.14601889,0.640734,0.76772493,0.0076461323,-0.767666,0.6407796,-0.009517837,-0.012206566,2.2872724E-4,0.9999255,0.6298228,0.7766983,0.007936883,-0.77663404,0.6298728,-0.009991431,-0.012759553,1.2877736E-4,0.9999186,-0.19631958,-0.01675415,9.8138275,0
4740.150413422,0.64073634,0.7677229,0.007640431,-0.7676632,0.6407818,-0.009581363,-0.012251682,2.7385014E-4,0.9999249,0.63006604,0.776501,0.007939443,-0.7764367,0.63011605,-0.009992037,-0.012761597,1.311679E-4,0.9999186,-0.25378418,0.13645935,9.828186,0
4740.154807953,0.6381887,0.76984274,0.007577787,-0.769783,0.63823366,-0.009593812,-0.012222124,2.8940995E-4,0.9999253,0.63024974,0.77635217,0.007913532,-0.7762871,0.6302994,-0.010056372,-0.01279518,1.9485316E-4,0.99991816,-0.04309082,0.04069519,9.770737,0
4740.159202484,0.6382038,0.76983035,0.007545284,-0.7697706,0.6382483,-0.009600555,-0.012206566,3.1897335E-4,0.9999255,0.6304055,0.77622586,0.007894447,-0.776161,0.6304549,-0.010031708,-0.012763964,1.9668204E-4,0.9999185,-0.0909729,0.05027771,9.909592,0
4740.163597015,0.63819927,0.76983416,0.0075551583,-0.76977426,0.6382439,-0.009612577,-0.012222124,3.1897333E-4,0.9999253,0.63055205,0.7761073,0.007848618,-0.7760424,0.63060087,-0.010037662,-0.012739648,2.384083E-4,0.9999188,-0.13885498,0.02154541,9.86171,0
4740.167991547,0.6445534,0.7645214,0.007610727,-0.7644616,0.64459825,-0.009569727,-0.012222122,3.5009263E-4,0.9999252,0.63072497,0.7759669,0.0078394525,-0.7759025,0.63077366,-0.009993738,-0.012699729,2.2064919E-4,0.99991935,-0.12927246,0.05984497,9.751572,0
4740.172386078,0.6445488,0.7645253,0.0076225656,-0.76446563,0.6445938,-0.009559746,-0.012222124,3.34533E-4,0.9999253,0.6309967,0.77574605,0.007819481,-0.7756815,0.63104504,-0.010014667,-0.012703285,2.537949E-4,0.99991924,-0.12449646,-0.007171631,10.01973,0
4740.176780609,0.64454806,0.7645259,0.0076244236,-0.76446646,0.64459306,-0.009537829,-0.012206566,3.1897335E-4,0.9999255,0.63123924,0.7755489,0.00780673,-0.77548444,0.6312874,-0.010001433,-0.012684891,2.592995E-4,0.9999195,-0.0909729,-0.05984497,9.84256,0
4740.18117514,0.63932616,0.76889884,0.0075254044,-0.768839,0.6393703,-0.009597476,-0.012191008,3.5009277E-4,0.9999256,0.63149583,0.7753404,0.0077625676,-0.77527577,0.63154346,-0.010012442,-0.01266545,3.0468465E-4,0.9999197,-0.08618164,0.07421875,9.837769,0
4740.185569672,0.63932425,0.7689003,0.0075294133,-0.76884097,0.6393685,-0.009553673,-0.012159893,3.1897353E-4,0.999926,0.6316666,0.7752011,0.0077791144,-0.7751366,0.6317144,-0.010009368,-0.0126734525,2.9270802E-4,0.99991965,-0.04309082,-0.04548645,9.84256,0
4740.189964203,0.6393054,0.76891565,0.0075697917,-0.76885605,0.6393502,-0.009580788,-0.012206566,3.0496967E-4,0.9999255,0.6317968,0.7750955,0.0077263904,-0.775031,0.6318439,-0.0100109335,-0.012641303,3.3668356E-4,0.99992,-0.22984314,-0.04069519,9.871292,0
4740.194358734,0.64966506,0.7601816,0.007692251,-0.76012325,0.6497105,-0.009421639,-0.012159893,2.7385046E-4,0.999926,0.6318975,0.7750132,0.0077491715,-0.77494806,0.6319449,-0.010057421,-0.012691684,3.5005473E-4,0.9999194,0.0143585205,-0.07421875,9.9048,0
4740.198753265,0.64966,0.7601859,0.0077040177,-0.76012766,0.6497056,-0.009411581,-0.012159893,2.5829076E-4,0.999926,0.6322766,0.77470374,0.0077685914,-0.77463895,0.6323242,-0.010028051,-0.012681038,3.226493E-4,0.99991953,-0.14364624,-0.04548645,9.660599,0
4740.203147797,0.6496734,0.7601748,0.0076731467,-0.7601167,0.64971864,-0.009399088,-0.012130334,2.7385054E-4,0.9999263,0.6326158,0.7744262,0.007821899,-0.7743618,0.6326641,-0.009996651,-0.012690303,2.6705983E-4,0.9999194,-0.04788208,0.03111267,9.785095,0
4740.207542328,0.627652,0.7784584,0.007443777,-0.778399,0.62769604,-0.009618321,-0.012159893,2.4273107E-4,0.999926,0.63295287,0.77415085,0.007812916,-0.77408576,0.633001,-0.01004623,-0.0127228815,3.1092257E-4,0.999919,-0.19631958,-0.06463623,9.742004,0
4740.211936859,0.6276491,0.77846074,0.0074505466,-0.7784021,0.6276933,-0.009554908,-0.012114777,1.9760811E-4,0.99992657,0.6328674,0.77422076,0.007812528,-0.7741555,0.6329155,-0.01006022,-0.012733501,3.1867347E-4,0.9999189,0.009567261,-0.11251831,9.871292,0
4740.21633139,0.62765944,0.7784526,0.007426447,-0.77839375,0.6277033,-0.0095743425,-0.012114777,2.287275E-4,0.99992657,0.63279396,0.7742808,0.0078117824,-0.77421606,0.63284206,-0.010019277,-0.01270136,2.9213057E-4,0.9999193,-0.09576416,0.07421875,9.751572,0
4740.220725922,0.6510732,0.75897574,0.0077145747,-0.7589182,0.6511189,-0.0093437405,-0.012114777,2.287275E-4,0.99992657,0.6327082,0.7743506,0.007841242,-0.77428555,0.63275665,-0.010042205,-0.0127377855,2.8242447E-4,0.9999188,-0.15322876,0.007171631,9.765945,0
4740.225120453,0.65106446,0.758983,0.0077347285,-0.7589252,0.65111035,-0.009367442,-0.012145892,2.2872741E-4,0.9999262,0.63306,0.7740632,0.007816109,-0.77399814,0.63310814,-0.010046841,-0.012725333,3.1059908E-4,0.999919,-0.18673706,-0.02154541,9.799454,0
4740.229514984,0.65106887,0.7589793,0.007724652,-0.75892174,0.6511147,-0.009355592,-0.012130336,2.2872747E-4,0.9999265,0.6334572,0.7737377,0.00786117,-0.7736727,0.6335059,-0.010034713,-0.0127443345,2.7458803E-4,0.9999187,-0.0622406,0.007171631,9.74678,0
4740.233909515,0.65106374,0.7589836,0.0077364,-0.75892615,0.6511097,-0.009345512,-0.012130336,2.1316779E-4,0.9999265,0.6337994,0.7734581,0.007803527,-0.773393,0.63384724,-0.010043535,-0.0127145,3.303931E-4,0.9999191,-0.13406372,-0.03590393,9.828186,0
4740.238304047,0.65103424,0.7590082,0.0078040403,-0.7589511,0.65108097,-0.009307975,-0.012145892,1.3692526E-4,0.9999262,0.6341554,0.7731658,0.007840479,-0.7731012,0.6342038,-0.009998309,-0.012702812,2.7899785E-4,0.99991924,-0.14364624,-0.19871521,9.9479065,0
4740.242698578,0.6510354,0.7590073,0.0078013614,-0.75895,0.6510822,-0.009328722,-0.012159894,1.5248492E-4,0.9999261,0.63447595,0.7729027,0.007858656,-0.77283865,0.6345245,-0.009952096,-0.012678512,2.4089133E-4,0.99991965,-0.18673706,0.03590393,9.775513,0
4740.247093109,0.6004214,0.7996513,0.0072045433,-0.7995913,0.60046464,-0.009796546,-0.012159894,1.2136555E-4,0.9999261,0.63485,0.7725949,0.007901569,-0.7725303,0.63489914,-0.009999815,-0.012742506,2.4418163E-4,0.99991876,-0.0909729,-0.06463623,9.866501,0
4740.25148764,0.6004295,0.7996455,0.0071868906,-0.7995858,0.60047257,-0.00977284,-0.012130336,1.213656E-4,0.9999265,0.6342077,0.7731233,0.007803126,-0.7730583,0.6342556,-0.010033382,-0.012706218,3.3097705E-4,0.99991924,-0.06703186,-0.002380371,9.919174,0
4740.255882172,0.6004295,0.7996455,0.0071868906,-0.7995858,0.60047257,-0.00977284,-0.012130336,1.213656E-4,0.9999265,0.63353336,0.77367586,0.0078180935,-0.7736113,0.6335815,-0.010000202,-0.012690314,2.8729605E-4,0.9999194,-0.10533142,0.01675415,9.919174,0
4740.260276703,0.62450147,0.7809877,0.0074908957,-0.78092915,0.62454635,-0.009561584,-0.012145892,1.2136556E-4,0.9999262,0.63285923,0.77422756,0.007795079,-0.7741631,0.6329072,-0.009991486,-0.012669246,2.885421E-4,0.99991965,-0.15800476,-0.026321411,9.68454,0
4740.264671234,0.6244845,0.781001,0.0075334567,-0.78094244,0.62452996,-0.009565397,-0.012175452,9.024616E-5,0.9999259,0.6326928,0.7743635,0.007805225,-0.7742993,0.63274086,-0.00997527,-0.01266317,2.677011E-4,0.9999198,-0.20111084,-0.06942749,9.789886,0
4740.269065765,0.6244883,0.7809978,0.007523786,-0.78093946,0.62453365,-0.009553209,-0.012159894,9.0246176E-5,0.9999261,0.6325191,0.7745059,0.007758365,-0.77444136,0.6325666,-0.010006542,-0.012657808,3.209312E-4,0.99991983,-0.0909729,0.011962891,9.971848,0
4740.273460297,0.6050178,0.79617846,0.0072967894,-0.7961191,0.6050618,-0.009727574,-0.012159894,7.624246E-5,0.9999261,0.63242054,0.77458644,0.0077483524,-0.77452266,0.6324679,-0.009944484,-0.012603447,2.8782166E-4,0.9999205,-0.12927246,-0.03111267,9.9048,0
4740.277854828,0.60503495,0.79616594,0.0072555714,-0.79610664,0.6050785,-0.0097217765,-0.012130336,1.05805906E-4,0.9999265,0.63188326,0.7750248,0.0077541242,-0.77496105,0.6319307,-0.009944989,-0.0126076825,2.7492805E-4,0.9999205,-0.04309082,0.07421875,9.923965,0
4740.282249359,0.6050224,0.79617506,0.007285695,-0.7961156,0.60506624,-0.009736005,-0.012159894,9.0246176E-5,0.9999261,0.63139755,0.7754207,0.0077358047,-0.7753568,0.6314448,-0.009958597,-0.012606836,2.8982406E-4,0.9999205,-0.19152832,-0.04069519,9.818619,0
4740.28664389,0.6511516,0.75890714,0.007846673,-0.7588498,0.65119886,-0.009330871,-0.012191009,1.21365505E-4,0.9999257,0.6308921,0.77583206,0.0077243815,-0.775768,0.6309393,-0.009975122,-0.012612636,3.0089816E-4,0.99992037,-0.19152832,0.07899475,9.86171,0
4740.291038422,0.6511467,0.7589113,0.007858423,-0.7588541,0.6511941,-0.00932079,-0.012191009,1.0580582E-4,0.9999257,0.63129115,0.77550703,0.0077587334,-0.7754428,0.6313388,-0.009987275,-0.0126435915,2.8842452E-4,0.99992,-0.13885498,-0.026321411,9.651016,0
4740.295432953,0.6511425,0.75891477,0.007868502,-0.75885737,0.65119,-0.009332637,-0.012206566,1.058058E-4,0.9999255,0.63168436,0.7751865,0.007789911,-0.7751216,0.63173234,-0.010032846,-0.012698465,2.994642E-4,0.9999193,-0.12927246,-0.02154541,9.751572,0
4740.299827484,0.61257553,0.7903775,0.0074039013,-0.7903177,0.61262023,-0.009724907,-0.012222124,1.0580578E-4,0.9999253,0.6320912,0.7748551,0.007765241,-0.77479017,0.6321388,-0.010034808,-0.012684232,3.2648162E-4,0.9999195,-0.18673706,0.011962891,9.84256,0
4740.304222015,0.6125556,0.79039246,0.0074479016,-0.7903328,0.6126009,-0.009708513,-0.012236125,6.0682716E-5,0.99992514,0.63172156,0.7751562,0.007792548,-0.7750915,0.63176954,-0.010022995,-0.01269248,2.9180458E-4,0.9999194,-0.1484375,-0.11251831,9.823395,0
4740.308616547,0.6125514,0.7903957,0.007457381,-0.79033583,0.61259675,-0.009720847,-0.012251682,6.06827E-5,0.9999249,0.63132626,0.77547807,0.007805063,-0.7754128,0.6313744,-0.01006436,-0.012732606,3.017482E-4,0.9999189,-0.16758728,-0.03111267,9.713272,0
4740.313011078,0.6709047,0.74149895,0.008142966,-0.74144274,0.6709541,-0.00913362,-0.012236125,9.024609E-5,0.99992514,0.6309475,0.775786,0.007827778,-0.77572113,0.630996,-0.01003896,-0.012727381,2.6188366E-4,0.99991894,-0.0909729,0.11251831,9.756363,0
4740.317405609,0.6709043,0.7414993,0.00814395,-0.74144334,0.6709537,-0.009113847,-0.012222124,7.62424E-5,0.9999253,0.6317795,0.7751093,0.007762223,-0.77504385,0.63182706,-0.010080085,-0.01271755,3.5232792E-4,0.99991906,-0.07661438,-0.04069519,9.756363,0
4740.32180014,0.67090034,0.7415027,0.008153297,-0.7414466,0.6709499,-0.009124271,-0.012236125,7.624239E-5,0.99992514,0.6325448,0.774485,0.007755788,-0.7744194,0.6325922,-0.010084281,-0.012716374,3.7252682E-4,0.99991906,-0.12927246,-0.03111267,9.8138275,0
4740.326194672,0.6483828,0.76127344,0.007918356,-0.7612155,0.6484311,-0.009389913,-0.012282797,6.068268E-5,0.99992454,0.6333044,0.7738636,0.0077847783,-0.77379847,0.63335216,-0.010048638,-0.012706781,3.399971E-4,0.99991924,-0.24420166,-0.007171631,9.742004,0
4740.330589203,0.648375,0.76127976,0.007935099,-0.7612211,0.64842355,-0.009455347,-0.012343471,9.024598E-5,0.9999239,0.6335967,0.7736241,0.0078018485,-0.7735587,0.63364464,-0.010068373,-0.012732736,3.4410076E-4,0.9999189,-0.27772522,0.05984497,9.919174,0
4740.334983734,0.6483842,0.76127213,0.007915036,-0.7612137,0.64843255,-0.009431568,-0.012312356,9.024601E-5,0.99992424,0.6338779,0.77339417,0.0077671204,-0.77332884,0.6339253,-0.010058643,-0.01270307,3.6941282E-4,0.99991924,-0.07182312,-0.011962891,9.852127,0
4740.339378265,0.63652855,0.7712139,0.007778956,-0.7711549,0.6365761,-0.009543991,-0.012312356,7.624232E-5,0.99992424,0.63415694,0.77316517,0.0077824574,-0.7731008,0.63420457,-0.009985114,-0.012655813,3.1550523E-4,0.99991983,-0.10055542,-0.011962891,9.828186,0
4740.343772797,0.63652855,0.7712139,0.007778956,-0.7711549,0.6365761,-0.009543991,-0.012312356,7.624232E-5,0.99992424,0.63415086,0.7731696,0.0078377705,-0.77310514,0.6341992,-0.009981802,-0.012688333,2.7054735E-4,0.9999194,-0.13885498,0.007171631,9.866501,0
4740.348167328,0.63653684,0.7712072,0.0077602393,-0.77114844,0.6365841,-0.009521113,-0.012282797,7.6242344E-5,0.99992454,0.6342124,0.7731197,0.0077851424,-0.7730556,0.63426006,-0.009958651,-0.012637033,2.975513E-4,0.99992007,-0.15322876,0.06942749,9.742004,0
4740.352561859,0.6365425,0.7712027,0.007747414,-0.7711435,0.63658965,-0.009551873,-0.012298354,1.0580567E-4,0.9999243,0.6342124,0.7731197,0.0077851424,-0.7730556,0.63426006,-0.009958651,-0.012637033,2.975513E-4,0.99992007,-0.15322876,0.06942749,9.742004,0
4740.35695639,0.61813337,0.78603727,0.007512418,-0.7859775,0.618179,-0.009698291,-0.012267239,9.024606E-5,0.9999248,0.6342997,0.77304804,0.0077869627,-0.7729834,0.6343474,-0.010007301,-0.012675764,3.2843545E-4,0.9999196,-0.028717041,-0.01675415,9.804245,0
4740.361350922,0.61815506,0.7860207,0.0074663744,-0.7859607,0.6182001,-0.009714717,-0.012251682,1.3692507E-4,0.9999249,0.6340028,0.7732919,0.0077443286,-0.77322733,0.63405,-0.009997534,-0.012641304,3.503376E-4,0.99992,-0.09576416,0.09815979,9.962265,0
4740.365745453,0.6307593,0.7759412,0.007610115,-0.77588177,0.63080513,-0.009602766,-0.012251682,1.5248473E-4,0.9999249,0.633681,0.7735557,0.0077375155,-0.77349156,0.63372815,-0.0099673215,-0.01261376,3.3119958E-4,0.99992037,-0.09576416,0.05984497,9.809036,0
4740.370139984,0.6307607,0.7759401,0.007606822,-0.7758802,0.63080657,-0.009645543,-0.012282797,1.8204804E-4,0.99992454,0.6336432,0.7735868,0.007725646,-0.77352315,0.63369024,-0.009928007,-0.0125758415,3.1484893E-4,0.99992085,-0.20588684,0.05984497,9.832977,0
4740.374534515,0.6307753,0.7759286,0.0075730383,-0.77586865,0.63082075,-0.009652963,-0.012267239,2.1316741E-4,0.9999248,0.6335476,0.77366555,0.007685782,-0.7736017,0.6335941,-0.009946666,-0.012565059,3.559524E-4,0.999921,-0.10055542,0.08857727,9.856918,0
4740.378929047,0.6082649,0.7937003,0.0073272567,-0.79363906,0.60830903,-0.009859593,-0.012282797,1.8204804E-4,0.99992454,0.6334854,0.77371657,0.0076770396,-0.7736524,0.63353175,-0.009974381,-0.012580993,3.7926465E-4,0.9999208,-0.13406372,-0.06942749,9.780304,0
4740.383323578,0.6082668,0.79369885,0.007322349,-0.7936383,0.6083108,-0.00980455,-0.012236125,1.5248478E-4,0.99992514,0.63299435,0.7741188,0.0076319883,-0.77405494,0.63304025,-0.009946659,-0.012531251,3.8860072E-4,0.99992144,-0.0143585205,-0.08857727,10.053238,0
4740.387718109,0.60827094,0.79369575,0.007311285,-0.79363513,0.6083149,-0.00981303,-0.012236125,1.6648848E-4,0.99992514,0.63246393,0.774552,0.007654682,-0.7744884,0.6325101,-0.009932851,-0.012535173,3.537082E-4,0.9999214,-0.14364624,0.05984497,9.751572,0
4740.39211264,0.624323,0.78112966,0.007567127,-0.78106904,0.62436885,-0.009733641,-0.012327913,1.6648829E-4,0.999924,0.6319793,0.7749475,0.007646731,-0.7748842,0.6320254,-0.009908677,-0.012511633,3.3674715E-4,0.9999217,-0.10055542,0.007171631,9.909592,0
4740.396507172,0.6243126,0.78113776,0.007587651,-0.78107715,0.6243587,-0.009737149,-0.012343471,1.5248459E-4,0.9999239,0.6318668,0.77503866,0.007703734,-0.7749746,0.63191366,-0.009970254,-0.012595428,3.296746E-4,0.9999206,-0.18673706,-0.04069519,9.74678,0
4740.400901703,0.62433046,0.7811239,0.0075526237,-0.78106296,0.6243762,-0.009765152,-0.012343471,1.9760757E-4,0.9999239,0.6317012,0.77517414,0.0076583056,-0.77511,0.6317475,-0.009975211,-0.012570641,3.6532298E-4,0.9999209,-0.11012268,0.12210083,9.900009,0
4740.405296234,0.6471984,0.7622814,0.007830359,-0.76222223,0.6472457,-0.009503302,-0.012312356,1.8204798E-4,0.99992424,0.6315879,0.77526623,0.007679089,-0.77520156,0.6316345,-0.010020035,-0.012618572,3.756911E-4,0.9999203,-0.0335083,-0.04548645,10.043671,0
4740.409690765,0.6471972,0.7622824,0.007833142,-0.76222336,0.6472445,-0.00948257,-0.012298354,1.6648835E-4,0.9999243,0.63192165,0.77499366,0.007735258,-0.77492917,0.63196886,-0.010004674,-0.012642002,3.2789263E-4,0.99992,-0.10055542,-0.04069519,9.74678,0
4740.414085297,0.64721584,0.7622669,0.0077895084,-0.762208,0.6472627,-0.009478805,-0.012267239,1.9760775E-4,0.9999248,0.63224334,0.7747318,0.0076787644,-0.7746671,0.6322899,-0.010019413,-0.012617563,3.8622165E-4,0.9999203,-0.04309082,0.10293579,9.9526825,0
4740.418479828,0.6327349,0.77433115,0.007601827,-0.7742718,0.63278055,-0.009590001,-0.012236125,1.8204814E-4,0.99992514,0.63253486,0.7744936,0.0076983543,-0.7744288,0.6325816,-0.010022822,-0.012632449,3.779565E-4,0.9999201,-0.02394104,-0.05984497,9.923965,0
4740.422874359,0.6327438,0.7743242,0.0075810263,-0.7742649,0.6327892,-0.009588921,-0.012222124,1.9760786E-4,0.9999253,0.63255787,0.77447426,0.0077552646,-0.77440995,0.6326053,-0.009985146,-0.01263926,3.104282E-4,0.99992007,-0.11012268,0.05027771,9.823395,0
4740.42726889,0.6327561,0.7743143,0.0075516403,-0.77425545,0.6328012,-0.009552664,-0.012175452,1.9760798E-4,0.9999259,0.63256174,0.7744712,0.0077391323,-0.7744074,0.632609,-0.009947954,-0.012600249,2.994544E-4,0.99992055,0.02394104,0.007171631,9.9048,0
4740.431663422,0.61331797,0.7898025,0.0072996044,-0.7897424,0.6133614,-0.009746943,-0.012175452,2.1316766E-4,0.9999259,0.63254875,0.77448136,0.0077929464,-0.7744182,0.63259673,-0.00989303,-0.01259176,2.2282438E-4,0.9999207,-0.11491394,0.02154541,9.775513,0
4740.436057953,0.61331505,0.7898047,0.0073060147,-0.7897451,0.61335856,-0.009704535,-0.012145892,1.8204834E-4,0.9999262,0.6321909,0.77477384,0.007757641,-0.7747107,0.6322384,-0.009898204,-0.012573548,2.4762686E-4,0.9999209,-0.07182312,-0.07421875,9.847351,0
4740.440452484,0.6132948,0.78982,0.007349997,-0.78976065,0.6133388,-0.009688104,-0.012159894,1.3692523E-4,0.9999261,0.63183737,0.7750617,0.00780116,-0.7749993,0.6318855,-0.009834544,-0.012551819,1.6793817E-4,0.9999212,-0.16279602,-0.10293579,9.885651,0
4740.444847015,0.61328036,0.78983086,0.0073811966,-0.78977126,0.61332476,-0.009703266,-0.012191009,1.21365505E-4,0.9999257,0.6314581,0.77537066,0.0078071537,-0.7753076,0.6315064,-0.009889336,-0.012598169,1.9175588E-4,0.99992067,-0.16758728,-0.05027771,9.756363,0
4740.449241547,0.61328346,0.7898285,0.0073744394,-0.78976935,0.6133278,-0.0096691195,-0.012159894,1.0580586E-4,0.9999261,0.631064,0.7756916,0.007792335,-0.7756286,0.6311121,-0.009885122,-0.012585644,1.9418671E-4,0.9999208,-0.0622406,-0.02154541,9.785095,0
4740.453636078,0.6132728,0.7898366,0.0073976605,-0.7897777,0.61331743,-0.009651086,-0.012159894,7.624246E-5,0.9999261,0.6307253,0.7759675,0.0077572754,-0.77590436,0.63077295,-0.00989688,-0.012572736,2.2330774E-4,0.99992096,-0.12927246,-0.09336853,9.603134,0
4740.458030609,0.61749846,0.7865365,0.0074807554,-0.78647757,0.61754376,-0.0096261455,-0.012191009,6.0682753E-5,0.9999257,0.6303751,0.77625155,0.0077969874,-0.77618825,0.6304233,-0.009910943,-0.012608787,1.9568163E-4,0.9999205,-0.1819458,-0.03111267,9.995789,0
4740.46242514,0.617504,0.78653234,0.007468584,-0.7864733,0.6175492,-0.009635703,-0.012191009,7.624243E-5,0.9999257,0.63011616,0.77646154,0.007814545,-0.77639943,0.6301646,-0.009823817,-0.012552266,1.2293723E-4,0.9999212,-0.11491394,0.01675415,9.804245,0
4740.466819672,0.61751646,0.7865226,0.007440871,-0.786464,0.6175613,-0.0096001,-0.012145892,7.624247E-5,0.9999262,0.6298389,0.7766866,0.007805107,-0.7766247,0.6298872,-0.0098094,-0.012535167,1.1670303E-4,0.99992144,-0.004776001,0.03590393,9.923965,0
4740.471214203,0.61732006,0.786677,0.0074274573,-0.7866183,0.61736476,-0.0096106045,-0.012145892,9.024619E-5,0.9999262,0.6295841,0.77689373,0.0077539557,-0.7768318,0.62963176,-0.009806964,-0.012501105,1.5078741E-4,0.99992186,-0.1197052,0.01675415,9.809036,0
4740.475608734,0.6173247,0.78667355,0.0074179075,-0.7866151,0.61736935,-0.009598325,-0.012130336,9.024621E-5,0.9999265,0.6293504,0.77708286,0.00776302,-0.77702105,0.6293983,-0.0098016355,-0.012502715,1.3663384E-4,0.99992186,-0.08139038,0.011962891,9.856918,0
4740.480003265,0.6173136,0.786682,0.007441031,-0.7866237,0.6173585,-0.009580177,-0.012130336,6.06828E-5,0.9999265,0.6291035,0.7772828,0.007767884,-0.77722037,0.6291514,-0.009851423,-0.012544516,1.6020672E-4,0.9999213,-0.11491394,0.03111267,9.8138275,0
4740.484397797,0.61731946,0.78667754,0.0074288603,-0.7866191,0.6173642,-0.009589729,-0.012130336,7.624249E-5,0.9999265,0.6291035,0.7772828,0.007767884,-0.77722037,0.6291514,-0.009851423,-0.012544516,1.6020672E-4,0.9999213,-0.11491394,0.03111267,9.8138275,0
4740.488792328,0.6198147,0.7847123,0.007499823,-0.7846549,0.61986005,-0.009494408,-0.012099221,0.0,0.99992687,0.6286628,0.77763915,0.007775495,-0.7775757,0.62871087,-0.009935661,-0.0126148965,2.0014467E-4,0.9999204,-0.09576416,0.07421875,9.74678,0
4740.493186859,0.6198002,0.7847236,0.007532493,-0.78466624,0.619846,-0.009488428,-0.012114778,-2.956342E-5,0.9999266,0.6284522,0.7778086,0.007844804,-0.77774626,0.6285012,-0.009847287,-0.012589773,8.728214E-5,0.9999207,-0.15800476,-0.05505371,9.938324,0
4740.49758139,0.63322,0.7739339,0.0076620295,-0.77387726,0.6332664,-0.009363998,-0.012099221,0.0,0.99992687,0.6282659,0.7779585,0.007903399,-0.7778962,0.6283156,-0.009843995,-0.01262405,3.662212E-5,0.9999203,-0.0909729,0.04548645,9.775513,0
4740.501975922,0.63321024,0.7739417,0.0076847924,-0.7738853,0.6332569,-0.009345372,-0.012099221,-2.9563425E-5,0.99992687,0.62835735,0.7778848,0.0078965295,-0.77782196,0.62840694,-0.009886668,-0.012652922,7.026675E-5,0.99991995,-0.11012268,-0.05027771,9.919174,0
4740.506370453,0.6331957,0.7739533,0.0077185575,-0.773897,0.6332428,-0.009337848,-0.012114778,-6.0682807E-5,0.9999266,0.62842727,0.7778283,0.00789994,-0.7777654,0.6284769,-0.009892182,-0.012659349,7.2217066E-5,0.9999199,-0.1771698,-0.08857727,9.674957,0
4740.510764984,0.64668036,0.76272035,0.007883057,-0.76266515,0.64672846,-0.009179018,-0.012099221,-7.624252E-5,0.99992687,0.62849236,0.7777753,0.007935055,-0.77771306,0.6285424,-0.009838523,-0.012639679,1.2240845E-5,0.9999201,-0.08618164,-0.06463623,9.86171,0
4740.515159515,0.6466846,0.7627168,0.007873045,-0.7626617,0.64673245,-0.009167108,-0.012083663,-7.6242526E-5,0.9999269,0.6288402,0.77749443,0.00789611,-0.77743155,0.6288898,-0.009887801,-0.012653493,7.9161764E-5,0.99991995,-0.08139038,0.03590393,9.761154,0
4740.519554047,0.6466897,0.7627127,0.007861238,-0.76265746,0.64673746,-0.00917712,-0.012083663,-6.0682825E-5,0.9999269,0.62919706,0.7772054,0.0079258485,-0.77714294,0.62924695,-0.009854756,-0.012646487,4.106666E-5,0.99992,-0.10533142,0.007171631,9.70369,0
4740.523948578,0.62829703,0.777936,0.007643201,-0.7778799,0.6283435,-0.009341521,-0.012069661,-7.624254E-5,0.99992716,0.62950605,0.7769555,0.007891269,-0.77689326,0.6295555,-0.009834495,-0.0126089575,6.020055E-5,0.9999205,-0.0909729,-0.04069519,9.761154,0
4740.528343109,0.62830114,0.7779328,0.007633473,-0.7778769,0.6283476,-0.00932938,-0.012054104,-7.6242555E-5,0.9999274,0.62946635,0.7769879,0.007869646,-0.7769251,0.6295155,-0.009882444,-0.012632604,1.06540625E-4,0.9999202,-0.08139038,0.011962891,9.789886,0
4740.53273764,0.62830526,0.77792954,0.007623745,-0.77787375,0.6283515,-0.009317238,-0.012038547,-7.624257E-5,0.9999275,0.6294569,0.7769958,0.007842837,-0.7769334,0.62950575,-0.00984415,-0.012585974,1.031065E-4,0.9999208,-0.0622406,-0.011962891,9.84256,0
4740.537132172,0.6077155,0.7941204,0.007394014,-0.79406404,0.6077605,-0.00946159,-0.012007432,-1.21365774E-4,0.99992794,0.62944514,0.7770051,0.007873952,-0.7769425,0.62949437,-0.009861872,-0.012619332,8.989929E-5,0.99992037,-0.05744934,-0.09815979,9.962265,0
4740.541526703,0.60772485,0.7941135,0.007373258,-0.7940572,0.6077696,-0.009459843,-0.01199343,-1.0580607E-4,0.9999281,0.62902516,0.7773448,0.0078969365,-0.7772822,0.62907475,-0.009866839,-0.0126377,6.8342924E-5,0.9999201,-0.05744934,0.04069519,9.713272,0
4740.545921234,0.6077266,0.7941122,0.007369432,-0.79405564,0.6077713,-0.009480404,-0.012007432,-9.024634E-5,0.99992794,0.6285799,0.7777051,0.007881932,-0.77764285,0.6286293,-0.009839774,-0.012607256,5.5756034E-5,0.99992055,-0.15322876,0.02154541,9.871292,0
4740.550315765,0.635059,0.7724255,0.0076769153,-0.77237076,0.6351054,-0.009194702,-0.011977872,-9.024637E-5,0.99992824,0.6281477,0.77805424,0.007880806,-0.77799153,0.62819713,-0.009875831,-0.012634631,7.228026E-5,0.9999202,-0.0335083,-0.01675415,9.794678,0
4740.554710297,0.63506776,0.77241844,0.0076563186,-0.7723637,0.6351139,-0.009191493,-0.011962314,-7.6242635E-5,0.9999284,0.62824893,0.77797294,0.0078380145,-0.7779099,0.6282978,-0.009904729,-0.012630219,1.2536692E-4,0.99992025,-0.08139038,0.03590393,9.718063,0
4740.559104828,0.63508624,0.77240366,0.007612736,-0.77234906,0.6351319,-0.0091870455,-0.0119312,-4.512321E-5,0.99992883,0.6284196,0.7778348,0.007867147,-0.7777708,0.6284688,-0.009977883,-0.012705401,1.5145956E-4,0.9999193,-0.05744934,0.10293579,9.871292,0
4740.563499359,0.64633894,0.76301074,0.007781012,-0.76295716,0.6463858,-0.009045304,-0.0119312,-9.024642E-5,0.99992883,0.6285637,0.7777185,0.007853253,-0.77765477,0.62861276,-0.009957947,-0.012681134,1.5208524E-4,0.9999196,-0.11491394,-0.10772705,9.765945,0
4740.56789389,0.6463526,0.7629996,0.0077485577,-0.7629459,0.646399,-0.009052407,-0.011915642,-6.068295E-5,0.999929,0.62892264,0.7774282,0.007854739,-0.777365,0.6289717,-0.009914956,-0.012648575,1.2974114E-4,0.99992,-0.08618164,0.06463623,9.847351,0
4740.572288422,0.6463533,0.76299894,0.0077467505,-0.762945,0.64639974,-0.009074328,-0.0119312,-4.512321E-5,0.99992883,0.6292937,0.77712744,0.007898802,-0.77706486,0.6293433,-0.009860489,-0.012633913,6.7261586E-5,0.9999202,-0.1484375,0.04069519,9.9479065,0
4740.576682953,0.63395214,0.77333534,0.007556435,-0.7732807,0.6339972,-0.009195082,-0.01190164,-1.4003761E-5,0.9999292,0.6296515,0.7768375,0.007900908,-0.776775,0.6297011,-0.0098576015,-0.012632965,6.962593E-5,0.9999202,-0.028717041,0.07421875,9.794678,0
4740.581077484,0.6339848,0.7733093,0.007479333,-0.77325433,0.634029,-0.0092180595,-0.011870526,6.0682985E-5,0.99992955,0.62973416,0.77677023,0.007928237,-0.7767078,0.62978405,-0.009844801,-0.012640228,4.1683757E-5,0.9999201,-0.04309082,0.19392395,10.014938,0
4740.585472015,0.63398814,0.7733068,0.007471674,-0.7732522,0.63403213,-0.009184103,-0.011839409,4.512326E-5,0.99992985,0.62979996,0.7767164,0.007975373,-0.7766542,0.62985045,-0.009831092,-0.012659264,-2.485538E-6,0.9999199,-0.04788208,-0.026321411,9.727631,0
4740.589866547,0.6454339,0.76377827,0.0076057836,-0.76372415,0.6454787,-0.0090937335,-0.011854968,6.0682996E-5,0.9999297,0.6298905,0.77664334,0.007943826,-0.7765806,0.6299406,-0.009874975,-0.012673472,5.1133065E-5,0.9999197,-0.14364624,0.02154541,9.713272,0
4740.594261078,0.64542896,0.7637823,0.00761761,-0.7637283,0.6454739,-0.009083739,-0.011854968,4.512325E-5,0.9999297,0.63017696,0.7764105,0.007982654,-0.77634794,0.6302275,-0.009860475,-0.012686664,1.65272E-5,0.99991953,-0.14364624,-0.05027771,9.789886,0
4740.598655609,0.64543205,0.7637799,0.0076104486,-0.76372623,0.64547694,-0.00905109,-0.011825409,2.9563522E-5,0.9999301,0.6304538,0.77618545,0.00800338,-0.77612334,0.63050467,-0.00981656,-0.01266564,-2.2722772E-5,0.9999198,-0.0143585205,-0.007171631,9.962265,0
4740.60305014,0.615201,0.78833705,0.007236285,-0.7882813,0.6152435,-0.009370777,-0.011839409,6.0683004E-5,0.99992985,0.63076615,0.77593213,0.007964316,-0.7758702,0.6308164,-0.009804019,-0.012631274,4.7672306E-6,0.99992025,-0.16758728,0.04548645,9.818619,0
4740.607444672,0.61518794,0.788347,0.0072675426,-0.7882911,0.61523086,-0.009385852,-0.011870526,4.5123244E-5,0.99992955,0.6304691,0.7761743,0.007887127,-0.77611256,0.63051844,-0.009789138,-0.012571056,5.045109E-5,0.99992096,-0.1771698,-0.01675415,9.631866,0
4740.611839203,0.61519814,0.78833926,0.0072431294,-0.78828317,0.6152408,-0.009404906,-0.011870526,7.624272E-5,0.99992955,0.630173,0.776415,0.007855019,-0.776354,0.630222,-0.009729442,-0.01250449,3.2957178E-5,0.9999218,-0.09576416,-0.08378601,9.775513,0
4740.616233734,0.61519194,0.7883439,0.007258017,-0.78828824,0.6152348,-0.009373551,-0.011854968,4.512325E-5,0.9999297,0.630173,0.776415,0.007855019,-0.776354,0.630222,-0.009729442,-0.01250449,3.2957178E-5,0.9999218,-0.09576416,-0.08378601,9.775513,0
4740.620628265,0.59222937,0.80573916,0.006981671,-0.805682,0.5922705,-0.009600486,-0.011870526,6.0682985E-5,0.99992955,0.6296075,0.7768747,0.0077550267,-0.7768132,0.62965524,-0.009775165,-0.012477071,1.3031029E-4,0.99992216,-0.13885498,0.03590393,9.995789,0
4740.625022797,0.59223735,0.8057335,0.006963334,-0.8056766,0.59227824,-0.009575347,-0.011839409,6.0683004E-5,0.99992985,0.62888026,0.77746373,0.0077303057,-0.77740234,0.62892777,-0.009768115,-0.012456159,1.3341733E-4,0.9999224,-0.05744934,-0.002380371,9.742004,0
4740.629417328,0.6111343,0.79149455,0.007157557,-0.7914389,0.61117625,-0.009394027,-0.011809851,7.624278E-5,0.9999303,0.6281915,0.7780204,0.0077272346,-0.7779602,0.62823904,-0.009678596,-0.012384695,6.853034E-5,0.9999233,-0.0335083,0.026321411,9.68454,0
4740.633811859,0.61112094,0.7915046,0.0071877837,-0.79144865,0.6111632,-0.009408032,-0.011839409,6.0683004E-5,0.99992985,0.6278501,0.77829564,0.0077576917,-0.7782364,0.62789804,-0.0095998105,-0.012342529,-1.0076519E-5,0.9999238,-0.21546936,-0.01675415,10.048462,0
4740.63820639,0.61112475,0.7915018,0.00717927,-0.7914461,0.6111669,-0.009396918,-0.011825409,6.0683018E-5,0.9999301,0.6275152,0.77856636,0.007690047,-0.7785072,0.6275623,-0.00959639,-0.01229741,3.512328E-5,0.99992436,-0.05744934,-0.02154541,9.866501,0
4740.642600922,0.6298225,0.7767037,0.00740815,-0.7766498,0.6298661,-0.009157408,-0.0117787365,1.4003781E-5,0.9999307,0.6272321,0.7787947,0.0076589976,-0.7787353,0.62727886,-0.00962185,-0.012297774,7.080237E-5,0.99992436,-0.009567261,-0.08857727,9.742004,0
4740.646995453,0.6298389,0.77669084,0.007374371,-0.7766368,0.62988204,-0.009164774,-0.011763179,4.5123306E-5,0.99993086,0.6273212,0.77872294,0.0076610073,-0.7786629,0.627368,-0.009663121,-0.012331164,9.653753E-5,0.99992394,-0.06703186,0.04548645,9.967056,0
4740.651389984,0.6298352,0.7766937,0.0073818425,-0.7766392,0.62987846,-0.009198774,-0.011794293,6.068304E-5,0.99993044,0.62732583,0.7787195,0.0076352195,-0.77865976,0.62737226,-0.009643949,-0.0123000555,1.0465923E-4,0.99992436,-0.2106781,0.04069519,9.780304,0
4740.655784515,0.62984157,0.7766887,0.007368755,-0.7766339,0.6298847,-0.009229419,-0.011809851,9.0246554E-5,0.9999303,0.6273693,0.7786845,0.0076342127,-0.778625,0.6274157,-0.00962614,-0.01228555,9.495507E-5,0.99992454,-0.15800476,0.08857727,9.722839,0
4740.660179047,0.6298399,0.77668995,0.0073720976,-0.77663565,0.62988305,-0.009186647,-0.0117787365,6.068305E-5,0.9999307,0.6274459,0.7786222,0.0076841507,-0.7785631,0.62749296,-0.009596154,-0.01229353,3.8471917E-5,0.9999244,-0.03829956,-0.07899475,9.852127,0
4740.664573578,0.6298363,0.7766928,0.0073795705,-0.77663815,0.6298796,-0.009220648,-0.011809851,7.624278E-5,0.9999303,0.6274976,0.7785804,0.0076994156,-0.7785215,0.6275449,-0.009583226,-0.012293041,1.9292136E-5,0.9999244,-0.16279602,0.04069519,9.837769,0
4740.668968109,0.6213981,0.7834612,0.0072819153,-0.7834063,0.62144077,-0.0092780795,-0.011794293,6.068304E-5,0.99993044,0.6275341,0.778551,0.007700601,-0.7784919,0.6275813,-0.009592333,-0.012300874,2.4659954E-5,0.99992436,-0.09576416,-0.026321411,9.856918,0
4740.67336264,0.6213732,0.78348035,0.007338837,-0.78342575,0.62141657,-0.009252787,-0.011809851,0.0,0.9999303,0.6274049,0.77865535,0.0076744664,-0.7785961,0.6274519,-0.009606013,-0.012295132,5.1550847E-5,0.9999244,-0.08139038,0.05027771,9.679749,0
4740.677757172,0.6213816,0.78347385,0.0073195975,-0.78341955,0.6214247,-0.009228332,-0.0117787365,0.0,0.9999307,0.6273305,0.7787145,0.0077590467,-0.7786557,0.62737846,-0.009563362,-0.012314988,-4.2237192E-5,0.9999242,-0.04788208,0.01675415,9.818619,0
4740.682151703,0.6231876,0.78203726,0.0074174227,-0.7819831,0.62323177,-0.009210093,-0.011825409,-6.0683018E-5,0.9999301,0.6272733,0.7787607,0.007745312,-0.7787022,0.6273211,-0.009543752,-0.012291097,-4.4750203E-5,0.9999245,-0.19152832,-0.07421875,9.794678,0
4740.686546234,0.6231993,0.7820282,0.0073932223,-0.7819738,0.62324315,-0.009229379,-0.011825409,-2.9563522E-5,0.9999301,0.62727207,0.7787613,0.0077802297,-0.7787028,0.62732035,-0.009541633,-0.012311351,-7.3287745E-5,0.9999242,-0.0909729,0.06942749,9.636658,0
4740.690940765,0.6232009,0.78202695,0.0073898006,-0.7819722,0.62324464,-0.009250009,-0.011839409,-1.400377E-5,0.99992985,0.627184,0.7788318,0.007834527,-0.7787738,0.62723285,-0.009507901,-0.012319128,-1.3812081E-4,0.9999241,-0.15800476,0.026321411,9.943115,0
4740.695335297,0.6324487,0.774566,0.0075023873,-0.77451205,0.63249314,-0.009140862,-0.011825409,-2.9563522E-5,0.9999301,0.6271387,0.7788687,0.00778937,-0.7788105,0.627187,-0.00952069,-0.01230076,-9.56507E-5,0.99992436,-0.0622406,-0.03590393,9.837769,0
4740.699729828,0.63245225,0.7745632,0.0074947993,-0.77450967,0.63249665,-0.009106887,-0.011794293,-4.5123285E-5,0.99993044,0.62723404,0.7787921,0.0077719633,-0.7787346,0.62728214,-0.009459251,-0.012242003,-1.19133576E-4,0.9999251,-0.03829956,-0.03111267,9.818619,0
4740.704124359,0.6324624,0.7745551,0.007473024,-0.7745016,0.63250655,-0.0091045825,-0.0117787365,-2.9563538E-5,0.9999307,0.6273252,0.7787187,0.007762939,-0.77866167,0.6273732,-0.009426894,-0.012211159,-1.309749E-4,0.99992543,-0.09576416,0.026321411,9.809036,0
4740.70851889,0.6261714,0.7796504,0.0073869377,-0.77959645,0.62621504,-0.0091745285,-0.0117787365,-1.4003781E-5,0.9999307,0.62741256,0.77864844,0.007757369,-0.77859074,0.6274605,-0.009483501,-0.012251755,-8.974749E-5,0.99992496,-0.1197052,0.06463623,9.84256,0
4740.712913422,0.6261676,0.77965355,0.007395461,-0.77959925,0.6262113,-0.009207592,-0.011809851,0.0,0.9999303,0.62740445,0.77865475,0.0077767526,-0.7785966,0.6274526,-0.009517593,-0.012290463,-8.357306E-5,0.9999245,-0.18673706,0.026321411,9.852127,0
4740.717307953,0.6261824,0.77964175,0.0073628407,-0.77958727,0.62622565,-0.009213835,-0.011794293,2.9563533E-5,0.99993044,0.62740713,0.77865255,0.0077812676,-0.7785948,0.62745535,-0.0094847,-0.012267684,-1.0768591E-4,0.9999248,-0.09576416,0.06463623,9.8138275,0
4740.721702484,0.6302803,0.7763322,0.0074146125,-0.7762785,0.63032395,-0.009132135,-0.011763179,0.0,0.99993086,0.62736326,0.7786879,0.007783746,-0.7786298,0.62741154,-0.009508512,-0.012287774,-9.536574E-5,0.9999245,-0.0335083,-0.07899475,9.722839,0
4740.726097015,0.63027626,0.7763354,0.0074243722,-0.7762816,0.63032,-0.00914425,-0.0117787365,0.0,0.9999307,0.6273846,0.7786711,0.0077331583,-0.7786135,0.6274323,-0.009468297,-0.012224723,-8.0878046E-5,0.99992526,-0.1484375,0.026321411,9.84256,0
4740.730491547,0.6302867,0.77632713,0.0073992703,-0.7762728,0.6303301,-0.009184671,-0.011794293,4.5123285E-5,0.99993044,0.6274224,0.7786407,0.007732873,-0.7785838,0.6274701,-0.009406401,-0.012176353,-1.1890296E-4,0.99992585,-0.1484375,0.08857727,9.698898,0
4740.734886078,0.6041832,0.796814,0.007078053,-0.7967582,0.6042247,-0.009434522,-0.011794293,6.068304E-5,0.99993044,0.6275067,0.7785729,0.007713071,-0.77851623,0.6275541,-0.009393505,-0.012153898,-1.1026373E-4,0.99992615,-0.13885498,0.03590393,9.86171,0
4740.739280609,0.6041803,0.7968162,0.007084014,-0.79676086,0.6042218,-0.009390953,-0.011763179,2.9563545E-5,0.99993086,0.62704897,0.7789418,0.007695541,-0.778885,0.6270962,-0.009409663,-0.012155425,-9.3621195E-5,0.99992615,-0.17237854,-0.06942749,9.880859,0
4740.74367514,0.60417295,0.79682153,0.007099025,-0.7967665,0.6042146,-0.009361996,-0.011749176,0.0,0.999931,0.62626445,0.77957326,0.007639938,-0.7795168,0.626311,-0.009378276,-0.012096032,-8.2180035E-5,0.99992687,-0.0622406,-0.07899475,9.713272,0
4740.748069672,0.64831465,0.7613345,0.007616106,-0.7612817,0.6483594,-0.008964792,-0.011763179,1.4003785E-5,0.99993086,0.62626445,0.77957326,0.007639938,-0.7795168,0.626311,-0.009378276,-0.012096032,-8.2180035E-5,0.99992687,-0.06703186,0.01675415,9.737213,0
4740.752464203,0.6483248,0.761326,0.007595299,-0.7612732,0.64836925,-0.00896412,-0.011749176,2.9563547E-5,0.999931,0.62626445,0.77957326,0.007639938,-0.7795168,0.626311,-0.009378276,-0.012096032,-8.2180035E-5,0.99992687,-0.06703186,0.01675415,9.737213,0
4740.756858734,0.648319,0.7613308,0.0076070772,-0.7612781,0.6483636,-0.008954088,-0.011749176,1.40037855E-5,0.999931,0.6272059,0.77881604,0.007638987,-0.77875984,0.6272524,-0.009359585,-0.012080968,-7.854915E-5,0.99992704,-0.11012268,-0.02154541,9.933533,0
4740.761253265,0.6379072,0.770077,0.007465622,-0.7700243,0.63795096,-0.009011828,-0.011702503,0.0,0.9999316,0.6276227,0.7784803,0.007629582,-0.77842414,0.62766904,-0.009347313,-0.012065551,-7.246632E-5,0.9999272,-0.02394104,-0.03590393,9.804245,0
4740.765647797,0.63791496,0.7700708,0.0074477103,-0.7700186,0.63795847,-0.008968079,-0.011657386,-1.4003801E-5,0.99993205,0.6278672,0.7782834,0.007599627,-0.7782275,0.6279132,-0.0093283625,-0.012032015,-5.726621E-5,0.99992764,0.02394104,-0.03590393,9.737213,0
4740.770042328,0.6379199,0.7700667,0.007436126,-0.77001405,0.6379632,-0.008997878,-0.011672943,1.4003797E-5,0.9999318,0.6280732,0.7781172,0.00759652,-0.77806175,0.6281192,-0.009289578,-0.011999899,-7.6026416E-5,0.999928,-0.1771698,0.05505371,9.837769,0
4740.774436859,0.6327725,0.7743027,0.007360742,-0.7742495,0.6328153,-0.0090777865,-0.011686946,4.5123346E-5,0.99993175,0.62826777,0.7779603,0.007572928,-0.7779047,0.6283134,-0.0093002,-0.011993359,-4.7999954E-5,0.99992806,-0.16279602,0.08378601,9.9048,0
4740.77883139,0.6327725,0.7743027,0.007360742,-0.7742495,0.6328153,-0.0090777865,-0.011686946,4.5123346E-5,0.99993175,0.62836945,0.7778779,0.007603336,-0.7778224,0.6284154,-0.009299405,-0.012011856,-7.0583264E-5,0.9999279,-0.11012268,0.011962891,10.038879,0
4740.783225922,0.6327764,0.7742998,0.007351925,-0.77424663,0.63281906,-0.0090669105,-0.011672943,4.5123346E-5,0.9999318,0.6284409,0.77782,0.0076194094,-0.7777651,0.6284871,-0.009244268,-0.011979077,-1.16634554E-4,0.99992824,-0.07182312,-0.02154541,9.8138275,0
4740.787620453,0.6444702,0.76459265,0.0074888747,-0.76454014,0.6445137,-0.008954127,-0.011672943,4.5123346E-5,0.9999318,0.6285451,0.77773595,0.007598821,-0.7776814,0.62859106,-0.009207943,-0.0119379,-1.21854275E-4,0.9999287,-0.1197052,-0.007171631,9.809036,0
4740.792014984,0.6444665,0.76459575,0.0074978573,-0.76454324,0.64451015,-0.00896487,-0.011686946,4.5123346E-5,0.99993175,0.62888175,0.7774644,0.007541405,-0.77740955,0.628927,-0.009228455,-0.011917788,-5.9153946E-5,0.99992895,-0.12927246,0.03111267,9.780304,0
4740.796409515,0.6444401,0.7646173,0.007561271,-0.7645661,0.64448446,-0.00885241,-0.011641828,-7.6242926E-5,0.9999322,0.62919605,0.7772102,0.0075220843,-0.7771555,0.62924105,-0.009221181,-0.0119,-4.3898137E-5,0.9999292,-0.12927246,-0.07421875,9.698898,0
4740.800804047,0.6307252,0.7759712,0.00738057,-0.7759192,0.6307684,-0.008983376,-0.011626271,-6.068316E-5,0.9999324,0.6295306,0.77693874,0.0075761303,-0.7768854,0.6295762,-0.009107336,-0.011845594,-1.5243728E-4,0.99992985,-0.11012268,0.05027771,10.034088,0
4740.805198578,0.6307155,0.77597886,0.0074023455,-0.7759268,0.63075894,-0.008985725,-0.011641828,-7.6242926E-5,0.9999322,0.6295747,0.77690274,0.007605087,-0.77684927,0.6296206,-0.009117613,-0.0118718175,-1.6778814E-4,0.99992955,-0.1484375,-0.05984497,9.670166,0
4740.809593109,0.6307053,0.7759869,0.00742517,-0.7759351,0.630749,-0.008967173,-0.011641828,-1.0580651E-4,0.9999322,0.62959754,0.7768847,0.00756085,-0.77683085,0.62964296,-0.009141888,-0.011862827,-1.17791664E-4,0.9999296,-0.11491394,-0.07421875,9.895233,0
4740.81398764,0.65731746,0.75357395,0.0077443602,-0.7535238,0.6573631,-0.008693202,-0.011641828,-1.2136629E-4,0.9999322,0.62960804,0.7768758,0.0075989515,-0.7768219,0.6296539,-0.009149631,-0.011892837,-1.4235087E-4,0.99992925,-0.05744934,-0.002380371,9.799454,0
4740.818382172,0.6573264,0.7535665,0.007724006,-0.7535167,0.6573718,-0.008669668,-0.011610714,-1.2136634E-4,0.99993265,0.62960804,0.7768758,0.0075989515,-0.7768219,0.6296539,-0.009149631,-0.011892837,-1.4235087E-4,0.99992925,-0.05744934,-0.002380371,9.799454,0
4740.822776703,0.65731746,0.75357395,0.0077443602,-0.7535238,0.6573631,-0.008693202,-0.011641828,-1.2136629E-4,0.9999322,0.6307147,0.7759773,0.0076216357,-0.7759232,0.6307608,-0.009166288,-0.011920261,-1.3249043E-4,0.99992895,-0.20111084,-0.007171631,9.761154,0
4740.827171234,0.6315666,0.77528596,0.0074328873,-0.7752339,0.63161033,-0.008980811,-0.011657386,-9.0246715E-5,0.99993205,0.6312622,0.77553195,0.007634065,-0.77547824,0.6313083,-0.009129768,-0.011899876,-1.5677397E-4,0.9999292,-0.14364624,0.08378601,9.818619,0
4740.831565765,0.6315574,0.7752933,0.007454673,-0.7752412,0.63160133,-0.0089831315,-0.011672943,-1.0580647E-4,0.9999318,0.63125145,0.77554065,0.0076337857,-0.77548736,0.6312976,-0.009089857,-0.011868745,-1.8191873E-4,0.99992955,-0.13406372,-0.03590393,9.933533,0
4740.835960297,0.6315446,0.7753035,0.0074852607,-0.7752513,0.631589,-0.008996343,-0.011702503,-1.2136621E-4,0.9999316,0.6312805,0.7755167,0.0076645147,-0.77546376,0.63132703,-0.009059791,-0.011864835,-2.2428359E-4,0.9999296,-0.21546936,-0.03590393,9.732422,0
4740.840354828,0.63818103,0.7698489,0.007594108,-0.7697969,0.6382262,-0.00894573,-0.011733619,-1.3692593E-4,0.99993116,0.6313028,0.77549833,0.0076840324,-0.77544564,0.63134944,-0.009045374,-0.011865983,-2.4817986E-4,0.99992955,-0.1771698,-0.04548645,9.770737,0
4740.844749359,0.63817644,0.7698526,0.0076039853,-0.7698005,0.63822174,-0.00895775,-0.011749176,-1.369259E-4,0.999931,0.63141686,0.7754051,0.007720685,-0.77535224,0.63146394,-0.009062847,-0.011902712,-2.6381624E-4,0.99992913,-0.1819458,-0.007171631,9.756363,0
4740.84914389,0.6381602,0.76986563,0.0076385383,-0.76981384,0.63820595,-0.00892911,-0.011749176,-1.820492E-4,0.999931,0.63151044,0.7753285,0.0077643865,-0.7752757,0.63155806,-0.009054986,-0.011924249,-3.0122243E-4,0.99992883,-0.11491394,-0.10772705,9.885651,0
4740.853538422,0.6390968,0.76908857,0.00762951,-0.7690371,0.63914233,-0.00889588,-0.011718061,-1.8204928E-4,0.99993134,0.6316234,0.7752365,0.007756551,-0.7751835,0.63167095,-0.009073696,-0.011933848,-2.815914E-4,0.9999287,-0.0335083,-0.01675415,9.722839,0
4740.857932953,0.63909584,0.76908916,0.0076315226,-0.769038,0.6391414,-0.008873977,-0.011702503,-1.9760909E-4,0.9999316,0.63174665,0.77513593,0.0077702487,-0.77508277,0.63179433,-0.00908229,-0.011949209,-2.848801E-4,0.99992853,-0.06703186,-0.05027771,9.86171,0
4740.862327484,0.63908565,0.7690975,0.0076561673,-0.76904684,0.6391315,-0.008833274,-0.011686946,-2.4273248E-4,0.99993175,0.63190395,0.7750071,0.007832636,-0.77495366,0.6319524,-0.009109629,-0.01200988,-3.135193E-4,0.9999278,-0.08618164,-0.09336853,9.876068,0
4740.866722015,0.6390794,0.76910245,0.007671081,-0.7690521,0.63912535,-0.008802676,-0.011672943,-2.7385206E-4,0.9999318,0.6320244,0.7749091,0.007809412,-0.77485555,0.63207257,-0.009114495,-0.01199902,-2.9058338E-4,0.99992794,-0.08139038,-0.08378601,9.880859,0
4740.871116547,0.6390724,0.76910806,0.0076878723,-0.7690572,0.6391186,-0.0088473875,-0.011718061,-2.5829213E-4,0.99993134,0.6321467,0.7748086,0.007888066,-0.7747553,0.6321958,-0.009099018,-0.012036799,-3.5940637E-4,0.9999275,-0.20111084,0.01675415,9.674957,0
4740.875511078,0.6390675,0.76911205,0.007699783,-0.7690613,0.63911384,-0.008837492,-0.011718061,-2.738519E-4,0.99993134,0.632289,0.77469265,0.007868628,-0.774639,0.63233787,-0.009123491,-0.012043533,-3.2666337E-4,0.9999274,-0.1197052,-0.03111267,9.818619,0
4740.879905609,0.6120057,0.79081863,0.0074009,-0.7907665,0.6120504,-0.009089739,-0.011718061,-2.8941166E-4,0.99993134,0.63240784,0.7745953,0.007898206,-0.77454156,0.6324571,-0.009130374,-0.012067621,-3.433687E-4,0.9999271,-0.0909729,-0.01675415,9.986206,0
4740.88430014,0.61200964,0.7908158,0.007391422,-0.7907638,0.6120542,-0.009077401,-0.011702503,-2.8941172E-4,0.9999316,0.63240784,0.7745953,0.007898206,-0.77454156,0.6324571,-0.009130374,-0.012067621,-3.433687E-4,0.9999271,-0.0909729,-0.01675415,9.986206,0
4740.888694672,0.61202204,0.7908064,0.007361164,-0.7907545,0.61206627,-0.009063435,-0.011672943,-2.7385206E-4,0.9999318,0.63157827,0.7752733,0.0077559315,-0.775221,0.6316257,-0.009014312,-0.011887402,-3.1931786E-4,0.9999293,-0.0335083,0.06942749,9.799454,0
4740.893089203,0.60872465,0.7933478,0.007313895,-0.7932959,0.6087685,-0.009081661,-0.011657386,-2.738521E-4,0.99993205,0.631214,0.7755706,0.0076866117,-0.77551806,0.63126075,-0.00903366,-0.011858498,-2.5893236E-4,0.9999296,-0.0909729,-0.007171631,9.914383,0
4740.897483734,0.60872746,0.79334563,0.007307328,-0.7932941,0.60877126,-0.009047478,-0.011626271,-2.8941198E-4,0.9999324,0.6307528,0.77594644,0.0076179495,-0.77589434,0.63079876,-0.008994209,-0.011784418,-2.3760181E-4,0.99993056,-0.028717041,-0.03590393,9.761154,0
4740.901878265,0.608734,0.79334074,0.007292185,-0.7932889,0.60877764,-0.009078706,-0.011641828,-2.5829236E-4,0.9999322,0.63031065,0.77630615,0.0075698504,-0.77625424,0.6303561,-0.00897855,-0.011741805,-2.168528E-4,0.99993104,-0.13406372,0.06463623,9.761154,0
4740.906272797,0.6241332,0.7812829,0.0074073817,-0.7812322,0.62417716,-0.0089054,-0.011581154,-2.2872894E-4,0.99993294,0.62987256,0.7766618,0.007557128,-0.7766103,0.6299178,-0.008948387,-0.01171024,-2.3260055E-4,0.99993145,0.01914978,0.06942749,9.900009,0
4740.910667328,0.6241386,0.7812785,0.0073952856,-0.78122765,0.6241824,-0.008915059,-0.011581154,-2.1316916E-4,0.99993294,0.62976557,0.77674884,0.007515302,-0.77669823,0.62981033,-0.008871878,-0.011624436,-2.4991835E-4,0.99993235,-0.10533142,0.04548645,9.885651,0
4740.915061859,0.6241343,0.781282,0.007404948,-0.781231,0.6241782,-0.008927255,-0.01159671,-2.131691E-4,0.9999327,0.62963295,0.7768568,0.0074782497,-0.77680576,0.62967736,-0.008906498,-0.011627957,-2.0132247E-4,0.9999324,-0.16279602,-0.007171631,9.837769,0
4740.91945639,0.651891,0.7582734,0.007724082,-0.7582245,0.6519367,-0.008611647,-0.011565595,-2.427328E-4,0.99993306,0.62953854,0.77693295,0.0075158733,-0.776882,0.62958336,-0.008900578,-0.011647021,-2.3568988E-4,0.99993217,-0.04309082,-0.07899475,9.847351,0
4740.923850922,0.651882,0.75828093,0.0077442676,-0.7582318,0.65192795,-0.008635332,-0.01159671,-2.4273271E-4,0.9999327,0.6299707,0.77658284,0.0074865855,-0.77653193,0.6300152,-0.008888231,-0.01161911,-2.1424792E-4,0.99993247,-0.1819458,-0.007171631,9.962265,0
4740.928245453,0.6518782,0.75828415,0.007752878,-0.7582347,0.65192425,-0.008666914,-0.011626271,-2.2872882E-4,0.9999324,0.63044137,0.7762011,0.007452859,-0.776151,0.6304854,-0.0088197235,-0.0115447985,-2.242252E-4,0.99993336,-0.1771698,0.05027771,9.574402,0
4740.932639984,0.63894916,0.76921237,0.0075135017,-0.76916283,0.6389933,-0.008735432,-0.011520479,-1.9760951E-4,0.99993366,0.63086814,0.7758544,0.007433777,-0.775804,0.63091195,-0.0088484185,-0.011555145,-1.849677E-4,0.99993324,-0.13406372,-0.007171631,9.9048,0
4740.937034515,0.63896304,0.7692009,0.0074818055,-0.7691515,0.6390068,-0.008721305,-0.011489362,-1.8204976E-4,0.99993396,0.63107544,0.7756866,0.0073603843,-0.77563685,0.6311183,-0.008788662,-0.01146252,-1.6267733E-4,0.9999343,-0.0335083,0.04069519,9.957474,0
4740.941429047,0.638964,0.7692002,0.007479789,-0.76915056,0.6390078,-0.008743206,-0.01150492,-1.6648992E-4,0.99993384,0.6312071,0.7755799,0.007305467,-0.7755296,0.63124937,-0.008834008,-0.011463051,-8.951745E-5,0.9999343,-0.15322876,0.03111267,9.967056,0
4740.945823578,0.63146114,0.77537245,0.0073715667,-0.77532214,0.6315042,-0.008834134,-0.01150492,-1.3692629E-4,0.99993384,0.63136286,0.7754537,0.007242283,-0.77540284,0.6314044,-0.008875188,-0.0114551075,-1.22230285E-5,0.9999344,-0.11012268,0.07899475,9.780304,0
4740.950218109,0.6314803,0.77535737,0.007328002,-0.7753071,0.63152283,-0.008829484,-0.011473805,-1.0580672E-4,0.9999342,0.6313689,0.7754491,0.007214001,-0.7753984,0.63141006,-0.008867747,-0.01143148,5.094932E-6,0.9999347,-0.03829956,0.07421875,9.785095,0
4740.95461264,0.6314903,0.7753494,0.007305192,-0.7752989,0.63153255,-0.008848061,-0.011473805,-7.624308E-5,0.9999342,0.6313781,0.77544206,0.00716292,-0.7753913,0.63141876,-0.008870884,-0.011401658,4.6815567E-5,0.999935,-0.09576416,0.09336853,9.837769,0
4740.959007172,0.63787955,0.77010083,0.007378106,-0.7700507,0.6379222,-0.008787353,-0.011473805,-7.624308E-5,0.9999342,0.6313628,0.775454,0.007225627,-0.7754026,0.6314041,-0.008923185,-0.011481809,3.099632E-5,0.9999341,-0.12927246,-0.007171631,9.919174,0
4740.963401703,0.6378705,0.7701081,0.007398714,-0.7700579,0.63791335,-0.008790486,-0.011489362,-9.024689E-5,0.99993396,0.6314929,0.7753474,0.0072853146,-0.7752954,0.63153493,-0.008982292,-0.011565328,2.3983219E-5,0.9999331,-0.13885498,-0.04069519,9.943115,0
4740.967796234,0.6378665,0.7701113,0.0074077337,-0.7700608,0.63790953,-0.008823418,-0.011520479,-7.6243035E-5,0.99993366,0.6315869,0.7752707,0.007306681,-0.7752188,0.6316291,-0.008974174,-0.011572527,3.6944025E-6,0.99993306,-0.18673706,0.02154541,9.938324,0
4740.972190765,0.65002745,0.7598732,0.0075475904,-0.7598236,0.65007126,-0.008683617,-0.01150492,-9.0246875E-5,0.99993384,0.6317228,0.77515936,0.007364717,-0.77510744,0.6317657,-0.008970679,-0.011606482,-4.1464587E-5,0.99993265,-0.0909729,-0.011962891,9.856918,0
4740.976585297,0.65002203,0.7598778,0.0075593526,-0.7598283,0.65006596,-0.008673557,-0.01150492,-1.0580668E-4,0.99993384,0.6321225,0.77483314,0.007396689,-0.7747805,0.6321658,-0.009030821,-0.011673313,-2.2225591E-5,0.9999319,-0.10055542,-0.03590393,9.698898,0
4740.980979828,0.65002203,0.7598778,0.0075593526,-0.7598283,0.65006596,-0.008673557,-0.01150492,-1.0580668E-4,0.99993384,0.6324735,0.7745466,0.0074052466,-0.7744936,0.63251686,-0.009064653,-0.011704939,-2.1626809E-6,0.9999315,-0.47883606,0.15560913,11.78186,0
4740.985374359,0.62709266,0.77891046,0.0072975485,-0.7788597,0.62713516,-0.008894952,-0.01150492,-1.0580668E-4,0.99993384,0.6327936,0.77428544,0.0073699905,-0.77423245,0.6328365,-0.0090565,-0.011676315,2.480895E-5,0.9999318,0.0143585205,0.007171631,8.310272,0
4740.98976889,0.6270741,0.77892494,0.0073406603,-0.778873,0.6271171,-0.008996064,-0.011610714,-7.624296E-5,0.99993265,0.63268024,0.7743782,0.007360505,-0.7743258,0.63272303,-0.009008876,-0.011633438,3.088469E-7,0.99993235,-0.15322876,-0.04069519,10.23999,0
4740.994163422,0.6270658,0.7789315,0.007360079,-0.7788792,0.627109,-0.009020377,-0.011641828,-7.6242926E-5,0.9999322,0.6325914,0.7744504,0.0073897885,-0.77439684,0.6326346,-0.009114261,-0.011733579,4.297447E-5,0.99993116,0.11012268,-0.05027771,9.425964,0
4740.998557953,0.6046207,0.79648167,0.0071206614,-0.7964282,0.60466266,-0.009230329,-0.011657386,-9.0246715E-5,0.99993205,0.6324651,0.77455294,0.007456233,-0.7744982,0.63250905,-0.009210112,-0.011849854,5.023566E-5,0.9999298,-0.14364624,-0.01675415,9.765945,0
4741.002952484,0.6046231,0.79647994,0.007115016,-0.796426,0.604665,-0.009271728,-0.011686946,-6.068312E-5,0.99993175,0.6319261,0.77499247,0.0074888365,-0.774938,0.63197047,-0.009189766,-0.011854723,3.869381E-6,0.9999297,-0.20111084,0.04548645,10.101135,0
4741.007347015,0.60464245,0.79646575,0.0070691383,-0.7964125,0.6046838,-0.0092108445,-0.011610714,-6.068317E-5,0.99993265,0.6314215,0.77540386,0.0074662063,-0.77534944,0.6314657,-0.009186884,-0.011838198,1.1877947E-5,0.9999299,0.06703186,0.03590393,9.402023,0
4741.011741547,0.60779035,0.79406595,0.0070875753,-0.79401314,0.60783166,-0.009159317,-0.011581154,-6.068319E-5,0.99993294,0.630893,0.7758338,0.007477965,-0.7757796,0.63093734,-0.009165085,-0.01182871,-1.9065286E-5,0.99993,-0.20111084,0.04069519,9.914383,0
4741.016136078,0.60778344,0.7940711,0.007102567,-0.79401773,0.6078249,-0.00920466,-0.011626271,-4.5123375E-5,0.9999324,0.630893,0.7758338,0.007477965,-0.7757796,0.63093734,-0.009165085,-0.01182871,-1.9065286E-5,0.99993,-0.20111084,0.04069519,9.914383,0
4741.020530609,0.607789,0.79406685,0.0070904577,-0.7940142,0.6078303,-0.009137516,-0.011565595,-7.624299E-5,0.99993306,0.629989,0.7765677,0.0075089796,-0.77651274,0.6300338,-0.009237219,-0.011904237,-1.1471718E-5,0.99992913,0.0143585205,-0.06942749,9.780304,0
4741.02492514,0.6408124,0.76766133,0.0074584605,-0.76761043,0.6408557,-0.008839574,-0.011565595,-6.06832E-5,0.99993306,0.6295667,0.7769099,0.0075361268,-0.7768548,0.62961185,-0.009251557,-0.011932461,-3.0003064E-5,0.99992883,-0.08618164,0.04548645,9.986206,0
4741.029319672,0.6408124,0.76766133,0.0074584605,-0.76761043,0.6408557,-0.008839574,-0.011565595,-6.06832E-5,0.99993306,0.6297861,0.7767323,0.007511643,-0.77667683,0.62983084,-0.0092844805,-0.011942621,1.3117384E-5,0.9999287,-0.12927246,-0.01675415,9.6558075,0
4741.033714203,0.6408003,0.76767105,0.0074872384,-0.76761985,0.64084405,-0.008874323,-0.011610714,-6.068317E-5,0.99993265,0.6300422,0.77652377,0.0075864005,-0.776469,0.6300879,-0.009220479,-0.011940021,-8.13138E-5,0.9999287,-0.22505188,-0.011962891,9.641449,0
4741.038108734,0.61828315,0.7859218,0.007274583,-0.7858698,0.61832595,-0.009050075,-0.011610714,-1.2136634E-4,0.99993265,0.6302585,0.7763478,0.0076396423,-0.7762934,0.63030475,-0.009191281,-0.011950933,-1.3772145E-4,0.9999286,-0.13885498,-0.13166809,10.058029,0
4741.042503265,0.618268,0.7859334,0.0073128915,-0.7858807,0.6183112,-0.009099118,-0.011672943,-1.2136625E-4,0.9999318,0.6300046,0.7765534,0.007680941,-0.77649856,0.63005143,-0.009225112,-0.012003181,-1.5237619E-4,0.99992794,-0.25378418,-0.011962891,9.770737,0
4741.046897797,0.6182398,0.7859547,0.007384165,-0.7859016,0.6182839,-0.009140047,-0.011749176,-1.5248566E-4,0.999931,0.62979144,0.7767261,0.007699574,-0.7766712,0.62983847,-0.0092409635,-0.012027185,-1.601576E-4,0.9999277,-0.30166626,-0.08857727,9.818619,0
4741.051292328,0.64570963,0.7635437,0.007745183,-0.7634922,0.6457561,-0.008876029,-0.0117787365,-1.8204916E-4,0.9999307,0.6295548,0.7769179,0.0077070007,-0.7768627,0.62960196,-0.009256021,-0.012043511,-1.601091E-4,0.99992746,-0.22505188,-0.06463623,9.732422,0
4741.055686859,0.64571476,0.76353943,0.0077333613,-0.7634878,0.6457611,-0.008886025,-0.0117787365,-1.664894E-4,0.9999307,0.62987244,0.77665967,0.007777952,-0.77660424,0.6299205,-0.009280234,-0.012107074,-1.9502659E-4,0.9999267,-0.11491394,0.03111267,9.804245,0
4741.06008139,0.6457392,0.7635194,0.0076772617,-0.76346743,0.64578485,-0.008913091,-0.011763179,-1.0580637E-4,0.99993086,0.6302021,0.77639246,0.0077548195,-0.77633667,0.6302498,-0.009307336,-0.012113618,-1.548483E-4,0.9999266,-0.06703186,0.16040039,9.880859,0
4741.064475922,0.63126266,0.77553266,0.007518053,-0.7754797,0.6313075,-0.009068003,-0.0117787365,-1.0580635E-4,0.9999307,0.63053226,0.7761243,0.0077542043,-0.77606833,0.63057995,-0.00932127,-0.01212411,-1.404311E-4,0.9999265,-0.15322876,-0.01675415,9.674957,0
4741.068870453,0.6312506,0.77554214,0.007544295,-0.7754896,0.63129574,-0.009026584,-0.011763179,-1.5248565E-4,0.99993086,0.6305966,0.7760725,0.007713615,-0.77601606,0.6306437,-0.009357986,-0.012127018,-8.477542E-5,0.99992645,-0.0909729,-0.09815979,9.823395,0
4741.073264984,0.6312647,0.77553105,0.007513726,-0.77547866,0.6313094,-0.009013349,-0.011733619,-1.3692593E-4,0.99993116,0.6306194,0.7760541,0.007694469,-0.7759966,0.6306664,-0.009443042,-0.012180953,-1.5916423E-5,0.9999258,-0.009567261,0.02154541,9.876068,0
4741.077659515,0.6312736,0.7755241,0.0074941837,-0.77547204,0.6313181,-0.008989135,-0.011702503,-1.3692598E-4,0.9999316,0.63062847,0.776047,0.0076702684,-0.7759893,0.6306751,-0.009463815,-0.012181813,1.6105336E-5,0.9999258,-0.04788208,-0.01675415,9.751572,0
4741.082054047,0.63126314,0.7755323,0.007516992,-0.7754805,0.6313079,-0.008970571,-0.011702503,-1.6648954E-4,0.9999316,0.6306518,0.77602774,0.0076976866,-0.7759708,0.6306988,-0.009395319,-0.0121459495,-4.8005208E-5,0.9999262,-0.10055542,-0.06942749,10.043671,0
4741.086448578,0.63128656,0.77551377,0.007465846,-0.7754621,0.63133067,-0.008954024,-0.011657386,-1.3692606E-4,0.99993205,0.63066727,0.77601516,0.007704476,-0.7759582,0.6307143,-0.009406576,-0.0121589685,-4.593144E-5,0.9999261,-0.028717041,0.06463623,9.765945,0
4741.090843109,0.60618925,0.79528785,0.007202421,-0.7952353,0.60623205,-0.0091482485,-0.011641828,-1.8204944E-4,0.9999322,0.6306678,0.7760143,0.0077352677,-0.77595705,0.63071525,-0.009425719,-0.012193245,-5.773808E-5,0.9999257,-0.08139038,-0.10293579,9.919174,0
4741.09523764,0.60619205,0.7952857,0.007195963,-0.79523355,0.6062348,-0.009114045,-0.011610714,-1.976093E-4,0.99993265,0.63021463,0.7763825,0.0077334335,-0.776325,0.630262,-0.009452471,-0.012212822,-4.6572437E-5,0.99992543,-0.01914978,-0.05505371,9.631866,0
4741.099632172,0.6061826,0.79529285,0.0072176615,-0.79524064,0.60622555,-0.009117071,-0.011626271,-2.1316904E-4,0.9999324,0.6297818,0.7767338,0.0077156834,-0.776676,0.62982905,-0.009476742,-0.0122204665,-2.4307212E-5,0.9999253,-0.12927246,-0.03111267,9.631866,0
4741.104026703,0.64683044,0.76259524,0.007683307,-0.7625453,0.64687604,-0.008728255,-0.011626271,-2.1316904E-4,0.9999324,0.62934625,0.7770871,0.0076744836,-0.7770298,0.62939304,-0.009438507,-0.012164809,-2.3213144E-5,0.99992603,-0.14364624,0.011962891,9.847351,0
4741.108421234,0.64682275,0.76260144,0.0077015474,-0.762551,0.6468685,-0.008773984,-0.011672943,-1.9760914E-4,0.9999318,0.62967545,0.7768205,0.007666644,-0.77676344,0.6297221,-0.009414031,-0.012140867,-2.7384385E-5,0.99992627,-0.22026062,0.007171631,9.832977,0
4741.112815765,0.64684105,0.7625864,0.007657895,-0.762536,0.6468864,-0.008770208,-0.011641828,-1.6648966E-4,0.9999322,0.6300446,0.77652115,0.0076658647,-0.7764644,0.6300912,-0.009383517,-0.012116694,-4.0237283E-5,0.99992657,-0.0335083,0.09336853,9.84256,0
4741.117210297,0.6188684,0.7854604,0.0073346584,-0.7854082,0.61891186,-0.009062046,-0.011657386,-1.5248582E-4,0.99993205,0.6304072,0.7762267,0.007671429,-0.77617,0.6304539,-0.009377974,-0.012115916,-4.2390573E-5,0.9999266,-0.1484375,0.03111267,9.976624,0
4741.121604828,0.61888933,0.78544444,0.0072911945,-0.7853922,0.61893225,-0.009056677,-0.011626271,-1.2136632E-4,0.9999324,0.63017464,0.7764157,0.0076533114,-0.7763596,0.6302211,-0.00933008,-0.012067298,-6.214242E-5,0.99992716,-0.04309082,0.07899475,9.823395,0
4741.125999359,0.61887765,0.7854533,0.007315504,-0.78540134,0.61892086,-0.009037523,-0.011626271,-1.5248588E-4,0.9999324,0.629954,0.77659506,0.0076191807,-0.77653885,0.6300001,-0.009346433,-0.012058479,-2.8765968E-5,0.9999273,-0.11491394,-0.08378601,10.00058,0
4741.13039389,0.62195295,0.78301996,0.0073715337,-0.78296816,0.62199664,-0.009012234,-0.011641828,-1.6648966E-4,0.9999322,0.62976754,0.7767467,0.0075812233,-0.77668977,0.62981313,-0.009405492,-0.012080438,3.501475E-5,0.99992704,-0.1819458,-0.05027771,9.876068,0
4741.134788422,0.6219474,0.7830242,0.007383655,-0.7829725,0.6219912,-0.009002607,-0.011641828,-1.8204944E-4,0.9999322,0.62964237,0.77684826,0.007567771,-0.77679116,0.62968785,-0.009417718,-0.012081471,5.121671E-5,0.99992704,-0.09576416,-0.007171631,9.890442,0
4741.139182953,0.62195605,0.7830174,0.007364398,-0.78296596,0.6219997,-0.008978165,-0.011610714,-1.8204951E-4,0.99993265,0.6295196,0.7769476,0.007583907,-0.77689046,0.62956524,-0.009427134,-0.012098954,4.2701184E-5,0.9999268,-0.0622406,-0.03590393,10.043671,0
4741.143577484,0.62338954,0.7818762,0.007419636,-0.7818243,0.62343365,-0.009013309,-0.011672943,-1.8204936E-4,0.9999318,0.6293824,0.7770589,0.0075761913,-0.77700144,0.6294279,-0.009448975,-0.012111076,6.0306516E-5,0.9999267,-0.25856018,0.03111267,10.034088,0
4741.147972015,0.6233669,0.78189373,0.0074693724,-0.7818414,0.6234116,-0.00905126,-0.011733619,-1.9760901E-4,0.99993116,0.62925124,0.77716464,0.0076204906,-0.77710754,0.6292974,-0.009420792,-0.01211706,6.1039764E-6,0.99992657,-0.27293396,-0.07899475,9.794678,0
4741.152366547,0.6233626,0.7818972,0.0074790227,-0.78184474,0.6234074,-0.0090634655,-0.011749176,-1.9760897E-4,0.999931,0.629151,0.77724564,0.007634423,-0.77718884,0.6291973,-0.009399646,-0.012109391,-1.9591957E-5,0.9999267,-0.1484375,0.007171631,9.718063,0
4741.156761078,0.6364032,0.7713191,0.007595353,-0.771267,0.6364485,-0.008965322,-0.011749176,-1.5248566E-4,0.999931,0.6290456,0.77733064,0.007662648,-0.7772739,0.6290923,-0.009390048,-0.012119684,-4.9207716E-5,0.99992657,-0.10055542,0.13166809,9.737213,0
4741.161155609,0.63640726,0.77131605,0.0075854966,-0.7712641,0.63645244,-0.008953285,-0.011733619,-1.5248569E-4,0.99993116,0.62921983,0.7771887,0.0077542393,-0.7771323,0.6292676,-0.009363355,-0.012156585,-1.3446176E-4,0.9999261,-0.08618164,0.002380371,9.809036,0
4741.16555014,0.6364216,0.7713045,0.007549657,-0.77125216,0.6364664,-0.008982855,-0.011733619,-1.058064E-4,0.99993116,0.6293844,0.77705574,0.0077266307,-0.7769988,0.6294318,-0.0094086155,-0.012174406,-8.194696E-5,0.9999259,-0.13885498,0.10293579,9.698898,0
4741.169944672,0.6126156,0.79034716,0.0073150317,-0.7902935,0.6126593,-0.009213111,-0.011763179,-1.369259E-4,0.99993086,0.62952954,0.77693814,0.007721453,-0.77688146,0.6295769,-0.0093823755,-0.012150774,-9.217116E-5,0.99992615,-0.18673706,-0.09336853,9.866501,0
4741.174339203,0.61261195,0.7903499,0.00732301,-0.790297,0.6126557,-0.009149842,-0.011718061,-1.8204928E-4,0.99993134,0.6292283,0.77718264,0.0076804445,-0.77712584,0.62927514,-0.009394359,-0.012134245,-5.747585E-5,0.9999264,0.0143585205,-0.08857727,9.86171,0
4741.178733734,0.61260223,0.79035735,0.007344729,-0.79030436,0.6126462,-0.009152696,-0.011733619,-1.9760901E-4,0.99993116,0.628878,0.7774659,0.007700694,-0.7774088,0.62892514,-0.00942361,-0.0121696945,-6.0286024E-5,0.999926,-0.15800476,-0.07421875,9.84256,0
4741.183128265,0.6273962,0.7786634,0.0075818202,-0.7786114,0.62744194,-0.008997505,-0.011763177,-2.5829198E-4,0.99993074,0.6285818,0.7777051,0.0077194744,-0.7776482,0.62862927,-0.009403598,-0.012165914,-9.210439E-5,0.999926,-0.19631958,-0.15083313,9.8138275,0
4741.187522797,0.6273708,0.77868325,0.0076374016,-0.7786313,0.62741715,-0.008992688,-0.011794292,-3.0497115E-4,0.9999304,0.6285479,0.7777325,0.0077283154,-0.7776756,0.6285954,-0.009402954,-0.012170967,-9.9915065E-5,0.9999259,-0.19631958,-0.10293579,9.923965,0
4741.191917328,0.6273752,0.7786798,0.0076276907,-0.7786281,0.6274215,-0.008980531,-0.011778736,-3.049712E-4,0.9999306,0.62853616,0.7777426,0.0076595475,-0.7776858,0.62858284,-0.009398141,-0.012123995,-4.9650058E-5,0.9999265,-0.0909729,-0.002380371,9.852127,0
4741.196311859,0.60673225,0.794871,0.0074950154,-0.79481584,0.6067785,-0.009367074,-0.011993429,-2.73851E-4,0.99992806,0.62853336,0.7777446,0.0076943086,-0.777688,0.62858045,-0.009378025,-0.0121302,-8.937016E-5,0.99992645,-0.27293396,-0.05505371,9.8138275,0
4741.20070639,0.60673094,0.7948718,0.0074976427,-0.794816,0.6067772,-0.009421828,-0.012038547,-2.4273145E-4,0.9999275,0.6280703,0.77811813,0.0077435025,-0.7780599,0.628118,-0.009520486,-0.012271895,-4.537509E-5,0.9999247,-0.22984314,0.07899475,9.17218,0
4741.205100922,0.6067266,0.79487514,0.007507032,-0.7948193,0.606773,-0.009434236,-0.012054104,-2.4273142E-4,0.9999274,0.62763983,0.7784649,0.0077831815,-0.7784062,0.6276881,-0.009558391,-0.012326282,-5.924997E-5,0.999924,-0.1484375,-0.002380371,10.584763,0
4741.209495453,0.5992202,0.8005489,0.007519465,-0.8004937,0.5992673,-0.009409014,-0.012038546,-3.8121283E-4,0.99992746,0.62719905,0.77882075,0.00771936,-0.7787623,0.62724656,-0.00954664,-0.012277063,-2.3902314E-5,0.99992466,-0.09576416,-0.08857727,9.392441,0
4741.213889984,0.59922034,0.8005488,0.0075192275,-0.8004945,0.5992673,-0.0093334,-0.01197787,-4.2633625E-4,0.9999281,0.62663347,0.77927524,0.007790818,-0.7792176,0.62668186,-0.009477445,-0.012267902,-1.3185861E-4,0.9999247,0.0,-0.13166809,10.010147,0
4741.218284515,0.59923744,0.80053633,0.0074851885,-0.80048203,0.59928405,-0.009339439,-0.011962314,-3.9521692E-4,0.9999284,0.62611145,0.7796948,0.007783705,-0.7796367,0.6261598,-0.009519998,-0.012296535,-1.07882355E-4,0.9999244,-0.05265808,0.06463623,10.01973,0
4741.222679047,0.6448161,0.764296,0.007986028,-0.7642448,0.6448654,-0.008852234,-0.011915641,-3.9521712E-4,0.9999289,0.62562186,0.7800874,0.007804101,-0.7800296,0.6256705,-0.009500795,-0.012294247,-1.4352496E-4,0.9999244,-0.02394104,0.01675415,9.770737,0
4741.227073578,0.6448101,0.7643009,0.008000714,-0.7642501,0.6448596,-0.008821528,-0.01190164,-4.263367E-4,0.99992913,0.6259936,0.7797888,0.007835007,-0.77973014,0.62604266,-0.0095608225,-0.012360471,-1.24178E-4,0.9999236,-0.05744934,-0.09815979,9.9479065,0
4741.231468109,0.6448321,0.764283,0.00794708,-0.76423246,0.644881,-0.0088057015,-0.011854968,-3.9521744E-4,0.9999297,0.6263976,0.7794646,0.007805128,-0.7794059,0.62644625,-0.009567356,-0.012346908,-9.039427E-5,0.99992377,-0.01914978,0.06942749,9.852127,0
4741.23586264,0.6077203,0.79411536,0.0075312387,-0.7940627,0.60776687,-0.009164575,-0.011854968,-4.107772E-4,0.9999297,0.6268009,0.77914107,0.0077344696,-0.77908224,0.6268486,-0.009572158,-0.012306403,-2.595134E-5,0.9999243,-0.12449646,-0.04548645,9.780304,0
4741.240257172,0.60769993,0.79413056,0.007577531,-0.79407805,0.607747,-0.00914875,-0.011870525,-4.5745634E-4,0.9999295,0.62644607,0.77942616,0.0077545303,-0.7793682,0.6264941,-0.009500205,-0.012262876,-9.2268245E-5,0.9999248,-0.13885498,-0.10293579,9.713272,0
4741.244651703,0.607685,0.7941417,0.007611337,-0.7940883,0.60773253,-0.009218884,-0.011946756,-4.4189618E-4,0.99992853,0.6260469,0.7797464,0.007802078,-0.7796881,0.6260955,-0.009536152,-0.012320626,-1.13109825E-4,0.9999241,-0.30166626,0.02154541,9.962265,0
4741.249046234,0.6453051,0.7638822,0.008081905,-0.76383156,0.6453555,-0.008811639,-0.011946756,-4.8701937E-4,0.99992853,0.62565225,0.78006303,0.00780649,-0.780005,0.62570095,-0.0095167635,-0.012308204,-1.3491647E-4,0.99992424,-0.13406372,-0.10293579,9.708481,0
4741.253440765,0.6453013,0.7638854,0.008091246,-0.7638343,0.6453518,-0.008844483,-0.01197787,-4.7301542E-4,0.9999281,0.62601805,0.7797695,0.0078082886,-0.7797105,0.62606674,-0.009595722,-0.012370961,-8.110925E-5,0.99992347,-0.19631958,0.02154541,9.421173,0
4741.257835297,0.64529014,0.76389444,0.00811839,-0.7638427,0.6453411,-0.008900987,-0.012038546,-4.5745537E-4,0.99992746,0.62635946,0.77949506,0.007828001,-0.77943563,0.6264084,-0.009625904,-0.01240687,-7.214654E-5,0.99992305,-0.25856018,0.04069519,9.770737,0
4741.262229828,0.62049794,0.7841691,0.007824088,-0.78411525,0.6205471,-0.009200114,-0.01206966,-4.263358E-4,0.9999271,0.6267114,0.77921176,0.00786849,-0.7791532,0.6267608,-0.009552238,-0.012374877,-1.4426315E-4,0.9999234,-0.20588684,0.08378601,9.804245,0
4741.266624359,0.6205165,0.7841547,0.0077805915,-0.78410095,0.6205651,-0.0091948435,-0.012038546,-3.9521657E-4,0.99992746,0.6266049,0.7792975,0.007856459,-0.77923954,0.62665415,-0.009503488,-0.012329328,-1.6713093E-4,0.999924,-0.04788208,0.04069519,9.9479065,0
4741.27101889,0.6205331,0.784142,0.0077418024,-0.7840886,0.6205813,-0.009167996,-0.011993429,-3.8121303E-4,0.99992806,0.6264568,0.77941734,0.007778173,-0.77935994,0.6265051,-0.009457845,-0.012244673,-1.3706488E-4,0.999925,0.009567261,0.03590393,10.034088,0
4741.275413422,0.6593865,0.7517596,0.0081854835,-0.751709,0.65943724,-0.008732184,-0.011962314,-3.9521692E-4,0.9999284,0.62634623,0.779506,0.007787336,-0.7794487,0.6263947,-0.009456643,-0.012249457,-1.466951E-4,0.99992496,-0.0622406,-0.02154541,9.890442,0
4741.279807953,0.65939474,0.75175256,0.00816479,-0.75170195,0.65944517,-0.008729635,-0.011946757,-3.8121326E-4,0.9999286,0.62703586,0.77895206,0.007730266,-0.7788941,0.6270835,-0.0095006935,-0.012248107,-6.378333E-5,0.999925,-0.05744934,0.04548645,10.187317,0
4741.284202484,0.6594112,0.75173855,0.008123527,-0.75168824,0.65946114,-0.008705806,-0.01190164,-3.6565372E-4,0.99992913,0.6276675,0.7784435,0.007695605,-0.7783855,0.62771463,-0.009501805,-0.012227262,-2.6174483E-5,0.99992526,-0.02394104,0.03590393,10.024521,0
4741.288597015,0.6594246,0.7517272,0.008090027,-0.75167674,0.65947413,-0.008714491,-0.011886082,-3.345343E-4,0.9999293,0.6283369,0.777903,0.0077231103,-0.77784514,0.62838435,-0.009488043,-0.012233859,-4.5696346E-5,0.99992514,-0.05265808,0.04069519,9.86171,0
4741.292991547,0.6594205,0.7517306,0.00810024,-0.75168,0.65947014,-0.008726229,-0.01190164,-3.3453427E-4,0.99992913,0.6289786,0.7773838,0.00776196,-0.77732533,0.62902653,-0.009532005,-0.012292505,-3.8141316E-5,0.9999244,-0.1771698,0.011962891,9.885651,0
4741.297386078,0.6594414,0.75171286,0.008047739,-0.7516627,0.65949047,-0.008689491,-0.011839409,-3.1897475E-4,0.99992985,0.62963915,0.7768488,0.0077803824,-0.7767898,0.6296872,-0.009576728,-0.012338876,-1.3839143E-5,0.9999239,0.028717041,0.04548645,10.034088,0
4741.301780609,0.64609545,0.76321596,0.007882699,-0.7631648,0.6461435,-0.008838985,-0.011839409,-3.04971E-4,0.99992985,0.63024443,0.7763575,0.007812347,-0.7762984,0.63029283,-0.009577321,-0.012359491,-2.8659264E-5,0.99992365,-0.11491394,0.011962891,9.86171,0
4741.30617514,0.6461015,0.76321095,0.007869071,-0.76315945,0.64614934,-0.008870906,-0.011854968,-2.7385147E-4,0.9999297,0.6305372,0.7761201,0.0077694263,-0.7760615,0.6305851,-0.009542376,-0.012305314,-1.2729651E-5,0.9999243,-0.12449646,0.08378601,9.651016,0
4741.310569672,0.6460962,0.76321524,0.007880886,-0.76316386,0.6461442,-0.008860905,-0.011854968,-2.894112E-4,0.9999297,0.63087803,0.77584344,0.0077400845,-0.7757849,0.6309255,-0.009529159,-0.012276552,7.0957312E-6,0.99992466,-0.13406372,-0.04548645,9.8138275,0
4741.314964203,0.66954494,0.74272704,0.008128706,-0.7426766,0.6695942,-0.00865404,-0.011870525,-2.4273193E-4,0.9999295,0.6311915,0.7755883,0.0077514024,-0.7755298,0.6312391,-0.009525979,-0.012281226,1.2734549E-6,0.9999246,-0.16758728,0.12689209,9.74678,0
4741.319358734,0.6695588,0.742715,0.008095353,-0.7426642,0.6696077,-0.008684107,-0.011870525,-1.9760868E-4,0.9999295,0.63200134,0.7749287,0.0077345385,-0.77486986,0.63204867,-0.009548171,-0.012287756,4.1196246E-5,0.9999245,-0.12449646,0.11251831,9.708481,0
4741.323753265,0.6695558,0.74271744,0.008102417,-0.74266607,0.66960484,-0.008738481,-0.011915642,-1.6648912E-4,0.999929,0.63279456,0.77428067,0.007775874,-0.7742212,0.6328423,-0.009599733,-0.012353791,5.4412565E-5,0.9999237,-0.22505188,0.05984497,9.900009,0
4741.328147797,0.6311876,0.7755922,0.0076823896,-0.7755382,0.63123435,-0.009150906,-0.011946757,-1.8204878E-4,0.9999286,0.6335484,0.7736639,0.007791253,-0.7736052,0.63359624,-0.009530575,-0.01230997,1.0726251E-5,0.99992424,-0.20111084,-0.02154541,9.708481,0
4741.332542328,0.6311886,0.7755913,0.0076801535,-0.7755371,0.63123524,-0.009172781,-0.011962314,-1.6648903E-4,0.9999284,0.63352084,0.773687,0.0077307867,-0.77362895,0.63356805,-0.009475223,-0.012228835,2.1990316E-5,0.9999252,-0.13406372,0.03111267,9.933533,0
4741.336936859,0.6312343,0.77555513,0.007580166,-0.7755017,0.63127977,-0.009095683,-0.011839409,-1.3692575E-4,0.99992985,0.63343424,0.7737585,0.0076751867,-0.7737011,0.6334807,-0.009423316,-0.012153454,3.0750856E-5,0.99992615,-0.0909729,-0.05027771,9.876068,0
4741.34133139,0.59873533,0.8009145,0.00720816,-0.8008593,0.5987787,-0.0094128335,-0.011854968,-1.3692574E-4,0.9999297,0.6333645,0.77381665,0.0075664567,-0.77375996,0.6334097,-0.0093641495,-0.012038802,7.629858E-5,0.9999275,-0.1484375,0.01675415,9.971848,0
4741.345725922,0.5987392,0.8009116,0.007198889,-0.8008564,0.5987824,-0.009400338,-0.011839409,-1.3692575E-4,0.99992985,0.63267726,0.7743789,0.007538246,-0.77432275,0.63272214,-0.009325841,-0.01199135,6.321188E-5,0.9999281,-0.10533142,-0.007171631,10.048462,0
4741.350120453,0.5987419,0.80090976,0.007192629,-0.8008541,0.59878504,-0.00944387,-0.011870526,-1.0580623E-4,0.99992955,0.6320606,0.77488214,0.0075566354,-0.77482605,0.63210577,-0.00932377,-0.012001416,3.8110065E-5,0.999928,-0.1771698,0.08857727,9.962265,0
4741.354514984,0.65063363,0.7593521,0.0077721924,-0.7592995,0.65068,-0.008931563,-0.011839409,-9.024652E-5,0.99992985,0.6313936,0.7754255,0.0075697335,-0.77536976,0.63143903,-0.009296953,-0.01198892,6.94582E-7,0.9999281,-0.0335083,0.01675415,9.818619,0
4741.358909515,0.6506403,0.7593465,0.007756417,-0.7592948,0.65068656,-0.008865177,-0.0117787365,-1.213661E-4,0.9999307,0.6317623,0.775125,0.0075816177,-0.77506995,0.63180786,-0.009243845,-0.011955261,-3.637068E-5,0.99992853,-0.19152832,0.11251831,10.096344,0
4741.363304047,0.6506485,0.75933963,0.0077372757,-0.7592882,0.6506945,-0.008842648,-0.011749176,-1.2136614E-4,0.999931,0.63211375,0.7748384,0.007589649,-0.77478456,0.63215935,-0.009130971,-0.011872894,-1.0853045E-4,0.9999295,-0.03829956,0.026321411,9.708481,0
4741.367698578,0.6388644,0.7692822,0.0075561954,-0.76923007,0.6389091,-0.00895684,-0.011718061,-9.024665E-5,0.99993134,0.6325036,0.7745202,0.007589242,-0.7744669,0.63254917,-0.009089875,-0.01184086,-1.2823773E-4,0.9999299,-0.04788208,0.05027771,9.938324,0
4741.372093109,0.6388602,0.76928544,0.007565256,-0.7692329,0.638905,-0.0089897625,-0.011749176,-7.624283E-5,0.999931,0.6326282,0.7744184,0.007590693,-0.77436566,0.63267374,-0.00903455,-0.011798955,-1.6246167E-4,0.9999304,-0.1771698,0.04069519,9.68454,0
4741.37648764,0.63885456,0.76929015,0.0075779934,-0.76923794,0.6388995,-0.008958963,-0.011733619,-1.058064E-4,0.99993116,0.6327575,0.77431285,0.00759328,-0.77426094,0.632803,-0.008967516,-0.0117487125,-2.0491719E-4,0.999931,-0.10533142,-0.06942749,9.890442,0
4741.380882172,0.6263443,0.77951103,0.007438663,-0.7794578,0.6263885,-0.009113002,-0.011763179,-9.024661E-5,0.99993086,0.63290346,0.77419347,0.007595749,-0.7741415,0.63294905,-0.008970736,-0.011752807,-2.0257458E-4,0.9999309,-0.20111084,0.05505371,9.852127,0
4741.385276703,0.6263527,0.7795045,0.007419073,-0.7794512,0.62639666,-0.009110781,-0.011749176,-7.624283E-5,0.999931,0.6327729,0.7743001,0.007600269,-0.7742486,0.6328186,-0.008927747,-0.011722347,-2.3526065E-4,0.9999313,-0.05265808,0.01675415,9.694122,0
4741.389671234,0.6263443,0.77951103,0.007438663,-0.7794578,0.6263885,-0.009113002,-0.011763179,-9.024661E-5,0.99993086,0.6326415,0.77440774,0.007578611,-0.7743566,0.63268685,-0.008901632,-0.0116883805,-2.3700559E-4,0.9999317,-0.15800476,-0.04548645,9.890442,0
4741.394065765,0.6646921,0.7470757,0.007897082,-0.7470243,0.664739,-0.008760552,-0.011794293,-7.6242795E-5,0.99993044,0.63253,0.774499,0.007555526,-0.7744484,0.632575,-0.00886028,-0.011641715,-2.4697318E-4,0.99993217,-0.18673706,0.04548645,9.636658,0
4741.398460297,0.6646878,0.7470793,0.007907374,-0.7470279,0.6647349,-0.008772218,-0.011809851,-7.624278E-5,0.9999303,0.6332115,0.77394164,0.0075863106,-0.7738909,0.63325685,-0.008867051,-0.011666663,-2.5625763E-4,0.9999319,-0.15322876,0.007171631,9.995789,0
4741.402854828,0.6646921,0.7470757,0.007897082,-0.7470243,0.664739,-0.008760552,-0.011794293,-7.6242795E-5,0.99993044,0.63385946,0.7734106,0.0076292916,-0.7733601,0.63390523,-0.008847938,-0.011679336,-2.9184128E-4,0.99993175,-0.07661438,-0.026321411,9.919174,0
4741.407249359,0.6389866,0.76918054,0.007577505,-0.7691281,0.6390315,-0.008979571,-0.011749176,-9.024662E-5,0.999931,0.6344934,0.77289045,0.007647703,-0.7728404,0.63453937,-0.008807175,-0.01165975,-3.2235956E-4,0.999932,-0.03829956,-0.03111267,9.933533,0
4741.41164389,0.6389848,0.76918197,0.007581536,-0.76913005,0.6390298,-0.00893577,-0.011718061,-1.2136618E-4,0.99993134,0.6345985,0.7728037,0.0076815626,-0.7727536,0.6346449,-0.008807106,-0.01168123,-3.469788E-4,0.9999317,-0.01914978,-0.07421875,9.727631,0
4741.416038422,0.63898826,0.7691793,0.0075736595,-0.7691278,0.63903314,-0.008901863,-0.011686946,-1.3692601E-4,0.99993175,0.6346659,0.77274823,0.0077101174,-0.7726977,0.6347126,-0.0088468855,-0.011730123,-3.4277345E-4,0.99993116,-0.0335083,-0.04069519,9.70369,0
4741.420432953,0.59780586,0.8016096,0.00709157,-0.80155617,0.59784794,-0.009253515,-0.011657386,-1.5248582E-4,0.99993205,0.6347321,0.77269375,0.0077073784,-0.77264315,0.63477886,-0.008847967,-0.01172925,-3.3896402E-4,0.99993116,-0.04788208,-0.05984497,9.737213,0
4741.424827484,0.59780085,0.8016132,0.007102739,-0.8015599,0.59784305,-0.009245187,-0.011657386,-1.6648963E-4,0.99993205,0.63400656,0.7732887,0.007759295,-0.7732378,0.63405395,-0.008880327,-0.011786868,-3.695948E-4,0.9999305,-0.1197052,-0.03111267,9.708481,0
4741.429222015,0.597798,0.80161524,0.007109153,-0.8015616,0.5978403,-0.009277279,-0.011686946,-1.5248578E-4,0.99993175,0.63330525,0.7738631,0.007769075,-0.7738119,0.6333528,-0.00890897,-0.011814889,-3.6970465E-4,0.99993014,-0.1771698,0.03590393,9.770737,0
4741.433616547,0.61256975,0.79038304,0.0072715105,-0.7903303,0.61261284,-0.009132688,-0.011672943,-1.524858E-4,0.9999318,0.6326193,0.7744245,0.0077058305,-0.77437353,0.6326662,-0.008894178,-0.011763088,-3.4056185E-4,0.99993074,-0.06703186,0.007171631,9.742004,0
4741.438011078,0.61254513,0.79040164,0.0073250043,-0.790349,0.61258894,-0.009128633,-0.011702503,-1.9760909E-4,0.9999316,0.6322259,0.774746,0.0076854886,-0.77469504,0.6322725,-0.008891681,-0.011748117,-3.323586E-4,0.9999309,-0.19152832,-0.10772705,9.689331,0
4741.442405609,0.61255074,0.79039735,0.00731277,-0.7903446,0.6125944,-0.009138113,-0.011702503,-1.8204932E-4,0.9999316,0.6318428,0.7750587,0.007665005,-0.77500725,0.63188916,-0.00893566,-0.0117690945,-2.945023E-4,0.9999307,-0.12927246,0.011962891,9.708481,0
4741.44680014,0.6332435,0.7739153,0.0076077785,-0.77386373,0.6332892,-0.008935986,-0.011733619,-2.2872855E-4,0.99993116,0.6314718,0.775361,0.007659952,-0.775309,0.6315181,-0.008989023,-0.011807136,-2.6251597E-4,0.99993026,-0.18673706,-0.10293579,9.799454,0
4741.451194672,0.6332477,0.7739119,0.0075979726,-0.77386045,0.6332932,-0.008923905,-0.011718061,-2.2872858E-4,0.99993134,0.6314975,0.77534044,0.007622946,-0.77528894,0.6315434,-0.008943806,-0.011748715,-2.6199463E-4,0.9999309,-0.09576416,-0.002380371,9.789886,0
4741.455589203,0.6332473,0.77391225,0.007598953,-0.77386117,0.6332929,-0.008903001,-0.011702503,-2.4273242E-4,0.9999316,0.63158387,0.77527076,0.0075620697,-0.77521944,0.63162905,-0.008924806,-0.011695564,-2.2550077E-4,0.99993163,-0.04788208,-0.03590393,9.804245,0
4741.459983734,0.5995972,0.8002692,0.007234288,-0.80021703,0.5996408,-0.0091461865,-0.011657386,-3.0497165E-4,0.99993205,0.6316059,0.77525264,0.0075638797,-0.77520186,0.63165116,-0.008878991,-0.011661195,-2.555097E-4,0.99993193,-0.004776001,-0.16040039,9.895233,0
4741.464378265,0.59960693,0.8002622,0.007212615,-0.80021006,0.59965026,-0.009142982,-0.011641828,-2.8941192E-4,0.9999322,0.6309929,0.7757524,0.0074974927,-0.7757011,0.6310374,-0.0089218505,-0.011652345,-1.8618957E-4,0.9999321,-0.08139038,0.02154541,9.866501,0
4741.468772797,0.5996096,0.80026007,0.0072064376,-0.8002084,0.5996529,-0.009108726,-0.011610714,-3.0497185E-4,0.99993265,0.63034433,0.77627987,0.007459563,-0.7762285,0.63038844,-0.008933491,-0.011637311,-1.5914986E-4,0.9999323,-0.04309082,-0.03590393,9.756363,0
4741.473167328,0.63319975,0.7739516,0.0075576818,-0.7739019,0.6332448,-0.008779997,-0.011581154,-2.8941213E-4,0.99993294,0.6297526,0.77676034,0.007419642,-0.77670884,0.6297963,-0.00894273,-0.011619221,-1.3119409E-4,0.99993247,-0.0143585205,0.03111267,9.708481,0
4741.477561859,0.6331988,0.7739523,0.007559861,-0.77390283,0.63324386,-0.008758111,-0.011565595,-3.0497197E-4,0.99993306,0.62980807,0.7767154,0.0074134744,-0.776664,0.6298517,-0.008935432,-0.011609677,-1.3017158E-4,0.9999326,-0.07182312,-0.026321411,9.722839,0
4741.48195639,0.63320935,0.7739439,0.0075358944,-0.7738942,0.6332541,-0.008777716,-0.011565595,-2.7385238E-4,0.99993306,0.6298499,0.7766819,0.007371281,-0.7766314,0.62989306,-0.008860673,-0.011525042,-1.4387305E-4,0.9999336,-0.12449646,0.04069519,9.928741,0
4741.486350922,0.6636321,0.7480183,0.007799094,-0.74797153,0.6636779,-0.008377604,-0.011442689,-2.7385278E-4,0.99993455,0.6299178,0.77662736,0.007321506,-0.7765775,0.6299603,-0.008800569,-0.01144702,-1.4208251E-4,0.9999345,-0.07661438,-0.03590393,10.08197,0
4741.490745453,0.66364616,0.74800634,0.0077666775,-0.7479593,0.6636915,-0.008387641,-0.011428687,-2.4273316E-4,0.9999346,0.63060516,0.77607,0.0072444845,-0.776021,0.63064677,-0.00871688,-0.01133362,-1.249624E-4,0.99993575,-0.09576416,0.06942749,9.698898,0
4741.495139984,0.6636506,0.7480025,0.0077564004,-0.7479557,0.6636959,-0.0083759595,-0.011413129,-2.4273322E-4,0.99993485,0.63128185,0.77551985,0.0072330236,-0.7754719,0.6313232,-0.008621215,-0.011252298,-1.6659118E-4,0.9999367,-0.07182312,-0.007171631,9.68454,0
4741.499534515,0.6636261,0.7480236,0.007813244,-0.7479753,0.66367203,-0.008508563,-0.011550038,-1.9760944E-4,0.9999333,0.63193387,0.7749891,0.007169256,-0.7749409,0.6319746,-0.00864328,-0.011229236,-9.376807E-5,0.99993694,-0.0909729,0.04548645,10.043671,0
4741.503929047,0.66359615,0.74804944,0.00788284,-0.74799985,0.66364294,-0.0086111305,-0.011672943,-1.8204936E-4,0.9999318,0.63258135,0.7744599,0.007258188,-0.77441,0.632623,-0.008788634,-0.011398141,-6.1287385E-5,0.99993503,-0.004776001,0.026321411,9.742004,0
4741.508323578,0.6635623,0.74807876,0.007961524,-0.7480277,0.6636101,-0.008745153,-0.011825409,-1.5248553E-4,0.9999301,0.6332178,0.77393866,0.0073642833,-0.7738874,0.6332606,-0.008906753,-0.01155679,-5.9211736E-5,0.99993324,-0.18673706,0.06463623,9.718063,0
4741.512718109,0.642405,0.76632637,0.0077230902,-0.7662738,0.64245135,-0.008974894,-0.011839409,-1.524855E-4,0.99992985,0.6338644,0.7734084,0.007441557,-0.773356,0.6339081,-0.008997405,-0.0116759315,-5.1838786E-5,0.9999318,-0.18673706,-0.02154541,9.9048,0
4741.51711264,0.6424021,0.7663289,0.0077305776,-0.76627743,0.64244866,-0.008889446,-0.0117787365,-2.1316868E-4,0.9999307,0.63407034,0.7732396,0.007440233,-0.7731873,0.63411397,-0.008996318,-0.011674265,-4.8394762E-5,0.9999319,-0.19631958,0.01675415,9.588776,0
4741.521507172,0.6424036,0.7663276,0.0077267378,-0.76627564,0.6424501,-0.008933266,-0.011809851,-1.8204909E-4,0.9999303,0.6342316,0.77310735,0.007435063,-0.77305627,0.6342752,-0.008884325,-0.011584413,-1.13002185E-4,0.9999329,-0.2106781,0.08378601,9.832977,0
4741.525901703,0.6276875,0.7784292,0.0075125857,-0.7783764,0.6277325,-0.0090732,-0.0117787365,-1.5248562E-4,0.9999307,0.6344036,0.77296615,0.0074449196,-0.7729156,0.6344473,-0.008843792,-0.011559361,-1.4376095E-4,0.9999332,-0.02394104,0.07421875,9.933533,0
4741.530296234,0.62768704,0.77842957,0.0075137145,-0.7783769,0.627732,-0.009052301,-0.011763177,-1.6648941E-4,0.99993074,0.63427997,0.77306813,0.0073865764,-0.77301705,0.63432294,-0.008886013,-0.0115549695,-7.3729694E-5,0.99993324,-0.0909729,-0.03590393,9.9048,0
4741.534690765,0.6276936,0.77842444,0.0074981977,-0.7783712,0.62773836,-0.0091047855,-0.011794293,-1.2136608E-4,0.99993044,0.63413805,0.7731847,0.007371611,-0.7731327,0.6341809,-0.008971584,-0.0116116265,-1.0010543E-5,0.9999326,-0.20111084,0.10772705,9.799454,0
4741.539085297,0.62686706,0.77908987,0.007516818,-0.7790361,0.62691206,-0.009147883,-0.011839409,-1.2136601E-4,0.99992985,0.6340017,0.7732961,0.0074136574,-0.7732437,0.634045,-0.008999134,-0.011659589,-2.70978E-5,0.99993205,-0.22505188,0.002380371,9.718063,0
4741.543479828,0.626853,0.7791009,0.0075482847,-0.779047,0.6268984,-0.009162505,-0.011870526,-1.3692571E-4,0.99992955,0.6338594,0.7734122,0.007468611,-0.7733602,0.63390344,-0.008970021,-0.011671902,-9.0193724E-5,0.9999319,-0.18673706,-0.02154541,9.852127,0
4741.547874359,0.6268497,0.7791036,0.0075556315,-0.7790493,0.62689525,-0.009196533,-0.01190164,-1.2136593E-4,0.9999292,0.63371694,0.77352923,0.0074415007,-0.7734778,0.63376063,-0.008918096,-0.011614539,-1.0428633E-4,0.9999325,-0.22026062,0.011962891,9.914383,0
4741.55226889,0.6252461,0.7803909,0.007557601,-0.78033656,0.62529176,-0.009213246,-0.011915642,-1.3692564E-4,0.999929,0.6335537,0.7736632,0.0074181436,-0.773612,0.6335971,-0.008900077,-0.011585776,-1.0008837E-4,0.9999329,-0.15322876,-0.01675415,9.890442,0
4741.556663422,0.62525624,0.78038317,0.0075368206,-0.7803288,0.62530166,-0.009211955,-0.01190164,-1.2136593E-4,0.9999292,0.63340193,0.7737874,0.007421281,-0.77373654,0.6334454,-0.008872103,-0.011566098,-1.225097E-4,0.9999331,-0.06703186,0.011962891,9.9048,0
4741.561057953,0.62525785,0.7803819,0.007533453,-0.7803273,0.6253032,-0.009232595,-0.011915642,-1.0580617E-4,0.999929,0.63324374,0.77391684,0.007420168,-0.7738663,0.6332872,-0.00884352,-0.011543247,-1.4211469E-4,0.99993336,-0.1819458,0.03111267,9.751572,0
4741.565452484,0.6377373,0.77021545,0.0077009345,-0.7701613,0.63778377,-0.009134101,-0.011946757,-1.0580613E-4,0.9999286,0.6330845,0.774047,0.0074363616,-0.77399623,0.6331281,-0.008868212,-0.011572583,-1.4138852E-4,0.99993306,-0.1771698,0.007171631,9.799454,0
4741.569847015,0.6377385,0.7702144,0.0076980256,-0.7701597,0.63778496,-0.009176906,-0.011977872,-7.624263E-5,0.99992824,0.6331573,0.77398723,0.007453886,-0.77393633,0.63320124,-0.008874784,-0.011588779,-1.496979E-4,0.9999328,-0.1819458,0.06942749,9.852127,0
4741.574241547,0.6377203,0.7702291,0.007739435,-0.77017444,0.63776726,-0.009180999,-0.012007432,-1.0580606E-4,0.99992794,0.63323396,0.7739247,0.007436545,-0.7738736,0.63327765,-0.008892626,-0.01159162,-1.2383309E-4,0.9999328,-0.22505188,-0.07899475,9.823395,0
4741.578636078,0.6305473,0.7761134,0.007625469,-0.7760587,0.63059336,-0.009217396,-0.011962314,-1.0580611E-4,0.9999284,0.6333071,0.773865,0.0074212523,-0.7738139,0.6333506,-0.008893177,-0.011582373,-1.1055576E-4,0.99993294,0.028717041,-0.002380371,9.775513,0
4741.583030609,0.6305463,0.77611417,0.007627721,-0.7760597,0.6305924,-0.009195521,-0.011946757,-1.21365854E-4,0.9999286,0.6332554,0.7739067,0.0074831396,-0.7738554,0.6332996,-0.008915998,-0.011639221,-1.4476385E-4,0.9999323,-0.08139038,-0.04069519,9.674957,0
4741.58742514,0.63055074,0.77611065,0.0076179625,-0.77605635,0.63059676,-0.009183403,-0.0119312,-1.2136588E-4,0.99992883,0.63321495,0.7739398,0.007484457,-0.7738886,0.6332592,-0.008905864,-0.011632204,-1.528091E-4,0.99993235,-0.0909729,0.007171631,9.708481,0
4741.591819672,0.6205654,0.7841187,0.00751199,-0.78406394,0.6206109,-0.009270506,-0.0119312,-1.369256E-4,0.99992883,0.63317513,0.77397215,0.0075065247,-0.7739206,0.6332196,-0.008935093,-0.011668792,-1.5197568E-4,0.99993193,-0.12449646,-0.04548645,9.612717,0
4741.596214203,0.6205759,0.78411067,0.0074879793,-0.78405684,0.620621,-0.009192288,-0.011854968,-1.6648925E-4,0.9999297,0.6329555,0.7741524,0.0074418867,-0.77410096,0.63299924,-0.0089247925,-0.011619858,-1.11775145E-4,0.99993247,-0.1771698,-0.07421875,9.9048,0
4741.600608734,0.6205748,0.78411144,0.007490511,-0.7840578,0.62061995,-0.009170441,-0.011839409,-1.8204901E-4,0.99992985,0.6327272,0.77433956,0.00738192,-0.77428895,0.6327703,-0.008855511,-0.011528232,-1.1261543E-4,0.99993354,-0.10533142,-0.02154541,9.603134,0
4741.605003265,0.6257067,0.78002304,0.007422445,-0.7799699,0.62575066,-0.009108161,-0.011749176,-9.024662E-5,0.999931,0.6324758,0.774545,0.0073749246,-0.7744947,0.63251877,-0.008829709,-0.011503786,-1.2726263E-4,0.99993384,-0.13406372,-0.02154541,9.847351,0
4741.609397797,0.6257155,0.78001624,0.007401888,-0.7799631,0.62575924,-0.009104707,-0.011733619,-7.6242846E-5,0.99993116,0.63235325,0.77464646,0.0072310246,-0.77459633,0.63239455,-0.008813648,-0.0114003215,-2.7786815E-5,0.99993503,-0.07182312,0.04069519,9.914383,0
4741.613792328,0.62573415,0.7800017,0.007358356,-0.7799487,0.6257775,-0.009099738,-0.011702503,-4.5123335E-5,0.9999316,0.6322449,0.77473485,0.0072335396,-0.7746849,0.63228625,-0.00879754,-0.011389429,-4.1514188E-5,0.99993515,-0.0622406,0.09336853,9.804245,0
4741.618186859,0.58849704,0.80847013,0.006881283,-0.8084151,0.5885373,-0.0094289845,-0.011672943,-1.4003797E-5,0.9999318,0.63213056,0.77482843,0.007204512,-0.7747784,0.63217163,-0.008803817,-0.011375936,-1.6737706E-5,0.99993527,-0.0335083,0.07421875,10.048462,0
4741.62258139,0.588519,0.8084546,0.006833585,-0.8084001,0.5885587,-0.009386735,-0.011610714,0.0,0.99993265,0.6312798,0.7755224,0.0071275905,-0.77547204,0.63132006,-0.008840243,-0.0113555975,5.3420576E-5,0.9999355,0.04309082,0.011962891,9.866501,0
4741.626975922,0.58853114,0.80844593,0.006807168,-0.8083918,0.5885705,-0.009350158,-0.011565595,0.0,0.99993306,0.6304186,0.7762231,0.0070776665,-0.7761725,0.6304583,-0.008859104,-0.011338815,9.145328E-5,0.9999357,0.028717041,0.007171631,9.631866,0
4741.631370453,0.6248796,0.7806875,0.0072385212,-0.78063536,0.6249215,-0.009020365,-0.011565595,-1.40038155E-5,0.99993306,0.6295977,0.7768892,0.007062517,-0.77683866,0.62963736,-0.008864389,-0.011333472,9.4563096E-5,0.99993575,-0.1197052,-0.03111267,9.847351,0
4741.635764984,0.6248748,0.78069127,0.007249137,-0.7806401,0.6249168,-0.008934148,-0.01150492,-7.624305E-5,0.99993384,0.6294729,0.77699035,0.0070613073,-0.7769396,0.6295125,-0.0088825505,-0.0113468375,1.05115534E-4,0.9999356,0.028717041,-0.15083313,9.900009,0
4741.640159515,0.62488794,0.78068095,0.0072201164,-0.78063023,0.6249296,-0.008897591,-0.011458247,-7.624309E-5,0.9999343,0.62938136,0.77706474,0.0070327655,-0.77701414,0.62942064,-0.008864605,-0.011314941,1.14658724E-4,0.999936,0.009567261,0.002380371,9.856918,0
4741.644554047,0.61007094,0.79231554,0.0070332144,-0.7922634,0.6101115,-0.009085164,-0.011489362,-2.9563635E-5,0.99993396,0.62928027,0.77714694,0.0070043574,-0.777096,0.6293192,-0.008903902,-0.011327617,1.5999204E-4,0.99993587,0.07182312,-0.09336853,9.809036,0
4741.648948578,0.61006504,0.79231995,0.007045476,-0.7922679,0.6101057,-0.009075723,-0.011489362,-4.5123445E-5,0.99993396,0.6289467,0.7774168,0.007010372,-0.7773644,0.62898576,-0.009032492,-0.011431435,2.3134272E-4,0.9999347,-0.10533142,-0.05984497,9.737213,0
4741.653343109,0.61002153,0.7923526,0.007136739,-0.79230016,0.6100633,-0.009121305,-0.011581154,-9.0246795E-5,0.99993294,0.6286067,0.7776912,0.0070765996,-0.77763826,0.6286465,-0.009075202,-0.011506384,2.0169861E-4,0.9999338,0.05265808,-0.13166809,9.895233,0
4741.65773764,0.6602437,0.75101066,0.007819599,-0.75096047,0.66029,-0.008686617,-0.011686946,-1.3692601E-4,0.99993175,0.6282476,0.77798057,0.007161002,-0.77792615,0.6282884,-0.009200057,-0.011656639,2.0918257E-4,0.99993205,0.01914978,-0.03590393,9.962265,0
4741.662132172,0.6602484,0.7510068,0.007807967,-0.7509565,0.6602946,-0.008696844,-0.011686946,-1.2136624E-4,0.99993175,0.6288838,0.7774651,0.0072972947,-0.7774096,0.6289261,-0.009293449,-0.011814791,1.7151248E-4,0.9999302,-0.09576416,0.011962891,9.900009,0
4741.666526703,0.6602448,0.75100976,0.007816787,-0.75095904,0.6602911,-0.00873052,-0.011718061,-1.05806415E-4,0.99993134,0.6295138,0.7769546,0.007349388,-0.7768991,0.62955666,-0.009286183,-0.011841798,1.3604689E-4,0.9999299,-0.22984314,0.05027771,10.005356,0
4741.670921234,0.6289119,0.77744085,0.007459873,-0.77738786,0.62895614,-0.009077532,-0.011749176,-9.024662E-5,0.999931,0.63013524,0.77645004,0.007406375,-0.7763954,0.6301788,-0.009208699,-0.011817436,5.245055E-5,0.99993014,-0.17237854,0.04548645,9.943115,0
4741.675315765,0.62891656,0.77743715,0.0074490397,-0.7773841,0.62896067,-0.009086296,-0.011749176,-7.624283E-5,0.999931,0.63013065,0.7764543,0.007355333,-0.77640057,0.63017356,-0.0091341445,-0.0117273815,4.5019027E-5,0.9999312,-0.13406372,0.02154541,9.995789,0
4741.679710297,0.62895596,0.7774062,0.0073577757,-0.7773539,0.628999,-0.00902205,-0.011641828,-4.5123365E-5,0.9999322,0.63011044,0.7764711,0.0073155835,-0.77641827,0.6301529,-0.009054127,-0.011640204,2.5147398E-5,0.9999322,-0.05744934,-0.04069519,9.84256,0
4741.684104828,0.6371847,0.77067554,0.0074026138,-0.7706241,0.63722765,-0.008906474,-0.011581154,-2.9563605E-5,0.99993294,0.63012874,0.776457,0.007232114,-0.77640456,0.6301702,-0.009026036,-0.011565791,7.2517505E-5,0.9999331,0.05744934,0.026321411,9.823395,0
