Time,Rot1,Rot2,Rot3,Rot4,Rot5,Rot6,Rot7,Rot8,Rot9,FRot1,FRot2,FRot3,FRot4,FRot5,FRot6,FRot7,FRot8,FRot9,AccX,AccY,AccZ,Imid
8000.277553284,0.6446964,0.7633793,0.040232606,-0.7624228,0.64592487,-0.038634874,-0.055480298,-0.0057664905,0.9984431,0.64936465,0.7594212,0.040062197,-0.75853586,0.6505693,-0.037187107,-0.054303914,-0.0062406207,0.9985049,-0.049682617,-0.0032958984,-0.1593628,0
8000.281978333,0.6466208,0.76172644,0.04067281,-0.76077116,0.64787114,-0.03860298,-0.055755652,-0.0059812106,0.99842656,0.64922,0.7595322,0.040302366,-0.75864327,0.65043855,-0.03728386,-0.054532506,-0.0063696927,0.9984917,-0.09965515,0.0036010742,-0.101745605,0
8000.286372864,0.6464079,0.7618896,0.0410007,-0.7609308,0.6476774,-0.03870604,-0.05604496,-0.0061788093,0.9984091,0.6491434,0.7595798,0.04063855,-0.7586897,0.65038085,-0.03734598,-0.054797787,-0.0065891533,0.9984758,-0.082458496,0.10128784,0.10908508,0
8000.290797913,0.64619327,0.7620538,0.041330807,-0.76108503,0.64748305,-0.038927328,-0.056425717,-0.006301681,0.998387,0.64905185,0.7596398,0.040976904,-0.75874794,0.6503085,-0.03742348,-0.055075992,-0.0068013635,0.99845904,-0.002105713,0.1455841,0.21936035,0
8000.295192444,0.67085725,0.74033695,0.04303037,-0.73939914,0.67220485,-0.03780602,-0.056914426,-0.006454181,0.9983582,0.6489631,0.7596932,0.04138831,-0.75879234,0.6502441,-0.03763826,-0.055506036,-0.0069792927,0.99843395,-0.07392883,0.046539307,0.09037781,0
8000.299617493,0.67059493,0.74055046,0.043446805,-0.73959833,0.6719687,-0.038111866,-0.057418644,-0.0065755565,0.9983285,0.649385,0.7593088,0.041824628,-0.7583972,0.6506915,-0.03787174,-0.05597127,-0.0071263392,0.99840695,-0.121658325,0.004638672,-2.89917E-4,0
8000.304012024,0.6704103,0.74070024,0.043739546,-0.73973465,0.67180294,-0.03838452,-0.057815783,-0.0066222777,0.99830526,0.649768,0.75895715,0.0422561,-0.75803125,0.6511004,-0.038169295,-0.05648182,-0.007230256,0.99837744,-0.13691711,-0.023635864,0.12928772,0
8000.308437073,0.65706134,0.7526,0.043172088,-0.7515899,0.6584462,-0.039515242,-0.05816566,-0.00648377,0.9982859,0.65016156,0.75860447,0.042534303,-0.7576665,0.65151095,-0.038403865,-0.05684491,-0.0072581004,0.99835664,-0.09039307,-0.082458496,-0.17222595,0
8000.312862122,0.65706396,0.75259787,0.043167878,-0.75157446,0.65845,-0.03974141,-0.05833319,-0.006331228,0.99827707,0.6502679,0.75850916,0.04260847,-0.7575516,0.6516239,-0.03875345,-0.057159547,-0.0070779906,0.99834,-0.12704468,-0.031280518,-0.03816223,0
8000.317256653,0.65705633,0.75260377,0.04317984,-0.75157154,0.65844405,-0.03989499,-0.058456633,-0.006239482,0.99827045,0.6503798,0.75841475,0.04258208,-0.7574434,0.6517358,-0.038986884,-0.05732049,-0.0068972344,0.998332,-0.18330383,0.006134033,0.029037476,0
8000.321681702,0.62061304,0.7830305,0.041264027,-0.78193164,0.621952,-0.04193625,-0.058501605,-0.006239466,0.9982678,0.6504918,0.75832033,0.042552117,-0.7573418,0.65184677,-0.039104395,-0.05739112,-0.006789409,0.9983287,-0.11582947,0.010910034,0.06254578,0
8000.326076233,0.62059635,0.7830425,0.04128733,-0.78193915,0.6219372,-0.042014915,-0.058577593,-0.0062098755,0.99826354,0.6498407,0.7588832,0.04246589,-0.75790006,0.6511922,-0.03919511,-0.05739797,-0.0067143245,0.9983288,-0.19169617,0.07765198,-0.071517944,0
8000.330501282,0.6205746,0.7830581,0.0413177,-0.781954,0.6219173,-0.0420306,-0.0586086,-0.006225423,0.9982616,0.64927065,0.75937146,0.042456683,-0.75839096,0.6506221,-0.03916592,-0.057364743,-0.0067694797,0.99833035,-0.08604431,-0.056259155,0.033813477,0
8000.334895813,0.6630682,0.74728894,0.04358517,-0.74625736,0.6644703,-0.039734878,-0.0586545,-0.0061788256,0.9982592,0.6487283,0.75983673,0.042423196,-0.7588584,0.6500784,-0.0391419,-0.057319853,-0.0068007344,0.99833274,-0.11911011,0.10128784,0.15368652,0
8000.339320862,0.66302687,0.7473221,0.043648895,-0.7462906,0.6644329,-0.03974089,-0.058700997,-0.0062254863,0.99825615,0.6490229,0.7595797,0.04251913,-0.7586007,0.65037817,-0.039156217,-0.057395782,-0.0068417587,0.9983281,0.015411377,0.116104126,0.057922363,0
8000.343715394,0.6629338,0.7473962,0.0437919,-0.74636245,0.6643487,-0.039797273,-0.058837425,-0.006301676,0.9982477,0.6492962,0.7593393,0.042641364,-0.75836056,0.65065813,-0.039157208,-0.05747856,-0.006912899,0.99832284,-0.08380127,-0.017196655,-0.057006836,0
8000.348140442,0.6560138,0.753493,0.04352182,-0.75243884,0.6574258,-0.040336598,-0.059005715,-0.0062861424,0.99823785,0.6495777,0.7590908,0.04277914,-0.75810915,0.65094763,-0.039214008,-0.057613973,-0.006958711,0.99831474,-0.015106201,0.025741577,0.058059692,0
8000.352534974,0.65597,0.75352734,0.043587454,-0.75246745,0.6573866,-0.04044027,-0.05912666,-0.006270538,0.99823076,0.64971346,0.75896794,0.042896133,-0.7579787,0.6510909,-0.03935598,-0.05779921,-0.0069442466,0.99830407,-0.023498535,0.03517151,-0.023345947,0
8000.356960022,0.6559783,0.75352085,0.043574974,-0.7524578,0.6573946,-0.040493455,-0.059158612,-0.0062255026,0.9982292,0.6498574,0.75884014,0.042977024,-0.75784457,0.65124017,-0.039469697,-0.057939548,-0.006920232,0.9982961,-0.07107544,0.101745605,0.010314941,0
8000.361354554,0.63478816,0.77151996,0.04243819,-0.77041596,0.63617486,-0.04172279,-0.059188075,-0.0062099323,0.99822754,0.65000916,0.75871027,0.042974874,-0.7577107,0.65139204,-0.03953459,-0.057988796,-0.0068646753,0.9982937,-0.07557678,0.048934937,-0.0471344,0
8000.365779603,0.6347761,0.7715288,0.042457324,-0.7704235,0.6361641,-0.041747324,-0.05921909,-0.0062099206,0.9982257,0.64974743,0.75893754,0.042919237,-0.75793386,0.651128,-0.03960597,-0.058004376,-0.0067960634,0.9982932,-0.08963013,-0.0037384033,7.4768066E-4,0
8000.370174134,0.63477147,0.7715323,0.042464834,-0.7704251,0.63616014,-0.04178137,-0.0592501,-0.0061943503,0.99822396,0.6494684,0.7591821,0.0428172,-0.75817645,0.65084356,-0.0396382,-0.057959914,-0.0067192363,0.9982963,-0.07975769,0.04399109,0.0055389404,0
8000.374599183,0.6364979,0.77010363,0.042556364,-0.7689982,0.637889,-0.04170788,-0.059265614,-0.0061787856,0.9982231,0.64916664,0.7594396,0.04282695,-0.7584325,0.65054303,-0.039672993,-0.05799001,-0.006726967,0.9982945,-0.017349243,0.019897461,-0.004043579,0
8000.378993714,0.6365108,0.770094,0.042537224,-0.76898986,0.6379006,-0.04168334,-0.0592346,-0.0061787963,0.9982249,0.64889884,0.7596695,0.042809818,-0.7586642,0.6502744,-0.03964646,-0.057956334,-0.0067517348,0.9982963,0.04458618,-0.008834839,0.16833496,0
8000.383418763,0.6365315,0.7700785,0.042506512,-0.768975,0.63791937,-0.04166831,-0.059203595,-0.006163249,0.9982269,0.6486285,0.7598973,0.042862277,-0.75889176,0.6500076,-0.03966685,-0.058003534,-0.0067987777,0.9982932,0.068237305,0.043685913,0.1013031,0
8000.387813294,0.65648615,0.75307727,0.04359526,-0.75201,0.6579032,-0.040550478,-0.059219103,-0.006163243,0.998226,0.6483935,0.76009375,0.042935356,-0.7590884,0.64977723,-0.039678976,-0.058058158,-0.0068641366,0.99828964,-0.046539307,0.014953613,0.019897461,0
8000.392238343,0.65647316,0.7530874,0.043614678,-0.7520176,0.6578917,-0.040595397,-0.059265625,-0.0061492226,0.9982233,0.64854896,0.759957,0.043006837,-0.75894773,0.6499371,-0.039749887,-0.058159944,-0.0068601966,0.9982837,-0.09875488,0.014816284,0.17791748,0
8000.396663392,0.65647316,0.7530874,0.043614678,-0.7520176,0.6578917,-0.040595397,-0.059265625,-0.0061492226,0.9982233,0.6486968,0.7598286,0.04304525,-0.7588173,0.6500873,-0.03978443,-0.05821252,-0.0068554436,0.9982807,-0.012557983,0.029190063,0.06777954,0
8000.401057923,0.6455,0.7625466,0.04304058,-0.7614551,0.6469041,-0.04124595,-0.059295084,-0.006149212,0.9982216,0.6488547,0.75969285,0.04306217,-0.75867695,0.6502464,-0.039860524,-0.058282774,-0.0068065873,0.9982769,-0.074523926,4.5776367E-4,0.07736206,0
8000.405482972,0.64548004,0.7625618,0.043072134,-0.7614709,0.64688605,-0.04123971,-0.059310578,-0.006178769,0.99822044,0.6487653,0.7597706,0.043037634,-0.75875354,0.6501559,-0.039880186,-0.058280963,-0.0067820745,0.9982772,-0.055221558,-0.08065796,0.04862976,0
8000.409877503,0.64551723,0.76253355,0.043013465,-0.76143694,0.64692026,-0.041329786,-0.059341628,-0.006072955,0.9982193,0.6487059,0.7598197,0.043065213,-0.758796,0.650099,-0.039999407,-0.05838899,-0.006729858,0.9982712,-0.0980072,0.24389648,-0.06629944,0
8000.414302552,0.6495826,0.75906026,0.043241426,-0.75796914,0.65099204,-0.041131463,-0.059371088,-0.006057385,0.9982175,0.6486221,0.7598922,0.043049138,-0.75886357,0.65001494,-0.040084206,-0.058442254,-0.0066689225,0.99826854,-0.049835205,0.047439575,0.06298828,0
8000.418697083,0.6496006,0.7590464,0.04321481,-0.7579501,0.65100896,-0.041215394,-0.05941763,-0.005981129,0.99821526,0.64863634,0.7598775,0.043095138,-0.75884694,0.65003204,-0.04012081,-0.05850012,-0.006678799,0.9982651,-0.14993286,0.1999054,0.06777954,0
8000.423122132,0.6496025,0.7590451,0.043212194,-0.7579477,0.6510108,-0.041236013,-0.05943159,-0.005965565,0.99821454,0.6486488,0.75986826,0.043069173,-0.758836,0.65004313,-0.04014746,-0.058503605,-0.006640836,0.99826515,-0.025299072,0.036956787,-0.03277588,0
8000.427516663,0.63200396,0.7738114,0.042273026,-0.7726805,0.63338804,-0.042243242,-0.059463523,-0.0059656464,0.99821264,0.64868945,0.75983024,0.043127432,-0.75879675,0.65008736,-0.04017356,-0.058561683,-0.006664793,0.9982616,-0.07766724,0.022598267,0.13497925,0
8000.431941712,0.63201946,0.7737999,0.042249754,-0.77266777,0.6334023,-0.04226214,-0.05946354,-0.005934528,0.9982129,0.6483412,0.7601265,0.043145154,-0.75909126,0.6497409,-0.040214702,-0.058601424,-0.006678263,0.9982591,-0.029785156,0.07495117,0.015258789,0
8000.436336243,0.63200676,0.77380925,0.042268757,-0.77267575,0.6333909,-0.042286776,-0.059494548,-0.0059345174,0.998211,0.64799356,0.7604229,0.043142706,-0.75938404,0.64939404,-0.040288396,-0.058652837,-0.00665526,0.99825627,-0.08692932,-0.030380249,0.05836487,0
8000.440761292,0.63441885,0.77182424,0.042427257,-0.7706919,0.6358084,-0.042210925,-0.059555024,-0.005918937,0.9982075,0.6476643,0.7606996,0.04320976,-0.75965965,0.6490694,-0.04032584,-0.058721986,-0.0067071053,0.9982519,-0.13421631,0.046081543,0.07272339,0
8000.445155823,0.63439375,0.7718427,0.04246658,-0.770709,0.63578576,-0.04223701,-0.059599977,-0.0059344796,0.99820465,0.64741206,0.7609135,0.043223415,-0.7598725,0.64881855,-0.040351994,-0.058748532,-0.0067199143,0.9982502,-0.11462402,-0.04473877,0.0056915283,0
8000.449580872,0.6344079,0.7718324,0.0424445,-0.77069753,0.63579875,-0.042255078,-0.05959999,-0.0059049176,0.9982049,0.64715105,0.7611375,0.043187935,-0.7600951,0.648556,-0.04037889,-0.058743685,-0.006695698,0.99825066,-0.17208862,-0.078552246,0.13975525,0
8000.453975403,0.6343694,0.7718606,0.042504787,-0.7707243,0.63576406,-0.042286105,-0.059661996,-0.0059344578,0.998201,0.64715105,0.7611375,0.043187935,-0.7600951,0.648556,-0.04037889,-0.058743685,-0.006695698,0.99825066,-0.17147827,-0.07826233,0.13975525,0
8000.458400452,0.6583875,0.7514021,0.04382649,-0.75030845,0.659818,-0.040955365,-0.05969146,-0.0059188884,0.99819934,0.646643,0.761573,0.04312015,-0.760527,0.64804506,-0.040450294,-0.058749653,-0.006637142,0.99825066,-0.108932495,0.060424805,0.15892029,0
8000.462794983,0.6583872,0.7514025,0.043827157,-0.7503088,0.65981776,-0.040956024,-0.059692383,-0.00591898,0.9981993,0.6468889,0.761359,0.043212455,-0.7603155,0.6482958,-0.040410914,-0.05878166,-0.0067137275,0.99824834,-0.008377075,-0.040115356,0.015411377,0
8000.467220032,0.6583738,0.75141275,0.04384839,-0.7503191,0.6598056,-0.040958125,-0.059707884,-0.0059345337,0.9981982,0.6468889,0.761359,0.043212455,-0.7603155,0.6482958,-0.040410914,-0.05878166,-0.0067137275,0.99824834,-0.008224487,-0.03996277,0.015411377,0
8000.471614563,0.6583614,0.7514225,0.043868233,-0.7503276,0.65979457,-0.04098209,-0.05973889,-0.0059345225,0.99819636,0.6473289,0.7609814,0.043273844,-0.75993663,0.6487389,-0.04042324,-0.058834758,-0.006718251,0.9982451,-0.09411621,-0.0016479492,0.14949036,0
8000.476039612,0.6583363,0.75144225,0.04390832,-0.7503461,0.65977204,-0.041006967,-0.05978385,-0.0059500663,0.9981936,0.64759564,0.76075375,0.043284915,-0.7597075,0.64900607,-0.040441457,-0.058858167,-0.006694167,0.9982439,-0.14634705,-0.04937744,0.19258118,0
8000.480434144,0.6550645,0.75430584,0.043738104,-0.75320154,0.6564963,-0.041231226,-0.059814867,-0.005934496,0.9981919,0.64780134,0.76057583,0.043335546,-0.7595298,0.6492144,-0.04043729,-0.05888968,-0.006719313,0.9982419,-0.07899475,0.03665161,0.1446991,0
8000.484859192,0.65505075,0.75431687,0.04375829,-0.7532126,0.6564837,-0.041232295,-0.05982881,-0.00595005,0.9981909,0.6479378,0.76046187,0.043294907,-0.759413,0.64934856,-0.04047733,-0.05889495,-0.0066519217,0.9982421,-0.05491638,-0.03981018,0.13034058,0
8000.489284241,0.65503716,0.7543275,0.043777965,-0.75322187,0.65647143,-0.041256413,-0.05985982,-0.005950039,0.99818903,0.64809453,0.76032495,0.043353595,-0.75927585,0.6495086,-0.040482447,-0.058938343,-0.0066808835,0.99823934,-0.073776245,-0.01586914,0.14949036,0
8000.493678772,0.6717885,0.7393901,0.0447489,-0.73831916,0.67325044,-0.04023328,-0.059875306,-0.0060107145,0.9981878,0.6482153,0.7602189,0.04340692,-0.7591679,0.6496326,-0.040516987,-0.05900033,-0.006689408,0.9982356,-0.09277344,0.07569885,0.13034058,0
8000.498103821,0.67177516,0.73940086,0.04477121,-0.73833126,0.6732383,-0.04021309,-0.05987529,-0.0060418323,0.9981876,0.6487532,0.7597545,0.043501332,-0.7587073,0.65017486,-0.040447213,-0.059013423,-0.006764516,0.9982343,-0.006576538,-0.07241821,0.06329346,0
8000.502498353,0.6717189,0.7394463,0.044865075,-0.7383762,0.6731879,-0.04023219,-0.05995217,-0.00610258,0.9981826,0.6492378,0.7593366,0.043568168,-0.7582878,0.65066284,-0.04046473,-0.059074536,-0.006765979,0.99823064,-0.13511658,0.0574646,0.068237305,0
8000.506923401,0.6786284,0.73308533,0.045271,-0.732026,0.68010944,-0.039863575,-0.06001264,-0.006086998,0.998179,0.6497478,0.75889367,0.043683425,-0.7578468,0.6511787,-0.04042892,-0.05912697,-0.006836741,0.99822706,-0.15367126,0.028579712,-0.017944336,0
8000.511317933,0.6786113,0.7330993,0.045300737,-0.73203814,0.6800944,-0.03989749,-0.060057603,-0.0060869823,0.9981764,0.65031844,0.758402,0.043731075,-0.7573555,0.6517512,-0.040410146,-0.05914891,-0.0068405084,0.99822575,-0.09577942,-0.009735107,-0.1711731,0
8000.515742981,0.67862976,0.7330842,0.045268618,-0.7320211,0.68011117,-0.03992711,-0.06005762,-0.0060418607,0.9981767,0.65090054,0.75790036,0.043765966,-0.7568542,0.65233445,-0.040391475,-0.059162766,-0.0068336213,0.998225,-0.014373779,0.14303589,-0.080200195,0
8000.520137513,0.652464,0.7565504,0.043846507,-0.75543517,0.6539077,-0.041506253,-0.060073122,-0.006041855,0.99817574,0.6515053,0.75738,0.043777104,-0.7563323,0.652939,-0.040398814,-0.059181035,-0.0067899986,0.9982242,-0.03337097,0.008972168,-0.123291016,0
8000.524562561,0.6524649,0.75654954,0.043844935,-0.75543296,0.65390867,-0.041528083,-0.06008863,-0.00602629,0.99817485,0.65151465,0.75737333,0.043752376,-0.7563231,0.6529473,-0.04043767,-0.059194405,-0.0067451964,0.99822366,-0.018859863,0.01361084,0.19273376,0
8000.528957093,0.65245086,0.7565603,0.043867737,-0.75544506,0.65389585,-0.041508503,-0.060088616,-0.006057408,0.99817467,0.6515515,0.75734127,0.04375954,-0.7562885,0.65298474,-0.04048082,-0.059232105,-0.0067194994,0.99822164,-0.028427124,0.057022095,0.073028564,0
8000.533382142,0.6524588,0.75655407,0.043854766,-0.7554368,0.6539031,-0.04154012,-0.060104128,-0.006026284,0.99817383,0.6515515,0.75734127,0.04375954,-0.7562885,0.65298474,-0.04048082,-0.059232105,-0.0067194994,0.99822164,-0.028274536,0.05671692,0.073028564,0
8000.537776673,0.6370459,0.7696253,0.043005608,-0.768479,0.6384674,-0.042418636,-0.060104128,-0.006026284,0.99817383,0.65160537,0.75729364,0.043780304,-0.756242,0.6530397,-0.04046223,-0.05923207,-0.0067430986,0.9982215,-0.009124756,0.0184021,0.073028564,0
8000.542201722,0.63706,0.7696149,0.042984463,-0.7684687,0.6384802,-0.04241591,-0.060088634,-0.0060107308,0.99817497,0.65128917,0.75756645,0.043765992,-0.7565107,0.6527236,-0.04053993,-0.059278786,-0.0067062206,0.99821895,0.014663696,0.037399292,-0.046676636,0
8000.546596253,0.64224875,0.7652753,0.043246105,-0.76413614,0.6436755,-0.04216482,-0.060104154,-0.0059656035,0.9981743,0.65101063,0.757807,0.0437456,-0.75675017,0.6524444,-0.0405648,-0.059281863,-0.0066963704,0.99821883,-0.028274536,0.09919739,0.16879272,0
8000.551021302,0.64225006,0.76527435,0.043244258,-0.7641339,0.6436768,-0.042186625,-0.060119666,-0.005950039,0.9981735,0.6508388,0.75795543,0.043730963,-0.7569012,0.6522717,-0.04052325,-0.05923929,-0.0067259176,0.9982212,-0.023345947,0.022445679,-0.017944336,0
8000.555415833,0.6422373,0.76528394,0.04326257,-0.7641422,0.6436653,-0.042209826,-0.06014912,-0.005950028,0.9981717,0.6506522,0.75811344,0.043768965,-0.75705624,0.652088,-0.04058491,-0.059309177,-0.0067289043,0.998217,-0.10444641,0.027236938,0.087387085,0
8000.559840882,0.642647,0.7649395,0.043271374,-0.76379645,0.6440749,-0.042218532,-0.06016463,-0.0059189037,0.99817085,0.6504668,0.75827473,0.04373108,-0.75721794,0.65190053,-0.04057818,-0.05927772,-0.006719204,0.9982189,-0.037261963,0.060424805,0.14006042,0
8000.564235413,0.6426618,0.76492834,0.043249544,-0.76378405,0.64408857,-0.04223679,-0.060164645,-0.0058893417,0.9981711,0.65032333,0.7584001,0.043691173,-0.75734174,0.6517551,-0.040605266,-0.059270978,-0.006682598,0.99821955,0.0010528564,0.07929993,0.077819824,0
8000.568660462,0.64267856,0.7649156,0.043224722,-0.76376873,0.64410406,-0.042277798,-0.06018017,-0.005842659,0.9981705,0.6501488,0.7585509,0.04366929,-0.75749254,0.65157956,-0.040609032,-0.059258033,-0.006677249,0.9982204,-0.056259155,0.12193298,0.25978088,0
8000.573085511,0.6449726,0.76297444,0.04336173,-0.7618311,0.6464022,-0.042159405,-0.060195666,-0.005842653,0.9981695,0.6499963,0.75868344,0.043638248,-0.75762206,0.6514258,-0.04066171,-0.05927644,-0.0066313376,0.9982196,-0.051315308,-0.0073394775,0.063446045,0
8000.577480042,0.6449683,0.7629777,0.043368656,-0.7618312,0.64639854,-0.042213604,-0.060241476,-0.0058131563,0.99816686,0.64989513,0.75876933,0.0436504,-0.7577056,0.6513257,-0.040705442,-0.059316672,-0.0066198837,0.9982173,-0.11791992,0.102493286,-0.0034484863,0
8000.581905091,0.6449755,0.7629723,0.043357164,-0.7618251,0.64640504,-0.04222327,-0.06024148,-0.0057975966,0.9981669,0.6497956,0.7588523,0.043690223,-0.7577873,0.65122885,-0.04073565,-0.05936468,-0.00663805,0.9982143,-0.026931763,0.020950317,-0.036972046,0
8000.586299622,0.6638591,0.74653506,0.044455804,-0.7454248,0.6653203,-0.04111678,-0.060272474,-0.005842708,0.99816483,0.6496896,0.75894356,0.04368088,-0.7578771,0.6511227,-0.040762104,-0.05937775,-0.006622019,0.99821365,-0.041000366,-0.1366272,-0.080062866,0
8000.590724671,0.6638457,0.7465459,0.04447704,-0.7454357,0.66530824,-0.041118756,-0.060287975,-0.005858262,0.9981639,0.650001,0.75867623,0.043693718,-0.7576069,0.6514347,-0.04080018,-0.05941773,-0.0065825013,0.99821156,-0.06958008,-0.02154541,0.09710693,0
8000.595119202,0.6638471,0.7465447,0.044474795,-0.7454332,0.66530955,-0.04113943,-0.06030193,-0.005842698,0.99816304,0.65028864,0.7584264,0.04374908,-0.7573606,0.6517248,-0.040739946,-0.059410613,-0.006641104,0.99821156,-0.05506897,0.040542603,0.10668945,0
8000.599544251,0.6878291,0.7244274,0.04578342,-0.72336227,0.68932664,-0.03969717,-0.060317446,-0.0058131297,0.9981623,0.65058094,0.7581739,0.043780837,-0.7571064,0.65201867,-0.04076181,-0.059450462,-0.0066278945,0.99820924,-0.016616821,0.08332825,0.044433594,0
8000.603938782,0.68784314,0.7244154,0.045761615,-0.72334886,0.6893394,-0.03971778,-0.060317457,-0.005782011,0.99816245,0.65138656,0.757479,0.043830425,-0.7564108,0.6528261,-0.04075264,-0.059482917,-0.0066080834,0.9982075,-0.016616821,0.05908203,0.044433594,0
8000.608363831,0.68782943,0.7244271,0.045782868,-0.7233606,0.689327,-0.03971909,-0.060332954,-0.005797565,0.99816144,0.6520967,0.7568631,0.043911226,-0.75579435,0.65353996,-0.040748317,-0.059538636,-0.0066160164,0.9982041,-0.030822754,-0.017364502,0.063583374,0
8000.612758362,0.6533882,0.7557501,0.043881435,-0.75461376,0.65483457,-0.04183047,-0.060348466,-0.0057820007,0.99816066,0.6528542,0.7562065,0.043966763,-0.755135,0.6542999,-0.040776443,-0.05960286,-0.006579768,0.99820054,-0.064193726,0.02558899,0.07316589,0
8000.617183411,0.6533838,0.7557536,0.043888763,-0.75461525,0.65483075,-0.04186314,-0.060377922,-0.005766431,0.9981589,0.65282255,0.75623864,0.04388494,-0.75516546,0.6542636,-0.040795285,-0.05956329,-0.0065083075,0.99820334,-0.07826233,0.020645142,0.07316589,0
8000.621577942,0.6533699,0.7557641,0.043911543,-0.7546271,0.6548181,-0.04184351,-0.06037791,-0.005797549,0.9981587,0.6528513,0.7562148,0.043867387,-0.7551411,0.6542913,-0.04080299,-0.059557877,-0.0064877835,0.9982038,-0.006439209,-0.06524658,0.14498901,0
8000.626002991,0.66253674,0.74771243,0.04439596,-0.7465918,0.6639975,-0.04132485,-0.060377922,-0.005766431,0.9981589,0.6528707,0.75619566,0.043908965,-0.75512576,0.65431273,-0.040743038,-0.0595399,-0.0065568546,0.9982044,-0.0016479492,0.0637207,0.17851257,0
8000.630397522,0.6625435,0.7477072,0.044385847,-0.746586,0.6640037,-0.041333776,-0.060377926,-0.0057524275,0.998159,0.6530365,0.75605214,0.04391455,-0.75498307,0.6544785,-0.04072343,-0.059530165,-0.006560858,0.99820495,-0.011230469,0.068374634,-0.0034484863,0
8000.634822571,0.66253674,0.74771243,0.04439596,-0.7465918,0.6639975,-0.04132485,-0.060377922,-0.005766431,0.9981589,0.653218,0.7558935,0.043947294,-0.7548252,0.65466154,-0.040709503,-0.059542652,-0.006580342,0.9982041,-0.016021729,-0.07034302,0.030075073,0
8000.639217103,0.6491299,0.759424,0.04365265,-0.7582775,0.65057045,-0.042109277,-0.060377922,-0.005766431,0.9981589,0.65336496,0.75576514,0.04396865,-0.7546977,0.65480953,-0.04069136,-0.059544202,-0.0065967315,0.9982039,-0.0016479492,0.030227661,0.07316589,0
8000.643642151,0.6491443,0.759413,0.043630965,-0.7582653,0.6505836,-0.042127736,-0.060377937,-0.0057368684,0.9981591,0.6532474,0.75586486,0.04400111,-0.75479233,0.6546947,-0.04078451,-0.059634876,-0.0065693245,0.9981987,0.0031433105,0.073013306,0.1306305,0
8000.648036683,0.64914536,0.7594121,0.043629307,-0.75826305,0.6505847,-0.04214955,-0.06039344,-0.0057213036,0.9981582,0.6531655,0.7559352,0.044008717,-0.75486207,0.65461344,-0.04079852,-0.05964974,-0.006572326,0.9981978,-0.04937744,0.015411377,-0.07048035,0
8000.652461731,0.6282572,0.7768461,0.042460766,-0.7756557,0.6296647,-0.043365616,-0.060424462,-0.0056901746,0.99815655,0.6530764,0.7560078,0.04408514,-0.75493383,0.65452915,-0.04082226,-0.05971695,-0.006621313,0.9981934,-0.063446045,0.09170532,0.058807373,0
8000.65688678,0.6282514,0.7768503,0.042470228,-0.7756591,0.6296595,-0.043377947,-0.060439963,-0.0056901695,0.9981556,0.65254015,0.75646794,0.044131614,-0.7553932,0.6539967,-0.040858418,-0.05977001,-0.0066749603,0.99818987,-0.058502197,7.4768066E-4,-0.022598267,0
8000.661281311,0.6282722,0.77683544,0.042436287,-0.7756424,0.6296784,-0.043405294,-0.06043998,-0.005645048,0.9981559,0.6520618,0.7568813,0.044114362,-0.75580126,0.65351874,-0.04096013,-0.05983152,-0.0066331523,0.99818647,0.008529663,0.13435364,0.12104797,0
8000.66570636,0.6829074,0.7290896,0.04545178,-0.7280003,0.6843952,-0.04023237,-0.060439985,-0.005613929,0.99815595,0.6515841,0.7572944,0.044081926,-0.75620973,0.65304035,-0.041049957,-0.05987418,-0.00658768,0.9981842,-0.020202637,0.05267334,0.054016113,0
8000.670100892,0.6828887,0.72910523,0.045482315,-0.7280141,0.6843786,-0.040266838,-0.060485885,-0.0056140013,0.99815327,0.652229,0.75673527,0.044148576,-0.75565153,0.65368813,-0.041019484,-0.059900284,-0.006606844,0.99818254,-0.12031555,0.0143585205,0.0014953613,0
8000.67452594,0.6828887,0.72910523,0.045482315,-0.7280141,0.6843786,-0.040266838,-0.060485885,-0.0056140013,0.99815327,0.6528385,0.7562077,0.044179086,-0.7551272,0.6542981,-0.0409493,-0.059872467,-0.006627552,0.9981841,-5.950928E-4,-0.0047912598,-0.022445679,0
8000.678920472,0.6829015,0.72909456,0.04546145,-0.72800344,0.68439007,-0.040263753,-0.060469445,-0.005599916,0.9981543,0.6534043,0.75571495,0.044246577,-0.75463444,0.65486705,-0.04093902,-0.05991385,-0.0066402587,0.99818146,0.06628418,0.03337097,0.044433594,0
8000.68334552,0.6829213,0.72907805,0.045429178,-0.72798616,0.68440795,-0.040272593,-0.06045395,-0.005568803,0.9981554,0.654014,0.7551837,0.044308975,-0.7541042,0.6554794,-0.040909935,-0.059938136,-0.0066579166,0.9981799,0.032608032,0.08093262,-0.0034484863,0
8000.687740052,0.6829213,0.72907805,0.045429178,-0.72798616,0.68440795,-0.040272593,-0.06045395,-0.005568803,0.9981554,0.6545945,0.7546775,0.044362046,-0.7535978,0.6560622,-0.04089957,-0.05997024,-0.006658506,0.99817795,-0.029632568,0.013916016,0.12104797,0
8000.692165101,0.6639186,0.74648774,0.044362478,-0.74535596,0.66537607,-0.04146315,-0.06046947,-0.00553768,0.99815476,0.6551549,0.75418705,0.044429474,-0.7531084,0.6566256,-0.040873013,-0.05999943,-0.006682053,0.99817604,-0.01991272,0.0471344,-0.027389526,0
8000.696559632,0.66391194,0.7464931,0.04437302,-0.74535924,0.6653702,-0.04149661,-0.06050142,-0.0055237515,0.9981528,0.655322,0.75404054,0.04445271,-0.7529636,0.6567937,-0.04083992,-0.059991214,-0.006707971,0.9981764,-0.086639404,0.04220581,0.11161804,0
8000.700984681,0.66391194,0.7464931,0.04437302,-0.74535924,0.6653702,-0.04149661,-0.06050142,-0.0055237515,0.9981528,0.65545577,0.7539248,0.044444054,-0.75284994,0.6569265,-0.0408002,-0.05995675,-0.006716977,0.9981784,-0.038757324,0.08049011,0.18823242,0
8000.705379212,0.6639199,0.7464868,0.04436054,-0.745351,0.6653776,-0.041528426,-0.060516935,-0.005492628,0.9981521,0.65545577,0.7539248,0.044444054,-0.75284994,0.6569265,-0.0408002,-0.05995675,-0.006716977,0.9981784,-0.038604736,0.08018494,0.18823242,0
8000.709804261,0.67600495,0.73552126,0.045009974,-0.734408,0.67747974,-0.04081949,-0.060516942,-0.005461509,0.99815226,0.6558113,0.75361496,0.04445406,-0.75253713,0.65728235,-0.040839087,-0.05999581,-0.006670596,0.9981764,0.004501343,0.09425354,0.011062622,0
8000.714198792,0.6759922,0.73553175,0.045030206,-0.73441863,0.6774682,-0.040819936,-0.06053089,-0.005477064,0.9981513,0.65617955,0.75329417,0.04445466,-0.7522159,0.6576502,-0.040834505,-0.059996013,-0.006644735,0.9981765,-0.038467407,-0.025283813,0.07810974,0
8000.718623841,0.6456389,0.7624064,0.04344024,-0.7612304,0.64707524,-0.042686235,-0.06065335,-0.0055081416,0.99814373,0.6566003,0.752925,0.04449879,-0.7518479,0.6580727,-0.040805463,-0.060006887,-0.006663441,0.99817574,-0.061203003,0.032470703,0.09725952,0
8000.723018372,0.6456438,0.76240253,0.043432273,-0.76122856,0.64707935,-0.04265227,-0.06062234,-0.005523711,0.99814546,0.6563806,0.7531107,0.04459587,-0.75202876,0.6578598,-0.040903483,-0.060142685,-0.006689129,0.9981674,0.07736206,-0.05355835,0.030227661,0
8000.727443421,0.6456438,0.76240253,0.043432273,-0.76122856,0.64707935,-0.04265227,-0.06062234,-0.005523711,0.99814546,0.6561768,0.7532893,0.04457914,-0.75220555,0.6576556,-0.04093916,-0.060156748,-0.0066693486,0.9981667,-0.0423584,-0.03440857,-0.060760498,0
8000.731837952,0.64563125,0.7624121,0.04345233,-0.76123804,0.64706814,-0.042655703,-0.06063784,-0.005537709,0.9981445,0.6561768,0.7532893,0.04457914,-0.75220555,0.6576556,-0.04093916,-0.060156748,-0.0066693486,0.9981667,-0.04220581,-0.03427124,-0.060760498,0
8000.736263001,0.65645057,0.7530799,0.04408131,-0.75192785,0.65790534,-0.04200947,-0.060637828,-0.0055688275,0.99814427,0.6557324,0.7536712,0.04466286,-0.7525837,0.6572174,-0.041026793,-0.060273916,-0.0067099417,0.99815935,0.024841309,-0.086639404,0.06373596,0
8000.74068805,0.6564717,0.75306344,0.04404879,-0.7519107,0.6579246,-0.04201711,-0.060622334,-0.0055377143,0.9981454,0.65575224,0.7536502,0.044724874,-0.75256395,0.6572409,-0.041011173,-0.060303096,-0.0067651584,0.9981572,0.0055389404,0.06626892,0.1451416,0
8000.745082581,0.6636874,0.7466887,0.044442356,-0.74555063,0.6651507,-0.041580282,-0.060608383,-0.005537719,0.99814624,0.65571076,0.75368536,0.04474047,-0.75259924,0.6572004,-0.041012406,-0.060313903,-0.006779364,0.9981564,0.05328369,0.02798462,0.12120056,0
8000.74950763,0.6636929,0.74668413,0.04443361,-0.7455481,0.6651555,-0.041546486,-0.060577374,-0.005553289,0.9981481,0.65588677,0.753529,0.044795256,-0.752444,0.6573793,-0.040993705,-0.060337417,-0.006818695,0.99815476,0.067337036,-0.07720947,-0.012878418,0
8000.753902161,0.6636929,0.74668413,0.04443361,-0.7455481,0.6651555,-0.041546486,-0.060577374,-0.005553289,0.9981481,0.65606946,0.7533727,0.044747032,-0.7522842,0.65755916,-0.04104028,-0.06034245,-0.0067372154,0.998155,-0.009277344,0.023345947,0.011062622,0
8000.75832721,0.67553717,0.73594576,0.045092694,-0.73483324,0.67701775,-0.04083021,-0.060577374,-0.005553289,0.9981481,0.65621644,0.7532467,0.044715058,-0.75215644,0.6577041,-0.041060977,-0.060338322,-0.0066878316,0.9981556,-0.004486084,-0.010177612,0.14035034,0
8000.762721741,0.6755638,0.73592377,0.045051336,-0.73481125,0.67704177,-0.04082588,-0.06054638,-0.0055237366,0.9981501,0.6566204,0.7528935,0.044732302,-0.7518034,0.6581085,-0.041047662,-0.060343225,-0.0066771656,0.99815536,0.09576416,0.08528137,-0.11343384,0
8000.76714679,0.67557096,0.73591787,0.04504026,-0.73480463,0.6770483,-0.040836,-0.060546383,-0.0055081774,0.99815017,0.65698,0.7525794,0.0447394,-0.75148654,0.6584681,-0.04108155,-0.0603766,-0.0066313017,0.9981536,0.0143585205,0.051635742,-0.04638672,0
8000.771541321,0.670786,0.74029905,0.044762652,-0.7391756,0.6722555,-0.041138064,-0.06054639,-0.0054926183,0.99815035,0.6573558,0.7522463,0.044820447,-0.75115156,0.6588485,-0.0411094,-0.06045428,-0.0066434443,0.9981489,-0.03831482,0.017959595,0.015853882,0
8000.77596637,0.6707909,0.7402949,0.044754595,-0.7391733,0.6722597,-0.041105524,-0.060516924,-0.0055081868,0.99815196,0.65765154,0.7519852,0.04486164,-0.7508908,0.6591463,-0.041098695,-0.060475998,-0.006657571,0.9981474,0.10505676,-0.034561157,0.12599182,0
8000.780360901,0.6707722,0.74031013,0.044784952,-0.739188,0.67224294,-0.04111793,-0.06054638,-0.0055237366,0.9981501,0.65794647,0.75172347,0.044925496,-0.75062716,0.6594448,-0.04112777,-0.0605426,-0.006662423,0.99814343,-0.11013794,-0.03919983,0.11161804,0
8000.78478595,0.65607536,0.7534117,0.04399851,-0.7522615,0.65752566,-0.041984648,-0.060561877,-0.005553295,0.9981491,0.6582104,0.7514902,0.044962812,-0.75039357,0.6597106,-0.041126974,-0.060568962,-0.006669605,0.99814177,-0.04295349,-0.07243347,0.13557434,0
8000.789180481,0.65606874,0.75341696,0.044008367,-0.75226605,0.6575197,-0.041996684,-0.060577374,-0.005553289,0.9981481,0.6581412,0.7515475,0.045016117,-0.75045305,0.65964454,-0.04110009,-0.060583312,-0.006732823,0.99814045,-0.047576904,-0.010177612,0.020645142,0
8000.79360553,0.6560479,0.75343335,0.044039387,-0.7522818,0.65750074,-0.04201094,-0.06060837,-0.0055688373,0.99814606,0.65809345,0.7515907,0.04499312,-0.7504953,0.6595956,-0.04111478,-0.060578752,-0.00670976,0.9981409,-0.06643677,-0.029174805,0.14035034,0
8000.798000061,0.65814734,0.7515901,0.04420977,-0.75044215,0.6596068,-0.04190085,-0.060653325,-0.0055999416,0.99814326,0.6580981,0.7515873,0.044983316,-0.7504864,0.65960026,-0.041203093,-0.060638726,-0.0066436892,0.9981377,-0.11387634,-0.07675171,-0.04638672,0
8000.80242511,0.6581544,0.75158453,0.044198453,-0.7504358,0.6596132,-0.041910715,-0.060653325,-0.0055843815,0.99814326,0.65808934,0.7515939,0.045000706,-0.7504884,0.6595931,-0.041281164,-0.06070882,-0.0066058147,0.99813366,-0.032470703,0.033218384,-0.05596924,0
8000.806819642,0.65814734,0.7515901,0.04420977,-0.75044215,0.6596068,-0.04190085,-0.060653325,-0.0055999416,0.99814326,0.6580939,0.7515942,0.044928163,-0.75048375,0.6595937,-0.041356355,-0.06071753,-0.006501488,0.99813384,0.034561157,-0.06239319,0.0541687,0
8000.81124469,0.67453897,0.73685884,0.04512318,-0.73574334,0.67602336,-0.04091556,-0.060653325,-0.0055999416,0.99814326,0.65810174,0.751587,0.044933863,-0.75047725,0.6596018,-0.041343804,-0.060711924,-0.006513412,0.9981341,-0.018112183,0.02859497,-0.022445679,0
8000.815639222,0.67454636,0.7368529,0.04511211,-0.73573667,0.6760301,-0.04092565,-0.060653325,-0.0055843815,0.99814326,0.65842074,0.75130695,0.04494458,-0.7501979,0.6599209,-0.041323185,-0.06070626,-0.006509289,0.9981345,0.015411377,0.023651123,-0.07511902,0
8000.82006427,0.674553,0.7368473,0.045101963,-0.7357317,0.67603606,-0.04091385,-0.060637824,-0.005584387,0.9981442,0.6587296,0.7510377,0.044918202,-0.74992996,0.6602274,-0.041288797,-0.06066567,-0.0064873556,0.99813706,0.0056915283,-2.89917E-4,0.15472412,0
8000.824489319,0.6394112,0.76765394,0.043135438,-0.7664676,0.6408405,-0.043021854,-0.060668837,-0.0055532577,0.9981425,0.6590579,0.75074804,0.0449461,-0.74963975,0.6605569,-0.04128894,-0.060687046,-0.0064815814,0.99813586,-0.061050415,0.06163025,0.09246826,0
8000.828883851,0.6393954,0.7676658,0.04316048,-0.7664821,0.64082605,-0.042980906,-0.060653325,-0.0055999416,0.99814326,0.65869063,0.7510712,0.044930812,-0.74996096,0.6601895,-0.041332524,-0.06070652,-0.00647101,0.99813473,0.015411377,-0.09112549,-0.0320282,0
8000.833308899,0.6393966,0.76766485,0.043158546,-0.76647985,0.64082724,-0.0430027,-0.06066883,-0.005584377,0.99814236,0.65830266,0.75141287,0.04490332,-0.75030226,0.6598006,-0.04134797,-0.060696635,-0.0064715846,0.9981353,-0.032318115,0.042800903,-0.008087158,0
8000.837703431,0.6521867,0.75679004,0.04383118,-0.7556292,0.65363437,-0.042268343,-0.060637835,-0.005553269,0.99814445,0.65792525,0.75174683,0.044845916,-0.75063336,0.6594206,-0.04140188,-0.06069605,-0.0064234943,0.9981356,0.06793213,0.06163025,0.025436401,0
8000.842128479,0.65217966,0.75679547,0.04384258,-0.7556352,0.65362793,-0.042258557,-0.060637828,-0.0055688275,0.99814427,0.6578024,0.75185454,0.044841923,-0.7507391,0.6592979,-0.041437827,-0.060719404,-0.006406685,0.9981344,-0.0038909912,-0.038757324,0.17866516,0
8000.846523011,0.65216756,0.7568048,0.043862235,-0.7556432,0.65361714,-0.042282663,-0.06066883,-0.0055688173,0.99814236,0.6577259,0.7519208,0.04485362,-0.7508052,0.6592223,-0.041444074,-0.060731165,-0.0064174896,0.9981336,-0.084991455,-0.019607544,0.19302368,0
8000.85094806,0.66568613,0.7448936,0.044670846,-0.74375916,0.6671596,-0.04147664,-0.060698275,-0.005613929,0.9981404,0.65761966,0.7520145,0.044839412,-0.75089985,0.65911525,-0.041429896,-0.060710225,-0.006424796,0.9981348,-0.07032776,-0.09098816,0.015853882,0
8000.855342591,0.66569877,0.7448836,0.044649493,-0.74374783,0.66717106,-0.041495647,-0.06069828,-0.005584366,0.9981405,0.657772,0.75187945,0.04486926,-0.7507668,0.6592689,-0.041395742,-0.06070552,-0.0064573907,0.99813485,-0.027236938,0.071517944,0.011062622,0
8000.85976764,0.6656995,0.74488306,0.044648305,-0.7437459,0.6671718,-0.041517522,-0.060713787,-0.0055688014,0.9981396,0.65795386,0.7517195,0.044883683,-0.7506068,0.65945137,-0.041392665,-0.06071428,-0.006455535,0.9981343,-0.02708435,0.033065796,0.16429138,0
8000.864162171,0.62684274,0.7779874,0.04246946,-0.77677655,0.62825507,-0.043743797,-0.060713787,-0.0055688014,0.9981396,0.65812594,0.7515707,0.04485249,-0.75045866,0.6596212,-0.041372433,-0.06067996,-0.0064316713,0.9981366,-0.09890747,-0.072280884,-0.008087158,0
8000.86858722,0.62681466,0.7780078,0.04251233,-0.7767969,0.6282297,-0.04375049,-0.060745727,-0.0055999965,0.99813753,0.65812594,0.7515707,0.04485249,-0.75045866,0.6596212,-0.041372433,-0.06067996,-0.0064316713,0.9981366,-0.098602295,-0.07197571,-0.00793457,0
8000.872981751,0.6268,0.7780183,0.04253454,-0.7768086,0.6282163,-0.043732673,-0.060745716,-0.0056295595,0.9981374,0.6569213,0.7526269,0.044801764,-0.75151354,0.6584156,-0.04142766,-0.060677756,-0.006454422,0.9981366,0.011520386,-0.052520752,0.006439209,0
8000.8774068,0.662238,0.7479686,0.0445414,-0.74682486,0.66371036,-0.041729823,-0.060775176,-0.0056295497,0.9981356,0.65634173,0.7531346,0.04476368,-0.7520193,0.6578349,-0.041475307,-0.060683604,-0.0064411787,0.9981363,-0.10310364,-0.004638672,0.21711731,0
8000.881801331,0.6622454,0.74796265,0.04453015,-0.7468181,0.6637171,-0.04173972,-0.060775176,-0.0056139897,0.9981356,0.65648127,0.7530138,0.04474995,-0.75190204,0.657973,-0.041410018,-0.060626574,-0.006462681,0.9981396,-0.0073394775,0.03829956,0.03994751,0
8000.88622638,0.66223884,0.74796784,0.044540104,-0.7468228,0.66371125,-0.041751675,-0.06079068,-0.005613985,0.9981348,0.6565726,0.75293165,0.04479188,-0.7518197,0.65806675,-0.041416574,-0.060659897,-0.0064824335,0.9981374,-0.02154541,0.004776001,0.01600647,0
8000.890620911,0.6622677,0.74794483,0.044496264,-0.7467971,0.6637376,-0.041790314,-0.0607907,-0.0055533033,0.9981351,0.65669334,0.75282663,0.044787575,-0.75171477,0.658187,-0.041410875,-0.060653806,-0.0064732344,0.9981379,-0.03112793,0.12867737,0.06388855,0
8000.89504596,0.6622562,0.747954,0.044513725,-0.7468024,0.6637275,-0.041855756,-0.060851168,-0.0055237203,0.9981316,0.65680695,0.75272703,0.0447959,-0.75161165,0.65830135,-0.041464705,-0.060700808,-0.0064348164,0.9981353,-0.14544678,0.08049011,0.12614441,0
8000.899440491,0.6622687,0.7479442,0.04449482,-0.74679375,0.66373867,-0.04183305,-0.060821712,-0.00552373,0.9981333,0.6569299,0.7526187,0.04481401,-0.75150466,0.65842503,-0.041439973,-0.060695156,-0.006454781,0.99813545,0.045791626,-0.0056762695,0.18360901,0
8000.90386554,0.6641356,0.7462783,0.04463985,-0.7451303,0.665611,-0.04174567,-0.06086666,-0.005537718,0.9981305,0.6570392,0.7525245,0.04479306,-0.75140613,0.65853333,-0.04150612,-0.060732093,-0.0063866307,0.9981337,-0.08784485,-0.02947998,-0.05102539,0
8000.908290589,0.6641294,0.7462833,0.04464985,-0.7451347,0.6656056,-0.041757587,-0.06088217,-0.005537713,0.9981296,0.6571858,0.7523942,0.04483103,-0.7512791,0.65868163,-0.041451547,-0.06071728,-0.0064392504,0.99813426,-0.0541687,0.0040283203,0.07826233,0
8000.91268512,0.66410893,0.74629945,0.044682313,-0.7451515,0.66558707,-0.041749578,-0.060897656,-0.005568826,0.9981284,0.65732366,0.75227064,0.044883206,-0.75115544,0.6588225,-0.04145509,-0.06075551,-0.006464854,0.99813175,-0.054016113,-0.100997925,0.08305359,0
8000.917110169,0.6324916,0.7733757,0.04294719,-0.7721673,0.6339233,-0.04357763,-0.060927104,-0.005599935,0.99812657,0.65743184,0.7521758,0.044889245,-0.7510566,0.65893126,-0.041517377,-0.060807288,-0.0064195166,0.9981289,-0.06808472,-0.06718445,0.030380249,0
8000.9215047,0.63251483,0.7733586,0.04291235,-0.77214825,0.6339445,-0.043606,-0.060927123,-0.005553257,0.9981268,0.6569248,0.7526217,0.044837687,-0.7515024,0.65842193,-0.041530587,-0.06077893,-0.006413158,0.9981307,-0.015426636,0.10951233,0.07826233,0
8000.925929749,0.63250357,0.7733669,0.042929232,-0.7721538,0.63393456,-0.043652385,-0.06097363,-0.0055376817,0.998124,0.65641475,0.75306445,0.044872653,-0.75194323,0.6579151,-0.04158125,-0.060835756,-0.0064471425,0.998127,-0.10115051,0.06147766,-0.10369873,0
8000.93032428,0.66278493,0.7474784,0.044633623,-0.7463207,0.66426325,-0.041948456,-0.06100404,-0.005508195,0.9981223,0.65593505,0.7534836,0.04485188,-0.75235945,0.6574353,-0.04164322,-0.06086469,-0.0064294836,0.9981253,-0.086502075,0.080337524,0.006591797,0
8000.934749329,0.66279227,0.7474726,0.044622388,-0.7463143,0.66427,-0.041958377,-0.061004046,-0.005492636,0.99812245,0.65607697,0.7533606,0.04484137,-0.7522366,0.6575763,-0.04163491,-0.060852725,-0.0064156163,0.99812615,-3.0517578E-4,0.017959595,0.030532837,0
8000.93914386,0.66277933,0.7474829,0.044642318,-0.7463232,0.6642584,-0.04198226,-0.061035052,-0.0054926253,0.99812055,0.65624446,0.7532139,0.044855807,-0.75208956,0.6577444,-0.04163635,-0.060864735,-0.0064119585,0.99812543,-0.07661438,0.027542114,-0.0077819824,0
8000.943568909,0.64916366,0.7593831,0.043861654,-0.75819474,0.6506208,-0.042815354,-0.061050557,-0.005461501,0.99811965,0.6563752,0.7531026,0.0448116,-0.7519805,0.657872,-0.041590977,-0.060802568,-0.0063981586,0.99812937,-0.047729492,0.06072998,0.006591797,0
8000.94796344,0.6491571,0.7593882,0.0438714,-0.7581992,0.6506149,-0.04282748,-0.061066065,-0.0054614963,0.99811876,0.65622705,0.7532335,0.04478035,-0.75211453,0.6577218,-0.041541565,-0.060743514,-0.0064192503,0.99813277,-0.042785645,0.0032806396,0.0688324,0
8000.952388489,0.6491703,0.7593781,0.04385191,-0.75819045,0.6506268,-0.04280324,-0.06103506,-0.0054615065,0.99812067,0.65610075,0.75334215,0.04480427,-0.7522207,0.6575975,-0.04158884,-0.0607938,-0.0064162305,0.9981298,-0.0861969,0.05593872,-0.0796051,0
8000.956752503,0.6491582,0.7593872,0.043869738,-0.7581969,0.6506161,-0.042849295,-0.061081573,-0.005445932,0.998118,0.65610075,0.75334215,0.04480427,-0.7522207,0.6575975,-0.04158884,-0.0607938,-0.0064162305,0.9981298,-0.085739136,0.055786133,-0.0796051,0
8000.961116517,0.6404339,0.7667874,0.043374445,-0.7655793,0.641878,-0.043368492,-0.06109553,-0.005431924,0.99811715,0.65582216,0.75358737,0.044758346,-0.75246066,0.6573171,-0.041679658,-0.06082969,-0.006344448,0.998128,-0.056869507,0.036514282,0.054473877,0
8000.965511048,0.6404281,0.7667919,0.043384098,-0.7655831,0.641873,-0.043380685,-0.06111103,-0.005431919,0.99811625,0.65553933,0.7538342,0.044745896,-0.7527052,0.6570342,-0.04172414,-0.06085267,-0.006328651,0.99812675,-0.03277588,0.0029907227,0.11192322,0
8000.969875061,0.6648041,0.7456762,0.044750012,-0.7445139,0.6662865,-0.04196823,-0.061111037,-0.0054163593,0.9981163,0.6551998,0.75412524,0.044813488,-0.75299555,0.65669954,-0.041753635,-0.060916472,-0.0063873827,0.99812245,-0.04234314,0.045944214,0.08798218,0
8000.974239075,0.6648008,0.7456789,0.04475537,-0.74451196,0.66628397,-0.042044543,-0.061171502,-0.0053696614,0.9981128,0.65541655,0.7539364,0.044822842,-0.7528074,0.6569164,-0.041736852,-0.060911793,-0.0063879425,0.99812275,-0.1327362,0.11729431,0.08798218,0
8000.978603089,0.66478765,0.7456892,0.044776604,-0.7445224,0.66627216,-0.042046465,-0.061187007,-0.005385216,0.99811184,0.6556523,0.7537343,0.044773526,-0.75260305,0.6571489,-0.04176136,-0.060899846,-0.006315762,0.9981239,-0.04159546,-0.0644989,-0.036514282,0
8000.98299762,0.6564599,0.75305915,0.044295624,-0.75187653,0.6579307,-0.042530578,-0.061171502,-0.005385221,0.9981128,0.65585953,0.75355214,0.04480528,-0.75241756,0.6573581,-0.041811027,-0.060959898,-0.006290119,0.9981204,0.034866333,-0.002243042,0.07362366,0
8000.987361634,0.65642023,0.7530903,0.04435777,-0.7519063,0.65789497,-0.042558968,-0.06123349,-0.0054163183,0.99810874,0.65589285,0.75351983,0.044860423,-0.75238496,0.6573948,-0.04182058,-0.061003644,-0.0063224863,0.99811757,-0.1847992,-0.073776245,0.126297,0
8000.991725647,0.65642893,0.7530834,0.044343997,-0.7518974,0.65790296,-0.042589445,-0.061247457,-0.0053851954,0.9981081,0.6558654,0.75354487,0.044840544,-0.7524113,0.657366,-0.04179745,-0.060972907,-0.0063250302,0.99811935,-0.031433105,0.09350586,0.025741577,0
8000.996120179,0.6314727,0.7742088,0.042929783,-0.7729766,0.6329073,-0.043997087,-0.061233506,-0.0054007596,0.9981089,0.6558741,0.75354004,0.04479589,-0.75240535,0.657372,-0.041810945,-0.06095379,-0.006281955,0.99812084,0.045043945,0.017059326,0.0688324,0
8001.000484192,0.6314852,0.7741996,0.042910814,-0.7729687,0.6329184,-0.04397244,-0.061202496,-0.0054007694,0.9981108,0.6558741,0.75354004,0.04479589,-0.75240535,0.657372,-0.041810945,-0.06095379,-0.006281955,0.99812084,0.04473877,0.017059326,0.0688324,0
8001.004848206,0.6315075,0.77418333,0.042877097,-0.7729506,0.63293886,-0.043999836,-0.061202515,-0.005355648,0.99811107,0.6548745,0.7544111,0.044758193,-0.753274,0.65637213,-0.041878905,-0.06097194,-0.0062897587,0.99811965,0.006439209,0.10279846,-0.036514282,0
8001.00921222,0.654004,0.7551996,0.044184245,-0.7540076,0.65547293,-0.042751458,-0.061247464,-0.005355633,0.9981082,0.6544062,0.7548217,0.044685215,-0.7536814,0.6559004,-0.041940477,-0.06096663,-0.006232305,0.99812037,-0.088897705,0.0118255615,0.011367798,0
8001.013606751,0.65401775,0.75518906,0.044161487,-0.7539957,0.65548545,-0.0427711,-0.06124748,-0.0053245146,0.99810845,0.65442884,0.7548033,0.04466414,-0.753663,0.65592176,-0.041937366,-0.060950644,-0.006216686,0.99812144,-0.017059326,0.06896973,0.059265137,0
8001.017970765,0.6540118,0.75519365,0.04417134,-0.75399965,0.6554801,-0.04278312,-0.06126298,-0.0053245095,0.9981075,0.6544213,0.75481045,0.04465249,-0.75367045,0.6559135,-0.041932218,-0.06093905,-0.0062119267,0.99812216,-0.04084778,-0.012420654,0.08320618,0
8001.022334778,0.65839654,0.75135815,0.044441234,-0.7501713,0.65987325,-0.042548757,-0.061294932,-0.005324582,0.99810547,0.6544168,0.7548138,0.04466147,-0.7536738,0.6559096,-0.04193309,-0.060945567,-0.0062184567,0.99812174,-0.11715698,0.006729126,0.121658325,0
8001.026698792,0.65837175,0.7513774,0.044481292,-0.75018924,0.65985096,-0.042573612,-0.061339878,-0.0053401263,0.99810255,0.6545194,0.75472707,0.044626337,-0.7535835,0.65601015,-0.04198354,-0.060961444,-0.0061506317,0.9981212,-0.07841492,-0.036209106,-0.060302734,0
8001.031093323,0.65839654,0.75135815,0.044441234,-0.7501713,0.65987325,-0.042548757,-0.061294932,-0.005324582,0.99810547,0.65457755,0.754677,0.044618454,-0.7535338,0.65606767,-0.041976366,-0.060951326,-0.0061447257,0.99812186,0.06478882,0.025894165,0.25094604,0
8001.035457337,0.6457307,0.7623132,0.04370815,-0.76109976,0.6471866,-0.04331961,-0.06131044,-0.005293458,0.9981047,0.65464604,0.7546157,0.044650424,-0.75347257,0.656138,-0.04197635,-0.060972854,-0.0061632185,0.9981204,-0.030822754,0.06387329,-0.017196655,0
8001.039821351,0.64570636,0.7623316,0.04374601,-0.76111543,0.6471648,-0.04336697,-0.061370898,-0.005293438,0.99810094,0.65449715,0.7547476,0.044603568,-0.7536052,0.6559864,-0.041964237,-0.060931746,-0.0061480063,0.99812305,-0.13557434,0.01121521,0.102508545,0
8001.044215882,0.6457141,0.7623257,0.04373394,-0.7611076,0.64717203,-0.043397482,-0.061386406,-0.0052638706,0.99810016,0.654348,0.7548766,0.04460847,-0.75373286,0.655838,-0.04199084,-0.060953833,-0.0061462447,0.9981217,-0.07795715,0.10189819,0.083358765,0
8001.048579895,0.6422523,0.7652566,0.043524556,-0.7640312,0.643704,-0.043605614,-0.06138641,-0.005248311,0.9981002,0.6541974,0.7550086,0.04458502,-0.753861,0.6556865,-0.042057067,-0.060987245,-0.006097286,0.99811995,-0.006134033,0.039505005,0.054626465,0
8001.052943909,0.6422591,0.76525146,0.04351302,-0.76402545,0.6437102,-0.043615267,-0.06138642,-0.005232752,0.9981004,0.65393555,0.7552359,0.044577565,-0.75408506,0.655425,-0.042117096,-0.06102559,-0.006073409,0.9981178,0.032180786,0.029769897,0.0067443848,0
8001.057307923,0.6422609,0.7652502,0.0435102,-0.7640229,0.64371186,-0.043635856,-0.061400376,-0.005217188,0.99809957,0.65369105,0.75544804,0.04456728,-0.7542918,0.6551809,-0.04221311,-0.06108944,-0.006022402,0.99811417,-0.073028564,0.03440857,-0.017196655,0
8001.061702454,0.6499195,0.75873196,0.04393662,-0.75751865,0.65138215,-0.04320478,-0.06140038,-0.0052031847,0.9980996,0.6534934,0.7556214,0.044527344,-0.754462,0.65498143,-0.042264868,-0.061100822,-0.0059743794,0.99811375,-0.010787964,-0.04234314,-0.0076293945,0
8001.066066468,0.6499064,0.7587421,0.043956645,-0.7575288,0.6513703,-0.04320813,-0.061415877,-0.005217183,0.9980986,0.6534934,0.7556214,0.044527344,-0.754462,0.65498143,-0.042264868,-0.061100822,-0.0059743794,0.99811375,-0.010635376,-0.04220581,-0.0076293945,0
8001.070430481,0.6499152,0.75873524,0.043943115,-0.7575186,0.6513786,-0.04326053,-0.061446894,-0.005172051,0.99809694,0.65329856,0.75579584,0.04442519,-0.754634,0.6547808,-0.042303685,-0.061061714,-0.005887823,0.9981167,-0.10609436,0.13450623,0.011520386,0
8001.074825013,0.650291,0.7584109,0.043983832,-0.75719374,0.6517563,-0.04326099,-0.061476342,-0.0051720417,0.99809515,0.6532267,0.7558596,0.044399176,-0.7546945,0.65470773,-0.042356573,-0.061084103,-0.005839371,0.9981156,-0.062698364,4.4250488E-4,0.030685425,0
8001.079189026,0.65028685,0.75841415,0.043990355,-0.7571935,0.65175277,-0.043316737,-0.061522853,-0.005140908,0.99809235,0.6531694,0.75590867,0.044406243,-0.7547399,0.65465134,-0.042419225,-0.061135665,-0.0058082277,0.9981126,-0.11013794,0.05758667,0.016311646,0
8001.08355304,0.65027267,0.758425,0.04401218,-0.75720435,0.65173995,-0.043319788,-0.061539307,-0.0051565426,0.9980913,0.6531155,0.7559564,0.044385612,-0.75478655,0.6545964,-0.04243631,-0.061134662,-0.005785849,0.9981128,-0.07646179,-0.023651123,0.06434631,0
8001.087917054,0.67595166,0.7355434,0.045444228,-0.73437333,0.67745817,-0.041787192,-0.06152286,-0.005126905,0.99809253,0.6530768,0.75598747,0.044425517,-0.7548185,0.65456015,-0.042425986,-0.06115269,-0.0058257747,0.9981114,0.07182312,0.0622406,-0.0076293945,0
8001.092311585,0.6759252,0.7355651,0.045486275,-0.7343951,0.6774344,-0.04179214,-0.061554812,-0.005156538,0.99809045,0.6535369,0.7555878,0.044458635,-0.75441927,0.6550215,-0.04240816,-0.061164446,-0.00582515,0.9981107,-0.08589172,-0.07632446,0.045196533,0
8001.096675599,0.67593217,0.7355594,0.04547521,-0.73438865,0.6774407,-0.04180227,-0.061554816,-0.005140979,0.9980905,0.65399355,0.7551909,0.04448812,-0.7540221,0.65547913,-0.042399805,-0.061180983,-0.0058158287,0.99810976,-0.004486084,0.04324341,0.10745239,0
8001.101039612,0.6759265,0.7355642,0.045484368,-0.73439276,0.67743564,-0.04181286,-0.061568767,-0.005140974,0.9980896,0.6544388,0.75480264,0.04452829,-0.7536367,0.65592587,-0.04234416,-0.06116874,-0.005846489,0.99811035,-0.047439575,0.004928589,0.049987793,0
8001.105403626,0.67592,0.7355694,0.045494534,-0.73439735,0.67742985,-0.04182462,-0.061584268,-0.005140969,0.99808866,0.65486234,0.7544361,0.044514444,-0.75327086,0.65634775,-0.042315964,-0.061141644,-0.0058203028,0.99811214,-0.052078247,-0.004638672,0.13139343,0
8001.109798157,0.6759403,0.73555285,0.04546244,-0.73437876,0.6774482,-0.041854,-0.06158428,-0.0050958465,0.99808884,0.6552666,0.75408083,0.04458487,-0.7529143,0.65675575,-0.042331494,-0.06120274,-0.0058301715,0.9981084,-0.013763428,0.119400024,0.10266113,0
8001.114162171,0.6564945,0.75302655,0.04433856,-0.75181144,0.6579706,-0.043061316,-0.06159979,-0.005064723,0.9980881,0.65571856,0.75368685,0.04460234,-0.7525201,0.657208,-0.042322103,-0.06121063,-0.0058127693,0.998108,-0.05192566,0.06163025,-0.09365845,0
8001.118526185,0.6564947,0.7530264,0.04433825,-0.75181,0.65797085,-0.04308218,-0.0616153,-0.005050715,0.9980872,0.6557122,0.75369525,0.04455339,-0.7525272,0.6571988,-0.04234014,-0.061192,-0.005764687,0.9981094,9.0026855E-4,0.06628418,-0.09365845,0
8001.122920716,0.6565303,0.7529986,0.044284616,-0.75178146,0.6580031,-0.04308759,-0.06158431,-0.005004046,0.9980893,0.65576786,0.75364995,0.044500392,-0.75247866,0.65725136,-0.042385798,-0.061192,-0.0056903493,0.9981098,0.048477173,0.089767456,0.21279907,0
8001.127284729,0.64774275,0.76059973,0.043788854,-0.75936353,0.64920205,-0.04363334,-0.061615314,-0.004988477,0.9980875,0.6557943,0.7536307,0.044437412,-0.7524618,0.65727365,-0.04234005,-0.0611163,-0.0056710895,0.9981146,0.09188843,-0.07797241,0.09786987,0
8001.131648743,0.6477466,0.7605967,0.043782502,-0.7593639,0.6492052,-0.043577593,-0.061568804,-0.0050196103,0.9980902,0.6557943,0.7536307,0.044437412,-0.7524618,0.65727365,-0.04234005,-0.0611163,-0.0056710895,0.9981146,0.091430664,-0.07766724,0.09786987,0
8001.136012757,0.64775485,0.76059055,0.043769356,-0.7593557,0.6492128,-0.04360913,-0.061584312,-0.0049884864,0.99808943,0.65548843,0.7538963,0.04444539,-0.7527267,0.6569689,-0.042361617,-0.061135504,-0.005687681,0.99811333,-0.013763428,0.10876465,0.11701965,0
8001.140407288,0.6381106,0.7687311,0.043214973,-0.767478,0.6395528,-0.044158574,-0.061584312,-0.0049884864,0.99808943,0.6553323,0.75403255,0.044434622,-0.75286394,0.65681225,-0.042349648,-0.06111822,-0.0057001333,0.9981143,-0.023345947,-0.0013580322,0.026046753,0
8001.144771302,0.6381295,0.76871705,0.043185182,-0.7674645,0.6395697,-0.0441449,-0.061554868,-0.004972936,0.9980913,0.655024,0.7542987,0.044465635,-0.7531251,0.65650684,-0.042442586,-0.06120638,-0.005687274,0.998109,0.086502075,0.017654419,0.030838013,0
8001.149135315,0.63813555,0.76871246,0.043175586,-0.76746064,0.6395751,-0.04413267,-0.061539367,-0.004972941,0.99809223,0.65466297,0.7546097,0.044503205,-0.753438,0.6561486,-0.04242903,-0.06121808,-0.005753691,0.99810785,0.024093628,-0.0015106201,-0.16070557,0
8001.153529847,0.6503731,0.75834775,0.043857016,-0.75711936,0.65183127,-0.043430652,-0.061522916,-0.004958865,0.99809337,0.65431374,0.7549141,0.044476487,-0.75373745,0.65579885,-0.04251615,-0.06126367,-0.005704691,0.99810535,0.04309082,0.04624939,0.22221375,0
8001.15789386,0.65038157,0.7583413,0.043843996,-0.7571109,0.651839,-0.043462213,-0.06153842,-0.0049277414,0.99809253,0.65424603,0.7549736,0.04446307,-0.7537976,0.65573037,-0.042506516,-0.06124708,-0.005706433,0.99810636,-0.042938232,0.093811035,0.16474915,0
8001.162257874,0.65038955,0.7583351,0.043831635,-0.7571026,0.65184647,-0.043494478,-0.06155489,-0.0048966943,0.9980917,0.65414965,0.7550575,0.044456683,-0.75387967,0.65563387,-0.04254004,-0.061267484,-0.005687438,0.9981052,-0.033218384,0.06477356,-0.012268066,0
8001.166621888,0.62732184,0.77759945,0.042503502,-0.7763237,0.628741,-0.044793244,-0.06155489,-0.0048966943,0.9980917,0.6540686,0.75512666,0.04447524,-0.75395066,0.65555394,-0.04251487,-0.06126003,-0.005724492,0.99810547,-0.033218384,-0.0118255615,0.08828735,0
8001.171016419,0.6273232,0.77759844,0.042501472,-0.7763215,0.62874234,-0.044812813,-0.061568845,-0.004882687,0.99809086,0.6535488,0.7555774,0.04446172,-0.7544022,0.6550341,-0.0425165,-0.061248448,-0.0057554133,0.998106,-0.018707275,0.05026245,-0.10803223,0
8001.175380433,0.62733275,0.7775914,0.04248756,-0.7763124,0.6287512,-0.044843923,-0.061584357,-0.0048515634,0.99809015,0.65303713,0.7560245,0.044379182,-0.75484776,0.6545184,-0.042549577,-0.061215512,-0.005713077,0.99810827,-0.042495728,0.054748535,0.11701965,0
8001.179744446,0.65709364,0.7525091,0.044249196,-0.75129044,0.65856344,-0.043093074,-0.061568834,-0.00492781,0.99809074,0.65253997,0.7564504,0.04443341,-0.75527066,0.65402573,-0.042621367,-0.061301548,-0.005747106,0.9981028,0.019592285,0.031570435,0.026046753,0
8001.18410846,0.65708816,0.75251335,0.044257633,-0.7512925,0.6585586,-0.043126926,-0.061599836,-0.0049122404,0.99808884,0.6526843,0.7563225,0.044492513,-0.7551455,0.6541732,-0.042576402,-0.061307296,-0.005809375,0.99810207,-0.06628418,0.036209106,-0.017044067,0
8001.188502991,0.65708816,0.75251335,0.044257633,-0.7512925,0.6585586,-0.043126926,-0.061599836,-0.0049122404,0.99808884,0.6527798,0.7562403,0.044487223,-0.755062,0.6542683,-0.042594332,-0.061318133,-0.0057858974,0.99810153,-0.0184021,-0.002105713,-0.09844971,0
8001.192867005,0.6516523,0.7572467,0.04389355,-0.756016,0.6531106,-0.043430425,-0.061554894,-0.004882691,0.99809176,0.6528471,0.7561834,0.04446777,-0.75500476,0.6543343,-0.042594552,-0.06130608,-0.005765653,0.99810237,0.110443115,0.09336853,0.07872009,0
8001.197231019,0.651659,0.75724167,0.043883093,-0.7560117,0.65311664,-0.043417666,-0.06153844,-0.00488262,0.9980928,0.652823,0.756203,0.044488914,-0.7550249,0.65431154,-0.04258887,-0.06131544,-0.0057872455,0.9981017,0.038467407,-0.0023956299,0.121658325,0
8001.20162555,0.65167344,0.75723046,0.04386032,-0.75599915,0.65312976,-0.04343719,-0.061538447,-0.0048515014,0.99809295,0.65277296,0.756245,0.044508748,-0.7550666,0.65426284,-0.042597305,-0.061334416,-0.005800703,0.99810046,-0.03337097,0.006881714,0.078567505,0
8001.205989563,0.65166676,0.7572355,0.043870777,-0.7560035,0.65312374,-0.04344995,-0.0615549,-0.0048515717,0.9980919,0.65277296,0.756245,0.044508748,-0.7550666,0.65426284,-0.042597305,-0.061334416,-0.005800703,0.99810046,-0.033218384,0.006881714,0.07872009,0
8001.210353577,0.65599304,0.75347394,0.04416223,-0.7522504,0.65745974,-0.043199196,-0.061584346,-0.004882682,0.9980899,0.6527362,0.7562762,0.044517037,-0.755093,0.6542272,-0.04267711,-0.061399937,-0.005757605,0.99809664,-0.09996033,-0.09336853,-0.012268066,0
8001.214717591,0.65596104,0.753499,0.044210833,-0.7522734,0.657431,-0.043237265,-0.061644793,-0.0048966673,0.99808615,0.6528164,0.75620955,0.044472586,-0.7550234,0.65430474,-0.042719785,-0.061403733,-0.0056896657,0.9980968,-0.15203857,-0.021408081,0.026046753,0
8001.219112122,0.63526034,0.77109843,0.043028537,-0.7698326,0.6366971,-0.0444355,-0.061660293,-0.0048966627,0.9980852,0.6528782,0.7561551,0.04449105,-0.7549674,0.6543678,-0.042744238,-0.061434783,-0.005682507,0.9980949,-0.032180786,0.002532959,-0.060150146,0
8001.223476136,0.63523823,0.7711148,0.043061197,-0.7698496,0.63667697,-0.0444288,-0.061675787,-0.0049277768,0.99808407,0.65251136,0.75647223,0.04448231,-0.7552816,0.6540012,-0.04280161,-0.061469715,-0.005668136,0.99809283,-0.027236938,-0.073776245,0.054779053,0
8001.227840149,0.63523173,0.7711196,0.043070726,-0.7698537,0.6366712,-0.044441085,-0.061691288,-0.004927772,0.9980831,0.65222,0.75672466,0.044462465,-0.75553054,0.65370953,-0.04286659,-0.06150374,-0.0056342967,0.998091,-0.06059265,-0.021102905,0.10266113,0
8001.232234681,0.65641046,0.75310165,0.04430875,-0.7518737,0.65788585,-0.04326925,-0.061736245,-0.004912199,0.99808043,0.6519031,0.7570012,0.0444015,-0.7558033,0.6533897,-0.042933263,-0.06151202,-0.0055704727,0.9980908,-0.11282349,0.036209106,0.030838013,0
8001.236598694,0.6564181,0.7530957,0.04429714,-0.75187564,0.65789217,-0.04313938,-0.06163082,-0.0049884724,0.9980866,0.65200394,0.7569132,0.044420768,-0.755717,0.65349144,-0.042904306,-0.06150343,-0.0055957474,0.99809116,-0.07077026,0.008224487,0.21279907,0
8001.240962708,0.6564048,0.753106,0.044317324,-0.751886,0.65788007,-0.04314037,-0.06164476,-0.005004027,0.99808556,0.6520872,0.75684303,0.044394806,-0.7556557,0.65357214,-0.042753827,-0.061373144,-0.005667962,0.99809885,-0.051483154,-0.034713745,0.016464233,0
8001.245326722,0.6364845,0.77008,0.043177847,-0.7688184,0.637928,-0.044342045,-0.061691277,-0.004972894,0.99808294,0.6522201,0.7567258,0.044442385,-0.7555403,0.6537075,-0.04272484,-0.061383307,-0.0057120165,0.99809796,-0.10848999,0.0990448,0.054779053,0
8001.249721253,0.63646907,0.77009135,0.043200962,-0.7688311,0.6379139,-0.044323012,-0.061691266,-0.005004013,0.99808276,0.6519082,0.75699705,0.044398136,-0.7558092,0.65339375,-0.042768493,-0.061385084,-0.0056753866,0.9980981,-0.0031433105,-0.077819824,-0.1559143,0
8001.254085267,0.63643396,0.7701175,0.043253787,-0.7688579,0.6378821,-0.044317767,-0.061720703,-0.005050682,0.99808073,0.6516016,0.7572606,0.04440336,-0.7560722,0.653088,-0.04278803,-0.06140099,-0.005691397,0.99809694,-0.09861755,-0.12524414,0.12660217,0
8001.25844928,0.6453339,0.76264465,0.043786455,-0.7614006,0.64679796,-0.043835238,-0.0617517,-0.005050672,0.99807876,0.6512612,0.7575561,0.044358023,-0.75636536,0.6527456,-0.042832732,-0.061402705,-0.005655576,0.9980971,-0.08395386,0.008834839,0.045196533,0
8001.262813294,0.645321,0.7626544,0.04380645,-0.7614089,0.64678645,-0.043860167,-0.061783563,-0.0050507328,0.9980768,0.6511127,0.75768274,0.04437512,-0.75649166,0.65259844,-0.042845648,-0.06142254,-0.005672064,0.99809575,-0.0692749,-0.029464722,0.002243042,0
8001.267207825,0.6453199,0.76265526,0.043808233,-0.76141256,0.64678526,-0.04381688,-0.061751697,-0.005080235,0.9980787,0.65102625,0.7577565,0.044384126,-0.7565637,0.65251285,-0.042874485,-0.061449636,-0.005667004,0.99809414,0.07406616,-0.053115845,0.13139343,0
8001.271571839,0.6598615,0.75005925,0.044654105,-0.74884415,0.6613511,-0.042976804,-0.061767187,-0.0050802296,0.9980776,0.6508721,0.75789076,0.044351354,-0.75669485,0.6523572,-0.042929057,-0.061468463,-0.0056191185,0.99809325,-0.03112793,-4.5776367E-4,0.002105713,0
8001.275935853,0.6598321,0.7500826,0.044695962,-0.74886763,0.66132444,-0.042980555,-0.061797496,-0.0051114103,0.9980756,0.65104586,0.75774187,0.044346422,-0.7565443,0.6525305,-0.0429509,-0.061483085,-0.0055870293,0.9980925,-0.07872009,-0.07197571,0.05970764,0
8001.280330384,0.6598191,0.7500929,0.04471438,-0.74887526,0.6613129,-0.04302642,-0.061844006,-0.0050958362,0.99807286,0.6512187,0.7575927,0.04435703,-0.7563949,0.65270376,-0.042948328,-0.06148934,-0.00558268,0.9980921,-0.16444397,0.038009644,0.16503906,0
8001.284694397,0.6479556,0.7604026,0.044062953,-0.759161,0.64943194,-0.043736782,-0.061873447,-0.005111386,0.9980709,0.65138555,0.7574454,0.0444218,-0.7562517,0.65287393,-0.04288283,-0.061483238,-0.0056608063,0.99809206,-0.07797241,-0.07197571,0.16503906,0
8001.289058411,0.64796335,0.76039654,0.044051554,-0.7591542,0.649439,-0.04374645,-0.06187345,-0.005095827,0.99807096,0.65132654,0.75749904,0.044373438,-0.75630087,0.6528124,-0.042952754,-0.061504196,-0.0055834036,0.99809116,0.0034332275,0.057144165,0.050125122,0
8001.293422425,0.64793396,0.7604192,0.044094328,-0.7591781,0.6494123,-0.043730546,-0.061888937,-0.005140944,0.9980698,0.65124935,0.75756586,0.04436447,-0.7563619,0.65273535,-0.043048684,-0.061570473,-0.005520169,0.9980874,0.032318115,0.019302368,0.011810303,0
8001.297816956,0.6502132,0.7584623,0.04424585,-0.7572243,0.6516966,-0.04362124,-0.06191994,-0.005140934,0.9980679,0.6512514,0.75756055,0.044425428,-0.7563571,0.65274113,-0.043045532,-0.061607905,-0.005568024,0.99808484,-0.06793213,0.009719849,-0.012130737,0
8001.30218097,0.6501924,0.75847834,0.044278435,-0.7572411,0.65167785,-0.04361386,-0.061935432,-0.005172048,0.9980668,0.65123326,0.75757414,0.044459723,-0.75637084,0.6527251,-0.043047488,-0.061631642,-0.0055940794,0.99808323,-0.04862976,-0.057006836,0.016601563,0
8001.306544983,0.6502395,0.75844216,0.044204645,-0.7572043,0.65172035,-0.043615565,-0.061888948,-0.0051113814,0.99806994,0.6512019,0.75759906,0.044493474,-0.75639164,0.6526964,-0.04311736,-0.061706398,-0.0055763847,0.9980787,-0.005996704,-0.05281067,0.14588928,0
8001.310939515,0.6502406,0.7584414,0.04420302,-0.75720215,0.6517214,-0.04363739,-0.061904453,-0.005095817,0.99806905,0.6511344,0.757662,0.04441134,-0.7564521,0.6526241,-0.043152716,-0.06167908,-0.00549683,0.9980809,-0.005844116,0.042800903,-0.13183594,0
8001.315303528,0.6502427,0.75843984,0.04419977,-0.7571979,0.6517235,-0.043681048,-0.061935462,-0.0050646886,0.9980673,0.651109,0.75768304,0.044424716,-0.7564718,0.65259963,-0.04317615,-0.061705388,-0.005493667,0.99807924,-0.1013031,0.09994507,0.035751343,0
8001.319667542,0.6502701,0.7584188,0.044156935,-0.75717556,0.65174824,-0.043697197,-0.061919976,-0.005019571,0.99806845,0.651057,0.7577267,0.04443995,-0.7565141,0.65254885,-0.0432017,-0.061734322,-0.0054926816,0.99807745,0.027832031,0.085128784,0.0070343018,0
8001.324031556,0.670183,0.7408121,0.045300532,-0.7396059,0.67169374,-0.042549726,-0.061949436,-0.0049884436,0.9980668,0.65104014,0.75774074,0.04444809,-0.7565262,0.6525327,-0.043234363,-0.06176427,-0.0054788375,0.99807566,-0.038909912,0.07524109,-0.1078949,0
8001.328426087,0.6701748,0.7408189,0.045313753,-0.73961467,0.6716862,-0.042518985,-0.061935473,-0.005019566,0.99806744,0.65141636,0.7574146,0.04449603,-0.75620025,0.6529112,-0.043223083,-0.061789747,-0.005491687,0.99807405,0.03277588,-0.044143677,0.026184082,0
8001.332790101,0.670183,0.7408121,0.045300532,-0.7396059,0.67169374,-0.042549726,-0.061949436,-0.0049884436,0.9980668,0.65177935,0.75709987,0.04453541,-0.7558847,0.6532761,-0.043228302,-0.06182206,-0.0054883207,0.998072,-0.038909912,0.07524109,-0.050430298,0
8001.337154114,0.6518067,0.7570917,0.04427342,-0.75584817,0.65328944,-0.043663234,-0.061980434,-0.0050039934,0.9980648,0.6521685,0.75676256,0.044571947,-0.7555498,0.65366656,-0.043179188,-0.06181159,-0.00551622,0.99807256,-0.081710815,-0.039505005,0.05491638,0
8001.341518128,0.6518077,0.757091,0.04427184,-0.75584596,0.6532904,-0.043685067,-0.061995935,-0.004988429,0.99806386,0.65213907,0.7567899,0.04453842,-0.7555768,0.65363514,-0.04318382,-0.06179295,-0.00549034,0.9980739,-0.052825928,0.041748047,0.11715698,0
8001.345912659,0.6518026,0.757095,0.044280063,-0.755848,0.65328604,-0.043718964,-0.06202694,-0.00497286,0.9980621,0.6521654,0.75676763,0.04453273,-0.7555594,0.6536606,-0.043103147,-0.061728355,-0.0055367397,0.99807763,-0.09082031,0.03201294,0.05491638,0
8001.350276673,0.6557667,0.75365067,0.04450553,-0.7524075,0.65725684,-0.043549772,-0.06207287,-0.0049278014,0.9980595,0.6521603,0.7567697,0.04457126,-0.7555611,0.653658,-0.04311249,-0.061760586,-0.0055600586,0.9980755,-0.10952759,0.122543335,-0.07901001,0
8001.354640686,0.65579486,0.7536287,0.04446287,-0.7523842,0.6572823,-0.043566182,-0.062057383,-0.0048826835,0.99806064,0.65221196,0.7567241,0.044588808,-0.7555193,0.65371025,-0.04305286,-0.0617273,-0.0056081135,0.99807733,0.043548584,0.08378601,0.11730957,0
8001.359035218,0.6558018,0.75362325,0.044452358,-0.7523794,0.65728843,-0.043553453,-0.062040918,-0.0048826123,0.9980616,0.65227485,0.75666666,0.044643585,-0.75546014,0.65377665,-0.043082792,-0.06178625,-0.005624629,0.99807364,0.033813477,0.01676941,-0.050430298,0
8001.363399231,0.66263175,0.74760145,0.04484816,-0.74637127,0.6641298,-0.043147177,-0.062041882,-0.004882688,0.9980616,0.6523656,0.75658983,0.044620283,-0.7553817,0.65386593,-0.04310317,-0.061787102,-0.005586318,0.99807376,-0.0140686035,0.01676941,-0.04548645,0
8001.367763245,0.66263217,0.74760103,0.044847485,-0.74637085,0.66413015,-0.043146476,-0.062040918,-0.0048826123,0.9980616,0.6525593,0.75641817,0.044698793,-0.7552108,0.654064,-0.04309195,-0.061831407,-0.005636961,0.9980707,2.89917E-4,-0.02633667,0.17462158,0
8001.372127259,0.6626314,0.74760157,0.04484863,-0.74637264,0.6641293,-0.043126803,-0.062026963,-0.00489662,0.99806243,0.6527526,0.7562533,0.044666562,-0.75504446,0.65425515,-0.043105997,-0.061822377,-0.005587692,0.99807155,0.024093628,-0.04055786,-0.0073394775,0
8001.37652179,0.6431112,0.76452374,0.04372042,-0.7632579,0.64457697,-0.044250157,-0.06201146,-0.004912184,0.9980634,0.6529416,0.75608844,0.04469367,-0.75488096,0.65444535,-0.043080203,-0.061822012,-0.005609549,0.99807143,0.04310608,-0.045196533,0.20814514,0
8001.380885804,0.6431035,0.7645295,0.043731883,-0.76326436,0.6445699,-0.04424054,-0.062011458,-0.004927743,0.9980633,0.6527397,0.7562636,0.04467942,-0.7550505,0.65424347,-0.043177407,-0.06188472,-0.005551611,0.9980678,0.0095825195,-0.040252686,-0.040863037,0
8001.385249817,0.6431112,0.76452374,0.04372042,-0.7632579,0.64457697,-0.044250157,-0.06201146,-0.004912184,0.9980634,0.65258837,0.7563933,0.044695053,-0.7551821,0.6540932,-0.04315172,-0.06187441,-0.0055925963,0.99806833,-0.009567261,0.06492615,0.13632202,0
8001.389644349,0.6560004,0.7534484,0.04448686,-0.7522064,0.65748876,-0.04352291,-0.06204187,-0.004912251,0.9980615,0.6523887,0.7565654,0.044696182,-0.7553522,0.6538942,-0.043190878,-0.061903298,-0.0055841184,0.99806654,-0.10505676,-0.002105713,0.11251831,0
8001.394008362,0.65600675,0.7534433,0.04447733,-0.75220186,0.6574945,-0.043511376,-0.06202696,-0.004912179,0.9980624,0.65248066,0.75648606,0.04469636,-0.75526726,0.65398645,-0.043278027,-0.06197004,-0.0055196243,0.9980627,0.028884888,-0.006881714,0.14109802,0
8001.398372376,0.6560134,0.7534382,0.04446749,-0.7521975,0.65750045,-0.043499343,-0.06201146,-0.004912184,0.9980634,0.65248066,0.75648606,0.04469636,-0.75526726,0.65398645,-0.043278027,-0.06197004,-0.0055196243,0.9980627,0.0287323,-0.006881714,0.14109802,0
8001.40273639,0.6423875,0.7651324,0.043708175,-0.7638631,0.64385396,-0.044326536,-0.06205737,-0.004912246,0.9980604,0.65260834,0.75637406,0.04472804,-0.75515217,0.6541162,-0.043325942,-0.062027954,-0.005501606,0.9980592,-0.095321655,0.012268066,0.19392395,0
8001.407130921,0.6423875,0.7651324,0.043708175,-0.7638631,0.64385396,-0.044326536,-0.06205737,-0.004912246,0.9980604,0.65237373,0.7565776,0.04470793,-0.755352,0.65388113,-0.043391492,-0.062062703,-0.005462755,0.9980573,-0.023498535,-0.016464233,0.15083313,0
8001.411494935,0.6423724,0.7651439,0.04373115,-0.76387596,0.6438403,-0.04430733,-0.062057365,-0.0049433657,0.99806035,0.65218765,0.7567368,0.044729274,-0.75551134,0.65369666,-0.043397892,-0.062080156,-0.005489904,0.99805605,4.4250488E-4,-0.07362366,0.04069519,0
8001.415858948,0.6147988,0.78755724,0.042144164,-0.7862351,0.61622185,-0.04588075,-0.062103868,-0.0049277917,0.99805754,0.65202785,0.7568756,0.04471045,-0.7556474,0.6535362,-0.04344428,-0.062101815,-0.0054584555,0.99805486,-0.12359619,0.050704956,0.0023956299,0
8001.420222962,0.61475414,0.7875886,0.04220764,-0.7862676,0.6161812,-0.0458688,-0.062133297,-0.004988464,0.9980554,0.6512805,0.7575235,0.044629972,-0.7562941,0.65278524,-0.043481726,-0.062072217,-0.0054345825,0.9980568,-0.089782715,-0.15458679,0.011962891,0
8001.424617493,0.61475694,0.7875866,0.042203642,-0.7862629,0.6161839,-0.045911264,-0.062164307,-0.004958892,0.99805355,0.65059006,0.75811493,0.04465766,-0.7568869,0.65209764,-0.04348359,-0.062086713,-0.005510808,0.9980555,-0.07511902,0.04624939,0.21308899,0
8001.428981507,0.66529334,0.7452176,0.04511758,-0.7439896,0.66680324,-0.04304753,-0.062164318,-0.004927773,0.9980538,0.64992,0.75868934,0.044659182,-0.75746185,0.6514288,-0.043496866,-0.062092893,-0.005558147,0.99805486,-0.0032958984,0.074645996,0.07901001,0
8001.43334552,0.66529405,0.745217,0.045116376,-0.7439876,0.666804,-0.0430694,-0.062179822,-0.004912209,0.9980529,0.65017676,0.75846916,0.04466194,-0.75723934,0.65168554,-0.043525796,-0.062118515,-0.0055203144,0.9980535,-0.05580139,0.07449341,0.06463623,0
8001.437740052,0.6653206,0.7451959,0.045072615,-0.74396384,0.6668279,-0.04310834,-0.06217984,-0.0048515275,0.9980532,0.65046394,0.7582206,0.04470139,-0.7569905,0.6519747,-0.04352517,-0.062145855,-0.005526977,0.99805176,-0.0079193115,0.13615417,0.0071868896,0
8001.442104065,0.67612195,0.73537123,0.045697793,-0.7341613,0.6776472,-0.04244504,-0.06217984,-0.0048515275,0.9980532,0.6507773,0.75795174,0.04469977,-0.75672174,0.65228736,-0.043513034,-0.062137872,-0.0055079944,0.99805236,0.011230469,-0.0027008057,0.011962891,0
8001.446468079,0.67614204,0.7353547,0.04566549,-0.734144,0.6776652,-0.04245356,-0.062164344,-0.004820413,0.9980542,0.65130377,0.75749874,0.044710748,-0.7562702,0.65281343,-0.04347373,-0.062119078,-0.005498803,0.99805355,0.0206604,0.09754944,0.0023956299,0
8001.450832093,0.67612827,0.7353661,0.04568762,-0.73415685,0.6776528,-0.042433288,-0.06216434,-0.004851532,0.99805415,0.6518192,0.75705236,0.044758968,-0.7558227,0.6533311,-0.04348043,-0.06215939,-0.0054884637,0.9980511,-0.0655365,0.112213135,0.0023956299,0
8001.455226624,0.67613566,0.7353599,0.04567566,-0.7341486,0.6776596,-0.04246532,-0.062179852,-0.0048204088,0.9980534,0.6518192,0.75705236,0.044758968,-0.7558227,0.6533311,-0.04348043,-0.06215939,-0.0054884637,0.9980511,-0.06538391,0.11190796,0.0023956299,0
8001.459590638,0.66280717,0.74744135,0.04492459,-0.7462029,0.66431034,-0.043280903,-0.062193796,-0.004835964,0.9980524,0.6527823,0.7562191,0.044809733,-0.7549855,0.6542959,-0.043515928,-0.062226404,-0.005424271,0.9980473,-0.036514282,-0.041152954,-0.03591919,0
8001.463954651,0.66281444,0.74743545,0.044913203,-0.74619496,0.664317,-0.04331169,-0.0622093,-0.004806396,0.9980515,0.6529652,0.7560562,0.044893064,-0.7548234,0.6544837,-0.043504603,-0.062273707,-0.0054793446,0.998044,-0.026794434,0.06867981,0.01675415,0
8001.468318665,0.66599053,0.7445958,0.0450975,-0.7433618,0.66749835,-0.04311977,-0.0622093,-0.004806396,0.9980515,0.65317285,0.75587445,0.044932183,-0.7546431,0.6546933,-0.043478634,-0.06228119,-0.0055086957,0.99804336,-0.031570435,-0.0079193115,0.05027771,0
8001.472713196,0.6659787,0.74460506,0.04511764,-0.743371,0.66748786,-0.043122623,-0.0622248,-0.0048203953,0.9980506,0.6534371,0.75564414,0.044965394,-0.75441164,0.65495926,-0.04349094,-0.06231418,-0.005503823,0.9980414,-0.017059326,-0.031723022,-0.08380127,0
8001.47707721,0.66597486,0.74460804,0.04512424,-0.7433692,0.66748476,-0.043197904,-0.062285256,-0.004775255,0.99804693,0.6536826,0.7554324,0.044954736,-0.7542041,0.6552033,-0.04341435,-0.0622511,-0.005525838,0.9980452,-0.17448425,0.101882935,0.04069519,0
8001.481441224,0.6877473,0.7244667,0.04638678,-0.72327185,0.68929344,-0.041862007,-0.062301725,-0.0047597648,0.998046,0.65391314,0.75523067,0.044993035,-0.7540032,0.6554357,-0.043396957,-0.062264748,-0.005547056,0.9980443,-0.021102905,0.029922485,0.031280518,0
8001.485835755,0.68774045,0.7244724,0.046397522,-0.72327965,0.68928707,-0.04182911,-0.062285252,-0.004790814,0.9980469,0.6545775,0.75465316,0.045021348,-0.75342643,0.6561006,-0.04336663,-0.062265296,-0.005533454,0.99804425,0.012268066,-0.06074524,0.11730957,0
8001.490199769,0.6877473,0.7244667,0.04638678,-0.72327185,0.68929344,-0.041862007,-0.062301725,-0.0047597648,0.998046,0.6552601,0.7540581,0.045061607,-0.75283206,0.6567845,-0.043337088,-0.06227445,-0.005526756,0.9980437,-0.016311646,0.063430786,-0.04055786,0
8001.494563782,0.68213683,0.72977155,0.046072483,-0.72856414,0.6836744,-0.04223053,-0.062317226,-0.00475976,0.998045,0.6559329,0.7534727,0.045066267,-0.7522467,0.6574563,-0.04331571,-0.062266305,-0.00548875,0.99804443,-0.07362366,0.0059814453,0.08872986,0
8001.498927796,0.68203276,0.7298583,0.046239898,-0.72865254,0.68358094,-0.04222109,-0.062424134,-0.004896651,0.99803776,0.6564551,0.75301576,0.045100015,-0.7517929,0.65797937,-0.04324981,-0.062242664,-0.005514314,0.9980458,-0.11087036,-0.10281372,-0.10279846,0
8001.503322327,0.6820201,0.72986877,0.04626011,-0.7286631,0.68356955,-0.04222138,-0.06243808,-0.0049122064,0.9980368,0.6569686,0.75256026,0.04522615,-0.75133926,0.65849966,-0.043214586,-0.062302984,-0.005589557,0.9980417,-0.04849243,-0.021255493,0.050430298,0
8001.507686341,0.6316789,0.7740174,0.043347705,-0.77270925,0.63314545,-0.04524922,-0.062469076,-0.0049121967,0.99803483,0.65746135,0.7521264,0.045281466,-0.75090927,0.65899473,-0.0431414,-0.06228803,-0.0056384685,0.9980423,-0.08169556,-0.006881714,0.10310364,0
8001.512050354,0.6316809,0.77401584,0.043344595,-0.772705,0.6331474,-0.045291793,-0.06250008,-0.0048826244,0.998033,0.6569558,0.75256956,0.04525663,-0.7513497,0.65848875,-0.043199126,-0.062311333,-0.0056236354,0.998041,-0.06703186,0.08378601,0.1078949,0
8001.516444886,0.6317025,0.77400005,0.043311886,-0.7726886,0.633167,-0.045298368,-0.062484592,-0.0048515107,0.9980342,0.6564338,0.75302595,0.04523818,-0.7518047,0.65796673,-0.043236777,-0.062323634,-0.005628187,0.99804014,0.023803711,0.078689575,0.06958008,0
8001.520808899,0.63169056,0.7740087,0.04332989,-0.7726959,0.6331563,-0.04532176,-0.06251404,-0.0048515014,0.9980323,0.65593183,0.75346595,0.04519507,-0.7522408,0.65746325,-0.043312516,-0.0623486,-0.0055875164,0.9980388,-0.06689453,0.002090454,-0.0118255615,0
8001.525172913,0.63169986,0.7740019,0.04331582,-0.7726857,0.63316494,-0.04537451,-0.06254602,-0.004806445,0.9980305,0.6554855,0.7538577,0.04513711,-0.7526269,0.6570146,-0.04341127,-0.06238166,-0.0055159447,0.9980371,-0.085739136,0.09741211,-0.102645874,0
8001.529536927,0.6317306,0.77397954,0.043269373,-0.7726607,0.63319296,-0.045412295,-0.06254604,-0.0047442066,0.9980308,0.65497816,0.754301,0.045095403,-0.7530715,0.6565054,-0.043404303,-0.062345285,-0.0055311937,0.99803925,-0.023498535,0.1542511,0.064941406,0
8001.533931458,0.6487801,0.75968474,0.044311084,-0.7583974,0.6502741,-0.044461377,-0.06259098,-0.0047597527,0.99802786,0.65451944,0.7546992,0.04509351,-0.7534706,0.65604734,-0.043404132,-0.062340543,-0.0055677854,0.9980394,-0.09008789,-0.041900635,0.055374146,0
8001.538295472,0.6487674,0.7596945,0.04433056,-0.75840586,0.6502628,-0.044485606,-0.06262198,-0.004759744,0.99802595,0.65442556,0.7547786,0.045126025,-0.75354844,0.65595585,-0.043435693,-0.06238501,-0.0055792173,0.9980366,-0.094573975,0.025131226,0.117614746,0
8001.542659485,0.6487879,0.7596788,0.04429915,-0.7583896,0.65028137,-0.044491936,-0.06260649,-0.0047301855,0.99802715,0.6543453,0.75484735,0.04514188,-0.75361675,0.6558767,-0.043446627,-0.062403075,-0.005590581,0.99803543,0.010620117,0.06793213,0.026641846,0
8001.547023499,0.6571514,0.75242716,0.044780523,-0.75115645,0.6586583,-0.04396701,-0.06257704,-0.0047441977,0.9980289,0.6542224,0.7549543,0.04513351,-0.75371903,0.65575397,-0.04352404,-0.06245514,-0.0055435817,0.9980324,0.07736206,-0.06599426,0.069732666,0
8001.55141803,0.657146,0.75243145,0.04478911,-0.75115883,0.6586536,-0.04399867,-0.06260649,-0.0047301855,0.99802715,0.65429515,0.7548902,0.04515042,-0.75365406,0.6558277,-0.043538027,-0.06247733,-0.0055410773,0.998031,-0.07078552,0.05834961,0.1798706,0
8001.555782044,0.6571579,0.7524221,0.04477035,-0.7511508,0.65866417,-0.043975867,-0.06257705,-0.0047301943,0.99802893,0.65436906,0.75482625,0.045150176,-0.75359005,0.65590143,-0.043535296,-0.062475648,-0.005536574,0.9980312,0.04864502,-0.023040771,0.103256226,0
8001.560146058,0.6766253,0.7348923,0.045949694,-0.733661,0.67816705,-0.042788457,-0.06260648,-0.004759748,0.9980269,0.65442014,0.7547829,0.045132793,-0.7535429,0.65595174,-0.04359302,-0.0625082,-0.0054813474,0.99802935,-0.061203003,-0.061050415,0.103256226,0
8001.564540589,0.6766382,0.7348819,0.045928683,-0.7336493,0.6781787,-0.04280775,-0.06260649,-0.0047301855,0.99802715,0.6548346,0.75442004,0.045189355,-0.753179,0.6563691,-0.043600738,-0.062554166,-0.0054844045,0.9980265,-0.0037384033,0.09187317,0.055374146,0
8001.568904603,0.6766259,0.7348919,0.04594882,-0.7336592,0.6781677,-0.042810354,-0.06262199,-0.004744184,0.998026,0.655275,0.75403756,0.045188732,-0.75279945,0.6568083,-0.043540493,-0.062511496,-0.0054870592,0.9980291,-0.046691895,-0.056411743,0.055374146,0
8001.573268616,0.6642701,0.7461211,0.045260545,-0.74486357,0.6657931,-0.04356305,-0.06263747,-0.0047752983,0.9980249,0.655708,0.7536598,0.04520909,-0.75242335,0.65724176,-0.04350187,-0.062498916,-0.00549185,0.9980299,-0.041748047,-0.08483887,0.031433105,0
8001.57763263,0.6642904,0.7461051,0.045228124,-0.7448468,0.6658114,-0.043571066,-0.06262199,-0.004744184,0.998026,0.655925,0.75347054,0.045216892,-0.7522314,0.657459,-0.043537617,-0.06253257,-0.0054561575,0.998028,0.025146484,0.08242798,0.122406006,0
8001.582027161,0.6642904,0.7461051,0.045228124,-0.7448468,0.6658114,-0.043571066,-0.06262199,-0.004744184,0.998026,0.65608615,0.75333047,0.045212854,-0.75209004,0.6576198,-0.04355345,-0.062543005,-0.0054293186,0.9980275,-0.008377075,0.010620117,0.11282349,0
8001.586391175,0.65645975,0.75303197,0.044759143,-0.7517573,0.6579669,-0.04405119,-0.062621996,-0.004730181,0.9980262,0.656256,0.75318015,0.04525233,-0.7519371,0.65779203,-0.043591294,-0.06259872,-0.005419857,0.99802405,-0.027526855,0.044006348,0.19422913,0
8001.590755188,0.6564595,0.75303215,0.044759464,-0.75175875,0.65796655,-0.044030327,-0.06260648,-0.004744189,0.99802697,0.6562251,0.753207,0.045251954,-0.7519666,0.6577609,-0.04355157,-0.062568314,-0.0054483255,0.9980258,0.029769897,-0.051635742,0.093673706,0
8001.59514972,0.65645975,0.75303197,0.044759143,-0.7517573,0.6579669,-0.04405119,-0.062621996,-0.004730181,0.9980262,0.6562119,0.75321835,0.045255575,-0.75197554,0.6577482,-0.043589946,-0.06259952,-0.0054268492,0.9980239,-0.037109375,0.034423828,0.041000366,0
8001.599513733,0.67056346,0.7404511,0.045574006,-0.7392059,0.67209375,-0.043185156,-0.06260649,-0.0047301855,0.99802715,0.65622556,0.7532053,0.045273766,-0.7519591,0.65776324,-0.043646414,-0.06265413,-0.0054021287,0.99802065,0.053710938,-0.0038909912,0.0027008057,0
8001.603877747,0.67055106,0.7404609,0.045594122,-0.7392155,0.6720826,-0.043187913,-0.06262199,-0.004744184,0.998026,0.65652716,0.752941,0.04529784,-0.7516944,0.65806586,-0.043644562,-0.062670745,-0.00539629,0.99801964,-0.061050415,-0.051635742,0.13198853,0
8001.608241761,0.67053133,0.74047685,0.045626502,-0.7392322,0.6720649,-0.04317961,-0.06263747,-0.0047752983,0.9980249,0.65682334,0.7526817,0.045314066,-0.75143605,0.65836245,-0.04362057,-0.062665485,-0.0053996122,0.99801993,-0.013015747,-0.06568909,0.012268066,0
8001.612636292,0.6348349,0.7714215,0.043514412,-0.7701072,0.6363066,-0.045264453,-0.06260648,-0.004775308,0.9980269,0.65709907,0.7524394,0.04534111,-0.7511938,0.6586394,-0.043613084,-0.06267964,-0.0054018437,0.99801904,0.039352417,0.0013427734,0.036209106,0
8001.617000306,0.6348106,0.77143925,0.043554693,-0.7701235,0.636285,-0.045291677,-0.062652975,-0.0047908532,0.9980239,0.65666246,0.752822,0.045315024,-0.7515755,0.65820205,-0.04363816,-0.0626782,-0.0054021208,0.9980191,-0.08947754,-0.0368042,0.093673706,0
8001.621364319,0.63483614,0.77142066,0.043512356,-0.77010494,0.6363078,-0.04528623,-0.06262198,-0.004759744,0.99802595,0.6562403,0.7531912,0.04529599,-0.7519436,0.65777946,-0.043669797,-0.06268648,-0.005402153,0.9980186,0.044296265,0.07778931,-0.040405273,0
8001.625728333,0.6938709,0.71856403,0.04699807,-0.7173713,0.6954441,-0.041662857,-0.062621966,-0.004806422,0.9980257,0.65583444,0.7535478,0.045243096,-0.7522952,0.65737146,-0.043757424,-0.06271483,-0.005338537,0.9980172,0.020355225,-0.13241577,-0.073913574,0
8001.630122864,0.69387764,0.7185583,0.046987265,-0.7173649,0.6954503,-0.041673265,-0.06262197,-0.004790863,0.9980259,0.6566245,0.7528524,0.045361765,-0.75160336,0.65816724,-0.043684516,-0.06274362,-0.005409732,0.99801505,0.010772705,0.06852722,0.0027008057,0
8001.634486878,0.69386464,0.7185694,0.047008134,-0.7173746,0.6954387,-0.041696306,-0.062652975,-0.0047908532,0.9980239,0.65739894,0.7521742,0.045393817,-0.7509251,0.65894234,-0.043663364,-0.06275436,-0.0053831073,0.99801445,-0.0942688,-0.03201294,0.0074920654,0
8001.638850892,0.6811693,0.7306605,0.046300773,-0.72943777,0.6827242,-0.04252559,-0.06268241,-0.0048064035,0.99802196,0.6581283,0.7515319,0.045464862,-0.75028366,0.65967476,-0.043630503,-0.06278173,-0.0053970744,0.99801266,-0.08918762,-0.02229309,0.050582886,0
8001.643245423,0.6811559,0.73067164,0.046321627,-0.7294503,0.6827121,-0.04250621,-0.062682405,-0.004835967,0.9980219,0.6585895,0.75112736,0.045469847,-0.74988014,0.6601354,-0.043601528,-0.06276655,-0.0053814263,0.9980137,0.0017852783,-0.069885254,0.079315186,0
8001.647609436,0.6811758,0.730655,0.046290535,-0.729433,0.68273,-0.04251389,-0.062666915,-0.0048064087,0.998023,0.6590533,0.75072,0.045476828,-0.74947226,0.6605988,-0.043594625,-0.062769294,-0.005352439,0.9980137,0.03515625,0.06388855,0.079315186,0
8001.65197345,0.68114644,0.7306819,0.046299435,-0.7294591,0.68270123,-0.042527042,-0.06268241,-0.0048064035,0.99802196,0.65950596,0.7503213,0.045494627,-0.7490755,0.6610516,-0.043552272,-0.06275249,-0.0053559258,0.9980147,-0.017364502,-0.0079193115,-0.083496094,0
8001.656337464,0.6811398,0.7306873,0.046309665,-0.7294639,0.6826954,-0.042538736,-0.06269791,-0.004806399,0.998021,0.65996534,0.749913,0.045566015,-0.7486672,0.6615146,-0.043541532,-0.062794946,-0.005377875,0.9980119,-0.050720215,0.016021729,0.08888245,0
8001.660731995,0.68114,0.7306872,0.04630931,-0.72946507,0.68269545,-0.04251786,-0.062682405,-0.004820407,0.9980219,0.6603765,0.7495531,0.045532476,-0.7483085,0.66192275,-0.043506198,-0.062749185,-0.0053418675,0.99801505,0.006576538,-0.041305542,0.060165405,0
8001.665096009,0.6550163,0.7542859,0.04479431,-0.75301045,0.6565284,-0.044112816,-0.062682405,-0.004835967,0.9980219,0.6607626,0.7492127,0.045531217,-0.74797255,0.66230774,-0.043422766,-0.06268857,-0.005363963,0.99801874,0.025741577,-0.050735474,-0.006881714,0
8001.669460022,0.6550163,0.7542859,0.04479431,-0.75301045,0.6565284,-0.044112816,-0.062682405,-0.004835967,0.9980219,0.6606237,0.749333,0.045566246,-0.74809265,0.66217136,-0.043433502,-0.06271882,-0.00539457,0.99801666,-0.036514282,0.011520386,0.2708435,0
8001.673854554,0.6550096,0.75429106,0.044804126,-0.7530148,0.65652233,-0.044124864,-0.0626979,-0.0048359614,0.99802077,0.6605108,0.7494325,0.045568235,-0.7481903,0.6620589,-0.043466832,-0.06274431,-0.005383398,0.9980151,-0.055511475,-0.026794434,0.16549683,0
8001.678218567,0.6700697,0.74088836,0.045727137,-0.7396418,0.6716107,-0.043234594,-0.062742844,-0.004851508,0.998018,0.66040915,0.7495265,0.045495216,-0.7482813,0.66195315,-0.043511406,-0.06272865,-0.005307888,0.9980165,-0.08859253,-0.026641846,0.064941406,0
8001.682582581,0.67006284,0.740894,0.045738284,-0.7396481,0.6716044,-0.04322455,-0.06274284,-0.0048670666,0.99801785,0.660594,0.74936324,0.045500584,-0.7481188,0.6621379,-0.043493517,-0.062720105,-0.0053082835,0.998017,-0.011978149,-0.04084778,-0.021240234,0
8001.686946595,0.6700497,0.74090457,0.045759458,-0.73965997,0.6715926,-0.043205462,-0.06274283,-0.0048966296,0.9980177,0.6607716,0.7492054,0.04552208,-0.74796236,0.6623163,-0.04346748,-0.06271609,-0.0053267214,0.9980172,-0.011978149,-0.09802246,0.079315186,0
8001.691341126,0.6446723,0.7631758,0.04427617,-0.7618812,0.64617234,-0.04470641,-0.06272888,-0.0049121934,0.9980186,0.660954,0.74903965,0.045600094,-0.7477936,0.66250366,-0.04351542,-0.062805004,-0.005337767,0.9980115,0.05014038,-0.002105713,-0.097854614,0
8001.69570514,0.644674,0.7631744,0.044273414,-0.7618784,0.6461739,-0.044726994,-0.06274283,-0.0048966296,0.9980177,0.6606623,0.7492988,0.045570057,-0.748054,0.66221046,-0.043502167,-0.062773086,-0.005348624,0.99801344,-0.04550171,0.002532959,-0.040405273,0
8001.700069153,0.644674,0.7631744,0.044273414,-0.7618784,0.6461739,-0.044726994,-0.06274283,-0.0048966296,0.9980177,0.6603345,0.7495859,0.045598194,-0.74834156,0.661885,-0.043508686,-0.06279426,-0.0053927368,0.9980119,-0.0071868896,0.10307312,0.18466187,0
8001.704433167,0.6446955,0.7631583,0.044240184,-0.7618604,0.6461935,-0.04475498,-0.062742844,-0.004851508,0.998018,0.6603345,0.7495859,0.045598194,-0.74834156,0.661885,-0.043508686,-0.06279426,-0.0053927368,0.9980119,-0.0071868896,0.102630615,0.18466187,0
8001.708827698,0.6891388,0.72311246,0.046861246,-0.72190374,0.69071335,-0.042071782,-0.06279032,-0.0048360093,0.99801505,0.6597386,0.7501096,0.04561287,-0.7488634,0.6612913,-0.04355958,-0.062837854,-0.005419874,0.998009,-0.1408081,0.035461426,0.060317993,0
8001.713191712,0.6891388,0.72311246,0.046861246,-0.72190374,0.69071335,-0.042071782,-0.06279032,-0.0048360093,0.99801505,0.6603651,0.7495587,0.045602355,-0.74831426,0.66191584,-0.043509327,-0.06279772,-0.0053928494,0.99801165,-0.011520386,0.006729126,0.17523193,0
8001.717555726,0.64904016,0.7594506,0.04451451,-0.75815845,0.65054697,-0.044547383,-0.06279032,-0.0048360093,0.99801505,0.66094166,0.749047,0.04565804,-0.74780226,0.6624949,-0.043500155,-0.06283188,-0.0053921174,0.9980095,0.017211914,0.025878906,0.15608215,0
8001.721950257,0.64905477,0.7594394,0.044492878,-0.7581459,0.6505602,-0.0445658,-0.06279033,-0.004806446,0.99801517,0.6606944,0.7492618,0.045712113,-0.7480189,0.66225135,-0.04348269,-0.06285283,-0.005464758,0.9980078,-0.016311646,0.06867981,0.022003174,0
8001.72631427,0.6490761,0.75942314,0.044461373,-0.75813043,0.65057945,-0.044550546,-0.062758364,-0.0047908216,0.99801725,0.6604958,0.74943525,0.045740027,-0.7481941,0.6620547,-0.043464478,-0.06285621,-0.0055143144,0.9980074,0.06958008,0.0206604,0.069732666,0
8001.730678284,0.6490618,0.7594341,0.044482484,-0.7581414,0.6505666,-0.04455297,-0.06277385,-0.004806376,0.99801624,0.6602732,0.74963236,0.045723353,-0.748392,0.66183144,-0.043459095,-0.06283949,-0.0055241114,0.9980084,-0.040405273,-0.02708435,0.11282349,0
8001.735042298,0.6490538,0.75944024,0.044494387,-0.75814945,0.6505592,-0.044522423,-0.06275834,-0.004835943,0.998017,0.660039,0.74983865,0.045721855,-0.74859565,0.6615977,-0.043507434,-0.062873036,-0.0055105807,0.99800634,0.03126526,-0.07946777,-0.078704834,0
8001.739436829,0.64904493,0.759447,0.04450742,-0.75815827,0.65055096,-0.04449091,-0.06274284,-0.0048670666,0.99801785,0.659788,0.75006175,0.04568473,-0.74881744,0.661345,-0.043533422,-0.06286612,-0.005486696,0.9980069,0.04548645,-0.06478882,-0.078704834,0
8001.743800843,0.6519041,0.75698423,0.04467516,-0.7557012,0.65341496,-0.04432248,-0.06274284,-0.0048670666,0.99801785,0.65958536,0.7502408,0.045671977,-0.7489958,0.661142,-0.043550022,-0.06286866,-0.0054831603,0.9980067,0.02154541,-0.021697998,-0.002090454,0
8001.748164856,0.6518842,0.75699943,0.044706114,-0.75571567,0.6533971,-0.044336855,-0.06277383,-0.0048826165,0.9980158,0.6594367,0.75037336,0.04564096,-0.7491287,0.6609916,-0.043546367,-0.06284433,-0.0054748813,0.9980083,-0.09786987,-0.02154541,0.18943787,0
8001.752559388,0.6519041,0.75698423,0.04467516,-0.7557012,0.65341496,-0.04432248,-0.06274284,-0.0048670666,0.99801785,0.6592591,0.7505297,0.045636807,-0.7492834,0.6608141,-0.04357872,-0.06286457,-0.005465236,0.99800706,0.07421875,0.0357666,-0.1409607,0
8001.756923401,0.6368914,0.7697082,0.04380126,-0.76839364,0.6383774,-0.045227665,-0.062773846,-0.004851498,0.99801606,0.65911144,0.7506582,0.045656044,-0.7494114,0.6606681,-0.043592714,-0.062886715,-0.005482708,0.99800557,-0.07392883,0.040405273,0.012268066,0
8001.761287415,0.6368848,0.7697131,0.043811478,-0.7683977,0.63837147,-0.045240637,-0.06279031,-0.0048515685,0.9980149,0.65864354,0.75107247,0.0455944,-0.7498239,0.6601973,-0.04363067,-0.0628711,-0.005450715,0.99800676,-0.059402466,-0.017059326,0.060317993,0
8001.765651429,0.6368861,0.7697122,0.04380949,-0.76839536,0.6383727,-0.045262415,-0.06280581,-0.0048360038,0.998014,0.6581969,0.75147027,0.045489732,-0.75022167,0.65974486,-0.04363738,-0.062803805,-0.0054053925,0.99801123,-0.011367798,0.035461426,0.031585693,0
8001.77004596,0.68778956,0.7244012,0.046782024,-0.72318804,0.6893619,-0.042181157,-0.06280582,-0.0048204446,0.99801403,0.65777814,0.7518416,0.045409888,-0.75059336,0.6593218,-0.04363955,-0.06274976,-0.0053792163,0.99801475,-0.011367798,0.044891357,-0.045028687,0
8001.774409974,0.687777,0.7244117,0.046802215,-0.7231961,0.6893508,-0.042224087,-0.06285077,-0.0048064278,0.99801135,0.6583979,0.751294,0.045491192,-0.75004745,0.6599454,-0.043598752,-0.062777184,-0.005415225,0.99801284,-0.11627197,0.03996277,0.055526733,0
8001.778773987,0.6877641,0.72442263,0.046822917,-0.7232084,0.6893392,-0.042204496,-0.062850766,-0.0048359907,0.9980113,0.6590027,0.7507625,0.045508277,-0.7495163,0.6605502,-0.04357412,-0.062774315,-0.0053937347,0.99801314,-0.010925293,-0.084243774,0.09861755,0
8001.783138001,0.6356508,0.77073574,0.04375343,-0.7694138,0.63713664,-0.04537722,-0.062850766,-0.004820431,0.9980113,0.6595937,0.7502379,0.04559824,-0.7489933,0.6611456,-0.04353711,-0.062810265,-0.005435972,0.99801064,-0.010925293,0.0496521,0.031585693,0
8001.787532532,0.6356796,0.7707146,0.04371038,-0.76939154,0.6371628,-0.0453925,-0.06283528,-0.0047753137,0.99801254,0.659098,0.750675,0.045571484,-0.74942917,0.66064924,-0.043572143,-0.062815286,-0.005434285,0.99801034,0.027236938,0.106674194,0.050735474,0
8001.791896546,0.635681,0.77071357,0.043708358,-0.7693891,0.6371641,-0.04541427,-0.06285078,-0.004759749,0.9980116,0.65865177,0.7510658,0.04558543,-0.7498168,0.66020495,-0.043636896,-0.06286991,-0.0054392046,0.9980069,-0.020507813,0.034713745,0.055526733,0
8001.796565735,0.6327517,0.7731306,0.04352336,-0.7717998,0.63422906,-0.045589972,-0.06285079,-0.00474419,0.99801165,0.658163,0.7514974,0.04553084,-0.7502477,0.6597137,-0.043659624,-0.06284742,-0.0054242616,0.9980084,-0.025283813,0.044143677,-0.025878906,0
8001.801204407,0.6327584,0.7731258,0.043512914,-0.77179444,0.6342351,-0.045598507,-0.062850796,-0.004730186,0.9980117,0.6576936,0.75190854,0.04552521,-0.75065625,0.6592451,-0.043715183,-0.062882096,-0.005422588,0.99800617,0.027389526,0.024841309,-0.059402466,0
8001.805873597,0.6327777,0.77311164,0.043482278,-0.771781,0.63425237,-0.045583405,-0.0628198,-0.004714636,0.99801373,0.65719396,0.7523446,0.045536477,-0.7510864,0.6587476,-0.043826684,-0.06296982,-0.0053991927,0.99800074,0.05102539,0.0390625,0.089035034,0
8001.810542786,0.66274613,0.74747586,0.045250036,-0.7462071,0.6642721,-0.04379006,-0.06279034,-0.0047442075,0.9980154,0.6567108,0.75276726,0.04552272,-0.7515066,0.65826464,-0.043879926,-0.06299737,-0.0053942027,0.9979991,0.089035034,-0.046844482,-0.088134766,0
8001.815181458,0.66275495,0.7474687,0.045236398,-0.74619657,0.6642803,-0.0438415,-0.0628198,-0.004699076,0.99801373,0.6568465,0.752651,0.0454871,-0.7513879,0.6583981,-0.043911003,-0.06299828,-0.0053356653,0.9979993,-0.06390381,0.12030029,0.122558594,0
8001.819850647,0.66275585,0.7474681,0.045235135,-0.74619466,0.66428125,-0.043863364,-0.062835306,-0.0046835123,0.9980129,0.65698284,0.75253475,0.045443077,-0.75126743,0.65853167,-0.04396978,-0.06301449,-0.005252512,0.9979988,-0.0541687,0.014816284,0.08425903,0
8001.824519837,0.65768385,0.7519519,0.04494856,-0.7506688,0.65920126,-0.044158615,-0.0628353,-0.004699072,0.9980128,0.6570697,0.7524575,0.045466173,-0.75119305,0.6586195,-0.043924082,-0.06299592,-0.005292695,0.9979997,-0.0014953613,-0.032913208,-0.035461426,0
8001.829158509,0.6576767,0.75195736,0.04495986,-0.75067496,0.65919477,-0.04414876,-0.0628353,-0.004714631,0.9980127,0.657053,0.75247234,0.0454609,-0.75120914,0.6586025,-0.04390467,-0.06297771,-0.00530295,0.9980008,0.012863159,-0.02319336,0.0076446533,0
8001.833827698,0.65769714,0.7519415,0.044927374,-0.7506585,0.65921324,-0.044156488,-0.06281981,-0.004683517,0.9980139,0.6570496,0.7524739,0.04548559,-0.7512103,0.6586007,-0.04391182,-0.06299934,-0.0053169997,0.99799937,0.0079193115,0.062683105,0.117767334,0
8001.838496888,0.65218246,0.75675005,0.044581868,-0.75545585,0.6536878,-0.044483982,-0.06280587,-0.0046679615,0.99801487,0.6570636,0.7524637,0.045450807,-0.7512004,0.65861243,-0.043904718,-0.062971175,-0.0052944715,0.9980013,0.026947021,0.019454956,0.112976074,0
8001.84313556,0.652195,0.7567404,0.04456182,-0.7554463,0.65369904,-0.044480722,-0.06279038,-0.004653963,0.99801594,0.6570002,0.7525199,0.045438096,-0.75125706,0.65854824,-0.04389926,-0.06295825,-0.0052938643,0.9980021,0.036361694,0.06239319,0.045944214,0
8001.847804749,0.65218884,0.7567451,0.044571623,-0.7554503,0.6536935,-0.044492774,-0.06280587,-0.0046539577,0.99801487,0.6569097,0.7525995,0.045427486,-0.75133264,0.65845764,-0.04396375,-0.062999174,-0.0052509387,0.9979997,-0.030517578,-0.023788452,0.13214111,0
8001.852473938,0.67524993,0.73616594,0.045797117,-0.7349208,0.67678565,-0.043044172,-0.06268248,-0.004591684,0.998023,0.65682775,0.7526733,0.045388542,-0.75140274,0.65837365,-0.044022582,-0.06301725,-0.0051898197,0.9979989,-0.017364502,-0.07707214,-0.045181274,0
8001.85711261,0.67536753,0.7360694,0.045613397,-0.7348295,0.676891,-0.042943493,-0.06248469,-0.004515428,0.99803567,0.6572248,0.7523362,0.045231678,-0.75106734,0.65875983,-0.043971203,-0.06287793,-0.0050730724,0.9980083,-0.19647217,-0.068237305,-0.14111328,0
8001.8617818,0.67568433,0.7358091,0.04511842,-0.73459375,0.6771746,-0.042505115,-0.061828703,-0.0044236714,0.99807703,0.65760785,0.7520166,0.044977065,-0.7507559,0.6591255,-0.04380791,-0.06258981,-0.004958374,0.998027,-0.31782532,0.0074768066,-0.35688782,0
8001.866450989,0.6227179,0.781349,0.04142496,-0.7800813,0.6240782,-0.044714537,-0.06079008,-0.004470294,0.9981405,0.6580505,0.75166553,0.044368092,-0.75043684,0.6595267,-0.043233037,-0.061758723,-0.0048459303,0.9980793,-0.13647461,0.09411621,-0.33848572,0
8001.871089661,0.62309647,0.7810768,0.040863495,-0.77988017,0.6244167,-0.043481812,-0.059478484,-0.00477527,0.9982181,0.6574153,0.752265,0.043618042,-0.7510882,0.6588423,-0.042347252,-0.060593765,-0.004921269,0.99815035,-0.13018799,0.15934753,-0.35838318,0
8001.875758851,0.6233923,0.78086364,0.040424317,-0.7797473,0.6246791,-0.042071957,-0.058104683,-0.0052934187,0.9982964,0.6568006,0.75284266,0.04290488,-0.75174266,0.6581791,-0.041026786,-0.059125815,-0.0053070104,0.9982364,0.03829956,0.14527893,0.01914978,0
8001.88042804,0.654359,0.7550188,0.041966274,-0.7540404,0.65567416,-0.038916677,-0.056899015,-0.00617879,0.9983608,0.6562159,0.75338244,0.04237295,-0.7523643,0.6575561,-0.039596763,-0.0576941,-0.005895865,0.9983168,0.07435608,0.12043762,0.32022095,0
8001.885066712,0.65427905,0.75508076,0.04209494,-0.75417465,0.6555932,-0.037656233,-0.056030653,-0.007109249,0.99840367,0.6562009,0.7534,0.04229419,-0.75247115,0.6575266,-0.038025927,-0.056458287,-0.00687251,0.9983813,0.085006714,0.15829468,0.6789093,0
8001.889735901,0.65399194,0.7553035,0.042557348,-0.7544441,0.6553266,-0.03689366,-0.055754874,-0.007978986,0.9984126,0.65619147,0.7533956,0.04251818,-0.75254375,0.6575197,-0.03668368,-0.055593867,-0.007925275,0.998422,0.3791809,-0.08215332,0.86550903,0
8001.894405091,0.6657103,0.744925,0.04377807,-0.7441015,0.66709304,-0.03605224,-0.056060266,-0.008574985,0.99839056,0.65618193,0.7533742,0.04304086,-0.7525599,0.6575343,-0.036087297,-0.055488076,-0.008710992,0.9984213,0.29119873,-0.11462402,0.755661,0
8001.899043763,0.665381,0.74518627,0.04433358,-0.7443532,0.6667978,-0.036317598,-0.056624915,-0.008834806,0.99835646,0.65637153,0.75316525,0.043799922,-0.7523587,0.6577658,-0.036063425,-0.05597181,-0.009282243,0.9983892,0.07167053,-0.116867065,0.15263367,0
8001.903712952,0.6652205,0.7453135,0.044604324,-0.7444688,0.6666551,-0.03656909,-0.05699113,-0.008880017,0.9983352,0.6565884,0.7529421,0.044384755,-0.75212204,0.6580184,-0.03638957,-0.056605224,-0.009489783,0.9983516,-0.11148071,-0.1451416,-0.35462952,0
8001.908382142,0.64444005,0.76341844,0.043466523,-0.7625304,0.64584494,-0.037840605,-0.056960844,-0.008758538,0.99833804,0.6568096,0.75273603,0.044604793,-0.7519025,0.6582545,-0.03665519,-0.05695299,-0.009462974,0.998332,-0.13571167,-0.0074768066,-0.29733276,0
8001.913020813,0.6446406,0.76326644,0.043159604,-0.7623824,0.64602673,-0.037716523,-0.056670014,-0.008590515,0.998356,0.65659785,0.75293124,0.044428054,-0.75209457,0.65803313,-0.03668981,-0.05686004,-0.009323648,0.99833864,-0.033218384,-0.047424316,-0.24481201,0
8001.917659485,0.6449034,0.7630672,0.04275743,-0.762185,0.6462656,-0.03761549,-0.056335792,-0.008330714,0.9983771,0.65641844,0.7531102,0.044043344,-0.75227463,0.6578315,-0.036613334,-0.05654697,-0.009099022,0.9983584,0.035324097,-0.011672974,-0.0725708,0
8001.922054017,0.65829587,0.7515311,0.042983066,-0.7506701,0.6596491,-0.03684649,-0.05604502,-0.0080102105,0.99839616,0.6562197,0.75330997,0.043587442,-0.7524742,0.65760666,-0.036552384,-0.056198668,-0.008812034,0.9983807,0.027679443,0.028274536,0.16189575,0
8001.926448548,0.65845436,0.7514064,0.04273356,-0.7505456,0.659793,-0.03680033,-0.055847317,-0.0078421505,0.9984085,0.6562956,0.7532669,0.04318809,-0.75242746,0.65766007,-0.03655392,-0.055937935,-0.00850573,0.998398,-0.046081543,-0.059555054,0.10908508,0
8001.930843079,0.65861124,0.75128305,0.042486787,-0.75042516,0.65993524,-0.036710493,-0.055618495,-0.007705211,0.9984224,0.65637016,0.75321746,0.042913955,-0.75237674,0.6577191,-0.036534846,-0.055744015,-0.008307081,0.9984105,0.100112915,0.006134033,0.24301147,0
8001.93523761,0.63768584,0.76918,0.041459225,-0.768286,0.63898575,-0.03786713,-0.055618495,-0.007705211,0.9984224,0.6564493,0.7531619,0.04267911,-0.75232214,0.6577846,-0.036481276,-0.05554996,-0.008160329,0.99842256,-0.029174805,0.006134033,0.094573975,0
8001.939632142,0.6377539,0.76912904,0.04135799,-0.7682306,0.6390485,-0.037930265,-0.055603035,-0.0075823027,0.9984242,0.6560827,0.75348765,0.042566106,-0.7526443,0.65741265,-0.036540568,-0.055516366,-0.008063502,0.99842525,0.061645508,0.06239319,-0.082595825,0
8001.944026673,0.63785285,0.76905495,0.04121073,-0.76814854,0.63914007,-0.038051497,-0.055603117,-0.007384704,0.99842566,0.65569687,0.7538292,0.042462893,-0.7529792,0.6570224,-0.03665753,-0.05553259,-0.007937448,0.9984253,-0.10115051,-0.0018005371,-0.068237305,0
8001.948421204,0.6379347,0.7689935,0.04108885,-0.7680827,0.6392154,-0.038110405,-0.055571284,-0.007247684,0.99842834,0.6553124,0.7541743,0.042270843,-0.753317,0.65662867,-0.036773592,-0.055489946,-0.0077451547,0.99842924,-0.0056915283,0.0016479492,-0.039657593,0
8001.952815735,0.63806087,0.76889884,0.040900983,-0.76798123,0.63933176,-0.038206697,-0.055526387,-0.0070329895,0.99843246,0.6549656,0.7544831,0.042133637,-0.75361973,0.6562754,-0.036876544,-0.055474002,-0.0075998735,0.9984312,-0.020492554,0.057006836,0.11836243,0
8001.957210267,0.6381849,0.7688058,0.040716283,-0.76788265,0.6394459,-0.038280297,-0.055465966,-0.0068354136,0.9984372,0.6546516,0.7547675,0.04192142,-0.7538965,0.65595084,-0.036995154,-0.055421125,-0.007385474,0.99843574,0.13214111,0.0071868896,0.24765015,0
8001.961604798,0.63830435,0.7687159,0.04053828,-0.76778543,0.639556,-0.038386762,-0.05543502,-0.0066222656,0.9984403,0.6546516,0.7547675,0.04192142,-0.7538965,0.65595084,-0.036995154,-0.055421125,-0.007385474,0.99843574,0.13183594,0.0050964355,0.24765015,0
8001.965999329,0.6736373,0.7378533,0.042254925,-0.73697335,0.6749301,-0.03660278,-0.05552659,-0.006483756,0.99843615,0.65396756,0.75538087,0.041547615,-0.75449115,0.6552492,-0.037304323,-0.055403013,-0.0069514927,0.9984399,-0.0013427734,-0.010635376,0.18539429,0
8001.97039386,0.6736471,0.73784524,0.042238165,-0.73695624,0.67493993,-0.03676305,-0.055633664,-0.0063623562,0.9984309,0.6543386,0.75506085,0.041522756,-0.75416255,0.6556194,-0.037445847,-0.055497017,-0.006812643,0.9984357,0.052383423,0.09829712,0.26200867,0
8001.974788392,0.66410494,0.7464753,0.041704156,-0.74555504,0.6653847,-0.037559588,-0.055786617,-0.0061492403,0.99842376,0.65473026,0.75471914,0.041560266,-0.7538126,0.65601355,-0.037585862,-0.055630874,-0.0067200507,0.9984288,-0.027526855,-0.052215576,0.027542114,0
8001.979182923,0.6641639,0.7464279,0.04161433,-0.7454913,0.6654403,-0.037842724,-0.05593872,-0.005889351,0.9984169,0.6548788,0.7545949,0.04147667,-0.7536718,0.6561591,-0.03786894,-0.055791005,-0.006460234,0.9984216,-0.08828735,-0.13137817,0.104156494,0
8001.983577454,0.6643,0.74631816,0.041406754,-0.74536186,0.66556644,-0.03816784,-0.05604431,-0.005508117,0.9984131,0.65504116,0.75446206,0.041329663,-0.7535224,0.6563148,-0.038143378,-0.055903003,-0.0061573437,0.9984172,-0.034576416,-0.0010375977,-0.087387085,0
8001.987971985,0.626854,0.77814907,0.03921963,-0.7771129,0.6280589,-0.040466625,-0.0561213,-0.005111414,0.9984108,0.6551803,0.7543524,0.0411262,-0.7533938,0.65644425,-0.038455345,-0.056005932,-0.0057890397,0.9984136,-3.0517578E-4,0.06687927,0.13304138,0
8001.992366517,0.62705404,0.7780031,0.03891503,-0.7769547,0.6282425,-0.040652115,-0.05607555,-0.004744148,0.99841523,0.65456325,0.75490344,0.040838838,-0.7539236,0.65581393,-0.03882444,-0.056091383,-0.005376313,0.9984112,0.15248108,0.05369568,0.051483154,0
8001.996761048,0.62717146,0.7779173,0.038736194,-0.77685666,0.6283507,-0.040853553,-0.056120604,-0.004470292,0.998414,0.65400374,0.7554026,0.04057066,-0.75440735,0.6552415,-0.039090708,-0.056112807,-0.005041338,0.9984117,-0.024246216,0.10847473,0.14724731,0
8002.001155579,0.62726706,0.7778476,0.03859064,-0.776775,0.6284388,-0.041051388,-0.056183573,-0.00422606,0.9984114,0.65400374,0.7554026,0.04057066,-0.75440735,0.6552415,-0.039090708,-0.056112807,-0.005041338,0.9984117,-0.023635864,0.1060791,0.1473999,0
8002.00555011,0.6447028,0.7634133,0.039477844,-0.7623603,0.64589715,-0.040294006,-0.056259602,-0.0041186814,0.9984076,0.6529025,0.7563739,0.04021146,-0.75534946,0.654124,-0.039609727,-0.056263044,-0.0045124176,0.99840575,0.020202637,-0.024246216,0.12825012,0
8002.009944642,0.64463085,0.763468,0.039593406,-0.7624088,0.64583236,-0.040414076,-0.05642556,-0.0041342024,0.9983982,0.6527029,0.75654835,0.04016874,-0.7555161,0.6539229,-0.039751735,-0.05634137,-0.0044020563,0.9984018,0.08409119,0.08602905,0.08036804,0
8002.014339173,0.6478527,0.7607203,0.039890677,-0.75966364,0.64906615,-0.04030019,-0.05654887,-0.004194914,0.99839103,0.65247774,0.7567342,0.04032524,-0.7556946,0.6537076,-0.03989938,-0.056554142,-0.0044401083,0.99838966,0.06135559,-0.004348755,0.08528137,0
8002.018733704,0.6478168,0.7607481,0.039948612,-0.75969565,0.6490332,-0.04023062,-0.056533337,-0.0042867186,0.9983915,0.6523333,0.7568524,0.040443897,-0.7558086,0.6535705,-0.039988033,-0.056697976,-0.00448232,0.99838126,-0.024993896,0.020492554,-0.09188843,0
8002.023128235,0.6478561,0.7607178,0.03988529,-0.75968015,0.64906776,-0.039963238,-0.056289006,-0.0044096373,0.99840474,0.6522276,0.7569409,0.04049261,-0.7559017,0.6534673,-0.039913464,-0.056672726,-0.0045757685,0.9983823,-0.008239746,0.07914734,-0.12075806,0
8002.027522767,0.64320046,0.76468045,0.03945774,-0.76365066,0.64439416,-0.03992092,-0.05595309,-0.004454775,0.99842346,0.6520797,0.75707155,0.04043214,-0.7560487,0.6533148,-0.03962484,-0.05641376,-0.004730112,0.9983962,-0.13124084,-0.035308838,-0.18315125,0
8002.031917298,0.6433904,0.7645351,0.039177977,-0.76352084,0.644567,-0.039617594,-0.055541866,-0.0044236197,0.9984466,0.65192086,0.757221,0.040195163,-0.756213,0.65314156,-0.039345104,-0.056046072,-0.004746213,0.9984169,-0.14006042,-0.026046753,-0.082901,0
8002.036311829,0.643628,0.76435304,0.038827833,-0.763356,0.6447834,-0.039271954,-0.055053167,-0.004362927,0.9984739,0.6517778,0.75736314,0.03983405,-0.7563726,0.652977,-0.03900811,-0.05555402,-0.00470476,0.99844456,0.013168335,-0.012268066,-0.035308838,0
8002.04070636,0.65415114,0.75535685,0.039016373,-0.75438637,0.6552999,-0.038510717,-0.054656763,-0.00424159,0.9984961,0.65166014,0.7574834,0.039470706,-0.75650793,0.65283793,-0.03870908,-0.055089463,-0.0046347384,0.99847066,-0.072128296,0.020050049,0.09861755,0
8002.045100892,0.65431255,0.7552303,0.038760915,-0.75427294,0.6554461,-0.038247503,-0.054291356,-0.00421049,0.99851626,0.6517419,0.75743115,0.039121356,-0.7564663,0.6528994,-0.038484618,-0.054691758,-0.0045119473,0.9984931,0.05836487,-0.042495728,0.13676453,0
8002.049495423,0.65450287,0.7550807,0.038459316,-0.7541341,0.65561897,-0.038020976,-0.053923562,-0.0041186423,0.9985366,0.65181476,0.75738275,0.038845606,-0.7564297,0.652956,-0.038243745,-0.054329623,-0.004456132,0.99851304,0.045181274,0.028427124,-0.0023956299,0
8002.053889954,0.62832785,0.7770696,0.03697247,-0.7760956,0.6294012,-0.039112587,-0.053663716,-0.0041186423,0.9985506,0.6519171,0.75730854,0.038572185,-0.75636417,0.6530427,-0.038058445,-0.05401127,-0.0043636668,0.99853075,0.052215576,0.095443726,0.11717224,0
8002.058284485,0.6284205,0.7770013,0.036830902,-0.7760351,0.6294855,-0.03895313,-0.053451158,-0.0041031297,0.998562,0.65148336,0.7576897,0.038414054,-0.7567562,0.65260005,-0.037857898,-0.053753555,-0.0044062817,0.9985445,-0.026489258,0.06655884,0.0070343018,0
8002.062679017,0.62847155,0.7769638,0.036752906,-0.7760117,0.6295312,-0.038681462,-0.053191196,-0.0042104833,0.99857545,0.6510426,0.75807685,0.03824916,-0.75715077,0.65215033,-0.03771844,-0.053537678,-0.004404069,0.9985561,-0.110443115,0.16339111,0.08828735,0
8002.067073548,0.62855816,0.77689993,0.036620617,-0.7759604,0.6296097,-0.038435563,-0.052917287,-0.0042571584,0.99858993,0.6510426,0.75807685,0.03824916,-0.75715077,0.65215033,-0.03771844,-0.053537678,-0.004404069,0.9985561,-0.11312866,0.16384888,0.088134766,0
8002.071468079,0.64612234,0.7623191,0.03735657,-0.7614225,0.6471864,-0.037222106,-0.05255179,-0.0043940977,0.9986085,0.6502259,0.7587915,0.037970062,-0.7578952,0.6513172,-0.037159193,-0.052926634,-0.004615459,0.9985877,-0.059249878,-0.02154541,-0.15621948,0
8002.07586261,0.6462695,0.7622054,0.03712844,-0.76132494,0.6473201,-0.036893576,-0.052154474,-0.0044236155,0.9986293,0.6501673,0.7588492,0.037819713,-0.7579703,0.6512492,-0.03681804,-0.052569397,-0.0047283354,0.998606,-8.8500977E-4,0.14154053,-0.05117798,0
8002.080257142,0.6557768,0.754033,0.03729516,-0.75317955,0.6568218,-0.036134038,-0.05174253,-0.004394085,0.9986508,0.65011036,0.75890803,0.037617486,-0.75804555,0.65118015,-0.036485754,-0.052185092,-0.0047960016,0.9986259,-0.04324341,0.07420349,0.06359863,0
8002.084651673,0.6559107,0.75392705,0.037084732,-0.75308913,0.6569432,-0.0358111,-0.051361516,-0.004439226,0.9986702,0.6502365,0.75881386,0.03733662,-0.7579677,0.6512899,-0.03614368,-0.051743288,-0.004798014,0.9986489,0.0056915283,-0.049835205,0.13526917,0
8002.089046204,0.6560438,0.7538214,0.03687512,-0.753,0.65706396,-0.03546578,-0.05096418,-0.0044998596,0.9986903,0.65033716,0.75873905,0.037104703,-0.7579064,0.6513771,-0.035859156,-0.051376894,-0.0048013492,0.9986678,-0.0029907227,0.008224487,0.15412903,0
8002.093440735,0.6756123,0.73629695,0.03761249,-0.73551774,0.67664295,-0.034174245,-0.05061263,-0.004576111,0.9987079,0.6504591,0.7586445,0.03689713,-0.75782937,0.6514865,-0.035493806,-0.050965168,-0.0048744623,0.9986885,-0.011230469,0.013763428,0.0055236816,0
8002.097835267,0.67569405,0.73622894,0.0374764,-0.7354615,0.6767166,-0.033926748,-0.05033876,-0.0046383482,0.9987215,0.650995,0.75819206,0.036744993,-0.75739187,0.6520126,-0.03517267,-0.050625842,-0.0049331225,0.9987055,-0.037857056,0.0047912598,6.1035156E-4,0
8002.102229798,0.67580116,0.7361397,0.037298113,-0.73538595,0.6768133,-0.033633374,-0.050002716,-0.0046990355,0.998738,0.6515256,0.75774133,0.036638577,-0.75695336,0.652536,-0.034906175,-0.05035784,-0.004991421,0.99871874,-0.055511475,0.0053863525,0.105789185,0
8002.106624329,0.6562398,0.75368506,0.036168166,-0.7529161,0.6572191,-0.034359563,-0.0496667,-0.0046834825,0.998755,0.65203524,0.75731206,0.03644855,-0.7565394,0.65303373,-0.034569178,-0.049981788,-0.0050344435,0.9987374,-0.07795715,0.053100586,0.124801636,0
8002.11101886,0.65635693,0.753592,0.03598151,-0.75284004,0.65732515,-0.033995252,-0.0492701,-0.004775302,0.9987741,0.65210855,0.75725925,0.036233,-0.7564987,0.65309495,-0.03430131,-0.049638577,-0.005042041,0.9987545,0.071380615,0.054000854,0.16294861,0
8002.115413392,0.65645874,0.7535111,0.035819184,-0.75277114,0.65741754,-0.03373133,-0.04896509,-0.0048204213,0.99878883,0.65219975,0.75718874,0.03606531,-0.7564448,0.6531759,-0.033948164,-0.04926216,-0.0051404336,0.9987726,0.006134033,-0.09397888,0.22984314,0
8002.119807923,0.68263006,0.72984135,0.03670982,-0.7291391,0.68360037,-0.03234998,-0.04870521,-0.0046834922,0.9988022,0.6522755,0.7571321,0.03588467,-0.7563984,0.6532416,-0.03371994,-0.048971806,-0.0051484164,0.9987869,0.0035858154,0.105773926,0.14830017,0
8002.124202454,0.68271524,0.7297692,0.03656433,-0.72906864,0.68367815,-0.032298423,-0.048568625,-0.004607282,0.9988093,0.65289146,0.7566105,0.035682965,-0.7558815,0.65384644,-0.03358683,-0.048743326,-0.005043537,0.9987986,-0.1126709,-0.0050964355,-0.019302368,0
8002.128596985,0.682801,0.7296962,0.036417566,-0.72899646,0.68375665,-0.032268308,-0.04844681,-0.0045154374,0.99881566,0.6535496,0.75605,0.03551487,-0.7553244,0.65449524,-0.03348162,-0.04855809,-0.0049433475,0.9988081,0.063308716,-0.005996704,0.1625061,0
8002.132991517,0.6233261,0.7812399,0.03359551,-0.7804635,0.6242157,-0.035090245,-0.048384752,-0.0043474077,0.9988193,0.6541447,0.75554025,0.035406962,-0.75481516,0.6550843,-0.033445552,-0.048464004,-0.0048474865,0.99881315,0.043533325,0.06417847,0.10983276,0
8002.137386048,0.6234509,0.78114885,0.033398375,-0.7803734,0.62433064,-0.035051286,-0.0482319,-0.0042104498,0.9988273,0.6535133,0.7560936,0.03525255,-0.75536424,0.6544465,-0.03353595,-0.048427228,-0.0047123237,0.9988156,0.10429382,-0.032928467,0.22460938,0
8002.141780579,0.62356484,0.7810656,0.03321823,-0.78028893,0.6244358,-0.035059433,-0.04812637,-0.004057988,0.998833,0.652918,0.75661874,0.035018105,-0.7558858,0.6538407,-0.033601727,-0.048319954,-0.004530516,0.9988216,0.055374146,0.056549072,0.104888916,0
8002.14617511,0.67583144,0.73620796,0.035352293,-0.7354974,0.6767437,-0.032581788,-0.04791141,-0.0039817253,0.9988436,0.6523361,0.7571287,0.034837995,-0.756393,0.65325093,-0.033658393,-0.048241686,-0.0043946286,0.998826,0.13945007,-0.04953003,0.11431885,0
8002.150569642,0.6760487,0.73602504,0.035005234,-0.7353254,0.67694324,-0.032320596,-0.04748532,-0.0038899437,0.9988644,0.6527732,0.7567594,0.034674846,-0.75602627,0.6536794,-0.033578895,-0.04807738,-0.004295691,0.9988344,0.49438477,-0.06478882,-0.01512146,0
8002.154964173,0.6762954,0.73581696,0.03461093,-0.7351347,0.67716944,-0.03191405,-0.046920367,-0.0038603693,0.9988912,0.65323603,0.75636995,0.034456033,-0.7556411,0.65413076,-0.033459805,-0.047846735,-0.004179244,0.99884593,0.8000946,-0.098602295,-0.044143677,0
8002.159358704,0.6766196,0.7355431,0.03409233,-0.7348817,0.6774673,-0.031414535,-0.04620318,-0.00379814,0.99892485,0.6536884,0.7559884,0.034248892,-0.7552659,0.6545721,-0.033298824,-0.0475919,-0.004099964,0.99885845,1.0372772,-0.07527161,0.1662445,0
8002.163753235,0.6769813,0.73523694,0.03351323,-0.73459727,0.6778002,-0.030888308,-0.04542549,-0.0037079174,0.9989609,0.65406764,0.7556739,0.03394878,-0.75495994,0.65493584,-0.033082552,-0.0472339,-0.0039917435,0.99887586,1.1780853,-0.07136536,0.08934021,0
8002.168147767,0.677278,0.7349851,0.033037674,-0.73436856,0.6780731,-0.03032722,-0.044692006,-0.0037218702,0.9989939,0.6544458,0.75535893,0.033669215,-0.7546524,0.65529984,-0.032891795,-0.04690854,-0.0038826577,0.99889165,1.1038513,-0.11911011,-0.021255493,0
8002.172542298,0.66401595,0.7470263,0.03216101,-0.7464158,0.6647834,-0.030432004,-0.04411362,-0.00379815,0.99901927,0.65475905,0.7550974,0.033444095,-0.75440055,0.6556014,-0.03266051,-0.046587862,-0.0038454786,0.9989068,0.90185547,-0.15667725,0.20365906,0
8002.176936829,0.6641844,0.7468877,0.03190252,-0.74628854,0.66493934,-0.030148748,-0.043730978,-0.0037841573,0.9990362,0.65469664,0.7551598,0.03325714,-0.7544727,0.6555294,-0.032436732,-0.04629595,-0.003855391,0.9989203,0.5150299,-0.12808228,0.13168335,0
8002.18133136,0.66427237,0.7468154,0.03176759,-0.7462256,0.6650206,-0.029922253,-0.043472495,-0.003829264,0.99904734,0.654648,0.75521016,0.033068284,-0.7545279,0.65547174,-0.03231717,-0.04608158,-0.0037945712,0.99893045,0.1869049,-0.14199829,0.1506958,0
8002.185725892,0.6391679,0.76845914,0.030576639,-0.76785046,0.6398877,-0.030812195,-0.043243524,-0.0037841196,0.99905735,0.6545539,0.7552992,0.03289795,-0.7546243,0.65536916,-0.03214703,-0.04584093,-0.0037836265,0.9989416,0.16072083,-0.094558716,-0.098464966,0
8002.190120423,0.6391692,0.7684582,0.030574588,-0.7678538,0.6398885,-0.030714871,-0.04316742,-0.0038448146,0.9990605,0.65396255,0.7558206,0.032684006,-0.75514907,0.65476835,-0.032068923,-0.045638803,-0.003709418,0.99895114,-0.24224854,-0.12748718,0.16490173,0
8002.194514954,0.63922983,0.7684115,0.030478468,-0.76781183,0.6399445,-0.030594455,-0.04301366,-0.0038448398,0.99906707,0.65338624,0.7563253,0.032534383,-0.75566006,0.6541851,-0.03193246,-0.045434836,-0.0037207082,0.9989604,-0.14320374,0.0448761,-0.122406006,0
8002.198909485,0.672748,0.739191,0.0317278,-0.73862904,0.6734846,-0.029075827,-0.04286078,-0.0038743683,0.9990735,0.6526947,0.7569303,0.032343186,-0.7562731,0.65348494,-0.031755865,-0.04517276,-0.0037333954,0.9989722,-0.36497498,-0.0074920654,0.006729126,0
8002.203304017,0.67277527,0.7391682,0.031682722,-0.73861235,0.67350936,-0.028931828,-0.042724095,-0.0039366293,0.99907917,0.6526947,0.7569303,0.032343186,-0.7562731,0.65348494,-0.031755865,-0.04517276,-0.0037333954,0.9989722,-0.36631775,-0.006881714,0.006729126,0
8002.207698548,0.67275816,0.7391826,0.03171106,-0.7386341,0.6734928,-0.028761148,-0.042616908,-0.004073572,0.9990832,0.65286565,0.7567962,0.0320311,-0.756163,0.6536395,-0.031191954,-0.044542745,-0.003856577,0.999,-0.022598267,0.12373352,-0.036361694,0
8002.212093079,0.67277956,0.73916465,0.031675603,-0.7386225,0.67351204,-0.0286075,-0.042479552,-0.0041497736,0.9990887,0.65286565,0.7567962,0.0320311,-0.756163,0.6536395,-0.031191954,-0.044542745,-0.003856577,0.999,-0.02394104,0.1244812,-0.036514282,0
8002.21648761,0.6543363,0.75556815,0.030999435,-0.7550123,0.6550565,-0.029286733,-0.042434495,-0.0042415825,0.99909025,0.65313673,0.75656503,0.031963818,-0.7559542,0.6539054,-0.03067397,-0.044108167,-0.004128886,0.9990182,-0.18719482,0.18284607,0.1598053,0
8002.220882142,0.6542771,0.7556153,0.031096501,-0.7550617,0.65500116,-0.029242044,-0.042463984,-0.0043473807,0.99908847,0.65291816,0.75675255,0.031992506,-0.7561512,0.65368736,-0.030468196,-0.04396998,-0.004297932,0.9990236,-0.048034668,0.1790924,0.09277344,0
8002.225276673,0.6450653,0.76350605,0.030807626,-0.76294565,0.6457854,-0.029579833,-0.042479504,-0.0044236192,0.9990876,0.65277606,0.7568707,0.032096233,-0.75627506,0.65354943,-0.030350117,-0.043947592,-0.0044617523,0.99902385,-0.16281128,0.021835327,0.3082428,0
8002.229671204,0.6450988,0.7634799,0.030756196,-0.762925,0.6458161,-0.029444087,-0.042342816,-0.004470323,0.9990932,0.65247434,0.7571305,0.03210326,-0.756539,0.6532479,-0.030266007,-0.043886706,-0.0045395717,0.9990262,0.26200867,-0.04953003,-0.08439636,0
8002.234065735,0.64518934,0.7634089,0.030616893,-0.7628585,0.64590013,-0.029320365,-0.042158887,-0.00443917,0.99910104,0.6521382,0.75742173,0.03206428,-0.7568323,0.65291005,-0.030221019,-0.04382515,-0.0045590047,0.9990288,0.26020813,-0.049835205,0.15965271,0
8002.238460267,0.65836143,0.7520657,0.030941855,-0.75153565,0.65907323,-0.028578052,-0.04188552,-0.004439221,0.9991126,0.6518332,0.7576893,0.03194394,-0.7571016,0.65259975,-0.030177861,-0.04371205,-0.004513876,0.999034,0.44425964,0.041152954,0.31288147,0
8002.242854798,0.6584859,0.7519648,0.030748107,-0.7514455,0.65918833,-0.02830005,-0.041549426,-0.0044703404,0.99912655,0.6517918,0.75772864,0.031855628,-0.7571448,0.65255415,-0.030081235,-0.043580934,-0.004512623,0.9990397,0.6085663,0.02229309,0.0014953613,0
8002.247249329,0.65865093,0.75183064,0.030490879,-0.7513217,0.65934134,-0.028017383,-0.04116822,-0.0044547818,0.99914235,0.6517929,0.7577298,0.031805985,-0.75715107,0.6525525,-0.029959582,-0.043456342,-0.0045544943,0.99904495,0.4420166,0.09396362,0.11627197,0
8002.25164386,0.6490633,0.76015127,0.029780284,-0.75964594,0.64973116,-0.028060224,-0.040679194,-0.00440961,0.9991625,0.6518304,0.7577033,0.0316672,-0.75713205,0.6525832,-0.029769372,-0.043221835,-0.0045716716,0.999055,0.7532654,0.08872986,-0.24795532,0
8002.256038392,0.6492692,0.7599887,0.029436229,-0.7594967,0.64992136,-0.027689911,-0.04017526,-0.004378512,0.999183,0.65166616,0.7578526,0.031472635,-0.7572884,0.65240985,-0.02959099,-0.042958666,-0.0045504114,0.9990665,0.70521545,0.15545654,0.05355835,0
8002.260432923,0.64946073,0.75983757,0.029116187,-0.7593596,0.6500983,-0.027301287,-0.039672922,-0.004378539,0.99920315,0.65161854,0.75790054,0.031305235,-0.7573447,0.6523541,-0.029379187,-0.042688597,-0.0045648296,0.999078,0.45129395,0.2512207,0.06300354,0
8002.264827454,0.66189206,0.74902904,0.029228898,-0.7485759,0.66252255,-0.026418202,-0.03915281,-0.004394052,0.9992236,0.6516046,0.7579192,0.03114312,-0.75737643,0.65233177,-0.029052733,-0.04233527,-0.004656173,0.9990926,0.48451233,0.27531433,0.24945068,0
8002.269221985,0.6620918,0.74886566,0.028890885,-0.7484254,0.6627074,-0.026044974,-0.03865039,-0.00437851,0.99924326,0.6516046,0.7579192,0.03114312,-0.75737643,0.65233177,-0.029052733,-0.04233527,-0.004656173,0.9990926,0.47958374,0.27516174,0.2492981,0
8002.273616517,0.6623058,0.74869037,0.02852865,-0.7482613,0.66290593,-0.02571175,-0.03816195,-0.0043178424,0.99926233,0.6523134,0.7573237,0.03079014,-0.7568072,0.65302205,-0.028372252,-0.041593622,-0.004794602,0.9991231,0.33114624,0.15486145,0.11985779,0
8002.278011048,0.6620861,0.7488974,0.028186366,-0.74847394,0.6626726,-0.025528153,-0.037796304,-0.0041949213,0.9992767,0.6527195,0.7569848,0.030518817,-0.75648063,0.6534151,-0.028033022,-0.041162025,-0.0047891946,0.99914104,0.28926086,0.081832886,0.07661438,0
8002.282405579,0.6623251,0.7487004,0.027807942,-0.7482841,0.66289616,-0.025290057,-0.03736845,-0.0040579992,0.99929327,0.6531405,0.7566323,0.030249141,-0.7561338,0.65382385,-0.027857488,-0.040855486,-0.004677545,0.9991541,0.18450928,0.042175293,0.14830017,0
8002.28680011,0.6625398,0.74852294,0.027467579,-0.7481183,0.66309667,-0.02493753,-0.03687997,-0.004026891,0.99931157,0.65352696,0.7563118,0.02991629,-0.75582093,0.6541955,-0.027623637,-0.040463183,-0.0045585656,0.99917066,0.4095459,-0.058670044,-0.014663696,0
8002.291194642,0.6681131,0.7435599,0.027269017,-0.74316853,0.6686578,-0.0244403,-0.036406465,-0.003936591,0.99932927,0.6539828,0.75593,0.029601455,-0.7554485,0.6546371,-0.027344264,-0.040048562,-0.004479698,0.9991877,0.33787537,0.15112305,-0.15383911,0
8002.295589173,0.66827273,0.7434256,0.027017042,-0.74304205,0.66880727,-0.02419562,-0.036056835,-0.003905522,0.99934214,0.6544455,0.7555397,0.029338665,-0.7550677,0.6550878,-0.027068136,-0.039670452,-0.0044380575,0.99920297,0.09980774,0.0071868896,0.15740967,0
8002.299983704,0.66837007,0.74334365,0.026863357,-0.7429707,0.66889775,-0.02388104,-0.03572066,-0.0039973157,0.99935377,0.65488297,0.7551716,0.0290552,-0.7547096,0.65551245,-0.02677306,-0.0392643,-0.0043950197,0.9992192,0.09173584,-0.09725952,0.008834839,0
8002.304378235,0.62306017,0.78176665,0.02523757,-0.7813704,0.6235582,-0.025209505,-0.035445046,-0.0040128524,0.9993636,0.655242,0.7548671,0.028870711,-0.75441563,0.6558628,-0.026477989,-0.038922586,-0.004431024,0.99923235,-0.19348145,-0.049224854,0.13796997,0
8002.308772767,0.6231603,0.7816918,0.025083017,-0.7813071,0.62365144,-0.024864312,-0.03507929,-0.0041030864,0.9993762,0.6546916,0.7553553,0.02858727,-0.7549132,0.65530056,-0.02621384,-0.03853402,-0.004418929,0.9992475,-0.015106201,-0.16804504,-0.10160828,0
8002.313167298,0.6232779,0.78160375,0.024901513,-0.7812281,0.6237614,-0.024578938,-0.0347436,-0.0041342536,0.9993877,0.6541538,0.75583285,0.028276516,-0.75540286,0.65474963,-0.025875457,-0.038071554,-0.0044336333,0.9992652,-0.13812256,0.009429932,0.1473999,0
