Time,Rot1,Rot2,Rot3,Rot4,Rot5,Rot6,Rot7,Rot8,Rot9,FRot1,FRot2,FRot3,FRot4,FRot5,FRot6,FRot7,FRot8,FRot9,AccX,AccY,AccZ,Imid
6011.341531701,-0.91365904,0.3927074,-0.10491953,-0.40617284,-0.8920857,0.19800735,-0.015838265,0.22352666,0.9745692,-0.88951975,0.44165334,-0.11703356,-0.4565823,-0.86875093,0.19184487,-0.01694409,0.22408526,0.9744222,-0.0622406,2.281662,9.536102,0
6011.34595675,-0.9133978,0.39314538,-0.105552256,-0.406734,-0.89193875,0.19751677,-0.016493334,0.22334306,0.9746004,-0.8900122,0.44060424,-0.11724397,-0.4555982,-0.8693506,0.1914674,-0.017564759,0.22382449,0.97447115,-0.11491394,2.281662,9.516937,0
6011.350381799,-0.89355993,0.43398306,-0.11493134,-0.44862247,-0.8728483,0.19202505,-0.016982004,0.2231467,0.974637,-0.89049745,0.43956223,-0.11747071,-0.4546252,-0.8699316,0.19114143,-0.018172929,0.22361608,0.9745079,-0.08618164,2.3918,9.603134,0
6011.35477633,-0.89343566,0.43416277,-0.11521953,-0.4488538,-0.8728368,0.1915363,-0.017409924,0.22284207,0.9746991,-0.8905833,0.43931454,-0.117746286,-0.454436,-0.87013394,0.19066943,-0.018691184,0.22331516,0.97456706,0.0,2.300827,9.593552,0
6011.359201379,-0.89334697,0.43429074,-0.11542495,-0.4490178,-0.8728362,0.19115488,-0.017730275,0.22259547,0.9747496,-0.8906437,0.43913582,-0.117955066,-0.45429915,-0.87030596,0.19020982,-0.019129055,0.22299609,0.9746316,0.03829956,2.3726501,9.373291,0
6011.363626428,-0.8785024,0.4620189,-0.12154028,-0.47739968,-0.85856754,0.18695292,-0.017974764,0.22226188,0.9748213,-0.8907328,0.43891403,-0.11810852,-0.4541073,-0.8705093,0.1897369,-0.019536378,0.22263882,0.9747053,0.11491394,2.2385712,9.397232,0
6011.368020959,-0.87849754,0.46202534,-0.121550955,-0.47740114,-0.8586512,0.18656455,-0.018172316,0.22192506,0.9748944,-0.89050645,0.43931976,-0.11830653,-0.45453775,-0.8703955,0.18922782,-0.019841954,0.22228338,0.97478014,-0.028717041,2.324768,9.411606,0
6011.372446008,-0.8785354,0.46197513,-0.12146893,-0.47732815,-0.85875756,0.18626198,-0.018263966,0.22161825,0.97496253,-0.8903308,0.439652,-0.11839397,-0.4548711,-0.87033707,0.18869452,-0.020082735,0.22185455,0.97487295,-0.0143585205,2.3774414,9.469055,0
6011.376871057,-0.8936127,0.43380243,-0.115203865,-0.4484667,-0.87341243,0.18981212,-0.018279515,0.22128358,0.97503823,-0.89015317,0.4400133,-0.11838756,-0.45521408,-0.8702499,0.18826881,-0.020185988,0.22147976,0.974956,-0.02394104,2.3774414,9.440323,0
6011.381265588,-0.8937231,0.43364263,-0.11494866,-0.44824904,-0.87358046,0.18955237,-0.018218914,0.22093293,0.9751188,-0.89027,0.43982753,-0.118199445,-0.45498365,-0.87044424,0.1879274,-0.02023038,0.22108492,0.97504467,0.15800476,2.2625122,9.469055,0
6011.385690637,-0.893865,0.43343684,-0.1146202,-0.44797197,-0.8737598,0.18937986,-0.018066324,0.22062668,0.97519094,-0.890397,0.43962705,-0.11798785,-0.45473334,-0.8706518,0.18757132,-0.020264903,0.22066596,0.97513884,0.15322876,2.3774414,9.344559,0
6011.390115686,-0.9047793,0.41154423,-0.1095715,-0.42550343,-0.88437676,0.1918978,-0.017928062,0.22024816,0.9752791,-0.8905144,0.4394632,-0.11771234,-0.4545064,-0.8708304,0.1872923,-0.020199418,0.2202875,0.9752258,0.1197052,2.3630676,9.378082,0
6011.394510217,-0.9049575,0.41125917,-0.1091689,-0.42513308,-0.884589,0.19173974,-0.017714892,0.21992762,0.9753553,-0.8908687,0.43885663,-0.11729334,-0.45381442,-0.8712571,0.18698516,-0.020132978,0.21980867,0.97533524,0.31123352,2.1044922,9.497787,0
6011.398935266,-0.9051838,0.41089645,-0.10865679,-0.42466414,-0.88483334,0.19165125,-0.017394328,0.21962227,0.9754299,-0.8912159,0.43823835,-0.1169671,-0.45313495,-0.8716414,0.18684185,-0.020072104,0.21951832,0.9754019,0.31123352,2.1954803,9.646225,0
6011.403360315,-0.919609,0.37949476,-0.10150343,-0.3924616,-0.8987974,0.1952872,-0.017120551,0.21942408,0.97547936,-0.8915874,0.43760732,-0.11649806,-0.45241228,-0.8720408,0.18672957,-0.01987684,0.21919088,0.97547954,0.3543396,2.3103943,9.607925,0
6011.407754846,-0.91974175,0.37926638,-0.10115413,-0.3921605,-0.89894265,0.1952235,-0.016890064,0.21922384,0.97552836,-0.89224404,0.4363938,-0.11602153,-0.4511207,-0.8727092,0.18673173,-0.019764494,0.21894999,0.9755359,0.25378418,2.2194214,9.454697,0
6011.412179895,-0.9198966,0.37899944,-0.10074605,-0.3918083,-0.8991186,0.19512123,-0.016631808,0.21896447,0.9755912,-0.8928994,0.43517554,-0.11555508,-0.44982746,-0.8733691,0.1867666,-0.019645981,0.21874362,0.97558457,0.4165802,2.2242126,9.74678,0
6011.416604944,-0.87944096,0.46108213,-0.1182659,-0.47572312,-0.85994864,0.18486692,-0.01646375,0.21884137,0.9756215,-0.8935337,0.43399677,-0.11508407,-0.44857016,-0.87402695,0.18671277,-0.01955384,0.21845742,0.97565055,0.22505188,2.2385712,9.737213,0
6011.420999475,-0.8795931,0.46087348,-0.11794766,-0.47545025,-0.8600876,0.18492258,-0.016219411,0.21873486,0.9756495,-0.8933265,0.43443263,-0.11504763,-0.44898593,-0.87384117,0.18658295,-0.019475637,0.21833427,0.97567976,0.37828064,2.2385712,9.3302,0
6011.425424524,-0.8796719,0.46076524,-0.117782675,-0.47530806,-0.8601686,0.1849115,-0.016112156,0.21864451,0.9756715,-0.8933265,0.43443263,-0.11504763,-0.44898593,-0.87384117,0.18658295,-0.019475637,0.21833427,0.97567976,0.37828064,2.2385712,9.3302,0
6011.429849573,-0.87978595,0.46060848,-0.11754373,-0.47510213,-0.86028713,0.1848894,-0.015959727,0.21850838,0.9757046,-0.8933265,0.43443263,-0.11504763,-0.44898593,-0.87384117,0.18658295,-0.019475637,0.21833427,0.97567976,0.37828064,2.2385712,9.3302,0
6011.434274621,-0.8976649,0.42670116,-0.11010843,-0.4403924,-0.8776336,0.18924567,-0.0158835,0.21837011,0.97573674,-0.892706,0.43571907,-0.1149995,-0.450223,-0.8733208,0.18603747,-0.019371383,0.21785219,0.9757895,0.3878479,2.2673035,9.492996,0
6011.438669153,-0.89772964,0.42660275,-0.10996093,-0.44026288,-0.8777115,0.18918473,-0.015807237,0.21824849,0.9757651,-0.89286965,0.4354072,-0.114909954,-0.44989565,-0.8735182,0.18590245,-0.019432679,0.21768415,0.9758258,0.3591156,2.257721,9.516937,0
6011.443094201,-0.88468665,0.4517465,-0.11512892,-0.46592277,-0.8651011,0.18578543,-0.01567023,0.21800306,0.9758223,-0.8930308,0.4351005,-0.11481906,-0.44957367,-0.8737063,0.18579769,-0.019477466,0.2175427,0.9758564,0.39263916,2.1763153,9.454697,0
6011.44751925,-0.88478994,0.45160192,-0.11490218,-0.46572864,-0.86524916,0.18558244,-0.015609621,0.2177147,0.97588766,-0.8930308,0.4351005,-0.11481906,-0.44957367,-0.8737063,0.18579769,-0.019477466,0.2175427,0.9758564,0.39263916,2.1763153,9.454697,0
6011.451913782,-0.8849005,0.45144692,-0.114659056,-0.46552196,-0.8653879,0.18545355,-0.015502137,0.21748427,0.9759407,-0.8928626,0.43547156,-0.11472054,-0.44990325,-0.8736641,0.18519755,-0.019578949,0.21696912,0.97598207,0.41178894,2.2242126,9.449905,0
6011.45633883,-0.89691347,0.4284389,-0.10948218,-0.44193754,-0.87709004,0.18816075,-0.015410338,0.2171482,0.97601706,-0.8927684,0.4356771,-0.11467359,-0.45008826,-0.8736315,0.18490183,-0.019624958,0.21668774,0.97604376,0.28250122,2.2385712,9.459488,0
6011.460763879,-0.89701957,0.42827904,-0.109237835,-0.44172361,-0.8772581,0.18787864,-0.0153653,0.21678376,0.9760987,-0.8929245,0.4354177,-0.11444318,-0.449779,-0.87384725,0.18463449,-0.019612728,0.21633881,0.9761213,0.26335144,2.367859,9.512161,0
6011.46515841,-0.89713806,0.4281006,-0.10896498,-0.4414842,-0.87745523,0.187521,-0.015334052,0.2163385,0.97619796,-0.8930974,0.4351254,-0.11420558,-0.4494346,-0.8740963,0.18429376,-0.019635778,0.21592021,0.9762135,0.296875,2.2289886,9.449905,0
6011.469583459,-0.8904637,0.4411929,-0.11145998,-0.45479798,-0.8710738,0.18544346,-0.015273515,0.21582243,0.9763131,-0.8932292,0.434914,-0.11397978,-0.44916967,-0.8743283,0.18383867,-0.01970173,0.21540633,0.97632575,0.36869812,2.2002563,9.641449,0
6011.474008508,-0.89066815,0.44089,-0.111023486,-0.4544014,-0.8713629,0.18505658,-0.015152154,0.21527323,0.9764363,-0.89324087,0.43493903,-0.113792375,-0.4491443,-0.8744398,0.18336958,-0.019749999,0.2149024,0.9764358,0.28250122,2.190689,9.564835,0
6011.478403039,-0.89084965,0.44062075,-0.110635504,-0.45405,-0.87160516,0.18477786,-0.015013532,0.21484335,0.97653306,-0.89330125,0.43489847,-0.11347323,-0.4490259,-0.8746045,0.18287306,-0.01971299,0.21431315,0.976566,0.22984314,2.2625122,9.818619,0
6011.482828088,-0.9108977,0.39991704,-0.10164572,-0.41236353,-0.8911434,0.1892607,-0.014892337,0.2143121,0.9766516,-0.893349,0.43487266,-0.11319658,-0.4489343,-0.87472373,0.18252811,-0.019639257,0.21387911,0.9766627,0.26335144,2.0805511,9.789886,0
6011.487253137,-0.9110395,0.39968356,-0.10129195,-0.41205335,-0.8913698,0.18886994,-0.014800375,0.21380566,0.9767641,-0.8938435,0.43398148,-0.11271195,-0.4479514,-0.87529457,0.18220569,-0.019582262,0.21335283,0.976779,0.17237854,2.0901337,9.761154,0
6011.491647668,-0.911155,0.39949322,-0.10100357,-0.41180062,-0.8915535,0.18855377,-0.014724143,0.21339504,0.97685504,-0.89430964,0.43313363,-0.11227411,-0.4470225,-0.8758217,0.181954,-0.019521706,0.21291228,0.9768763,0.1771698,2.190689,9.737213,0
6011.496072717,-0.91129315,0.39926505,-0.10065806,-0.41149944,-0.89174986,0.18828198,-0.014587394,0.21300085,0.976943,-0.89477533,0.43227774,-0.111862436,-0.4460922,-0.8763409,0.18173708,-0.019468741,0.21251479,0.9769639,0.1484375,2.2625122,9.550461,0
6011.500497766,-0.9113722,0.39913464,-0.10046054,-0.41132632,-0.8918784,0.18805194,-0.014540542,0.21270736,0.97700775,-0.8952587,0.43140414,-0.111365095,-0.44512558,-0.8768858,0.18147899,-0.019363675,0.21204212,0.97706866,0.11491394,2.1954803,9.718063,0
6011.504922815,-0.9114357,0.3990294,-0.100301266,-0.41118532,-0.89200145,0.18777622,-0.014540648,0.21238838,0.9770771,-0.8957288,0.43052027,-0.11100471,-0.44418067,-0.8773916,0.18134896,-0.01932019,0.21174566,0.97713375,-0.08139038,2.118866,9.919174,0
6011.509317346,-0.9048323,0.41307113,-0.10320235,-0.4255187,-0.8856304,0.18599087,-0.014571683,0.21220508,0.9771165,-0.8961731,0.42969203,-0.11062744,-0.44328687,-0.8778699,0.1812213,-0.019247154,0.21144536,0.9772003,-0.02394104,2.3199768,9.646225,0
6011.513742395,-0.9048561,0.413033,-0.10314615,-0.42546856,-0.8856663,0.18593413,-0.01455614,0.21212909,0.9771332,-0.8964734,0.42912564,-0.11039285,-0.44267967,-0.87820333,0.18109001,-0.019237006,0.21121107,0.9772511,0.02394104,2.2529297,9.66539,0
6011.518167444,-0.90489686,0.41296768,-0.103049785,-0.42538235,-0.8857336,0.18581124,-0.014540617,0.21197559,0.97716683,-0.89673567,0.42862722,-0.110199265,-0.44214973,-0.878478,0.18105265,-0.019203534,0.21108094,0.97727996,0.07661438,2.1284332,9.694122,0
6011.522561975,-0.914177,0.39308625,-0.098810695,-0.40505424,-0.89477026,0.18792872,-0.014540666,0.21182382,0.9771997,-0.89701176,0.42809993,-0.1100017,-0.44159067,-0.8787669,0.1810151,-0.01917329,0.21094841,0.97730917,0.08618164,2.07576,9.718063,0
6011.526987024,-0.91412306,0.39317638,-0.09895068,-0.40517142,-0.8947272,0.18788093,-0.014663515,0.2118383,0.9771947,-0.8974795,0.42718056,-0.109760925,-0.44063932,-0.87924194,0.18102644,-0.019175433,0.21083248,0.97733414,-0.004776001,2.2912445,9.68454,0
6011.531412073,-0.9141233,0.39317602,-0.09895013,-0.40517148,-0.89471954,0.18791723,-0.0146480845,0.21187131,0.9771878,-0.89797795,0.42616782,-0.10962041,-0.4396183,-0.8797441,0.1810694,-0.019271951,0.21078748,0.9773419,0.0909729,2.2385712,9.68454,0
6011.535806604,-0.87575734,0.46888304,-0.114881195,-0.48252922,-0.8574277,0.17883863,-0.014647938,0.21205279,0.9771485,-0.8984163,0.42529386,-0.10942254,-0.43872276,-0.8801649,0.18119623,-0.019248236,0.21079582,0.9773406,0.05744934,2.329544,9.631866,0
6011.540231653,-0.87572825,0.4689226,-0.11494171,-0.4825816,-0.8573873,0.17889112,-0.014663479,0.21212877,0.9771317,-0.89812297,0.4258697,-0.109590925,-0.4393231,-0.8798589,0.18122801,-0.019245028,0.21091087,0.97731584,-0.07182312,2.281662,9.631866,0
6011.544656701,-0.87569755,0.46896443,-0.11500578,-0.48263797,-0.85733056,0.17901148,-0.014647944,0.21226603,0.97710216,-0.8977931,0.42653567,-0.10970308,-0.43999857,-0.87952834,0.1811937,-0.019201398,0.21094365,0.97730964,0.01914978,2.4253235,9.622284,0
6011.549051233,-0.9131525,0.39527783,-0.09953847,-0.40735805,-0.8936632,0.18821636,-0.014556109,0.21241805,0.97707045,-0.8974861,0.42715284,-0.10981402,-0.44062623,-0.8792185,0.18117206,-0.019162353,0.21098635,0.9773012,-0.04309082,2.2625122,9.392441,0
6011.553476282,-0.91317654,0.39523706,-0.099479534,-0.40730622,-0.8936776,0.1882598,-0.0144953905,0.21243308,0.977068,-0.8979578,0.4262344,-0.10952655,-0.43967083,-0.87964255,0.18143481,-0.01901046,0.21107642,0.97728467,0.0335083,2.1475983,9.478638,0
6011.55790133,-0.9132214,0.39516103,-0.0993697,-0.40721053,-0.8936924,0.18839723,-0.014358699,0.21251279,0.9770528,-0.898413,0.42533743,-0.1092802,-0.43874297,-0.8800746,0.18158557,-0.018939594,0.21108475,0.97728425,0.12449646,2.3199768,9.564835,0
6011.562295862,-0.8599808,0.49592626,-0.1203754,-0.51013,-0.84193707,0.17581084,-0.014159295,0.21260104,0.9770365,-0.8988823,0.42441922,-0.10899009,-0.43778583,-0.8805114,0.18177809,-0.018816892,0.21111143,0.97728086,0.15322876,2.2720947,9.502579,0
6011.56672091,-0.86000544,0.49589506,-0.12032758,-0.5100917,-0.84192437,0.17598219,-0.014038018,0.21272375,0.9770115,-0.89828855,0.42564714,-0.109097555,-0.43901056,-0.87991047,0.18173446,-0.018641321,0.21114495,0.97727704,-0.05744934,2.2960358,9.598343,0
6011.571145959,-0.8601028,0.4957721,-0.12013847,-0.50993216,-0.8420041,0.17606275,-0.013870097,0.21269453,0.97702026,-0.8977293,0.42679712,-0.10920757,-0.44016048,-0.87933314,0.18174708,-0.018460711,0.21122853,0.9772624,0.05744934,2.1523743,9.574402,0
6011.575571008,-0.90442914,0.41403472,-0.10287461,-0.42640135,-0.8850704,0.18663427,-0.013778189,0.21266335,0.9770284,-0.8971527,0.42798755,-0.109287545,-0.44134167,-0.8787607,0.18165116,-0.018293167,0.21120197,0.97727126,0.06703186,2.329544,9.564835,0
6011.579965539,-0.904503,0.41391617,-0.102701664,-0.42624894,-0.88513714,0.18666543,-0.013641216,0.21261594,0.97704065,-0.89741284,0.42750078,-0.10905664,-0.44081673,-0.87901634,0.18168902,-0.018190367,0.21112403,0.97729,0.02394104,2.367859,9.574402,0
6011.584390588,-0.9045415,0.4138545,-0.10261164,-0.42616883,-0.8851843,0.18662512,-0.013594558,0.21254005,0.97705775,-0.8976841,0.42701393,-0.10873104,-0.44027132,-0.87928617,0.18170577,-0.018014807,0.21098551,0.9773232,-0.09576416,2.190689,9.574402,0
6011.588815637,-0.885942,0.4504975,-0.11026728,-0.46359774,-0.8671244,0.18213305,-0.013564969,0.21247895,0.97707146,-0.89794225,0.42653155,-0.108492404,-0.43974903,-0.8795396,0.18174401,-0.017903814,0.21090505,0.9773426,-0.04788208,2.2912445,9.617508,0
6011.593210168,-0.88596094,0.45047027,-0.11022623,-0.4635624,-0.86714214,0.18213835,-0.0135339005,0.21246418,0.9770751,-0.897818,0.42680705,-0.10843682,-0.44000557,-0.87942946,0.18165621,-0.017830377,0.21080701,0.9773651,0.0909729,2.2720947,9.674957,0
6011.597635217,-0.8859804,0.45044217,-0.11018397,-0.4635246,-0.86718225,0.18204342,-0.013549556,0.21235989,0.9770976,-0.8976656,0.42712286,-0.10845552,-0.44031766,-0.8792864,0.18159238,-0.017801208,0.2107641,0.97737485,-0.05265808,2.1763153,9.540894,0
6011.602060266,-0.9086648,0.40521407,-0.10064641,-0.41730678,-0.88921994,0.18746375,-0.013533858,0.21234216,0.97710156,-0.8975136,0.4274462,-0.10843943,-0.44062847,-0.87915933,0.18145384,-0.017773788,0.21063876,0.9774024,0.1197052,2.2912445,9.54567,0
6011.606454797,-0.9086852,0.40518063,-0.10059758,-0.4172636,-0.8892424,0.18745418,-0.013502834,0.21231253,0.97710854,-0.8978149,0.42685276,-0.10828203,-0.4400144,-0.8794617,0.18147857,-0.017765263,0.21057984,0.9774152,0.01914978,2.2864532,9.737213,0
6011.610879846,-0.9087076,0.40514368,-0.10054363,-0.41721514,-0.8892774,0.18739603,-0.013488846,0.21223654,0.9771252,-0.8981048,0.42628908,-0.108099036,-0.43942448,-0.87974685,0.18152562,-0.017717399,0.2105304,0.9774267,0.12449646,2.2768707,9.765945,0
6011.615304895,-0.90867084,0.40523028,-0.10052714,-0.41729578,-0.8892489,0.18735136,-0.013473214,0.21219027,0.9771355,-0.89837617,0.42575547,-0.10794672,-0.43886903,-0.88003105,0.18149182,-0.017725341,0.21042241,0.9774499,0.02394104,2.324768,9.536102,0
6011.619699426,-0.9087616,0.40507922,-0.100314856,-0.4171019,-0.88935393,0.18728454,-0.013350339,0.21203855,0.9771701,-0.8986244,0.42527854,-0.107760355,-0.43836248,-0.88028425,0.18148819,-0.017676711,0.21032782,0.97747105,0.14364624,2.1811066,9.579193,0
6011.624124475,-0.90880984,0.40499908,-0.100202195,-0.41699845,-0.88942,0.187202,-0.013305186,0.21191517,0.9771975,-0.8988541,0.42485413,-0.10751891,-0.43789482,-0.88052833,0.18143308,-0.01759085,0.21016385,0.97750795,-0.009567261,2.2433624,9.660599,0
6011.628549524,-0.91535395,0.39078137,-0.097041264,-0.40243423,-0.8957865,0.18871431,-0.013182222,0.21179312,0.9772256,-0.89908326,0.4244254,-0.107296064,-0.4374275,-0.88076574,0.18140814,-0.017508473,0.21003526,0.97753704,0.08618164,2.1811066,9.52652,0
6011.632944055,-0.91546,0.39059803,-0.09677961,-0.40219957,-0.8958879,0.18873361,-0.012984701,0.21170276,0.9772478,-0.8994657,0.42369643,-0.10697117,-0.43664563,-0.8811463,0.18144338,-0.017380334,0.2099106,0.97756606,0.04788208,2.2146301,9.588776,0
6011.637369104,-0.9155606,0.39042366,-0.096530855,-0.40197483,-0.8960109,0.18862824,-0.012847772,0.21150355,0.9772927,-0.8998345,0.4230111,-0.10658025,-0.4358935,-0.88150156,0.18152624,-0.017163044,0.20980123,0.9775934,0.02394104,2.3199768,9.804245,0
6011.641794153,-0.8771922,0.46680015,-0.11239035,-0.47997048,-0.8587327,0.17946193,-0.012740409,0.21136662,0.97732383,-0.90018386,0.4223608,-0.106209025,-0.4351775,-0.8818665,0.18147193,-0.017015552,0.20957789,0.97764385,0.03829956,2.2625122,9.756363,0
6011.646219201,-0.8773255,0.46661726,-0.112108685,-0.47973073,-0.85888433,0.17937708,-0.012587958,0.21115406,0.97737175,-0.89977807,0.42323062,-0.10618462,-0.4360211,-0.8814903,0.1812746,-0.016879752,0.20940565,0.9776831,-0.009567261,2.0230865,9.718063,0
6011.650613733,-0.8773915,0.4665267,-0.111969225,-0.47961086,-0.8589789,0.1792447,-0.012556776,0.2109694,0.977412,-0.89933866,0.42417145,-0.1061532,-0.43693358,-0.8810701,0.18112011,-0.016702427,0.20927022,0.97771513,0.0335083,2.07576,9.794678,0
6011.655038782,-0.89277834,0.43784976,-0.10599304,-0.45032167,-0.8739301,0.18291144,-0.012542786,0.21103032,0.97739905,-0.89894825,0.42498112,-0.10622205,-0.43773782,-0.88071215,0.18091926,-0.016663777,0.20913446,0.97774494,-0.08618164,2.23378,9.761154,0
6011.65946383,-0.89279723,0.4378217,-0.105949685,-0.45028335,-0.87397724,0.1827805,-0.012572344,0.21089329,0.9774282,-0.8988424,0.4252174,-0.10617158,-0.43795812,-0.8806095,0.18088548,-0.01658006,0.20908625,0.9777566,-0.02394104,2.1380157,9.818619,0
6011.663858362,-0.89281195,0.43779975,-0.10591584,-0.4502532,-0.8740177,0.18266095,-0.012603398,0.21077083,0.97745425,-0.8987535,0.42541018,-0.10615192,-0.43814117,-0.88053966,0.18078242,-0.016564297,0.20898837,0.97777784,-0.0335083,2.070984,9.713272,0
6011.66828341,-0.8910204,0.44124982,-0.10668297,-0.45378533,-0.8723067,0.18209863,-0.012709282,0.21066475,0.9774757,-0.89867836,0.42556867,-0.106153406,-0.43829533,-0.8804802,0.1806984,-0.01656639,0.20891626,0.9777932,-0.028717041,2.0039368,9.636658,0
6011.672708459,-0.8909793,0.4413113,-0.10677177,-0.45386255,-0.87229395,0.18196714,-0.012832215,0.21058868,0.97749054,-0.8985349,0.42584988,-0.10623992,-0.4385872,-0.8803564,0.18059333,-0.016623344,0.20886487,0.9778032,-0.15800476,1.984787,9.789886,0
6011.677102991,-0.89091957,0.44140074,-0.10690088,-0.45397645,-0.8722488,0.18189958,-0.012953562,0.21058835,0.977489,-0.8985349,0.42584988,-0.10623992,-0.4385872,-0.8803564,0.18059333,-0.016623344,0.20886487,0.9778032,-0.15800476,1.984787,9.789886,0
6011.681528039,-0.8908176,0.4415532,-0.107121035,-0.4541704,-0.8721754,0.18176752,-0.013168294,0.21057288,0.9774895,-0.8985349,0.42584988,-0.10623992,-0.4385872,-0.8803564,0.18059333,-0.016623344,0.20886487,0.9778032,-0.15800476,1.984787,9.789886,0
6011.685953088,-0.9001132,0.4231911,-0.10346709,-0.43545184,-0.88121986,0.18393795,-0.013336362,0.21061993,0.9774771,-0.89817184,0.42651492,-0.10664153,-0.4393199,-0.88002574,0.18042384,-0.016893838,0.20890135,0.9777908,-0.11012268,2.0853424,9.603134,0
6011.690347619,-0.8999852,0.4233948,-0.103747055,-0.4357084,-0.88112223,0.18379825,-0.013594609,0.21061918,0.9774737,-0.89822495,0.4263773,-0.10674441,-0.43920717,-0.8800754,0.18045598,-0.017000794,0.20897298,0.97777367,-0.13406372,1.9991455,9.583984,0
6011.694772668,-0.89618343,0.4309261,-0.105631284,-0.443465,-0.87746054,0.18276148,-0.013930595,0.21063158,0.9774662,-0.8982758,0.42623124,-0.10690008,-0.43909666,-0.8801306,0.18045583,-0.017170122,0.20903856,0.9777567,-0.18673706,2.0374603,9.512161,0
6011.699197717,-0.8960141,0.43118557,-0.106007755,-0.44379672,-0.8773182,0.18263932,-0.01425109,0.21069331,0.9774483,-0.8982729,0.42617324,-0.10715495,-0.43909192,-0.88014835,0.18038069,-0.01743883,0.20908195,0.9777426,-0.22505188,2.0614014,9.50737,0
6011.703592248,-0.8958405,0.43145138,-0.10639332,-0.4441368,-0.8771688,0.18253073,-0.014571761,0.2107716,0.9774267,-0.89825857,0.42614618,-0.107382186,-0.43911263,-0.88014215,0.18036045,-0.017651673,0.2091632,0.9777214,-0.30645752,2.0422516,9.38765,0
6011.708017297,-0.89570796,0.43165398,-0.10668739,-0.44439605,-0.8770546,0.18244854,-0.014816032,0.21083204,0.97741,-0.89824927,0.4261062,-0.107618906,-0.4391233,-0.88013506,0.1803693,-0.017862694,0.20927455,0.9776938,-0.20588684,2.1092834,9.435547,0
6011.712442346,-0.8955647,0.43187258,-0.10700477,-0.44467545,-0.87693614,0.18233727,-0.015089886,0.2108772,0.97739613,-0.89820784,0.4261508,-0.10778786,-0.43920216,-0.8800982,0.18035692,-0.018004658,0.20933865,0.97767746,-0.39263916,2.1284332,9.540894,0
6011.716836877,-0.89543504,0.43207002,-0.10729148,-0.4449268,-0.8768421,0.18217517,-0.015365275,0.21086292,0.9773948,-0.8981955,0.42613962,-0.10793507,-0.43922177,-0.8800923,0.18033798,-0.018143667,0.20938618,0.9776647,-0.2681427,2.1380157,9.3589325,0
6011.721261926,-0.88300514,0.4557024,-0.11241522,-0.46910357,-0.86479616,0.17907904,-0.015609504,0.21086212,0.9773911,-0.8981716,0.42615366,-0.10807831,-0.43926385,-0.88009024,0.18024574,-0.018306283,0.20936649,0.9776659,-0.25856018,2.070984,9.382874,0
6011.725686975,-0.88289315,0.4558611,-0.11265196,-0.4693059,-0.8647274,0.17888188,-0.01586794,0.2108018,0.97740006,-0.8978984,0.42666915,-0.10831432,-0.43981636,-0.87983775,0.18013093,-0.018442722,0.20937766,0.97766095,-0.28250122,2.1140747,9.483429,0
6011.730112024,-0.88283104,0.4559488,-0.11278295,-0.46941626,-0.8647073,0.17868856,-0.016051393,0.21069397,0.9774203,-0.8976201,0.42719257,-0.10855728,-0.4403765,-0.8795979,0.17993346,-0.018620523,0.20931795,0.9776703,-0.19631958,2.1284332,9.392441,0
6011.734506555,-0.9171226,0.38625804,-0.09844194,-0.39827567,-0.89801896,0.18691823,-0.01620405,0.21063398,0.9774307,-0.8973517,0.42771706,-0.10871106,-0.44091868,-0.8793694,0.17972256,-0.018726766,0.20920709,0.977692,-0.26335144,2.142807,9.162598,0
6011.738931604,-0.9170635,0.38636014,-0.09859277,-0.3984058,-0.8979826,0.18681595,-0.016356349,0.210602,0.97743505,-0.89776856,0.4268789,-0.10856362,-0.44006622,-0.8797986,0.17971168,-0.01879898,0.20911467,0.9777105,-0.25856018,2.1571655,9.263153,0
6011.743356653,-0.91702175,0.38643184,-0.09869886,-0.3984965,-0.8979654,0.18670487,-0.01647945,0.2105436,0.9774456,-0.8981982,0.42601225,-0.108413845,-0.4391859,-0.8802342,0.17973192,-0.018861568,0.20904872,0.9777233,-0.24899292,2.142807,9.34935,0
6011.747751184,-0.89585173,0.43104324,-0.10794189,-0.44404584,-0.8774504,0.1813953,-0.016524432,0.21043444,0.9774684,-0.8986166,0.42517236,-0.10824374,-0.43832764,-0.8806568,0.17975692,-0.018897904,0.20897879,0.97773755,-0.2681427,2.1811066,9.34935,0
6011.752176233,-0.8958616,0.43102837,-0.107918486,-0.44402453,-0.8774829,0.18128955,-0.01655569,0.21032883,0.97749054,-0.89858997,0.42525113,-0.10815525,-0.4383841,-0.88065207,0.17964213,-0.01885413,0.20883815,0.9777685,-0.34954834,2.1763153,9.425964,0
6011.756601282,-0.8958656,0.43102244,-0.107909076,-0.44401422,-0.8775188,0.1811412,-0.01661633,0.21019135,0.9775191,-0.89854276,0.42537668,-0.10805383,-0.43848404,-0.88062197,0.17954582,-0.018779974,0.20870946,0.9777973,-0.32081604,2.1475983,9.306259,0
6011.760995813,-0.88882476,0.44472012,-0.11052071,-0.45795065,-0.8707085,0.17929906,-0.016493425,0.20997842,0.9775669,-0.8984723,0.42554694,-0.107969135,-0.43863034,-0.8805793,0.17939776,-0.018733218,0.20854247,0.9778339,-0.25856018,2.008728,9.373291,0
6011.765420862,-0.88894695,0.4445453,-0.11023923,-0.45772067,-0.8708237,0.17932643,-0.016280212,0.20987047,0.9775937,-0.8982916,0.42596957,-0.10780597,-0.43900836,-0.88041365,0.17928605,-0.018543439,0.20837888,0.9778724,-0.2681427,2.0805511,9.445114,0
6011.76984591,-0.8890964,0.44433162,-0.10989519,-0.45743996,-0.8709583,0.17938817,-0.016006295,0.20976384,0.977621,-0.8981109,0.4264107,-0.107567385,-0.43939084,-0.8802235,0.17928265,-0.018235303,0.20827982,0.9778993,-0.25856018,2.0422516,9.48822,0
6011.774240442,-0.8974917,0.42802176,-0.106329165,-0.4407484,-0.87909174,0.18148944,-0.015791677,0.2097497,0.9776276,-0.8979499,0.4268142,-0.10731118,-0.43973342,-0.880046,0.17931388,-0.017905073,0.20820318,0.9779217,-0.2394104,2.1044922,9.512161,0
6011.778665491,-0.89760965,0.4278409,-0.106061935,-0.44051751,-0.87917614,0.18164164,-0.015533396,0.20976542,0.97762835,-0.89793235,0.42691043,-0.10707435,-0.43978003,-0.88000286,0.17941129,-0.017633185,0.20818838,0.9779298,-0.24899292,2.099701,9.449905,0
6011.783090539,-0.897707,0.42769146,-0.105841115,-0.4403273,-0.8792385,0.18180165,-0.015304576,0.2098093,0.97762257,-0.89791137,0.42702627,-0.106788665,-0.4398371,-0.8799388,0.17958592,-0.017279577,0.20822184,0.977929,-0.26335144,2.0422516,9.425964,0
6011.787485071,-0.9216413,0.37621433,-0.095079005,-0.38774872,-0.9024081,0.1879107,-0.015105371,0.21005304,0.97757334,-0.89785516,0.42719334,-0.10659203,-0.43996274,-0.8798413,0.17975537,-0.01699377,0.20829082,0.9779193,-0.19631958,2.1619568,9.50737,0
6011.791910119,-0.92169553,0.3761182,-0.09493473,-0.3876295,-0.9023874,0.18825649,-0.014861207,0.21031463,0.97752076,-0.8982982,0.42633805,-0.10628356,-0.43906757,-0.8802014,0.18018104,-0.016732909,0.20852198,0.9778745,-0.26335144,2.0518188,9.392441,0
6011.796335168,-0.92170066,0.376109,-0.09492098,-0.38762242,-0.9023236,0.18857603,-0.014724286,0.21060413,0.97746044,-0.89876187,0.42544279,-0.10595051,-0.4381289,-0.88057065,0.18066114,-0.01643593,0.20879133,0.97782207,-0.3256073,2.0853424,9.397232,0
6011.800760217,-0.90217257,0.41869277,-0.10383154,-0.4311296,-0.88327193,0.18427686,-0.014556096,0.21101439,0.97737455,-0.89916384,0.42465356,-0.105705954,-0.43731284,-0.88087344,0.18116161,-0.016182648,0.20912053,0.977756,-0.2106781,2.070984,9.3637085,0
6011.805154748,-0.90212893,0.41876197,-0.10393143,-0.43122706,-0.88310385,0.18485373,-0.0143725425,0.21157995,0.9772551,-0.89917046,0.42464072,-0.105700865,-0.4373066,-0.88078344,0.18161319,-0.015979217,0.20952491,0.97767276,-0.16758728,2.1811066,9.229645,0
6011.809579797,-0.902053,0.41888246,-0.104105406,-0.43139005,-0.8829079,0.18540844,-0.014251143,0.21215826,0.9771314,-0.8991695,0.42463574,-0.10572904,-0.4373164,-0.8806674,0.18215205,-0.015763856,0.21002261,0.97756946,-0.30166626,2.2529297,9.095566,0
6011.814004846,-0.88173527,0.45813638,-0.112489976,-0.47153476,-0.86303025,0.18120098,-0.014067494,0.21281423,0.9769914,-0.89917064,0.424621,-0.10577915,-0.43732193,-0.8805429,0.18273959,-0.015548016,0.2105736,0.97745436,-0.28250122,2.2625122,9.071625,0
6011.818399377,-0.88168305,0.4582095,-0.11260132,-0.4716396,-0.86283296,0.18186636,-0.013823235,0.21345572,0.9768549,-0.8987733,0.42541683,-0.10595764,-0.43814692,-0.88002723,0.18324651,-0.015289467,0.2111221,0.97734004,-0.31123352,2.2673035,8.942337,0
6011.822824426,-0.8816646,0.45823532,-0.11264064,-0.47168288,-0.862664,0.18255404,-0.013518322,0.2140821,0.97672206,-0.8983819,0.42621428,-0.10607259,-0.4389612,-0.8794974,0.18384068,-0.01493505,0.21172088,0.977216,-0.26335144,2.257721,8.894455,0
6011.827249475,-0.8936003,0.43573365,-0.1077713,-0.44867343,-0.87408024,0.18621412,-0.013061011,0.21475513,0.9765805,-0.8980102,0.42697734,-0.10615116,-0.43973303,-0.8789985,0.18438123,-0.014580109,0.21225439,0.97710574,-0.44052124,2.2529297,8.860931,0
6011.831644006,-0.8936566,0.43565,-0.10764272,-0.4485749,-0.8739532,0.1870465,-0.012587887,0.21544115,0.9764357,-0.8978901,0.42727745,-0.1059592,-0.4399965,-0.87871367,0.185109,-0.014014897,0.21282922,0.9769889,-0.59375,2.2960358,8.578415,0
6011.836069055,-0.89379877,0.43543857,-0.107317775,-0.4483088,-0.8739046,0.18790986,-0.0119622955,0.21606508,0.97630566,-0.8978092,0.42752647,-0.10563961,-0.44018364,-0.8784439,0.1859426,-0.013303086,0.21344182,0.97686523,-0.5602417,2.3439178,8.573624,0
6011.840494104,-0.87638456,0.46794835,-0.11390553,-0.48148322,-0.8567627,0.18474744,-0.011137743,0.21675341,0.9761629,-0.8977496,0.42776197,-0.10519195,-0.44032803,-0.87821406,0.18668483,-0.012524385,0.21391521,0.97677195,-0.52671814,2.5450287,8.511383,0
6011.844888635,-0.8767185,0.46748593,-0.11323231,-0.48089585,-0.8568763,0.18574771,-0.010191644,0.2173014,0.9760514,-0.897389,0.42864874,-0.104657516,-0.4410911,-0.8776522,0.18752366,-0.011471124,0.21444517,0.97666866,-0.59854126,2.5115051,8.626297,0
6011.849313684,-0.87717104,0.46685725,-0.112317786,-0.48009226,-0.8571066,0.18676098,-0.009077603,0.21774422,0.97596365,-0.8970423,0.4295315,-0.104009315,-0.44182304,-0.8771309,0.18823868,-0.010375347,0.21481176,0.97660035,-0.6224823,2.4971466,8.497009,0
6011.853738733,-0.90938234,0.40433174,-0.097670764,-0.41588613,-0.88825923,0.19502352,-0.007902761,0.21797086,0.97592324,-0.89673984,0.43039522,-0.10304197,-0.4424671,-0.8766373,0.1890239,-0.008975455,0.21509793,0.97655123,-0.6512146,2.573761,8.750793,0
6011.858133264,-0.90991336,0.4034441,-0.096387945,-0.41474396,-0.8886588,0.19563542,-0.0067280405,0.21798758,0.9759284,-0.8971229,0.42990464,-0.10174696,-0.44171473,-0.8768638,0.18973157,-0.007651733,0.21515568,0.9765498,-0.6799469,2.5689697,8.884872,0
6011.862558313,-0.91056883,0.40234083,-0.09479547,-0.41332188,-0.8892298,0.19604927,-0.005416334,0.21769741,0.97600126,-0.8974873,0.4294688,-0.100365,-0.44099513,-0.87710935,0.19026932,-0.0063163354,0.21502477,0.97658813,-0.5746002,2.4588318,9.129089,0
6011.866983362,-0.8937021,0.43710357,-0.10117856,-0.448641,-0.87276614,0.1923553,-0.0042260266,0.21730117,0.97609544,-0.89789784,0.42901608,-0.09861359,-0.44017854,-0.8774296,0.19068308,-0.0047203754,0.21462153,0.9766859,-0.64642334,2.6264343,9.124298,0
6011.87140841,-0.8944263,0.43599325,-0.099557735,-0.4472053,-0.8734802,0.19245803,-0.0030512956,0.21666221,0.9762419,-0.8979239,0.42928287,-0.09720566,-0.44013774,-0.877426,0.19079395,-0.0033862088,0.21410231,0.9768053,-0.45010376,2.5833435,9.282318,0
6011.875802942,-0.8951126,0.43493325,-0.098012656,-0.4458353,-0.8742282,0.19223943,-0.0020741015,0.21577346,0.97644126,-0.89798456,0.42952225,-0.09557368,-0.4400225,-0.87751085,0.19066966,-0.0019700904,0.21327297,0.9769907,-0.64642334,2.5210876,9.478638,0
6011.880227991,-0.9197882,0.38300258,-0.08543258,-0.39241302,-0.89844847,0.19698325,-0.0013116887,0.21470772,0.9766775,-0.898041,0.429718,-0.09415335,-0.439911,-0.8776405,0.1903301,-8.4452436E-4,0.21234332,0.9771948,-0.6320648,2.4684143,9.74678,0
6011.884653039,-0.9202825,0.38209733,-0.0841526,-0.39125383,-0.89912814,0.1961862,-7.01744E-4,0.21347177,0.97694904,-0.89864004,0.4288334,-0.09245578,-0.4386868,-0.8783611,0.18983068,1.9616575E-4,0.21114856,0.977454,-0.75177,2.525879,9.981415,0
6011.889047571,-0.9207426,0.38124993,-0.082955495,-0.39017057,-0.89982325,0.19515425,-2.4273287E-4,0.21205361,0.9772581,-0.89919215,0.4279926,-0.090971485,-0.4375528,-0.8790634,0.18919563,0.0010046266,0.20992807,0.97771627,-0.6033325,2.3774414,9.9479065,0
6011.893472619,-0.894163,0.43772346,-0.0941849,-0.4477417,-0.87417,0.18802752,-2.9563515E-5,0.21029773,0.9776374,-0.89972454,0.42716286,-0.08959692,-0.43645513,-0.8797919,0.18834315,0.0016265584,0.208562,0.97800785,-0.68473816,2.281662,10.330978,0
6011.897897668,-0.894605,0.43703768,-0.09316698,-0.44685793,-0.8749587,0.18645464,-2.9563573E-5,0.20843564,0.9780361,-0.8996971,0.42746913,-0.08840401,-0.43650976,-0.88007504,0.18688837,0.0020868494,0.20673212,0.9783954,-0.6416321,2.3343353,10.283081,0
6011.9022922,-0.89501935,0.43639168,-0.092209116,-0.4460271,-0.8757614,0.18466596,-1.6649021E-4,0.2064074,0.97846603,-0.89965904,0.4277381,-0.08748568,-0.43658724,-0.88035214,0.18539587,0.002282669,0.2049882,0.97876173,-0.77571106,2.2768707,10.39801,0
6011.906717248,-0.8693652,0.4837101,-0.10113628,-0.49417,-0.85106415,0.17744252,-2.4273268E-4,0.20424089,0.9789207,-0.8996279,0.42801008,-0.08646947,-0.43665072,-0.8807126,0.18352506,0.0023958194,0.20286123,0.9792046,-0.7852936,2.2864532,10.579971,0
6011.911142297,-0.86988044,0.48300967,-0.100049354,-0.49326262,-0.8519865,0.17553116,-4.5745642E-4,0.2020417,0.97937685,-0.8990776,0.42926997,-0.08594636,-0.43778348,-0.880557,0.18156268,0.0022587373,0.20086484,0.97961634,-0.77571106,2.1715393,10.800232,0
6011.915536828,-0.8703703,0.48234043,-0.099012055,-0.49239737,-0.8528904,0.17356023,-7.3130726E-4,0.19981492,0.9798334,-0.89853835,0.43048728,-0.085496634,-0.43889058,-0.88042474,0.17951997,0.0020077094,0.19882922,0.98003215,-0.8571167,2.1332245,11.010925,0
6011.919961877,-0.8707306,0.48184636,-0.09824695,-0.49175906,-0.8536567,0.17159082,-0.0011887602,0.19772318,0.9802572,-0.8980433,0.43161988,-0.08498482,-0.43990383,-0.8803904,0.17719294,0.0016601797,0.19651209,0.9805,-0.8379669,2.0374603,10.7332,0
6011.924386926,-0.8710149,0.48145524,-0.097641855,-0.4912535,-0.8543408,0.1696229,-0.0017535877,0.19571097,0.9806601,-0.89754903,0.4326901,-0.084764495,-0.4409131,-0.88029164,0.17516324,0.0011739284,0.19459137,0.98088366,-0.85232544,2.166748,10.690109,0
6011.928781457,-0.87120724,0.48119006,-0.097231805,-0.49090973,-0.8548863,0.16786005,-0.0023495464,0.19397295,0.98100406,-0.8970909,0.43367133,-0.084599644,-0.44184574,-0.8802661,0.17292756,5.235246E-4,0.19251174,0.9812946,-0.8571167,2.094925,10.977402,0
6011.933206506,-0.8712651,0.48111016,-0.09710832,-0.49080285,-0.8552731,0.16619423,-0.0030963933,0.19246028,0.98129994,-0.8970909,0.43367133,-0.084599644,-0.44184574,-0.8802661,0.17292756,5.235246E-4,0.19251174,0.9812946,-0.8571167,2.094925,10.977402,0
6011.937631555,-0.90782326,0.4109126,-0.08371331,-0.41933486,-0.8913786,0.17205414,-0.0039210427,0.19129863,0.98152405,-0.8961992,0.4354655,-0.084833525,-0.44365078,-0.8800711,0.16925947,-9.528711E-4,0.18932667,0.9819137,-0.86190796,2.094925,10.934311,0
6011.942056604,-0.9076672,0.41117913,-0.08409487,-0.41966382,-0.8914675,0.17078607,-0.0047441754,0.1903085,0.9817129,-0.896468,0.4348789,-0.08500331,-0.44310495,-0.88058513,0.16801152,-0.001787992,0.18828233,0.98211336,-0.9002075,2.0614014,11.001343,0
6011.946451135,-0.8947781,0.43742388,-0.089624524,-0.44647545,-0.8790353,0.16720167,-0.005645123,0.18962353,0.98184055,-0.8967357,0.43427944,-0.08524255,-0.44255853,-0.8810685,0.16691342,-0.0026174644,0.18740207,0.9822798,-0.85232544,2.1619568,10.857697,0
6011.950876184,-0.89452326,0.4378288,-0.09018971,-0.4469756,-0.8789298,0.16641879,-0.0064074877,0.18917805,0.98192185,-0.89676905,0.43409532,-0.085828476,-0.44248396,-0.8813011,0.16588043,-0.003632812,0.18673415,0.98240376,-0.8714752,2.0422516,10.8337555,0
6011.955301233,-0.89423245,0.43828943,-0.09083309,-0.44754684,-0.8787262,0.16595821,-0.0070796898,0.18905729,0.98194057,-0.89680165,0.43392724,-0.08633582,-0.4424108,-0.88146025,0.16522862,-0.0044043968,0.18637322,0.98246914,-0.86190796,2.1380157,10.599121,0
6011.959695764,-0.8836139,0.4584302,-0.095227025,-0.4681528,-0.86837554,0.16357483,-0.0077051856,0.1891178,0.9819241,-0.89681274,0.4337789,-0.086964265,-0.44238022,-0.88154984,0.16483232,-0.0051625487,0.186295,0.9824803,-0.8140259,2.1044922,10.651794,0
6011.964120813,-0.88313395,0.4591363,-0.09627146,-0.4690433,-0.8679257,0.16341153,-0.00852831,0.18946977,0.98184955,-0.8966304,0.43401876,-0.0876447,-0.44274175,-0.8814064,0.16462801,-0.0057989643,0.18641445,0.98245406,-0.8571167,2.1475983,10.364487,0
6011.968545862,-0.8826344,0.4598681,-0.09735499,-0.4699681,-0.8674283,0.163396,-0.009307869,0.18997264,0.98174524,-0.89644295,0.43425062,-0.0884111,-0.4431129,-0.88121516,0.16465372,-0.0064082267,0.18677875,0.9823811,-0.9145813,2.099701,10.287872,0
6011.972940393,-0.90071374,0.4246068,-0.09178211,-0.4342958,-0.88505584,0.16752183,-0.010101373,0.19074976,0.98158675,-0.89623576,0.43452767,-0.08914696,-0.44352424,-0.8809731,0.1648414,-0.006907926,0.18727559,0.9822831,-1.0294952,2.2385712,10.172958,0
6011.977365442,-0.90022254,0.42540723,-0.09288616,-0.43529806,-0.8844828,0.16794458,-0.010711378,0.19162071,0.98141056,-0.8963604,0.43413076,-0.0898249,-0.44326463,-0.8810196,0.16529058,-0.007379772,0.18797614,0.98214585,-0.7996521,2.329544,10.072403,0
6011.981790491,-0.8997255,0.42621368,-0.093999445,-0.43631047,-0.8838822,0.16847941,-0.011276217,0.19259816,0.9812129,-0.8964583,0.43377945,-0.090541914,-0.44305918,-0.88101166,0.16588251,-0.007812058,0.18882218,0.98198026,-0.92414856,2.3151855,9.976624,0
6011.986185022,-0.8898777,0.44542587,-0.098557025,-0.45604905,-0.87411886,0.16713907,-0.011702499,0.19368017,0.98099494,-0.8964987,0.4335627,-0.09117848,-0.4429721,-0.88093126,0.16654082,-0.008116081,0.18969314,0.98180985,-0.7086792,2.353485,9.967056,0
6011.990610071,-0.8893723,0.44619307,-0.09964251,-0.4570231,-0.8734626,0.16790745,-0.012114875,0.19487117,0.980754,-0.89631075,0.43378553,-0.09196269,-0.4433469,-0.88059425,0.16732389,-0.008399141,0.19074556,0.98160356,-0.75177,2.5162964,9.679749,0
6011.995035119,-0.8889325,0.44685778,-0.10058381,-0.45787022,-0.8728632,0.16871518,-0.012404212,0.19603074,0.98051935,-0.89612347,0.43402037,-0.09267781,-0.44372097,-0.8802635,0.16807121,-0.0086345645,0.19173563,0.98140866,-0.6895294,2.4348907,9.512161,0
6011.999429651,-0.89856577,0.42782125,-0.09771626,-0.43865514,-0.8820813,0.17179723,-0.012695166,0.19723485,0.9802741,-0.89590263,0.43432325,-0.09339064,-0.44416338,-0.8798732,0.16894399,-0.008795624,0.19283806,0.9811912,-0.6224823,2.5546112,9.416382,0
6012.0038547,-0.898159,0.42846963,-0.09861103,-0.43948075,-0.881492,0.17270957,-0.012924025,0.19845831,0.98002416,-0.89588195,0.43423733,-0.09398666,-0.4442016,-0.87969965,0.16974543,-0.0089702355,0.19382086,0.98099595,-0.6224823,2.4492645,9.248795,0
6012.008279748,-0.89772516,0.42915842,-0.09956239,-0.4403592,-0.8808643,0.17367187,-0.013168207,0.19975281,0.97975785,-0.89583546,0.43420854,-0.094560504,-0.44429296,-0.879486,0.17061074,-0.009083999,0.19485173,0.9807906,-0.6799469,2.659958,9.138657,0
6012.012704797,-0.8882841,0.44738746,-0.103903286,-0.4591013,-0.8714528,0.17261587,-0.013320634,0.20103405,0.97949374,-0.89577645,0.43419197,-0.095193364,-0.44440946,-0.87924016,0.17157216,-0.009202567,0.19599515,0.9805617,-0.6416321,2.712616,9.129089,0
6012.017099328,-0.8878865,0.44798222,-0.10473487,-0.4598643,-0.87088174,0.1734643,-0.013502762,0.20218045,0.9792552,-0.8955219,0.43458956,-0.09577253,-0.44492134,-0.87882,0.17239583,-0.009245384,0.19699548,0.9803608,-0.59854126,2.645584,9.095566,0
6012.021524377,-0.88753015,0.4485136,-0.10547828,-0.46054846,-0.8703457,0.17433704,-0.01361004,0.20330727,0.9790204,-0.8952454,0.435017,-0.09641572,-0.44547558,-0.87838054,0.17320254,-0.009343651,0.19800961,0.9801555,-0.6320648,2.6982574,9.018951,0
6012.025949426,-0.91543776,0.39120737,-0.09450087,-0.40222612,-0.8973219,0.1817343,-0.013701906,0.20437717,0.97879624,-0.8949909,0.43543348,-0.09689663,-0.44598654,-0.87797904,0.17392197,-0.009341758,0.19887318,0.9799807,-0.6081238,2.6791077,8.817841,0
6012.030343957,-0.9151898,0.39164135,-0.0951036,-0.40278697,-0.8968993,0.18257691,-0.01379368,0.20539902,0.9785811,-0.89532727,0.43468785,-0.09713658,-0.44531068,-0.8781623,0.17472649,-0.00935021,0.19969334,0.9798138,-0.5602417,2.6934662,8.693344,0
6012.034769006,-0.91497344,0.3920189,-0.09562819,-0.40327662,-0.8965129,0.1833915,-0.013838962,0.20636298,0.9783776,-0.89562017,0.43402305,-0.09740839,-0.444721,-0.87829727,0.1755479,-0.009361687,0.2005438,0.97964,-0.56980896,2.6791077,8.884872,0
6012.039194055,-0.9034521,0.4165775,-0.101180665,-0.42846268,-0.8851334,0.18154517,-0.013930752,0.2073695,0.9781635,-0.8959176,0.433365,-0.09760403,-0.44412205,-0.8784538,0.17627989,-0.00934709,0.20128034,0.9794891,-0.7421875,2.779663,8.669403,0
6012.043588586,-0.9032225,0.41694197,-0.10172752,-0.42894393,-0.8847509,0.18227151,-0.014006878,0.20826712,0.9779717,-0.89598334,0.4331655,-0.09788526,-0.44399044,-0.8783675,0.17703955,-0.009291811,0.2020846,0.97932404,-0.5793915,2.731781,8.621506,0
6012.048013635,-0.90300024,0.41729406,-0.10225602,-0.42940727,-0.8844117,0.18282665,-0.014143939,0.20900199,0.977813,-0.89603335,0.43300045,-0.09815752,-0.4438896,-0.8782963,0.17764452,-0.009291226,0.20274651,0.9791872,-0.62727356,2.6312256,8.506592,0
6012.052438684,-0.89665306,0.43002763,-0.10530709,-0.4425031,-0.8781459,0.1817993,-0.014296266,0.20960958,0.9776807,-0.8960646,0.43287274,-0.098435,-0.44382548,-0.87822837,0.17814007,-0.009336419,0.203313,0.9790693,-0.6320648,2.5785522,8.712494,0
6012.056833215,-0.89644665,0.43034145,-0.10578144,-0.44291613,-0.8778528,0.18220797,-0.014448892,0.21019202,0.9775533,-0.8959934,0.43295503,-0.098720565,-0.44396788,-0.87808067,0.1785129,-0.009396555,0.20377515,0.9789726,-0.7709198,2.6934662,8.429977,0
6012.061258264,-0.89631784,0.43053687,-0.10607692,-0.44317567,-0.87763983,0.18260293,-0.014480038,0.21068098,0.9774477,-0.8959349,0.4330285,-0.09892903,-0.44408536,-0.87796044,0.17881173,-0.009425208,0.20413661,0.978897,-0.59375,2.7221985,8.449127,0
6012.065683313,-0.88401675,0.4540435,-0.11117056,-0.46723092,-0.8656082,0.1800491,-0.014480029,0.21110874,0.9773553,-0.89590335,0.4330732,-0.099019065,-0.4441502,-0.8778707,0.17909133,-0.009366279,0.20442787,0.97883683,-0.6943054,2.7988129,8.540115,0
6012.070077844,-0.8839238,0.45417643,-0.11136606,-0.46740854,-0.86542714,0.18045841,-0.0144192595,0.21156494,0.97725767,-0.8956237,0.4336223,-0.09914625,-0.4447158,-0.8775521,0.17924899,-0.009279642,0.20463152,0.9787951,-0.6416321,2.9520416,8.611938,0
6012.074502893,-0.8839453,0.45414576,-0.111320995,-0.46737412,-0.8653724,0.18080981,-0.014220106,0.21185453,0.9771978,-0.8953412,0.43419355,-0.09919679,-0.44528773,-0.8772222,0.17944396,-0.009104214,0.2048347,0.9787542,-0.5506592,2.7461395,8.746017,0
6012.078927942,-0.90048724,0.4221563,-0.10443552,-0.4346592,-0.8813799,0.18504219,-0.013930655,0.21202199,0.9771655,-0.89510065,0.43470037,-0.09914846,-0.4457757,-0.87694407,0.17959163,-0.008879101,0.20495057,0.9787321,-0.4453125,2.918518,8.798691,0
6012.083322473,-0.9005893,0.42199403,-0.1042103,-0.4344558,-0.88143194,0.18527171,-0.013670754,0.21212852,0.97714615,-0.8952133,0.4345513,-0.09878435,-0.44555587,-0.8770353,0.1796913,-0.008552281,0.20487598,0.97875065,-0.49798584,2.8658447,8.880081,0
6012.087747522,-0.9007356,0.42176157,-0.103887655,-0.43416122,-0.88155466,0.18537907,-0.0133968815,0.2120815,0.9771601,-0.8953627,0.4343201,-0.098446526,-0.44526073,-0.87717,0.17976555,-0.00827856,0.20478973,0.97877103,-0.36869812,2.8610687,8.85614,0
6012.092172571,-0.86579514,0.48649034,-0.117158115,-0.5002267,-0.84758073,0.17714496,-0.013121643,0.21197684,0.9771866,-0.8955065,0.43410566,-0.09808342,-0.4449758,-0.8773261,0.17970948,-0.008038244,0.20457575,0.9788177,-0.33039856,2.918518,9.023743,0
6012.096597619,-0.8659725,0.48625782,-0.11681119,-0.4999253,-0.8477597,0.17713848,-0.01289286,0.21179393,0.9772293,-0.8949972,0.4351953,-0.09790358,-0.44600406,-0.87686735,0.17939907,-0.0077748285,0.20422705,0.9788927,-0.33996582,2.889801,9.215271,0
6012.100992151,-0.8661429,0.48603436,-0.11647778,-0.49963674,-0.8479149,0.17721026,-0.012632975,0.21168597,0.97725606,-0.89453083,0.43617943,-0.097786345,-0.4469419,-0.87645197,0.1790946,-0.0075876517,0.20391046,0.97896016,-0.3543396,2.956833,9.038101,0
6012.1054172,-0.87894213,0.4636967,-0.11156242,-0.47676554,-0.86037934,0.18011683,-0.012466427,0.21150137,0.9772982,-0.89411217,0.4370858,-0.097566955,-0.44778302,-0.8760821,0.1788027,-0.007324554,0.20355852,0.9790354,-0.3256073,2.956833,9.315826,0
6012.109842248,-0.8790432,0.4635544,-0.11135641,-0.4765826,-0.86048144,0.18011275,-0.012328055,0.21139744,0.9773224,-0.89392525,0.43750748,-0.09738982,-0.44815812,-0.8759475,0.17852248,-0.007203441,0.2032318,0.9791041,-0.2394104,2.9328918,9.234421,0
6012.11423678,-0.8790938,0.46348333,-0.11125342,-0.47649017,-0.86055017,0.18002953,-0.012298461,0.21127398,0.9773495,-0.8937363,0.43791562,-0.097289555,-0.44853586,-0.87580436,0.17827596,-0.0071367854,0.20296957,0.979159,-0.33517456,2.9711914,9.258377,0
6012.118661828,-0.89544624,0.43268028,-0.104708016,-0.44500056,-0.8764753,0.18375385,-0.012267327,0.21113682,0.9773795,-0.8935776,0.43826285,-0.09718391,-0.4488522,-0.87571096,0.17793827,-0.0071212784,0.20262288,0.97923094,-0.37828064,2.8754272,9.464264,0
6012.123086877,-0.89549375,0.43260786,-0.10460093,-0.4449062,-0.87653726,0.18368709,-0.0122221345,0.21102826,0.9774036,-0.8937352,0.43798006,-0.09700994,-0.44853857,-0.8759066,0.1777663,-0.0071135596,0.20238869,0.9792794,-0.3256073,2.8083954,9.48822,0
6012.127481409,-0.8955188,0.4325697,-0.10454453,-0.44485584,-0.87658113,0.1835994,-0.012222221,0.21092395,0.97742605,-0.89386606,0.43775523,-0.09681839,-0.4482782,-0.876075,0.17759262,-0.007078071,0.20214559,0.9793299,-0.45968628,2.7413483,9.382874,0
6012.131906457,-0.89553356,0.43254727,-0.104511365,-0.44482708,-0.8765923,0.18361633,-0.012191107,0.21092403,0.9774264,-0.8939837,0.43754432,-0.09668518,-0.4480437,-0.8762182,0.17747788,-0.0070628757,0.20198153,0.97936386,-0.45010376,2.7652893,9.464264,0
6012.136331506,-0.8955513,0.43252015,-0.104471266,-0.4447934,-0.87658733,0.18372169,-0.012114865,0.21100031,0.977411,-0.8941104,0.4373178,-0.096538976,-0.4477919,-0.8763537,0.1774446,-0.0070025977,0.20188443,0.9793843,-0.39263916,2.731781,9.497787,0
6012.140726037,-0.89558333,0.4324712,-0.104398884,-0.44473207,-0.8765859,0.18387628,-0.011993407,0.21110606,0.9773896,-0.8942244,0.43710607,-0.096441574,-0.44756514,-0.87645704,0.17750636,-0.006937787,0.20189442,0.97938275,-0.3543396,2.731781,9.320618,0
6012.145151086,-0.89180195,0.43986318,-0.10587574,-0.4522714,-0.8728592,0.18321402,-0.01182551,0.21127519,0.97735506,-0.8943298,0.43691412,-0.09633458,-0.44735613,-0.87654305,0.17760861,-0.0068416917,0.20193651,0.9793747,-0.37828064,2.659958,9.138657,0
6012.149576135,-0.8918259,0.43982646,-0.105825685,-0.45223033,-0.8727851,0.18366767,-0.011581179,0.21165721,0.9772754,-0.8943405,0.43691602,-0.09622632,-0.44733724,-0.8765191,0.17777409,-0.006671857,0.20203617,0.97935534,-0.5171356,2.8610687,9.263153,0
6012.153970666,-0.8919902,0.4395755,-0.10548379,-0.45191786,-0.8728456,0.18414913,-0.011123624,0.21192923,0.9772218,-0.8943546,0.43691868,-0.096082516,-0.44731307,-0.87646055,0.17812309,-0.00638723,0.20228419,0.979306,-0.3256073,2.7509308,9.3637085,0
6012.158395715,-0.8788895,0.4640707,-0.11041635,-0.47690633,-0.8599821,0.18163495,-0.010664633,0.21229528,0.97714734,-0.8943851,0.43692696,-0.09576108,-0.44725856,-0.87640864,0.17851534,-0.0059276703,0.20249142,0.9792661,-0.4165802,2.7844543,9.095566,0
6012.162820764,-0.8790792,0.46380118,-0.11003781,-0.47656912,-0.86002886,0.18229742,-0.010085925,0.21269447,0.9770667,-0.8941304,0.4374857,-0.095588595,-0.44777322,-0.87607056,0.17888422,-0.0054830736,0.2027478,0.9792156,-0.40701294,2.7988129,9.181763,0
6012.167245813,-0.8792807,0.46351442,-0.109635234,-0.47621006,-0.86007357,0.1830233,-0.0094604315,0.21313824,0.9769763,-0.89390373,0.43802083,-0.09525714,-0.4482329,-0.87573236,0.17938823,-0.00484398,0.20305318,0.9791557,-0.41178894,2.870636,9.090775,0
6012.171640344,-0.8921691,0.43952087,-0.10418995,-0.4516144,-0.87247056,0.18665364,-0.008864495,0.21358033,0.9768854,-0.8936782,0.43854454,-0.094963476,-0.4486885,-0.8753965,0.17988792,-0.004241826,0.20337093,0.9790926,-0.46446228,2.8323364,9.01416,0
6012.176065393,-0.89243275,0.43912157,-0.10361498,-0.45110717,-0.87257826,0.18737537,-0.008131615,0.21396136,0.97680825,-0.89369786,0.4385886,-0.09457351,-0.44865447,-0.87529993,0.18044174,-0.0036405008,0.20369124,0.9790284,-0.3543396,2.8371277,9.15303,0
6012.180490442,-0.89268136,0.43874404,-0.103071615,-0.450627,-0.8726825,0.1880446,-0.0074453433,0.21431074,0.9767372,-0.89373875,0.4386275,-0.09400514,-0.4485787,-0.8752145,0.18104334,-0.002864072,0.20397416,0.9789721,-0.40701294,2.731781,9.3302,0
6012.184884973,-0.8929603,0.43831906,-0.10246027,-0.4500847,-0.87283236,0.18864591,-0.006743553,0.21456915,0.9766855,-0.89373875,0.4386275,-0.09400514,-0.4485787,-0.8752145,0.18104334,-0.002864072,0.20397416,0.9789721,-0.40701294,2.731781,9.3302,0
6012.189316948,-0.8640928,0.49042034,-0.113275826,-0.50329524,-0.8445994,0.18260776,-0.006118151,0.21480125,0.9766386,-0.8938448,0.43864918,-0.09288936,-0.4483744,-0.8750968,0.18211535,-0.0014024327,0.20443206,0.97887975,-0.46925354,2.8562775,9.263153,0
6012.193741997,-0.86436534,0.49006927,-0.11271579,-0.50283504,-0.8447498,0.18317972,-0.0054458925,0.21501161,0.9765963,-0.8933271,0.43976095,-0.09261245,-0.44940647,-0.8745041,0.18241826,-7.695396E-4,0.2045798,0.9788496,-0.3543396,2.7748718,9.244003,0
6012.198136528,-0.85023683,0.5131707,-0.11727315,-0.52637786,-0.8308868,0.18042566,-0.004851548,0.21513456,0.9765724,-0.8928698,0.4407698,-0.092225246,-0.45031488,-0.8739618,0.1827765,-3.8983755E-5,0.20472603,0.9788193,-0.4165802,2.7461395,9.3302,0
6012.202561577,-0.8505608,0.51276535,-0.116696104,-0.5258596,-0.83111715,0.18087521,-0.00424161,0.21521114,0.9765583,-0.8921585,0.4422473,-0.092035145,-0.45172203,-0.8731944,0.18297218,5.5438257E-4,0.2048145,0.97880065,-0.44052124,2.70784,9.34935,0
6012.206986626,-0.85083145,0.5124259,-0.11621313,-0.52542526,-0.83131874,0.18121086,-0.0037530134,0.21524122,0.9765537,-0.89147204,0.4436776,-0.09180247,-0.45307413,-0.8724578,0.18314266,0.0011625135,0.2048599,0.9787906,-0.44052124,2.7892303,9.425964,0
6012.211381157,-0.8939285,0.4370543,-0.09937449,-0.44819716,-0.87330097,0.19095731,-0.0033251252,0.21524157,0.97655517,-0.8908078,0.44506162,-0.09155167,-0.4543771,-0.8717615,0.18323031,0.0017375672,0.20482196,0.97879773,-0.45968628,2.7509308,9.378082,0
6012.215806206,-0.89411306,0.43677163,-0.09895682,-0.44783175,-0.8734461,0.19115144,-0.0029439242,0.215227,0.9765597,-0.89097166,0.44482952,-0.09108345,-0.45405367,-0.8718842,0.18344802,0.0021888714,0.20480375,0.9788006,-0.43095398,2.870636,9.497787,0
6012.220231254,-0.8943051,0.4364768,-0.09852139,-0.44745025,-0.8736198,0.19125055,-0.00259381,0.21511973,0.97658426,-0.8911165,0.4446414,-0.09058404,-0.453767,-0.8720059,0.18357913,0.0026370634,0.20469444,0.97882235,-0.45489502,2.731781,9.440323,0
6012.224625786,-0.9006763,0.42388988,-0.09539088,-0.4344849,-0.8798075,0.19277313,-0.0022110306,0.21507213,0.9765956,-0.8912729,0.44441858,-0.090137675,-0.45345733,-0.87214583,0.18367945,0.0030173587,0.2045821,0.97884476,-0.36869812,2.8083954,9.449905,0
6012.229050835,-0.9008683,0.423585,-0.09493243,-0.4340889,-0.87996125,0.19296387,-0.0018002681,0.21504413,0.9766027,-0.89156264,0.44393542,-0.08965162,-0.45288467,-0.87241185,0.1838289,0.0033950312,0.20449685,0.97886133,-0.42616272,2.846695,9.593552,0
6012.233475883,-0.9010719,0.42326057,-0.09444483,-0.43366748,-0.88012904,0.19314645,-0.0013723677,0.2149965,0.97661394,-0.8918582,0.443462,-0.08905214,-0.45229822,-0.8726764,0.18401681,0.0038907647,0.20439506,0.9788807,-0.5315094,2.8083954,9.38765,0
6012.237900932,-0.8946755,0.43608296,-0.0968882,-0.4467155,-0.8738504,0.19191347,-9.7559846E-4,0.21498176,0.97661763,-0.8921597,0.4429698,-0.088480964,-0.45169917,-0.8729468,0.18420596,0.004358507,0.20430791,0.97889704,-0.5315094,2.7509308,9.5217285,0
6012.242295463,-0.8949488,0.43565592,-0.09628382,-0.4461687,-0.87405974,0.19223206,-4.1077708E-4,0.21499668,0.9766147,-0.89234793,0.4427037,-0.08791272,-0.45132175,-0.87309694,0.184419,0.0048866407,0.20424284,0.97890806,-0.44052124,2.8179626,9.440323,0
6012.246720512,-0.8951828,0.43528932,-0.09576521,-0.4456992,-0.87422365,0.19257542,1.058061E-4,0.21507268,0.9765981,-0.89253217,0.4424482,-0.087326,-0.45095062,-0.873233,0.18468241,0.005456455,0.20421472,0.9789109,-0.5746002,2.8275452,9.449905,0
6012.251145561,-0.8757783,0.47153696,-0.10327242,-0.48271295,-0.8551828,0.18881354,7.157476E-4,0.21520975,0.9765676,-0.8927503,0.44213828,-0.08666346,-0.45051008,-0.8733851,0.18503828,0.0061219274,0.20423575,0.9789026,-0.41178894,2.9664154,9.354141,0
6012.255540092,-0.87605983,0.4711505,-0.10264664,-0.48220035,-0.8553647,0.18929882,0.0013879325,0.21533336,0.9765396,-0.8925416,0.44264534,-0.08622473,-0.4509149,-0.8731218,0.18529493,0.0067352466,0.20426342,0.9788928,-0.32081604,2.8131866,9.440323,0
6012.259965141,-0.8763244,0.47078636,-0.10205739,-0.481717,-0.8555187,0.18983255,0.0020585658,0.21551768,0.9764977,-0.89235973,0.44309804,-0.08578018,-0.45126462,-0.872872,0.1856197,0.0073726024,0.2043491,0.9788703,-0.48362732,2.9759827,9.325409,0
6012.26439019,-0.8890027,0.4476386,-0.09640504,-0.4578938,-0.86779827,0.19302717,0.0027462915,0.21574493,0.9764459,-0.8922227,0.4434921,-0.08516633,-0.45152158,-0.8726552,0.1860137,0.008174769,0.20442009,0.9788491,-0.40222168,2.9759827,9.550461,0
6012.268784721,-0.8893125,0.44716477,-0.09574364,-0.45728657,-0.8679781,0.1936569,0.0034931677,0.2160038,0.9763863,-0.89231336,0.44341952,-0.084593646,-0.45132968,-0.8726587,0.18646276,0.008859841,0.20456281,0.9788134,-0.30166626,2.8850098,9.483429,0
6012.27320977,-0.8896271,0.44668245,-0.09507069,-0.4566681,-0.8681732,0.19424053,0.0042260108,0.21621738,0.976336,-0.89243203,0.44331,-0.08391273,-0.45107806,-0.8726703,0.18701638,0.009678076,0.2047506,0.9787663,-0.26335144,2.8514862,9.52652,0
6012.277634819,-0.8873224,0.45115763,-0.09547607,-0.46112257,-0.86580604,0.19428298,0.0049885004,0.21641782,0.97628814,-0.89252,0.4432382,-0.08335388,-0.45088857,-0.8726645,0.1874996,0.010367016,0.20493045,0.9787216,-0.11491394,2.8562775,9.698898,0
6012.28202935,-0.887585,0.45076364,-0.094895184,-0.46060908,-0.8659426,0.1948915,0.0056762244,0.21669234,0.9762234,-0.89259154,0.44321007,-0.08273562,-0.45072892,-0.87263894,0.18800186,0.011125984,0.2051002,0.97867775,-0.1484375,2.913742,9.789886,0
6012.286454399,-0.8877541,0.45050916,-0.09452026,-0.46027645,-0.8660028,0.19540907,0.006178776,0.21698068,0.97615635,-0.89263004,0.44321406,-0.082297415,-0.4506373,-0.8725819,0.18848564,0.011728246,0.20533425,0.97862166,-0.22984314,3.004715,10.024521,0
6012.290879448,-0.88425875,0.45708635,-0.095700346,-0.46695033,-0.86249936,0.1950697,0.0066222153,0.2171794,0.9761092,-0.8926534,0.44322518,-0.08198367,-0.45057875,-0.8725219,0.188903,0.012194016,0.205565,0.97856754,-0.13406372,2.9472504,10.08197,0
6012.295273979,-0.8843448,0.45695868,-0.095514625,-0.46678293,-0.8625056,0.19544245,0.0069272164,0.21742311,0.9760529,-0.89259857,0.4433873,-0.081704184,-0.45067552,-0.87239903,0.18923919,0.012627604,0.2057367,0.9785259,-0.28729248,2.889801,10.149017,0
6012.299699028,-0.88442266,0.45684305,-0.095346496,-0.46663097,-0.86250496,0.19580793,0.0072166687,0.21766861,0.9759961,-0.89256185,0.44348437,-0.08157752,-0.45073983,-0.87229085,0.1895844,0.012918405,0.20598607,0.9784696,-0.17237854,2.822754,10.182526,0
6012.304124077,-0.88457316,0.45655182,-0.09534563,-0.4663428,-0.86253977,0.19634059,0.0074002664,0.21814136,0.97588915,-0.89252937,0.44357154,-0.08145937,-0.4507959,-0.8721838,0.18994337,0.013205931,0.20625159,0.9784099,-0.20588684,2.918518,10.216049,0
6012.308549126,-0.88450664,0.45665005,-0.09549238,-0.46646646,-0.862352,0.19687027,0.0075527667,0.21867703,0.97576797,-0.8924916,0.44363073,-0.08155063,-0.450866,-0.8720419,0.19042796,0.013364133,0.20672376,0.9783081,-0.31123352,2.8658447,10.292664,0
6012.312943657,-0.8844376,0.4567519,-0.09564454,-0.46659517,-0.86216724,0.19737454,0.007689608,0.21919271,0.97565126,-0.89243805,0.44371682,-0.081668325,-0.45096695,-0.8718705,0.19097266,0.013533569,0.20726098,0.9781921,-0.296875,2.942459,10.302246,0
6012.317368706,-0.8803328,0.46421218,-0.097576335,-0.47429243,-0.85800904,0.19714777,0.007797026,0.21983537,0.9755058,-0.8923534,0.4438616,-0.081806526,-0.45112932,-0.87166506,0.19152638,0.013703323,0.20781453,0.9780723,-0.2394104,2.8275452,10.254364,0
6012.321793754,-0.8801654,0.46445295,-0.097940125,-0.4746013,-0.8576709,0.19787416,0.007902834,0.2206445,0.9753223,-0.8921909,0.4441376,-0.082080826,-0.45144755,-0.8713695,0.19212085,0.013805369,0.20846364,0.97793275,-0.26335144,2.889801,10.144226,0
6012.326188286,-0.8799575,0.46475154,-0.09839141,-0.4749852,-0.85726917,0.19869235,0.007994647,0.22157528,0.9751105,-0.8920252,0.4444039,-0.08243994,-0.45177123,-0.8710258,0.19291656,0.013925555,0.2093304,0.97774583,-0.39263916,2.9281006,10.115494,0
6012.330613335,-0.8677454,0.4860536,-0.10377649,-0.49694288,-0.84510887,0.19707471,0.00808644,0.22258171,0.97488046,-0.89184546,0.44469672,-0.0828037,-0.45212132,-0.87065715,0.19375867,0.014070222,0.21024013,0.9775485,-0.37828064,2.8658447,10.120285,0
6012.335038383,-0.86750543,0.48637947,-0.10425593,-0.4973589,-0.8446357,0.1980517,0.008270004,0.22366355,0.97463125,-0.8914246,0.44544008,-0.08333823,-0.45294544,-0.87001306,0.19472493,0.014232934,0.21133026,0.9773111,-0.33039856,2.918518,9.885651,0
6012.339432915,-0.8672305,0.48675182,-0.104804024,-0.4978343,-0.84408486,0.19920254,0.0084987115,0.22492957,0.97433794,-0.8910608,0.44608122,-0.083798416,-0.4536548,-0.8694341,0.1956572,0.014421795,0.212358,0.97708553,-0.34954834,2.956833,9.976624,0
6012.343857963,-0.86699575,0.48706913,-0.10527143,-0.49823812,-0.84357125,0.20036599,0.008788127,0.22616668,0.97404903,-0.8906801,0.44674847,-0.08429041,-0.45439366,-0.86879563,0.19677539,0.014677968,0.21356495,0.9768186,-0.24420166,2.9855652,9.823395,0
6012.348283012,-0.8667101,0.48745432,-0.10583905,-0.4987301,-0.84298706,0.20159627,0.0090480205,0.22751065,0.9737335,-0.89032227,0.44737336,-0.08475513,-0.45508388,-0.86815494,0.19800429,0.015001261,0.21485831,0.97653,-0.40701294,3.0238647,9.828186,0
6012.352677544,-0.86643,0.48783118,-0.10639476,-0.4992113,-0.8423977,0.20286545,0.009337398,0.22888218,0.9734094,-0.88997424,0.44797733,-0.085219175,-0.45575422,-0.8675326,0.19918661,0.015300668,0.21610993,0.97624916,-0.33039856,3.0669708,9.713272,0
6012.357102592,-0.87065697,0.48052362,-0.10513563,-0.49179673,-0.84619755,0.20514788,0.009612889,0.23031878,0.9730677,-0.889617,0.4485923,-0.08571172,-0.45643914,-0.86686665,0.20051321,0.015648061,0.21750216,0.97593445,-0.37828064,2.9999237,9.708481,0
6012.361527641,-0.8704007,0.48086852,-0.10567854,-0.4922437,-0.84561026,0.20649347,0.009933348,0.23175167,0.9727244,-0.8893521,0.44902697,-0.0861841,-0.45694456,-0.8662999,0.20180717,0.015955582,0.21885899,0.97562605,-0.30645752,2.8658447,9.775513,0
6012.365922172,-0.870121,0.4812443,-0.10627032,-0.49273178,-0.8449887,0.20786874,0.01023842,0.2332337,0.97236675,-0.88911635,0.44939926,-0.08667431,-0.45738938,-0.8657078,0.2033344,0.0163437,0.22043183,0.97526544,-0.3591156,2.937683,9.856918,0
6012.370347221,-0.8633649,0.4925271,-0.1096269,-0.5044705,-0.8380324,0.20787299,0.01051219,0.23477378,0.9719932,-0.888863,0.44980446,-0.08716922,-0.45786983,-0.86513007,0.2047076,0.016665671,0.22186916,0.974934,-0.3830719,3.028656,9.588776,0
6012.37477227,-0.86310464,0.49287075,-0.11013045,-0.50490683,-0.8374182,0.20928374,0.01092459,0.2362394,0.97163343,-0.8884834,0.45044315,-0.08773894,-0.45859456,-0.86442393,0.20606373,0.016976364,0.22332081,0.9745971,-0.4453125,2.9041595,9.756363,0
6012.379166801,-0.8627937,0.49328044,-0.11073115,-0.5054314,-0.83677095,0.21060263,0.011229546,0.23767364,0.9712802,-0.88812524,0.45106432,-0.088173196,-0.4592678,-0.8636861,0.20765227,0.017510569,0.22491632,0.97422075,-0.48840332,2.9089508,9.751572,0
6012.38359185,-0.8726795,0.47647023,-0.106802024,-0.48815253,-0.84604704,0.21426995,0.011733726,0.23912466,0.970918,-0.88776135,0.45168182,-0.08867495,-0.45995644,-0.8629903,0.20901623,0.017883219,0.22634315,0.9738834,-0.31602478,2.8850098,9.828186,0
6012.388016899,-0.87257326,0.47661477,-0.1070245,-0.4883288,-0.84559435,0.21565044,0.012282869,0.24043396,0.9705878,-0.88758975,0.45195627,-0.088994734,-0.4602648,-0.8624238,0.21066934,0.018462155,0.22794907,0.973498,-0.46446228,2.913742,9.885651,0
6012.392441948,-0.8725689,0.47662076,-0.107033655,-0.48831934,-0.84525585,0.21699512,0.012953551,0.24160978,0.9702871,-0.8873944,0.45230487,-0.089170665,-0.46061674,-0.8618941,0.21206327,0.019061575,0.22925726,0.9731792,-0.4453125,2.8850098,9.837769,0
6012.396836479,-0.8797269,0.46405926,-0.10358335,-0.47528094,-0.8519483,0.21975459,0.0137315085,0.24255523,0.97004044,-0.8872423,0.45260826,-0.08914524,-0.4608754,-0.86138433,0.2135672,0.019873958,0.2305707,0.9728526,-0.4453125,2.822754,9.971848,0
6012.401261528,-0.8799325,0.4637666,-0.10314713,-0.47487515,-0.8518812,0.22088884,0.014571765,0.24334927,0.9698292,-0.88721484,0.4527066,-0.08891895,-0.46089223,-0.8610599,0.21483555,0.020692933,0.23158734,0.972594,-0.45968628,2.731781,10.163376,0
6012.405686577,-0.8801768,0.46341816,-0.10262805,-0.47439587,-0.85188276,0.22191103,0.015410525,0.24400724,0.969651,-0.8871963,0.4528065,-0.08859441,-0.460888,-0.86076206,0.21603453,0.021563137,0.23249714,0.972358,-0.5650177,2.7892303,10.364487,0
6012.410081108,-0.8810731,0.4619588,-0.10151048,-0.47269416,-0.85255826,0.22294576,0.01644816,0.2444149,0.96953124,-0.88718253,0.45293388,-0.08807978,-0.4608639,-0.860464,0.21727009,0.022619512,0.23335102,0.9721294,-0.58418274,2.755722,10.747559,0
6012.414506157,-0.88141674,0.46147537,-0.10072266,-0.4720197,-0.8527149,0.22377421,0.01737858,0.24478139,0.9694226,-0.88714594,0.45308894,-0.08764975,-0.4608923,-0.860217,0.21818577,0.023459755,0.23395972,0.9719632,-0.4453125,2.7461395,10.857697,0
6012.418931206,-0.88169485,0.46108282,-0.10008343,-0.47146982,-0.8528209,0.2245272,0.018172402,0.24515082,0.9693146,-0.88711494,0.45323744,-0.087194964,-0.46090755,-0.85997677,0.21909839,0.024317956,0.23455428,0.9717988,-0.43572998,2.8802185,10.92952,0
6012.423325737,-0.8704391,0.48095787,-0.10495388,-0.4919165,-0.84165704,0.22278157,0.018813374,0.24554634,0.9692023,-0.8870771,0.45336106,-0.08693659,-0.46094742,-0.85975957,0.21986595,0.024934098,0.23511124,0.97164863,-0.40222168,2.7509308,10.972626,0
6012.427750786,-0.87051225,0.48086026,-0.104793645,-0.49177215,-0.84159696,0.22332591,0.019194545,0.24594256,0.9690943,-0.8868126,0.45387843,-0.08693494,-0.46143076,-0.85932547,0.2205478,0.025396476,0.23569903,0.97149414,-0.28729248,2.7509308,11.030075,0
6012.432175835,-0.8704604,0.4809294,-0.10490718,-0.4918598,-0.84145087,0.22368373,0.01930185,0.24630748,0.96899956,-0.8865473,0.45436236,-0.08711274,-0.46192533,-0.8589014,0.22116366,0.025667192,0.23631163,0.9713383,-0.1819458,2.70784,11.121063,0
6012.436570366,-0.8702671,0.48118672,-0.10532981,-0.4922076,-0.8411824,0.22392774,0.019149465,0.24672112,0.9688973,-0.8865473,0.45436236,-0.08711274,-0.46192533,-0.8589014,0.22116366,0.025667192,0.23631163,0.9713383,-0.1819458,2.70784,11.121063,0
6012.440995415,-0.8737903,0.47500297,-0.10422383,-0.48593938,-0.8445644,0.22488621,0.01879788,0.24714987,0.9687949,-0.88596696,0.45527893,-0.0882248,-0.46305522,-0.8580893,0.22195196,0.025345301,0.23749506,0.971058,-0.22984314,2.7174072,11.04924,0
6012.445420463,-0.87344795,0.47547123,-0.10495643,-0.48657033,-0.84416705,0.22501433,0.018387072,0.24760698,0.9686861,-0.88575256,0.4555437,-0.08900764,-0.4634901,-0.8577825,0.22223008,0.024886316,0.23809502,0.970923,-0.16758728,2.6503754,11.054016,0
6012.449814995,-0.87607914,0.47072306,-0.10442797,-0.48183855,-0.84670347,0.22566594,0.017806642,0.24801864,0.9685917,-0.8855356,0.45578465,-0.08992873,-0.46393526,-0.85746765,0.22251604,0.024308424,0.23876697,0.9707726,-0.17237854,2.6360016,10.766724,0
6012.454240044,-0.87557065,0.4714339,-0.10548045,-0.48278934,-0.84620893,0.22548816,0.017044274,0.24835564,0.968519,-0.8853907,0.4558836,-0.09084867,-0.46424612,-0.85725427,0.2226897,0.023640176,0.23934354,0.9706471,-0.08139038,2.6312256,10.838547,0
6012.458665092,-0.8749906,0.47224098,-0.106676556,-0.48387012,-0.84565574,0.22524641,0.01615894,0.2487061,0.96844417,-0.88521314,0.4560176,-0.091899976,-0.46462697,-0.8570459,0.22269745,0.022791464,0.23983392,0.97054636,-0.05265808,2.6360016,10.584763,0
6012.463090141,-0.8951911,0.43484473,-0.0976887,-0.44542295,-0.8654315,0.22940557,0.015212927,0.24887457,0.9684163,-0.885116,0.4559572,-0.0931278,-0.46486312,-0.85692394,0.2226738,0.021726277,0.24038382,0.9704347,0.05265808,2.54982,10.599121,0
6012.467484672,-0.89469916,0.43558276,-0.09889952,-0.44644433,-0.86502635,0.22894746,0.014174868,0.24899222,0.9684018,-0.8854093,0.45520437,-0.094018355,-0.46435046,-0.8572314,0.2225603,0.020714933,0.2407144,0.97037494,0.04309082,2.573761,10.450684,0
6012.471909721,-0.89419824,0.43633026,-0.10012741,-0.4474803,-0.8646401,0.2283835,0.01307645,0.24902514,0.9684088,-0.88574195,0.45434493,-0.095036246,-0.4637668,-0.8575947,0.2223772,0.019533364,0.24104345,0.9703177,0.08618164,2.5689697,10.163376,0
6012.47633477,-0.8681916,0.48308054,-0.11347422,-0.4960837,-0.83940655,0.22203039,0.01200756,0.24905767,0.96841425,-0.8860873,0.45347807,-0.09595317,-0.46315327,-0.8579948,0.22211272,0.018395927,0.24125226,0.9702881,0.01914978,2.6024933,10.038879,0
6012.480729301,-0.86761814,0.4838364,-0.11463469,-0.49711108,-0.83897674,0.22135642,0.010924457,0.24903902,0.96843183,-0.8860091,0.45338184,-0.09712282,-0.46334916,-0.85799235,0.22171311,0.017190063,0.24144161,0.9702631,0.05265808,2.487564,9.938324,0
6012.48515435,-0.8671086,0.48450467,-0.11566199,-0.4980196,-0.83860415,0.2207244,0.009947375,0.24899402,0.96845394,-0.88593775,0.4532889,-0.098200954,-0.46352556,-0.85799485,0.22133432,0.01607248,0.24160707,0.97024107,0.10055542,2.3199768,9.943115,0
6012.489579399,-0.874842,0.4710644,-0.11291566,-0.484324,-0.8462401,0.22205421,0.009048062,0.24895008,0.9684741,-0.8858999,0.4531464,-0.099195056,-0.46363232,-0.85801625,0.22102752,0.015046855,0.2417983,0.9702099,0.08139038,2.305603,9.962265,0
6012.49397393,-0.8744806,0.47154847,-0.11369124,-0.484991,-0.846033,0.22138633,0.008207842,0.24873728,0.9685362,-0.8860943,0.45256615,-0.10010368,-0.4632937,-0.8582684,0.22075859,0.013992035,0.24199034,0.97017777,0.10055542,2.2433624,10.014938,0
6012.498398979,-0.8741202,0.4720299,-0.11446304,-0.4856539,-0.8458276,0.2207173,0.0073691728,0.24852285,0.96859807,-0.8862698,0.45206207,-0.10082564,-0.46298435,-0.85851717,0.22043999,0.013092016,0.24204998,0.97017545,0.19152832,2.2529297,9.856918,0
6012.502824028,-0.880176,0.46119058,-0.11222053,-0.47460234,-0.8518799,0.22147991,0.00654603,0.24820143,0.9686864,-0.8865,0.45143074,-0.10162679,-0.46257174,-0.8588449,0.2200291,0.012046246,0.24206549,0.9701851,0.19152832,2.190689,10.053238,0
6012.507218559,-0.8798515,0.46164683,-0.112887055,-0.47521424,-0.8517483,0.22067241,0.0057213544,0.24780451,0.9687932,-0.8867892,0.4507188,-0.10226177,-0.4620402,-0.8592322,0.21963373,0.011126444,0.24201785,0.970208,0.33039856,2.070984,9.962265,0
6012.511643608,-0.87951255,0.4621221,-0.11358197,-0.47585118,-0.8516236,0.21977973,0.004836001,0.24734715,0.9689149,-0.8870655,0.45002204,-0.10293238,-0.4615321,-0.8596225,0.21917409,0.010150182,0.24192835,0.970241,0.28250122,2.094925,9.923965,0
6012.516068657,-0.8564209,0.5011256,-0.12416337,-0.5162638,-0.82944924,0.21327426,0.0038899747,0.24675354,0.9690705,-0.8874074,0.44917932,-0.10366297,-0.4608978,-0.86011523,0.21857502,0.009017282,0.24174312,0.9702984,0.296875,1.9943695,10.067612,0
6012.520463188,-0.8560894,0.50153,-0.12481375,-0.51681995,-0.8294187,0.21204191,0.0028225298,0.2460331,0.96925735,-0.88722706,0.4493295,-0.10455213,-0.46126455,-0.86010987,0.21782103,0.007947102,0.24148291,0.9703725,0.29208374,1.8411407,10.072403,0
6012.524888237,-0.85566366,0.5020482,-0.12564771,-0.51752996,-0.82932186,0.2106848,0.0015715397,0.24530178,0.9694455,-0.8870975,0.44934475,-0.10558129,-0.46153477,-0.8602106,0.2168489,0.006617774,0.24109553,0.97047883,0.2394104,1.7836761,10.00058,0
6012.529313286,-0.8597274,0.49527404,-0.12478999,-0.5107533,-0.8336139,0.21028364,1.21366276E-4,0.24452348,0.9696434,-0.88688874,0.44949412,-0.10669309,-0.46195313,-0.86022615,0.2158942,0.0052629975,0.24076135,0.97057,0.06703186,1.8937988,9.962265,0
6012.533738335,-0.85922104,0.4958919,-0.1258184,-0.51160264,-0.8334744,0.2087656,-0.0013412494,0.24374487,0.9698385,-0.8867715,0.44942772,-0.10794004,-0.462194,-0.86040133,0.21467707,0.0036100727,0.24025874,0.9707022,0.08618164,1.6974792,10.038879,0
6012.538132866,-0.85871667,0.49650523,-0.12684022,-0.51244366,-0.83329624,0.20741029,-0.002715189,0.2431051,0.96999615,-0.8865972,0.44948286,-0.109135516,-0.46253747,-0.8604779,0.21362779,0.0021133232,0.23988107,0.9708,0.13885498,1.826767,9.828186,0
6012.542557915,-0.8858745,0.44919,-0.11599478,-0.46390688,-0.85991544,0.21292236,-0.0041031046,0.24243326,0.9701594,-0.8863784,0.44962406,-0.1103242,-0.46296087,-0.8604923,0.21265031,6.7957526E-4,0.23956445,0.9708802,-0.03829956,1.7980347,9.962265,0
6012.546982963,-0.8853484,0.4499333,-0.11712506,-0.4648963,-0.859686,0.21168667,-0.0054458883,0.24186745,0.97029394,-0.88676256,0.4486202,-0.111319356,-0.46222433,-0.86111844,0.21171585,-8.7914895E-4,0.23919621,0.9709708,0.07182312,1.9464722,10.014938,0
6012.551377495,-0.8848726,0.45060256,-0.11814362,-0.46578485,-0.85950696,0.21045768,-0.006712495,0.24125771,0.9704379,-0.8870631,0.44779316,-0.11225126,-0.4616426,-0.86163,0.21090247,-0.0022783733,0.23890375,0.97104055,0.11012268,1.9033813,9.765945,0
6012.555802544,-0.8843544,0.45132792,-0.11924884,-0.4667478,-0.85925454,0.20935123,-0.007979048,0.24079983,0.97054195,-0.88737947,0.4469239,-0.11321092,-0.46102443,-0.86218566,0.20998193,-0.0037628904,0.23852664,0.9711287,0.009567261,1.9991455,9.74678,0
6012.560227592,-0.88380015,0.45210028,-0.12042673,-0.4677735,-0.8589338,0.20837624,-0.00923163,0.2404954,0.9706064,-0.88763565,0.44618738,-0.11410418,-0.4605185,-0.8626355,0.20924321,-0.0050686393,0.2382788,0.9711836,-0.0909729,2.07576,9.828186,0
6012.564622124,-0.8833094,0.4527809,-0.12146586,-0.46867767,-0.8586222,0.20762755,-0.010283487,0.24032769,0.9706373,-0.887956,0.4452937,-0.11509837,-0.459883,-0.86313295,0.20858839,-0.0064621055,0.23814909,0.97120714,0.06703186,2.0374603,9.564835,0
6012.569047172,-0.89735377,0.42585158,-0.115787335,-0.44116795,-0.87233824,0.21070608,-0.011276199,0.24015954,0.970668,-0.8882386,0.44451132,-0.115939245,-0.45931977,-0.8635367,0.20815794,-0.007589228,0.2381471,0.97119945,0.08139038,2.094925,9.536102,0
6012.573472221,-0.8969877,0.42637965,-0.116675995,-0.4418884,-0.8721051,0.21015961,-0.012145948,0.24006839,0.97067994,-0.8888043,0.44320878,-0.116588466,-0.4582052,-0.86421245,0.20780967,-0.00865413,0.23812357,0.9711963,0.11012268,2.032669,9.478638,0
6012.577866752,-0.8966374,0.42688322,-0.117524214,-0.4425763,-0.87186235,0.20971856,-0.01293961,0.24005497,0.97067297,-0.8894485,0.44173715,-0.11725843,-0.45693168,-0.8649436,0.20757172,-0.009729793,0.23820345,0.97116655,0.004776001,1.8650818,9.334991,0
6012.582291801,-0.88483584,0.44923353,-0.123510435,-0.46570593,-0.8605263,0.20642829,-0.013549464,0.24017468,0.9706352,-0.89003336,0.44041023,-0.11781089,-0.4557724,-0.865572,0.207501,-0.010588244,0.23837776,0.9711148,0.11012268,1.9656372,9.334991,0
6012.58671685,-0.8845562,0.44962096,-0.12410266,-0.4662229,-0.8602853,0.20626518,-0.014022541,0.24031262,0.97059417,-0.8904316,0.43943653,-0.118436515,-0.45497504,-0.8659869,0.20751972,-0.01137272,0.23866777,0.97103465,0.11491394,2.0183105,9.306259,0
6012.591111381,-0.8843715,0.4498763,-0.12449308,-0.466563,-0.8601389,0.20610712,-0.014358621,0.24035908,0.9705778,-0.8908054,0.43855456,-0.11889342,-0.45422748,-0.8663618,0.20759253,-0.011964067,0.2389292,0.9709633,0.06703186,1.9560547,9.129089,0
6012.59553643,-0.8609198,0.49062335,-0.13455819,-0.50852937,-0.83753896,0.19981536,-0.014663649,0.24045178,0.97055024,-0.89117724,0.43771988,-0.11918179,-0.4534856,-0.8667341,0.20766033,-0.012401862,0.23910941,0.9709134,0.0622406,1.9129639,9.229645,0
6012.599961479,-0.86072975,0.49085692,-0.13492109,-0.5088438,-0.8373539,0.19979094,-0.014907936,0.24061978,0.97050494,-0.8912119,0.4375131,-0.11968065,-0.45340466,-0.86676466,0.20770933,-0.012859411,0.23937681,0.9708416,0.23461914,1.9943695,9.320618,0
6012.604386528,-0.8605645,0.49106,-0.1352366,-0.509118,-0.83717847,0.19982752,-0.015089889,0.24081583,0.9704535,-0.8911931,0.43741977,-0.12016153,-0.45343044,-0.8667308,0.2077943,-0.013254373,0.23966974,0.970764,0.16279602,2.0901337,9.3302,0
6012.608781059,-0.8623069,0.48810673,-0.13482788,-0.5061532,-0.8388687,0.20027015,-0.015349686,0.24093793,0.9704191,-0.8912903,0.43710595,-0.12058151,-0.45322824,-0.8667999,0.20794737,-0.013625004,0.23999245,0.9706791,0.04788208,2.0661926,9.129089,0
6012.613206108,-0.86210716,0.48834285,-0.13524932,-0.506483,-0.83869565,0.20016077,-0.015685922,0.24106154,0.970383,-0.8913651,0.43685722,-0.12092969,-0.45307088,-0.86687005,0.20799772,-0.013965017,0.24019162,0.97062504,0.0143585205,2.118866,9.3589325,0
6012.617631157,-0.8618767,0.488615,-0.13573515,-0.506861,-0.83852935,0.19990131,-0.016143143,0.2410891,0.9703687,-0.8914925,0.4364737,-0.12137438,-0.45280552,-0.8669997,0.20803538,-0.014429568,0.240421,0.97056144,0.05744934,1.9704132,9.315826,0
6012.622025688,-0.86951905,0.47565174,-0.13301088,-0.49361968,-0.8459803,0.20163563,-0.016616235,0.24098285,0.97038716,-0.891532,0.4362495,-0.12188945,-0.4527102,-0.867071,0.20794559,-0.01497065,0.24057075,0.97051615,0.06703186,1.8411407,9.536102,0
6012.626450737,-0.86916184,0.4761135,-0.13369197,-0.49422753,-0.84570706,0.2012922,-0.017226303,0.24102977,0.9703648,-0.89168054,0.43581995,-0.12233828,-0.4523989,-0.86726093,0.20783089,-0.015522358,0.2406645,0.9704842,0.0143585205,1.9177551,9.435547,0
6012.630875786,-0.8686654,0.4767531,-0.13463597,-0.49506962,-0.8453252,0.20082657,-0.01806648,0.24110529,0.9703308,-0.8918448,0.4352922,-0.1230184,-0.4520483,-0.86746407,0.20774597,-0.016283846,0.24088743,0.9704164,0.0,1.9321136,9.287094,0
6012.635270317,-0.9080418,0.40201765,-0.11765296,-0.41845453,-0.8832587,0.21154252,-0.018874172,0.24132179,0.97026163,-0.89189255,0.43495968,-0.12384534,-0.45192146,-0.8675742,0.20756193,-0.017163958,0.2410913,0.9703506,0.1197052,1.9464722,9.220062,0
6012.639695366,-0.90763867,0.4026393,-0.11863187,-0.41929045,-0.88293004,0.2112576,-0.019683043,0.24148682,0.9702044,-0.8927504,0.4330136,-0.12448272,-0.45018485,-0.8684465,0.20768785,-0.018174924,0.24145365,0.97024214,0.2106781,1.826767,9.239212,0
6012.644120415,-0.9071777,0.40334737,-0.11974773,-0.42024836,-0.8824901,0.21119277,-0.020492148,0.24191315,0.97008145,-0.89349,0.43131167,-0.12508309,-0.44867635,-0.8692057,0.20777628,-0.019106595,0.24176787,0.970146,0.2394104,2.032669,9.239212,0
6012.648514946,-0.86841303,0.47626123,-0.13796373,-0.49538964,-0.8452359,0.20041317,-0.021162864,0.24238722,0.96994877,-0.89421254,0.42957276,-0.12590091,-0.44718823,-0.8699128,0.20802486,-0.020161007,0.24231988,0.9699869,0.32081604,1.9560547,9.248795,0
6012.652939995,-0.86782557,0.47700274,-0.13909452,-0.4963891,-0.8446245,0.2005179,-0.021835057,0.24305952,0.9697656,-0.89411193,0.429484,-0.12691498,-0.44735134,-0.869799,0.20815028,-0.020993298,0.24288522,0.9698279,0.2106781,2.0661926,9.076416,0
6012.657365044,-0.8672636,0.47770864,-0.14017226,-0.49734372,-0.84401834,0.2007048,-0.022429528,0.24377777,0.96957177,-0.8939352,0.42953226,-0.1279917,-0.4476662,-0.86958015,0.2083874,-0.021789938,0.24358241,0.9696354,0.40222168,2.0183105,9.248795,0
6012.661759575,-0.8405282,0.52025807,-0.15114199,-0.54128283,-0.8182357,0.19365719,-0.022918068,0.2445849,0.96935695,-0.8937659,0.42951515,-0.12922549,-0.44795984,-0.869343,0.20874567,-0.022681847,0.2444576,0.9693946,0.3543396,1.9321136,9.196121,0
6012.666184624,-0.8399496,0.52087647,-0.15222475,-0.5421588,-0.8175818,0.1939692,-0.02342217,0.24545433,0.9691252,-0.8930776,0.43055323,-0.13052298,-0.44929567,-0.8685789,0.20905514,-0.023360148,0.24534589,0.9691541,0.31602478,1.7836761,8.798691,0
6012.670609672,-0.8394265,0.52143335,-0.15320095,-0.54295117,-0.81696516,0.19435072,-0.023818908,0.24632375,0.96889496,-0.89238006,0.4315608,-0.13195854,-0.45064068,-0.8677751,0.20949791,-0.024099238,0.24641766,0.968864,0.32081604,1.874649,9.076416,0
6012.675004204,-0.86388934,0.48246357,-0.144652,-0.5031037,-0.8403024,0.20193726,-0.024124049,0.24722637,0.9686574,-0.8916281,0.43272552,-0.1332213,-0.4520961,-0.86692184,0.20989412,-0.024665913,0.24737634,0.96860546,0.43572998,1.8698578,8.822632,0
6012.679429252,-0.86354166,0.48288932,-0.1453053,-0.5036906,-0.8398511,0.20235114,-0.024321605,0.24792758,0.96847326,-0.89127946,0.43312442,-0.13425367,-0.45275456,-0.86644834,0.21042937,-0.025181772,0.24833535,0.9683468,0.28250122,1.7501526,8.865723,0
6012.683854301,-0.8631647,0.48334977,-0.14601222,-0.5043229,-0.8393924,0.20267873,-0.024596842,0.24858245,0.9682984,-0.8909208,0.4335724,-0.13518532,-0.45343718,-0.8659575,0.21097948,-0.025589861,0.24926406,0.96809745,0.27772522,1.6304474,8.83699,0
6012.68827935,-0.86294556,0.48361695,-0.14642268,-0.5046941,-0.83908474,0.20302829,-0.024673129,0.24910104,0.96816313,-0.8909208,0.4335724,-0.13518532,-0.45343718,-0.8659575,0.21097948,-0.025589861,0.24926406,0.96809745,0.27772522,1.6304474,8.83699,0
6012.692673881,-0.8614957,0.48595983,-0.14720134,-0.5071666,-0.8375979,0.20300709,-0.024642246,0.24954534,0.9680496,-0.8901602,0.43462542,-0.13680498,-0.45489106,-0.8649764,0.21187237,-0.02624797,0.25083172,0.96767473,0.3830719,1.692688,8.765167,0
6012.69709893,-0.8614804,0.4859777,-0.14723168,-0.5072014,-0.83748335,0.20339231,-0.024459962,0.2498946,0.96796405,-0.8897495,0.4352775,-0.13740188,-0.45568383,-0.86448133,0.21218923,-0.026420165,0.2514071,0.9675208,0.42137146,1.6448059,8.736435,0
6012.701523979,-0.8501226,0.5043189,-0.15150574,-0.5260291,-0.8265312,0.2003485,-0.024184674,0.25001723,0.9679393,-0.8893608,0.43592834,-0.13785475,-0.45644072,-0.86399114,0.21255867,-0.026444934,0.25196385,0.9673753,0.45489502,1.6400146,8.779526,0
6012.705887993,-0.8501152,0.5043276,-0.151519,-0.52604824,-0.8264474,0.200644,-0.02403216,0.25027677,0.967876,-0.888758,0.43703902,-0.13822478,-0.4576161,-0.8633444,0.21265954,-0.026395075,0.25225675,0.9673003,0.47883606,1.6495972,8.61673,0
6012.710252006,-0.85045755,0.5039323,-0.15091115,-0.52551997,-0.826697,0.20099984,-0.023467474,0.25024867,0.9678972,-0.8881654,0.4381758,-0.13843475,-0.45877555,-0.86271065,0.21273299,-0.026214689,0.25245255,0.9672541,0.51234436,1.6543884,8.760376,0
6012.714646538,-0.8457321,0.5114954,-0.15201876,-0.5331213,-0.8221091,0.19979599,-0.022781273,0.2500183,0.96797305,-0.887632,0.43925053,-0.1384499,-0.45982704,-0.86211604,0.21287306,-0.025855282,0.25261596,0.9672211,0.5746002,1.5729828,8.674179,0
6012.719010551,-0.8462603,0.5109279,-0.1509839,-0.5323138,-0.822592,0.19996071,-0.022032637,0.24958964,0.96810097,-0.8869864,0.44057438,-0.13838123,-0.4610939,-0.86145306,0.21281676,-0.025447326,0.2525723,0.9672433,0.5793915,1.7932434,8.875305,0
6012.723405083,-0.8468825,0.5102564,-0.149761,-0.5313618,-0.8231334,0.20026518,-0.021086693,0.24917836,0.9682281,-0.8863618,0.44190878,-0.13812853,-0.4623196,-0.860855,0.21257755,-0.024968756,0.25228012,0.96733207,0.7565613,1.7549438,8.741226,0
6012.727769096,-0.8783222,0.45830852,-0.13602759,-0.47764155,-0.8532965,0.20914961,-0.020216811,0.24867316,0.9683764,-0.8857869,0.44320506,-0.13766235,-0.46345663,-0.8602817,0.21242276,-0.024281563,0.25196183,0.9674325,0.53630066,1.8794403,8.7939,0
6012.732163627,-0.8789681,0.45745116,-0.13473462,-0.47648787,-0.8539249,0.20921633,-0.019346986,0.2480939,0.96854275,-0.88578457,0.44343042,-0.13694957,-0.4634934,-0.8602812,0.21234433,-0.0236552,0.25156656,0.9675509,0.59854126,1.8554993,8.923187,0
6012.736527641,-0.8795949,0.45661494,-0.13347512,-0.4753603,-0.85458034,0.20910539,-0.018584574,0.2473768,0.9687411,-0.8857915,0.44364396,-0.13621143,-0.463511,-0.86030865,0.2121946,-0.023045015,0.25109565,0.9676879,0.6081238,1.7980347,8.985428,0
6012.740891655,-0.89133394,0.4351559,-0.12713441,-0.45299688,-0.8659306,0.21203299,-0.017822178,0.2465837,0.9689576,-0.88579404,0.44387925,-0.13542596,-0.46353427,-0.86037517,0.21187404,-0.022470646,0.25045133,0.9678684,0.64642334,1.9321136,9.047684,0
6012.745286186,-0.89194375,0.43428177,-0.1258399,-0.451821,-0.8666426,0.21163277,-0.017149962,0.24562164,0.9692141,-0.88602674,0.44367298,-0.13457681,-0.46311355,-0.86067975,0.2115567,-0.021965541,0.24976924,0.96805626,0.65600586,1.8650818,8.889664,0
6012.7496502,-0.8925136,0.43346068,-0.12462524,-0.45071608,-0.86733776,0.21114017,-0.016571216,0.24461605,0.96947837,-0.8862412,0.4435238,-0.13365294,-0.46272424,-0.861034,0.21096641,-0.0215111,0.24881157,0.96831304,0.53630066,1.9752045,9.215271,0
6012.754044731,-0.8644512,0.48402593,-0.13580532,-0.50246245,-0.8404829,0.20278111,-0.015990727,0.24353144,0.9697612,-0.8864442,0.44336942,-0.13281621,-0.46235323,-0.8613728,0.2103956,-0.021121293,0.24791199,0.96855223,0.62727356,1.9704132,9.21048,0
6012.758408745,-0.86506057,0.48326725,-0.1346212,-0.50142676,-0.84124136,0.20219809,-0.015533202,0.24241629,0.97004795,-0.8860666,0.44429877,-0.13222922,-0.46309286,-0.8611763,0.20957197,-0.020760098,0.24692914,0.9688111,0.46925354,2.0135193,9.267944,0
6012.762772758,-0.86559117,0.48260382,-0.13358694,-0.5005193,-0.84195524,0.2014736,-0.015242304,0.2412566,0.97034156,-0.8856761,0.44526067,-0.13160877,-0.46385348,-0.86100686,0.20858376,-0.020441912,0.24578482,0.9691088,0.36390686,2.0374603,9.248795,0
6012.76716729,-0.86608976,0.48197782,-0.1326119,-0.49966303,-0.8426491,0.2006973,-0.015013657,0.24008314,0.97063625,-0.88526785,0.44621068,-0.13113682,-0.46464035,-0.8608208,0.2075978,-0.020252947,0.24471113,0.9693845,0.40222168,2.166748,9.464264,0
6012.771531303,-0.8665542,0.48139253,-0.13170125,-0.49886042,-0.8433475,0.19975823,-0.014907804,0.23880184,0.9709538,-0.88482004,0.44722006,-0.13071924,-0.46549734,-0.860616,0.2065242,-0.020137321,0.24358624,0.9696702,0.37828064,2.0614014,9.354141,0
6012.775925835,-0.86701936,0.48080394,-0.13078636,-0.49805558,-0.8440323,0.19887227,-0.014769331,0.23756497,0.97125936,-0.88430214,0.44835904,-0.13032265,-0.46648076,-0.8604059,0.20517643,-0.02013767,0.24223095,0.9700096,0.45010376,2.1475983,9.478638,0
6012.780289848,-0.8919809,0.4359749,-0.11956575,-0.4518318,-0.8683993,0.20428112,-0.014769377,0.23623846,0.97158295,-0.88378936,0.44946575,-0.1299879,-0.46745208,-0.8601593,0.2039964,-0.020120895,0.24105297,0.97030336,0.41178894,2.099701,9.574402,0
6012.784684379,-0.89228565,0.4355307,-0.11890851,-0.4512285,-0.86895263,0.20325848,-0.014800559,0.23501955,0.97187793,-0.8837265,0.44972533,-0.12951666,-0.46756676,-0.8603747,0.2028218,-0.020218765,0.23979668,0.9706125,0.31123352,2.099701,9.3302,0
6012.789048393,-0.89254284,0.43515506,-0.11835296,-0.45071825,-0.86942935,0.20235053,-0.0148456665,0.23395033,0.9721352,-0.8836204,0.45006832,-0.12904838,-0.4677624,-0.86056054,0.20157851,-0.02032984,0.23848288,0.97093385,0.33039856,2.2002563,9.52652,0
6012.793412407,-0.89987177,0.42080766,-0.11468098,-0.4358961,-0.87674457,0.20325762,-0.015013575,0.2328948,0.97238606,-0.88354546,0.45032334,-0.12867138,-0.4678998,-0.86071986,0.20057695,-0.020425523,0.23742415,0.97119135,0.20588684,2.166748,9.555252,0
6012.797806938,-0.90000284,0.42061535,-0.11435726,-0.43562004,-0.87707907,0.20240408,-0.015166105,0.23198058,0.9726021,-0.88357913,0.45035088,-0.1283435,-0.46782812,-0.86098593,0.19960001,-0.020611895,0.23640507,0.97143596,0.21546936,2.1140747,9.38765,0
6012.802170952,-0.9001166,0.42044824,-0.11407604,-0.4353801,-0.8773724,0.20164783,-0.01530469,0.23117301,0.97279227,-0.88352877,0.4505289,-0.12806506,-0.46791464,-0.8611672,0.19861247,-0.020804776,0.23540334,0.9716751,0.15322876,2.1475983,9.38765,0
6012.806565483,-0.873097,0.47110474,-0.12554675,-0.48730054,-0.8514069,0.19402185,-0.015486758,0.2305789,0.9729304,-0.8835282,0.45060223,-0.12781055,-0.46790951,-0.86134785,0.19783944,-0.020942455,0.2346005,0.97186625,0.04788208,2.0901337,9.449905,0
6012.810929497,-0.8731559,0.47102657,-0.1254307,-0.48719022,-0.851574,0.1935651,-0.015639223,0.2301211,0.9730363,-0.88298416,0.45164642,-0.12788498,-0.46892953,-0.8609581,0.19712003,-0.02107506,0.2340229,0.9720026,0.0335083,2.05661,9.3685,0
6012.815324028,-0.87321454,0.4709486,-0.12531509,-0.4870841,-0.8516834,0.19335121,-0.01567029,0.22987606,0.9730938,-0.8823787,0.45279327,-0.12800792,-0.4700624,-0.86049044,0.19646251,-0.021192694,0.23352604,0.97211957,0.08139038,2.2050476,9.253586,0
6012.819688042,-0.8828485,0.453707,-0.12136083,-0.46939436,-0.8610412,0.19564557,-0.015730908,0.22969149,0.9731364,-0.88182294,0.4538459,-0.12811005,-0.47110376,-0.8600159,0.19604549,-0.021202251,0.23323052,0.9721903,0.004776001,2.1619568,9.306259,0
6012.824052055,-0.88281494,0.45375288,-0.12143337,-0.46945432,-0.8610284,0.19555737,-0.01582285,0.2296484,0.973145,-0.88148135,0.45449984,-0.12814245,-0.47174257,-0.85973406,0.19574556,-0.021202095,0.2329963,0.97224647,-0.0335083,2.2960358,9.081192,0
6012.828446586,-0.8827588,0.4538298,-0.12155491,-0.46955705,-0.8609767,0.19553913,-0.015914466,0.22969082,0.97313356,-0.8810963,0.4552115,-0.12826492,-0.47245952,-0.85940075,0.19547977,-0.02124634,0.23283646,0.9722838,-0.09576416,2.1811066,9.047684,0
6012.8328106,-0.87465763,0.4683348,-0.12504555,-0.48447472,-0.8531406,0.19348226,-0.016066952,0.22981219,0.97310245,-0.88075197,0.45584294,-0.12838726,-0.47310108,-0.85907763,0.19534859,-0.021246348,0.2327938,0.97229403,-0.0622406,2.324768,8.908813,0
6012.837205131,-0.8745417,0.46848863,-0.1252802,-0.48467892,-0.85302305,0.19348912,-0.01621943,0.22993499,0.97307086,-0.8802355,0.45676357,-0.1286566,-0.47405803,-0.85859096,0.1951681,-0.021317715,0.23278457,0.9722947,-0.13885498,2.3199768,8.884872,0
6012.841569145,-0.8744464,0.46861503,-0.12547305,-0.48484686,-0.8529245,0.19350256,-0.016340828,0.23004283,0.97304326,-0.8797159,0.45768893,-0.12892126,-0.47501838,-0.8581024,0.19498163,-0.021386702,0.2327684,0.972297,-0.10533142,2.3726501,8.827408,0
6012.845933159,-0.8751763,0.46729332,-0.12531318,-0.48352548,-0.8536117,0.19377874,-0.01641728,0.23018268,0.97300893,-0.8792712,0.45848957,-0.12911043,-0.47583973,-0.85768586,0.19481157,-0.021417117,0.2327281,0.972306,-0.1819458,2.4779968,8.736435,0
6012.85032769,-0.87514305,0.4673372,-0.12538114,-0.4835824,-0.8536005,0.19368546,-0.016508985,0.23013464,0.97301877,-0.8788924,0.45918852,-0.12920547,-0.47654074,-0.85732794,0.19467342,-0.021379653,0.23266865,0.97232103,-0.27772522,2.3918,8.69812,0
6012.854691704,-0.8752178,0.4672384,-0.12522818,-0.48344988,-0.85368747,0.19363348,-0.016432725,0.23001301,0.9730488,-0.8784461,0.4600357,-0.1292266,-0.47736555,-0.85693634,0.19437659,-0.021318797,0.2324377,0.9723776,-0.20588684,2.3439178,8.650238,0
6012.859086235,-0.858362,0.49590698,-0.13149521,-0.5127876,-0.83738464,0.1893037,-0.016235042,0.2299202,0.973074,-0.87804806,0.46082965,-0.12910314,-0.47810578,-0.85658103,0.19412307,-0.021129636,0.23217435,0.97244465,-0.26335144,2.4061584,8.573624,0
6012.863450249,-0.85857934,0.49564072,-0.13107939,-0.51243275,-0.8375925,0.18934482,-0.015944099,0.22973692,0.9731221,-0.87731934,0.46224976,-0.12898053,-0.47945657,-0.8558896,0.19384125,-0.020790027,0.23190123,0.97251713,-0.28250122,2.4109497,8.564056,0
6012.86784478,-0.8588878,0.49526218,-0.13048841,-0.5119293,-0.8378751,0.18945691,-0.015502153,0.22952305,0.9731798,-0.87667394,0.46354648,-0.12871453,-0.48065376,-0.85528255,0.19355555,-0.0203653,0.23155224,0.9726093,-0.22026062,2.4253235,8.587997,0
6012.872208794,-0.8636263,0.48759657,-0.12805945,-0.5039112,-0.8424584,0.19062354,-0.014937381,0.22915809,0.9732746,-0.87605244,0.46482438,-0.12833694,-0.48180747,-0.85469174,0.19329673,-0.019839488,0.23117177,0.97271067,-0.2394104,2.305603,8.860931,0
6012.876572807,-0.86407065,0.4870285,-0.12722164,-0.5031673,-0.84286606,0.19078739,-0.014311901,0.2288675,0.97335243,-0.8755186,0.46600538,-0.12769507,-0.48280615,-0.8541835,0.19305113,-0.019112153,0.23067185,0.9728438,-0.1819458,2.2194214,8.884872,0
6012.880967338,-0.8645756,0.4863802,-0.12626648,-0.5023196,-0.8433145,0.1910385,-0.013565015,0.22859338,0.97342753,-0.87505335,0.46703318,-0.12712856,-0.48367605,-0.8537136,0.1929524,-0.018416205,0.23033269,0.97293764,-0.02394104,2.2625122,8.83699,0
6012.885331352,-0.8783705,0.4626737,-0.119993165,-0.47781104,-0.85662365,0.19466029,-0.012724783,0.2283179,0.9735035,-0.87461,0.46803746,-0.1264843,-0.4845056,-0.85326153,0.19287062,-0.017653521,0.22996892,0.9730379,0.04309082,2.2673035,8.664612,0
6012.889725883,-0.8789028,0.4619528,-0.118867666,-0.4768551,-0.8570771,0.19500768,-0.011794403,0.22807544,0.973572,-0.87442946,0.46861264,-0.12559946,-0.4848633,-0.8530533,0.19289285,-0.016751004,0.22956978,0.97314805,0.13406372,2.329544,8.865723,0
6012.894089897,-0.8794628,0.46119058,-0.117679045,-0.47584426,-0.8575651,0.19533089,-0.0108326655,0.22778317,0.9736516,-0.874292,0.46909624,-0.124748066,-0.48514038,-0.8528809,0.19295864,-0.015879072,0.22922254,0.9732445,0.28250122,2.300827,9.038101,0
6012.898453911,-0.87890476,0.4624418,-0.116936095,-0.47689646,-0.8569469,0.19547859,-0.009810542,0.22757345,0.9737115,-0.87416905,0.4695529,-0.12388933,-0.48538956,-0.8527273,0.19301085,-0.015015001,0.2288587,0.97334385,0.33517456,2.3343353,9.21048,0
6012.902848442,-0.87948424,0.46165156,-0.11569495,-0.47584715,-0.85743815,0.19588071,-0.008772614,0.22732711,0.9737789,-0.87403387,0.47005033,-0.12295297,-0.48566267,-0.85253453,0.19317526,-0.014019554,0.22855538,0.9734299,0.40701294,2.367859,9.239212,0
6012.907212456,-0.8800211,0.4609157,-0.11454054,-0.4748711,-0.85787445,0.19633856,-0.007765877,0.22717407,0.97382325,-0.87392145,0.47048473,-0.12208777,-0.48588973,-0.8523824,0.19327515,-0.013132465,0.2282285,0.973519,0.49798584,2.4061584,9.162598,0
6012.911606987,-0.8443484,0.5204675,-0.12723705,-0.5357501,-0.8231835,0.18799134,-0.0068960497,0.22689746,0.9738943,-0.873807,0.47090203,-0.121295676,-0.48611754,-0.8522205,0.1934168,-0.012290294,0.22797291,0.9735899,0.42137146,2.4348907,9.263153,0
6012.915971001,-0.8448348,0.51989955,-0.12632711,-0.534992,-0.8236004,0.18832366,-0.006133682,0.22668639,0.9739484,-0.87299335,0.4725528,-0.12073325,-0.48759705,-0.85141623,0.19323437,-0.011480807,0.22756147,0.97369605,0.5027771,2.4779968,9.320618,0
6012.920365532,-0.8452815,0.51937616,-0.12548953,-0.53429353,-0.8239898,0.18860357,-0.0054458925,0.22647133,0.9740026,-0.8722284,0.4740574,-0.12036302,-0.48897803,-0.8506655,0.19305083,-0.01087149,0.22723928,0.97377825,0.59854126,2.5067291,9.306259,0
6012.924729545,-0.87367445,0.47293162,-0.11414389,-0.48648703,-0.85158575,0.19527511,-0.0048515364,0.22613636,0.9740836,-0.8714806,0.47550562,-0.12006653,-0.49032047,-0.8499448,0.1928202,-0.010362839,0.22691014,0.97386056,0.5602417,2.324768,9.296677,0
6012.929093559,-0.87405145,0.47241434,-0.11339642,-0.48581406,-0.8519577,0.1953276,-0.0043333983,0.22581595,0.9741604,-0.8712004,0.4761452,-0.11956411,-0.49082798,-0.84970015,0.1926071,-0.009884696,0.2264848,0.9739645,0.6607971,2.4300995,9.3637085,0
6012.93348809,-0.8744426,0.47187614,-0.112619355,-0.48511407,-0.8523529,0.1953431,-0.0038136889,0.22544955,0.9742474,-0.8709967,0.47661898,-0.11915933,-0.49119595,-0.8495422,0.19236562,-0.009545779,0.22608043,0.97406185,0.50756836,2.5306702,9.344559,0
6012.937852104,-0.87480074,0.4713817,-0.11190595,-0.484471,-0.8527389,0.19525403,-0.003387381,0.22502355,0.9743474,-0.8709967,0.47661898,-0.11915933,-0.49119595,-0.8495422,0.19236562,-0.009545779,0.22608043,0.97406185,0.50756836,2.5306702,9.344559,0
6012.942246635,-0.8582444,0.499564,-0.11769533,-0.5132327,-0.8366684,0.19125405,-0.0029283303,0.22454785,0.9744587,-0.8706256,0.47754762,-0.11814918,-0.49186724,-0.8493088,0.19167987,-0.008808873,0.22499512,0.97432005,0.41178894,2.5354462,9.502579,0
6012.946610649,-0.85862756,0.49907562,-0.11697141,-0.51259375,-0.8370903,0.19112146,-0.0025315776,0.22406095,0.9745718,-0.87014455,0.47852856,-0.11772393,-0.49272472,-0.8489078,0.19125327,-0.008416614,0.22442348,0.97445536,0.46446228,2.525879,9.406815,0
6012.950974663,-0.854385,0.5060858,-0.11791242,-0.51963633,-0.8329978,0.18998095,-0.0020741248,0.22358847,0.97468144,-0.86966234,0.47949257,-0.11736372,-0.49358034,-0.84851885,0.19077276,-0.008111206,0.22383632,0.97459304,0.39263916,2.5210876,9.636658,0
6012.955369194,-0.85476303,0.5056083,-0.11721916,-0.51901567,-0.83341044,0.18986785,-0.001692906,0.22313061,0.9747871,-0.86909884,0.4806217,-0.11691901,-0.49457875,-0.8480431,0.19030187,-0.007689151,0.22321679,0.9747385,0.42616272,2.4779968,9.727631,0
6012.959733208,-0.8551327,0.50514007,-0.1165399,-0.5184075,-0.83380437,0.18979953,-0.001296135,0.22271895,0.9748818,-0.86858565,0.48162377,-0.116608836,-0.49548417,-0.84760743,0.18988709,-0.0073843803,0.22271101,0.97485656,0.40701294,2.4732056,9.866501,0
6012.964127739,-0.84826237,0.51613593,-0.11855184,-0.5295752,-0.8271329,0.18815215,-9.4603904E-4,0.22238453,0.9749586,-0.868052,0.48267242,-0.11624551,-0.49642372,-0.8471445,0.18949857,-0.007011009,0.22220166,0.9749755,0.4165802,2.6551666,9.9479065,0
6012.968491752,-0.8486046,0.5157072,-0.117966786,-0.52902704,-0.8275067,0.18805009,-6.3951017E-4,0.22198783,0.9750492,-0.86742127,0.48385897,-0.11602088,-0.49752906,-0.846584,0.18910386,-0.0067218216,0.22175647,0.9750789,0.34475708,2.664734,9.828186,0
6012.972886284,-0.84883255,0.5154212,-0.1175767,-0.5286616,-0.8277587,0.18796906,-4.4190022E-4,0.22171254,0.97511196,-0.86677635,0.4850683,-0.11579125,-0.4986554,-0.84602255,0.18864962,-0.0064540547,0.22125694,0.9751942,0.34954834,2.6743164,10.01973,0
6012.977250297,-0.8489881,0.51522565,-0.117310084,-0.5284118,-0.827917,0.18797426,-2.738541E-4,0.22157596,0.9751431,-0.8660838,0.486328,-0.11568868,-0.49985936,-0.8454123,0.18819846,-0.006278456,0.22082372,0.9752935,0.49798584,2.6695251,9.923965,0
6012.981614311,-0.84903216,0.51517034,-0.1172346,-0.5283412,-0.8279564,0.1879999,-2.1316804E-4,0.22155783,0.9751473,-0.8654234,0.4874939,-0.1157237,-0.50100315,-0.8448069,0.18787517,-0.0061761816,0.2205695,0.9753517,0.34954834,2.6791077,9.938324,0
6012.986008842,-0.8489994,0.51521164,-0.11729091,-0.528394,-0.8279016,0.18809304,-1.9760961E-4,0.22166663,0.9751225,-0.8647526,0.48864728,-0.115874246,-0.50216067,-0.8441754,0.18762358,-0.0061364374,0.22043546,0.97538227,0.3830719,2.6982574,10.038879,0
6012.990372856,-0.87915194,0.46461457,-0.10594891,-0.47654152,-0.85727596,0.19490045,-2.7385453E-4,0.22183616,0.97508395,-0.86401725,0.4898798,-0.11615567,-0.50342464,-0.8434669,0.18742295,-0.0061587472,0.22041225,0.9753874,0.31602478,2.7892303,10.005356,0
6012.994767387,-0.8789884,0.46484438,-0.10629721,-0.47684294,-0.85707664,0.19503938,-4.4189932E-4,0.22212443,0.9750182,-0.8638936,0.49006817,-0.11627987,-0.5036357,-0.8433509,0.1873778,-0.0062368372,0.22043717,0.9753812,0.28729248,2.7269897,10.125076,0
6012.999131401,-0.87877333,0.4651462,-0.10675475,-0.47723913,-0.85679024,0.19532886,-6.099452E-4,0.22259732,0.97491026,-0.86374015,0.4902752,-0.11654697,-0.50389695,-0.84318787,0.18740876,-0.0063891225,0.22060014,0.9753434,0.27293396,2.9711914,9.971848,0
6013.003525932,-0.8774946,0.46735036,-0.107642256,-0.4795859,-0.8554547,0.1954341,-7.468737E-4,0.22311607,0.9747915,-0.8635052,0.4906015,-0.11691453,-0.5042973,-0.8429293,0.18749522,-0.0065652407,0.22086278,0.9752828,0.40222168,2.9281006,10.038879,0
6013.007889946,-0.87717736,0.46779782,-0.10828323,-0.48016578,-0.8550309,0.19586553,-9.60039E-4,0.22380267,0.97463405,-0.86326766,0.49092406,-0.11731407,-0.50470144,-0.84265745,0.18762968,-0.006743644,0.22118321,0.975209,0.28729248,3.0478058,9.995789,0
6013.01225396,-0.8768834,0.4682111,-0.10887571,-0.48070183,-0.85462487,0.1963213,-0.0011280786,0.22448762,0.9744762,-0.8629898,0.4912948,-0.11780517,-0.50517374,-0.8423236,0.18785748,-0.0069366656,0.22163117,0.97510594,0.21546936,2.942459,9.866501,0
6013.016648491,-0.8353715,0.53534365,-0.1247461,-0.54968446,-0.81407076,0.18744564,-0.0012043184,0.22515775,0.9743216,-0.86265707,0.49175385,-0.11832599,-0.5057396,-0.84191704,0.18815733,-0.0070935776,0.22215739,0.974985,0.12927246,2.8658447,10.058029,0
6013.021012504,-0.8350714,0.53568757,-0.12527841,-0.55014026,-0.8136406,0.18797551,-0.0012354545,0.22589366,0.9741512,-0.8615575,0.49351662,-0.1189961,-0.50761026,-0.8407541,0.18831982,-0.007107491,0.22265199,0.97487205,0.14364624,2.9520416,9.962265,0
6013.025407036,-0.83479893,0.5359991,-0.1257609,-0.5505536,-0.81324494,0.18847682,-0.0012510059,0.22657834,0.9739921,-0.8604389,0.49530426,-0.119660474,-0.50950444,-0.8395593,0.18853493,-0.0070799123,0.22319032,0.97474915,0.15322876,2.937683,9.967056,0
6013.029771049,-0.8534691,0.5072392,-0.11957795,-0.5211419,-0.83126634,0.19340976,-0.0012961229,0.22738633,0.97380376,-0.85922146,0.49723935,-0.12038069,-0.5115552,-0.8382634,0.18874782,-0.0070578814,0.22375755,0.97461927,-0.009567261,3.0573883,9.938324,0
6013.034135063,-0.853222,0.5075435,-0.12004969,-0.52154654,-0.83085436,0.1940885,-0.0012354458,0.22821206,0.9736107,-0.8584493,0.4984438,-0.12090751,-0.51285076,-0.8373948,0.18908763,-0.006997752,0.22432965,0.97448814,-0.0335083,3.0238647,9.856918,0
6013.038529594,-0.85296434,0.50786,-0.12054063,-0.5219679,-0.83042586,0.1947885,-0.0011747612,0.22906598,0.97341025,-0.85768425,0.49965036,-0.121355616,-0.5141315,-0.83651006,0.1895249,-0.0068190144,0.22494526,0.97434753,-0.08139038,2.9759827,9.86171,0
6013.042893608,-0.85259295,0.5083739,-0.12100106,-0.5225747,-0.8298534,0.1955992,-9.756054E-4,0.22999859,0.9731905,-0.8568957,0.5008795,-0.121858574,-0.5154474,-0.83557665,0.1900677,-0.006621171,0.22567984,0.974179,0.0909729,2.9855652,9.837769,0
6013.047288139,-0.85244215,0.50855803,-0.121290095,-0.5228213,-0.8294826,0.19651127,-6.706269E-4,0.2309275,0.9729707,-0.8561684,0.50201494,-0.122297324,-0.51665753,-0.8346961,0.19064982,-0.0063720453,0.22641419,0.9740102,0.04788208,3.0238647,9.832977,0
6013.051652153,-0.8523219,0.5087044,-0.12152005,-0.5230174,-0.8291454,0.19740982,-3.345369E-4,0.23181383,0.9727601,-0.85536337,0.5032914,-0.12268325,-0.517994,-0.8337056,0.19135623,-0.005973761,0.2272283,0.97382313,-0.05744934,2.9328918,9.995789,0
6013.056046684,-0.81259423,0.5668444,-0.13556539,-0.5828298,-0.79029524,0.1890576,2.9563746E-5,0.23263867,0.9725632,-0.8546635,0.5044141,-0.122949876,-0.5191528,-0.8328285,0.19203396,-0.005531529,0.2279542,0.9736561,-0.0622406,2.9520416,9.900009,0
6013.060410698,-0.8125426,0.566897,-0.13565455,-0.5829014,-0.790038,0.18990976,4.8701858E-4,0.23338304,0.9723847,-0.8532233,0.50672424,-0.12345208,-0.521521,-0.8312381,0.19250734,-0.0050699366,0.22863463,0.97349906,0.0622406,2.980774,10.072403,0
6013.064774711,-0.81246436,0.5669768,-0.13579005,-0.58301026,-0.78977215,0.19068055,8.6824363E-4,0.23408814,0.97221506,-0.85172004,0.5091412,-0.123887874,-0.52397776,-0.82957554,0.19300722,-0.004506418,0.2293026,0.97334474,0.0622406,2.9903564,10.06282,0
6013.069169243,-0.83103085,0.54090315,-0.12965906,-0.55622506,-0.8076628,0.19568914,0.0011280875,0.23474334,0.9720566,-0.8503376,0.51133657,-0.12434196,-0.5262217,-0.8280685,0.19337338,-0.00408479,0.22986409,0.97321415,0.15322876,2.846695,10.029297,0
6013.073533256,-0.83093065,0.5410136,-0.12984087,-0.55637443,-0.8074026,0.19633847,0.0013879328,0.23538376,0.97190154,-0.8492837,0.51297665,-0.124788634,-0.52792317,-0.8268944,0.19375952,-0.00379292,0.2304356,0.97308016,0.13885498,2.8419037,10.086761,0
6013.077927788,-0.83076596,0.54119474,-0.13013937,-0.55661994,-0.80711627,0.19681884,0.0014797354,0.23594855,0.97176445,-0.84816474,0.5147062,-0.12527551,-0.52972096,-0.8256438,0.19418553,-0.003484446,0.23106241,0.9729327,0.13885498,2.8323364,10.01973,0
6013.082291801,-0.8726331,0.47482607,-0.11424406,-0.48837402,-0.8476868,0.20716646,0.0015248592,0.23657413,0.9716123,-0.84715784,0.5162343,-0.1258002,-0.53133065,-0.8245506,0.19443233,-0.0033560018,0.2315564,0.9728157,0.20588684,2.937683,10.2447815,0
6013.086655815,-0.8723872,0.47515684,-0.11474576,-0.48881343,-0.84731877,0.2076352,0.0014330465,0.23722754,0.9714531,-0.847037,0.5163673,-0.12606798,-0.53152376,-0.82431823,0.1948895,-0.0032855652,0.23208675,0.97268957,0.19631958,2.9328918,9.976624,0
6013.091050346,-0.8721776,0.4754381,-0.11517261,-0.48918727,-0.8469892,0.20809835,0.0013879274,0.23783973,0.9713034,-0.84682256,0.5166027,-0.12654367,-0.5318648,-0.8239987,0.19531012,-0.0033740771,0.23269713,0.9725434,0.15800476,2.8371277,10.024521,0
6013.09541436,-0.87016827,0.4788125,-0.116386645,-0.49275297,-0.84490126,0.20817433,0.0013412581,0.23849654,0.9711425,-0.8467053,0.5167114,-0.12688355,-0.5320514,-0.82377493,0.19574498,-0.0033798402,0.23324688,0.9724117,0.15800476,2.8419037,9.990997,0
6013.099808891,-0.86986774,0.47921056,-0.116993554,-0.49328375,-0.8444811,0.20862149,0.0011747668,0.23918408,0.97097355,-0.8465569,0.5168589,-0.12727237,-0.5322873,-0.8235127,0.19620647,-0.003399354,0.23384541,0.9722678,0.15322876,2.755722,9.962265,0
6013.104172905,-0.86961913,0.47953895,-0.117494576,-0.49372196,-0.8441042,0.20910957,0.0010985265,0.23985533,0.970808,-0.84632176,0.5170991,-0.127859,-0.5326601,-0.8231586,0.1966801,-0.003545133,0.23456006,0.97209513,0.2106781,2.6934662,9.9479065,0
6013.108567436,-0.8392768,0.5279573,-0.12990591,-0.5437034,-0.81451225,0.20237666,0.0010362848,0.24048032,0.9706534,-0.8461821,0.51721525,-0.1283132,-0.5328816,-0.8228988,0.19716685,-0.0036110692,0.2352148,0.9719367,0.16279602,2.6024933,9.900009,0
6013.11293145,-0.8390897,0.52816635,-0.13026515,-0.5439922,-0.8142057,0.20283392,0.0010673972,0.24105904,0.9705098,-0.8454135,0.5183096,-0.12896173,-0.5340999,-0.8220274,0.19750515,-0.0036412538,0.23585197,0.97178215,0.21546936,2.525879,9.900009,0
6013.117295463,-0.838927,0.5283476,-0.13057706,-0.5442427,-0.8138974,0.20339848,0.0011887727,0.24170208,0.9703497,-0.8446141,0.5194528,-0.1295989,-0.5353636,-0.8211035,0.19792667,-0.0036005487,0.23655418,0.9716116,0.30645752,2.597702,10.038879,0
6013.121689995,-0.82707596,0.545616,-0.13508709,-0.5620884,-0.8022262,0.20122108,0.0014190427,0.242356,0.9701864,-0.8439275,0.5204331,-0.13013719,-0.5364457,-0.82029074,0.19836614,-0.0035140198,0.23721819,0.97145003,0.30166626,2.597702,9.804245,0
6013.126054008,-0.8269987,0.5456983,-0.13522755,-0.5622012,-0.8019845,0.20186773,0.0017084774,0.24296945,0.9700324,-0.843035,0.52174616,-0.13066375,-0.53784853,-0.8192626,0.19881587,-0.0033165251,0.23788604,0.9712874,0.3591156,2.683899,10.06282,0
6013.13044854,-0.82693195,0.5457693,-0.13534889,-0.5622984,-0.80176526,0.20246714,0.0019823217,0.24353305,0.9698906,-0.84213614,0.52307254,-0.131156,-0.53925633,-0.8182144,0.19931822,-0.003055844,0.23857976,0.9711181,0.46446228,2.688675,10.201691,0
6013.134812553,-0.8225632,0.5519339,-0.13696289,-0.56866884,-0.79734766,0.20211948,0.0023495296,0.24414258,0.96973646,-0.8413049,0.5242912,-0.13162392,-0.5405534,-0.81726253,0.1997098,-0.0028652053,0.23916657,0.9709743,0.5458679,2.5833435,10.115494,0
6013.139176567,-0.8225692,0.55192745,-0.13695253,-0.56865835,-0.7971794,0.20281217,0.0027618513,0.24470624,0.9695934,-0.8404316,0.52557087,-0.13209876,-0.5419115,-0.8162468,0.20018265,-0.002615022,0.23982565,0.97081244,0.58418274,2.5689697,10.08197,0
6013.143571098,-0.8225112,0.5519891,-0.13705267,-0.5687407,-0.79696244,0.20343278,0.003066848,0.24527316,0.96944916,-0.8395661,0.5268398,-0.13254641,-0.5432526,-0.81522703,0.20070241,-0.0023173855,0.24050912,0.97064406,0.54107666,2.5019379,10.321396,0
6013.147935112,-0.8088627,0.57061505,-0.14191453,-0.587988,-0.78355384,0.20078242,0.0033717863,0.24584943,0.9693022,-0.83878726,0.52795726,-0.13302995,-0.5444551,-0.81430537,0.20118472,-0.0021100757,0.24118005,0.97047806,0.51234436,2.5593872,10.249573,0
6013.152329643,-0.80865854,0.5708187,-0.14225829,-0.5882682,-0.7832273,0.20123488,0.0034480577,0.24641632,0.9691579,-0.8377914,0.52939713,-0.13358252,-0.5459872,-0.8131778,0.2015933,-0.0019034271,0.24182747,0.9703174,0.5219269,2.4444733,10.508148,0
6013.156693657,-0.8085422,0.5709346,-0.14245403,-0.58842677,-0.7829701,0.20177174,0.0036612148,0.24696474,0.9690176,-0.8367603,0.53087133,-0.13419335,-0.5475667,-0.81200874,0.20202112,-0.0017189335,0.24252304,0.97014415,0.46925354,2.439682,10.345337,0
6013.161088188,-0.82603455,0.5467758,-0.13675949,-0.56360865,-0.79982936,0.20644191,0.003493186,0.247607,0.96885425,-0.83581394,0.5322072,-0.1347989,-0.5490107,-0.8109327,0.20242429,-0.0015811798,0.24319504,0.9699762,0.51234436,2.487564,10.603912,0
6013.165452202,-0.82566804,0.5471566,-0.13744773,-0.5641467,-0.79936516,0.20676968,0.0032644589,0.24826382,0.96868694,-0.8351319,0.5330893,-0.13553815,-0.5500473,-0.81012213,0.20285502,-0.0016626036,0.24396308,0.96978307,0.46925354,2.5833435,10.441101,0
6013.169816215,-0.8251419,0.54770154,-0.1384337,-0.56491846,-0.79874986,0.20704061,0.0028225568,0.24904163,0.96848863,-0.8345001,0.533861,-0.13638926,-0.5510044,-0.8093952,0.20315902,-0.00193413,0.2446873,0.96960014,0.47883606,2.597702,10.364487,0
6013.174210747,-0.8007842,0.58039993,-0.14792123,-0.5989487,-0.7750304,0.20146583,0.002287306,0.24992786,0.9682618,-0.83384484,0.53460324,-0.13748533,-0.5519936,-0.80865055,0.20343871,-0.002418586,0.24552733,0.9693867,0.5219269,2.621643,10.086761,0
6013.17857476,-0.7999745,0.58116215,-0.14930278,-0.60003173,-0.7741346,0.20168667,0.0016322081,0.2509306,0.9680037,-0.83265215,0.53605896,-0.13903649,-0.5537876,-0.8073766,0.20362303,-0.0031008727,0.24654385,0.9691267,0.296875,2.6264343,10.077194,0
6013.182969292,-0.79914635,0.5819376,-0.15071115,-0.6011357,-0.7731834,0.20204782,0.001051847,0.2520636,0.9677101,-0.8315066,0.5374462,-0.14052892,-0.55550236,-0.8061401,0.20385095,-0.0037270868,0.24756756,0.9688635,0.39263916,2.7174072,9.818619,0
6013.187333305,-0.79839486,0.58263737,-0.15198474,-0.602134,-0.77233213,0.20233046,5.025837E-4,0.25305477,0.9674518,-0.8315066,0.5374462,-0.14052892,-0.55550236,-0.8061401,0.20385095,-0.0037270868,0.24756756,0.9688635,0.39263916,2.7174072,9.818619,0
6013.191727836,-0.79799384,0.5829185,-0.15300943,-0.60266566,-0.7718144,0.20272323,7.624339E-5,0.2539854,0.9672081,-0.8291607,0.5402424,-0.14363377,-0.5589877,-0.8035983,0.20435886,-0.005020533,0.24973586,0.96830094,0.2681427,2.6743164,9.583984,0
6013.19609185,-0.7974575,0.5834141,-0.15391459,-0.6033752,-0.7711591,0.20310622,-1.9760821E-4,0.2548368,0.9669841,-0.8280623,0.54159707,-0.14486375,-0.56060994,-0.80240315,0.20461127,-0.0054222653,0.25064293,0.9680644,0.18673706,2.7461395,9.473846,0
6013.200455864,-0.8243611,0.54722846,-0.14480923,-0.5660641,-0.7970682,0.21036525,-3.049728E-4,0.25538826,0.9668385,-0.8269657,0.54299515,-0.14589056,-0.5622241,-0.80120695,0.20486964,-0.005645296,0.25144333,0.9678556,0.1197052,2.645584,9.430756,0
6013.204850395,-0.8242839,0.54730844,-0.14494672,-0.56617665,-0.7969307,0.21058363,-2.5829131E-4,0.25564614,0.96677035,-0.826327,0.54380137,-0.146505,-0.5631617,-0.800473,0.20516327,-0.005705235,0.25203794,0.9677005,0.14364624,2.6407928,9.478638,0
6013.209214409,-0.8243695,0.5472198,-0.1447943,-0.566052,-0.79700506,0.21063721,-1.369271E-4,0.255604,0.96678156,-0.82578635,0.54454684,-0.14678429,-0.5639551,-0.7998789,0.20530061,-0.005613857,0.25231418,0.9676291,-0.01914978,2.54982,9.416382,0
6013.21360894,-0.8125891,0.5635605,-0.14865631,-0.5828371,-0.78568023,0.20738247,7.6243065E-5,0.25515908,0.966899,-0.8252275,0.545383,-0.14682285,-0.56477463,-0.7993053,0.20528176,-0.005399111,0.25232598,0.9676272,0.07182312,2.5785522,9.540894,0
6013.217972954,-0.81303614,0.563124,-0.14786315,-0.5822131,-0.78627914,0.20686463,2.2873012E-4,0.2542763,0.9671316,-0.8243738,0.5467173,-0.14665654,-0.5660229,-0.79852706,0.20487222,-0.005102034,0.25190222,0.9677393,-0.13406372,2.3439178,9.459488,0
6013.222336967,-0.81364375,0.5625288,-0.14678285,-0.5813636,-0.7871048,0.20611256,4.1077595E-4,0.2530364,0.9674567,-0.82359886,0.5479806,-0.14629465,-0.5671523,-0.79788864,0.20423514,-0.004809953,0.2511792,0.9679287,-0.12449646,2.3918,9.837769,0
6013.226731499,-0.81948274,0.55482554,-0.1435851,-0.57310367,-0.7931061,0.20624045,5.4926326E-4,0.25129962,0.9679093,-0.82286066,0.5492437,-0.14571114,-0.5682254,-0.797353,0.20334205,-0.0044988804,0.25011894,0.9682047,-0.2681427,2.2529297,10.206467,0
6013.231095512,-0.82033384,0.5539614,-0.14205307,-0.5718845,-0.7943455,0.20484951,6.3950225E-4,0.24928297,0.9684305,-0.8221519,0.5505588,-0.14474574,-0.5692532,-0.79696053,0.202002,-0.004142656,0.24847329,0.96862996,-0.22984314,2.257721,10.230423,0
6013.235490044,-0.8212427,0.5530328,-0.14041042,-0.57057863,-0.7957247,0.20313075,6.0994236E-4,0.24693485,0.9690319,-0.82153094,0.55173707,-0.14378129,-0.5701506,-0.79668355,0.2005581,-0.0038928462,0.24674167,0.9690735,-0.25378418,2.032669,10.565598,0
6013.239854057,-0.8132309,0.5643604,-0.14196125,-0.58194107,-0.7884451,0.19924642,5.181406E-4,0.2446464,0.9696123,-0.8208905,0.5529525,-0.14276664,-0.5710734,-0.79644465,0.19887479,-0.0037374075,0.24478465,0.9695703,-0.32081604,1.9560547,10.7332,0
6013.244248588,-0.81414664,0.5634237,-0.14042434,-0.5806593,-0.7898345,0.19747497,3.5009705E-4,0.24231227,0.9701983,-0.8200375,0.5544882,-0.14170933,-0.5722976,-0.79611135,0.19667803,-0.0037607634,0.24238323,0.9701733,-0.34954834,1.9560547,10.915161,0
6013.248612602,-0.81495064,0.5625967,-0.13906994,-0.57953036,-0.7910942,0.19574098,1.0580678E-4,0.24011448,0.97074455,-0.8192836,0.5558343,-0.14079265,-0.5733755,-0.79582983,0.19466689,-0.003844454,0.24021448,0.9707122,-0.13406372,1.8459167,11.097122,0
6013.252976616,-0.7834871,0.60350734,-0.148077,-0.621408,-0.7609873,0.18641473,-1.820498E-4,0.23806979,0.9712481,-0.81854856,0.5571495,-0.13986683,-0.57442325,-0.79560065,0.19250321,-0.004025069,0.23791598,0.9712774,-0.2106781,1.7501526,11.106689,0
6013.257371147,-0.7841239,0.6029446,-0.14699486,-0.62060416,-0.76197964,0.18503389,-4.4189955E-4,0.23631512,0.9716764,-0.8172552,0.5591688,-0.13937044,-0.5762604,-0.794749,0.19052039,-0.00423145,0.23601745,0.9717396,-0.12927246,1.6256561,11.08754,0
6013.261735161,-0.78465104,0.6024769,-0.14609686,-0.6199373,-0.7627884,0.18393318,-6.25501E-4,0.23489428,0.9720207,-0.8160491,0.56102973,-0.1389585,-0.57796586,-0.793919,0.18880682,-0.0043955687,0.2343889,0.97213304,-0.17237854,1.5873413,11.197678,0
6013.266129692,-0.80909365,0.571253,-0.13797687,-0.58767945,-0.7867576,0.18880008,-7.0175016E-4,0.23384307,0.97227407,-0.8148204,0.562898,-0.13861302,-0.5796958,-0.79302883,0.18723808,-0.004528177,0.2329188,0.97248566,-0.15322876,1.5251007,10.900787,0
6013.270493706,-0.8093683,0.5709804,-0.13749315,-0.58730114,-0.7871188,0.18847145,-6.0994405E-4,0.2332927,0.9724064,-0.8142189,0.5638584,-0.13824387,-0.5805405,-0.7926282,0.18631485,-0.0045208023,0.23195723,0.9727155,-0.1197052,1.4772186,10.747559,0
6013.274857719,-0.8097019,0.5706485,-0.13690466,-0.58684105,-0.7875167,0.18824108,-3.9522134E-4,0.23276047,0.97253394,-0.8137231,0.56463456,-0.13799463,-0.5812363,-0.7922188,0.18588628,-0.004364124,0.23146744,0.97283286,-0.12927246,1.4580536,10.517715,0
6013.279252251,-0.81527126,0.5631872,-0.1347324,-0.57907915,-0.79289746,0.18968643,0.0,0.23266666,0.9725566,-0.8132656,0.5653406,-0.13780086,-0.5818788,-0.7917487,0.18587923,-0.0040185745,0.23135257,0.9728617,-0.12449646,1.4484863,10.59433,0
6013.283616264,-0.81560034,0.5628444,-0.13417241,-0.5786152,-0.7931003,0.19025297,6.7062414E-4,0.23280461,0.9725233,-0.8130251,0.5657175,-0.13767277,-0.5822178,-0.7913901,0.18634395,-0.00353482,0.23165786,0.9727909,0.028717041,1.3766632,10.508148,0
6013.288010795,-0.8158725,0.5625603,-0.13370866,-0.5782301,-0.7931722,0.19112292,0.0014641689,0.2332463,0.97241664,-0.81286615,0.56599236,-0.13748167,-0.58244365,-0.79103404,0.18714848,-0.0028280744,0.23220201,0.97266346,0.0909729,1.2042694,10.297455,0
6013.292374809,-0.80099314,0.5824851,-0.13827875,-0.59866905,-0.77845126,0.18870275,0.0022732774,0.23393284,0.97225004,-0.81273425,0.56620204,-0.13739811,-0.58263123,-0.7905984,0.1884014,-0.0019534589,0.23317271,0.9724334,0.17237854,1.3622894,9.962265,0
6013.29676934,-0.80105925,0.5824201,-0.1381698,-0.59857714,-0.77822804,0.1899118,0.0030808556,0.23483588,0.97203016,-0.8123358,0.56674796,-0.13750367,-0.5831888,-0.78990644,0.18957497,-0.0011738167,0.23418912,0.9721903,0.08618164,1.4149628,9.919174,0
6013.301133354,-0.80107737,0.58240235,-0.13814002,-0.5985484,-0.77794707,0.19114964,0.0038603668,0.23580912,0.9717917,-0.8119747,0.5672244,-0.13767189,-0.5836925,-0.7892111,0.19091609,-3.5992585E-4,0.23537707,0.97190404,0.11012268,1.3431396,9.694122,0
6013.305497368,-0.7755134,0.61422336,-0.1459743,-0.6313138,-0.75277376,0.18647867,0.004653944,0.23677233,0.971554,-0.8116211,0.56766635,-0.13793494,-0.58418393,-0.78846943,0.19247113,5.0190685E-4,0.23679301,0.97156,0.33517456,1.4389038,9.689331,0
6013.309891899,-0.77542186,0.61430514,-0.14611681,-0.6314214,-0.75240934,0.18758279,0.0052934242,0.23771708,0.97132003,-0.8107871,0.56875396,-0.138359,-0.5853399,-0.78731865,0.19366585,0.0012155938,0.23800881,0.9712622,0.296875,1.2473755,9.464264,0
6013.314255913,-0.7752867,0.61442566,-0.14632721,-0.6315829,-0.7520356,0.18853512,0.005797552,0.23858653,0.97110397,-0.8099365,0.5698331,-0.13889971,-0.58651483,-0.7861619,0.19480726,0.0018099771,0.23924825,0.97095674,0.33039856,1.285675,9.306259,0
6013.318650444,-0.8392746,0.52910763,-0.12515302,-0.5436728,-0.81407577,0.20420659,0.0061632292,0.23942769,0.9708945,-0.80902267,0.570963,-0.13958323,-0.58777285,-0.7849471,0.1959108,0.0022923711,0.24053954,0.9706366,0.3830719,1.3287811,9.253586,0
6013.323014458,-0.83911896,0.52928877,-0.12543081,-0.5439108,-0.8137519,0.20486341,0.0063623544,0.24012792,0.9707204,-0.80939585,0.57036984,-0.13984467,-0.5872576,-0.7850488,0.19704533,0.0026038096,0.24161252,0.97036934,0.28250122,1.3144073,9.157806,0
6013.327378471,-0.838932,0.52950585,-0.12576407,-0.54419845,-0.81344813,0.2053047,0.006407481,0.24067731,0.97058403,-0.8097428,0.5698005,-0.14015746,-0.5867785,-0.7851679,0.19799607,0.0027711177,0.24256726,0.9701307,0.11491394,1.2282104,8.9327545,0
6013.331773002,-0.7885626,0.597983,-0.14347635,-0.6149226,-0.7643809,0.19388701,0.0062705474,0.24111888,0.9704753,-0.80996925,0.569381,-0.14055283,-0.58646536,-0.7851871,0.19884549,0.0028585678,0.2434881,0.96989965,0.06703186,1.2330017,8.9327545,0
6013.336137016,-0.7883057,0.59821814,-0.14390637,-0.61525416,-0.7641137,0.19388774,0.006026338,0.24138182,0.97041154,-0.8091935,0.5703058,-0.14126955,-0.5875355,-0.78429985,0.1991877,0.002800221,0.24418227,0.9697253,-0.07661438,1.2904663,8.7747345,0
6013.340531547,-0.78807724,0.5984271,-0.1442886,-0.61554986,-0.76391685,0.19372492,0.0057057533,0.24148703,0.9703873,-0.8084207,0.5712387,-0.1419233,-0.5885989,-0.7834638,0.1993384,0.002678057,0.2446852,0.9695989,-0.2681427,1.2761078,8.927963,0
6013.344895561,-0.813267,0.56572,-0.13622643,-0.5818664,-0.7884911,0.19928215,0.005324588,0.24133517,0.9704272,-0.8075141,0.5723568,-0.14257911,-0.5898429,-0.78252155,0.19936252,0.0025352682,0.2450873,0.96949774,-0.18673706,1.3191986,8.83699,0
6013.349290092,-0.81318015,0.5658085,-0.13637693,-0.5819893,-0.788446,0.19910061,0.0051269806,0.24127463,0.9704433,-0.8071703,0.57275474,-0.14292686,-0.5903141,-0.7822011,0.19922522,0.0023096285,0.24518043,0.9694747,-0.40222168,1.2521667,8.650238,0
6013.353654106,-0.81321806,0.56577,-0.13631137,-0.58193994,-0.7886657,0.19837435,0.0047301548,0.24064662,0.9706013,-0.80677456,0.5732711,-0.14309129,-0.59085554,-0.7818702,0.19891897,0.0021556746,0.24502903,0.96951336,-0.4165802,1.237793,8.937546,0
6013.35801812,-0.78353155,0.6040514,-0.14560315,-0.6213363,-0.7600276,0.19052364,0.0044236747,0.23974977,0.9708246,-0.8064251,0.57375395,-0.14312561,-0.59133285,-0.78161836,0.19849001,0.002014837,0.24470219,0.9695962,-0.42616272,1.1947021,8.832199,0
6013.362412651,-0.7838575,0.6037528,-0.14508626,-0.62092733,-0.7606106,0.1895274,0.004073564,0.23865049,0.9710969,-0.80545974,0.57510203,-0.14315121,-0.5926473,-0.7808167,0.19772337,0.0019362634,0.24409638,0.9697491,-0.59375,1.1707611,8.779526,0
6013.366776665,-0.78431726,0.60333055,-0.1443561,-0.62034816,-0.7613422,0.18848386,0.0038136872,0.23738219,0.97140884,-0.80441374,0.5765969,-0.14301947,-0.5940666,-0.7799898,0.19672546,0.0018775755,0.24321172,0.9699714,-0.5458679,1.1563873,8.975861,0
6013.371171196,-0.8019346,0.5811835,-0.13829882,-0.59740156,-0.7787836,0.19133036,0.003493172,0.23605439,0.9717335,-0.80348295,0.5779544,-0.1427721,-0.5953248,-0.77927536,0.19575067,0.0018761797,0.2422781,0.97020507,-0.6033325,1.127655,8.899246,0
6013.37553521,-0.802333,0.58079517,-0.13761856,-0.5968686,-0.77949697,0.19008555,0.0031275323,0.23465207,0.9720744,-0.80291843,0.5788353,-0.14237857,-0.5960861,-0.77893597,0.19478232,0.0018430928,0.2412642,0.97045773,-0.71347046,1.1563873,8.813049,0
6013.379929741,-0.8027917,0.5803465,-0.13683341,-0.59625274,-0.7802655,0.18886046,0.0028381126,0.23320292,0.97242385,-0.8023242,0.57977843,-0.1418909,-0.596886,-0.7786141,0.19361612,0.0017762013,0.24003556,0.9707625,-0.6512146,1.2138519,9.009369,0
6013.384293754,-0.7904985,0.59626824,-0.13991572,-0.6124586,-0.7686204,0.18470863,0.0025938053,0.23170444,0.9727828,-0.8018441,0.5805744,-0.14134854,-0.59753066,-0.7783771,0.19257772,0.0017832209,0.23887739,0.9710481,-0.6416321,1.1132965,9.124298,0
6013.388657768,-0.79100066,0.595803,-0.13905597,-0.6118108,-0.76943797,0.18344621,0.002302863,0.23018205,0.9731448,-0.8011468,0.5816565,-0.14085273,-0.59846514,-0.77792716,0.19149098,0.0018088099,0.23770785,0.97133505,-0.7230377,1.0031586,9.109924,0
6013.393052299,-0.79149723,0.59534174,-0.13820434,-0.61116934,-0.77022344,0.18228577,0.00207411,0.22874492,0.9734842,-0.8003952,0.58282155,-0.14030905,-0.59947,-0.77745277,0.19027044,0.0018100364,0.2364026,0.9716535,-0.79486084,1.127655,9.157806,0
6013.397416313,-0.79200685,0.59486645,-0.1373283,-0.6105094,-0.7710149,0.18114765,0.0018765022,0.22731039,0.9738206,-0.7997488,0.5838377,-0.13976894,-0.6003318,-0.7770339,0.18926163,0.0018928692,0.2352695,0.9719283,-0.8427582,1.0749817,9.277527,0
6013.401810844,-0.79257625,0.59433347,-0.13634725,-0.60977036,-0.7718731,0.17997774,0.001724025,0.2257866,0.9741753,-0.79913443,0.58481795,-0.13918395,-0.60114896,-0.7766384,0.1882891,0.0020192543,0.2341386,0.97220117,-0.9145813,0.9983673,9.454697,0
6013.406174858,-0.7931013,0.5938402,-0.13544047,-0.6090876,-0.7726576,0.17892055,0.0016011037,0.22439724,0.9744964,-0.7984634,0.58591,-0.13844031,-0.6020392,-0.7762057,0.18722571,0.0022392585,0.23283938,0.97251266,-0.9576721,1.2282104,9.5217285,0
6013.410538872,-0.8407073,0.5281566,-0.11942306,-0.5414873,-0.81931925,0.18843456,0.0016773378,0.22308436,0.9747977,-0.7979556,0.5867643,-0.137748,-0.60271114,-0.77589804,0.18633692,0.0024574336,0.23171087,0.97278154,-0.7709198,1.3000488,9.48822,0
6013.414933403,-0.84129643,0.52747285,-0.118291125,-0.54057074,-0.8201238,0.18756415,0.0019216271,0.22174175,0.97510356,-0.79841316,0.5863934,-0.13667151,-0.60210335,-0.7765068,0.18576516,0.0028051087,0.23060775,0.9730427,-0.68473816,0.98880005,9.373291,0
6013.419297417,-0.84187376,0.5267996,-0.117178194,-0.5396706,-0.82095516,0.18651609,0.0020585542,0.22026064,0.97543883,-0.79885316,0.5860808,-0.13543645,-0.60151696,-0.7770814,0.1852619,0.0033333022,0.22946435,0.9733114,-0.82359314,0.63446045,9.397232,0
6013.423691948,-0.80645293,0.5773276,-0.12777516,-0.5912946,-0.7866301,0.17771795,0.0020896855,0.21887393,0.97575086,-0.79935026,0.5856553,-0.13433951,-0.6008538,-0.77771175,0.18476781,0.0037328284,0.22841258,0.9735573,-0.8188019,0.8211975,9.722839,0
6013.428055961,-0.80711013,0.5766511,-0.12667522,-0.59039676,-0.7875154,0.17677963,0.0021814771,0.2174693,0.97606474,-0.7990219,0.5862749,-0.13358775,-0.6012883,-0.7775416,0.18406938,0.0040452327,0.22740021,0.97379297,-0.67515564,0.8499298,9.761154,0
6013.432450493,-0.80773336,0.57600707,-0.12562962,-0.58954406,-0.7883814,0.1757636,0.0021970326,0.21603428,0.9763834,-0.79864377,0.58698326,-0.1327356,-0.60178804,-0.7773461,0.18326013,0.004389146,0.22623825,0.9740621,-0.6416321,1.1803284,9.880859,0
6013.436814506,-0.8083736,0.57534254,-0.12455228,-0.58866537,-0.7892327,0.17488562,0.0023184093,0.21469249,0.97667897,-0.79864377,0.58698326,-0.1327356,-0.60178804,-0.7773461,0.18326013,0.004389146,0.22623825,0.9740621,-0.6416321,1.1803284,9.880859,0
6013.44117852,-0.8196863,0.5600171,-0.12039661,-0.5728081,-0.8005186,0.17624128,0.0023184177,0.21342668,0.9769563,-0.79805434,0.58815086,-0.13110241,-0.6025654,-0.7771371,0.1815841,0.004914299,0.22391178,0.97459704,-0.62727356,1.2186432,10.043671,0
