Time,Rot1,Rot2,Rot3,Rot4,Rot5,Rot6,Rot7,Rot8,Rot9,FRot1,FRot2,FRot3,FRot4,FRot5,FRot6,FRot7,FRot8,FRot9,AccX,AccY,AccZ,Imid
5771.515766819,-0.02121613,-0.99961776,0.017725969,0.9997623,-0.021123512,0.0053961,-0.005019603,0.01783624,0.99982834,0.006827916,-0.99980295,0.018639619,0.99996966,0.0068966327,0.0036248341,-0.0037526703,0.018614303,0.9998197,-0.30645752,0.026321411,9.742004,0
5771.52016135,-0.021236004,-0.99961764,0.017712858,0.99976224,-0.021144286,0.005349498,-0.004972926,0.017822245,0.9998289,0.0062400103,-0.99980915,0.018514695,0.99997294,0.0063112057,0.0037893967,-0.0039055233,0.018490547,0.9998214,-0.2394104,0.02154541,9.751572,0
5771.524586399,0.05114126,-0.9985263,0.018159,0.9986805,0.051217232,0.003743412,-0.0046679494,0.017943598,0.9998281,0.0056926575,-0.999812,0.018533684,0.9999765,0.005762229,0.0037025656,-0.0038086649,0.018512173,0.99982136,-0.12927246,-0.011962891,9.943115,0
5771.529011448,0.051488098,-0.9985038,0.018417232,0.99866426,0.051558595,0.0033733197,-0.0043178387,0.018218944,0.9998247,0.0065935417,-0.9998027,0.018735323,0.99997216,0.0066576526,0.0033616074,-0.0034856775,0.018712638,0.9998188,-0.12449646,0.19392395,9.9526825,0
5771.533436497,0.05163033,-0.99849445,0.018523132,0.99865824,0.051695563,0.0030599062,-0.004012863,0.018340295,0.9998238,0.007489829,-0.9997919,0.018975444,0.99996704,0.007548172,0.0030049344,-0.003147539,0.01895231,0.99981546,-0.04309082,0.03590393,9.943115,0
5771.537861546,-0.05116283,-0.998523,0.018286718,0.9986829,-0.05108309,0.004801603,-0.003860368,0.018508293,0.99982125,0.00832594,-0.9997822,0.019138735,0.9999612,0.008379575,0.0027238824,-0.0028836636,0.019115312,0.99981314,-0.028717041,0.12689209,9.828186,0
5771.542256077,-0.0511393,-0.9985238,0.018303158,0.9986841,-0.05105978,0.004786428,-0.0038448072,0.01852385,0.99982107,0.00714837,-0.9997878,0.019319419,0.9999706,0.007200343,0.0026219785,-0.0027605284,0.01930011,0.9998099,0.0,0.22744751,9.809036,0
5771.546681126,-0.051191866,-0.9985218,0.018266425,0.99868107,-0.051110554,0.004891452,-0.003950614,0.018492734,0.99982125,0.0060262154,-0.9997952,0.019318376,0.999978,0.006078579,0.0026530053,-0.0027698902,0.019301962,0.99980986,-0.05265808,0.29447937,9.995789,0
5771.551106174,0.0012768888,-0.99983037,0.018376794,0.99999076,0.0013523503,0.0040945085,-0.004118665,0.018371394,0.99982274,0.0048745256,-0.99980336,0.019221036,0.99998397,0.0049292846,0.0028025657,-0.0028967604,0.019207064,0.99981135,-0.07661438,0.25138855,9.828186,0
5771.555531223,9.391402E-4,-0.9998349,0.018146928,0.9999904,0.0010170504,0.004284537,-0.0043022856,0.01814273,0.99982625,0.0048478623,-0.9998062,0.019078016,0.99998355,0.004905461,0.0029734627,-0.0030664732,0.019063286,0.99981356,-0.05744934,0.10293579,9.9048,0
5771.559956272,6.90945E-4,-0.9998382,0.017978009,0.9999897,7.717257E-4,0.0044867564,-0.0044999043,0.017974721,0.99982834,0.004756171,-0.9998111,0.01884376,0.9999833,0.0048171654,0.0031927896,-0.0032829603,0.01882826,0.9998174,-0.028717041,0.26574707,9.8138275,0
5771.564381321,-0.012906561,-0.9997587,0.017775524,0.9999061,-0.012822473,0.00483637,-0.0046072765,0.017836275,0.9998303,0.0046535376,-0.99981517,0.018652402,0.999983,0.0047181384,0.0034208917,-0.003508264,0.018636165,0.9998202,-0.11012268,0.06463623,9.651016,0
5771.568775852,-0.013038677,-0.9997586,0.017683271,0.9999038,-0.012953107,0.0049448907,-0.004714644,0.017746046,0.9998313,0.0042790184,-0.9998189,0.018543746,0.9999844,0.0043450906,0.0035242094,-0.0036041453,0.018528378,0.99982184,-0.22026062,0.11730957,9.9526825,0
5771.573200901,-0.0130622545,-0.9997586,0.017666807,0.9999032,-0.012975686,0.0050057746,-0.0047753276,0.017730486,0.9998313,0.0038381703,-0.9998222,0.01846319,0.9999858,0.0039054125,0.0036072694,-0.0036787344,0.018449085,0.99982303,-0.20588684,0.10772705,9.923965,0
5771.57762595,0.024446774,-0.99954116,0.017885726,0.99969006,0.024526967,0.0042779227,-0.004714642,0.0177756,0.9998309,0.0034960404,-0.9998232,0.018473888,0.99998707,0.0035634607,0.0036178348,-0.0036830264,0.018461002,0.9998228,-0.08139038,0.11251831,9.837769,0
5771.582050999,0.02442335,-0.999542,0.017870076,0.99969065,0.024503479,0.0042787245,-0.0047146436,0.017760048,0.9998312,0.003911267,-0.9998203,0.018550182,0.9999857,0.0039779916,0.0035614194,-0.003634572,0.018535988,0.9998216,-0.02394104,0.14125061,9.876068,0
5771.586476048,0.024582146,-0.9995362,0.01797618,0.9996871,0.024661338,0.0041970224,-0.0046383925,0.01786738,0.9998296,0.004283328,-0.999819,0.018535916,0.9999844,0.0043490245,0.0035054174,-0.003585396,0.018520612,0.999822,-0.11491394,0.12210083,9.732422,0
5771.590901096,0.031356025,-0.9993464,0.017987685,0.9994976,0.031433567,0.004044501,-0.004607275,0.01785183,0.99983,0.004671434,-0.9998151,0.018651957,0.99998295,0.004736016,0.0034198305,-0.003507534,0.018635662,0.9998202,0.03829956,0.13166809,9.914383,0
5771.595295628,0.031334125,-0.9993473,0.017972536,0.9994983,0.031411894,0.004060935,-0.004622836,0.017836275,0.9998303,0.0051846025,-0.99981254,0.018655373,0.99998057,0.005248282,0.0033661232,-0.0034634008,0.018637558,0.9998203,-0.10533142,0.15083313,9.995789,0
5771.599720676,0.03135744,-0.99934626,0.017988665,0.9994974,0.031435546,0.0040755738,-0.004638394,0.017851826,0.9998299,0.005707872,-0.99981016,0.018628083,0.99997765,0.0057716346,0.0033709353,-0.00347781,0.018608427,0.9998208,-0.05744934,0.22744751,9.885651,0
5771.604145725,0.0589942,-0.998094,0.018109135,0.99824756,0.059067868,0.00355995,-0.0046228333,0.017867384,0.9998297,0.00623441,-0.9998073,0.018615257,0.9999742,0.006299752,0.0034535443,-0.0035701501,0.018593246,0.99982077,-0.02394104,0.20350647,9.871292,0
5771.608570774,0.058919344,-0.9980994,0.018055456,0.9982514,0.058994997,0.0036860257,-0.0047442024,0.017806709,0.9998302,0.007297729,-0.9998016,0.018535031,0.9999667,0.007364212,0.0035211616,-0.003656959,0.018508716,0.999822,-0.12927246,0.17477417,9.679749,0
5771.612995823,0.058798496,-0.99810815,0.017968794,0.99825805,0.058875475,0.0037852514,-0.004836011,0.017714925,0.9998313,0.0083387345,-0.9997949,0.018456765,0.9999581,0.008406976,0.0036228755,-0.0037772984,0.018425783,0.9998231,-0.08139038,0.12689209,9.9479065,0
5771.617390354,1.5673008E-5,-0.99984336,0.017699653,0.99998844,1.0099073E-4,0.0048194206,-0.0048204535,0.017699374,0.9998318,0.009325249,-0.9997875,0.0183815,0.999949,0.00939479,0.0037004745,-0.0038723787,0.018346056,0.99982417,-0.028717041,0.14125061,9.751572,0
5771.621815403,-7.471858E-6,-0.99984366,0.017683987,0.99998826,7.8324556E-5,0.0048509473,-0.0048515736,0.017683815,0.99983186,0.009119103,-0.9997893,0.018387869,0.99995077,0.009189315,0.0037375372,-0.003905722,0.018352881,0.9998239,-0.10533142,0.13166809,9.765945,0
5771.626240452,3.882021E-5,-0.99984306,0.017715324,0.99998814,1.2503646E-4,0.0048656794,-0.004867131,0.017714925,0.99983126,0.008908989,-0.9997919,0.018348347,0.9999523,0.008980629,0.0038257665,-0.0039897505,0.018313391,0.9998243,-0.08618164,0.25138855,9.880859,0
5771.630665501,0.031880353,-0.99933285,0.017817128,0.99947965,0.03196224,0.0043301107,-0.0048966976,0.017669812,0.99983186,0.008762904,-0.999793,0.018361747,0.99995375,0.00883415,0.0038026024,-0.0039640255,0.018327575,0.99982417,-0.13406372,0.08378601,9.885651,0
5771.635090549,0.03199088,-0.99932796,0.017891347,0.9994765,0.032071713,0.0042494982,-0.0048204493,0.017746037,0.9998309,0.009235786,-0.99978906,0.018345265,0.9999495,0.0093066,0.003778426,-0.003948361,0.018309444,0.9998246,-0.06703186,0.20350647,9.933533,0
5771.639515598,0.03203515,-0.9993261,0.017921079,0.9994752,0.0321161,0.004247755,-0.004820447,0.017775591,0.99983037,0.009670425,-0.999784,0.018396428,0.9999457,0.009740301,0.0037125794,-0.0038909642,0.018359527,0.99982387,-0.07661438,0.24659729,9.804245,0
5771.64391013,0.016197694,-0.9997099,0.01782299,0.9998568,0.016281975,0.004593826,-0.0048826872,0.017746033,0.9998306,0.010117912,-0.9997803,0.018357009,0.9999412,0.010187723,0.003713477,-0.0038996772,0.018318359,0.9998246,-0.19152832,0.07421875,9.809036,0
5771.648335178,0.01621788,-0.99970937,0.017837081,0.9998566,0.016302222,0.0045932373,-0.0048826863,0.017760033,0.99983037,0.010252343,-0.9997792,0.018342009,0.9999397,0.01032276,0.0037485608,-0.0039370735,0.01830247,0.99982476,-0.0622406,0.21786499,9.962265,0
5771.652760227,0.016218934,-0.9997093,0.01783782,0.9998563,0.016304081,0.0046383273,-0.0049278084,0.017760027,0.9998301,0.0103917485,-0.9997787,0.018292187,0.9999383,0.010461856,0.003741112,-0.003931654,0.01825218,0.99982566,-0.15800476,0.20350647,9.86171,0
5771.657185276,0.016177045,-0.99971056,0.017808577,0.9998568,0.016262615,0.0046706684,-0.00495893,0.01773047,0.9998305,0.0105295265,-0.9997781,0.018243998,0.99993664,0.010600356,0.0037900263,-0.0039825784,0.018202934,0.9998264,-0.12927246,0.06463623,9.66539,0
5771.661610325,0.016132185,-0.99971193,0.017777264,0.99985766,0.016217615,0.0046719746,-0.0049589328,0.01769936,0.999831,0.010663309,-0.99977726,0.018213972,0.9999349,0.010735397,0.0038646446,-0.004059318,0.018171575,0.99982667,-0.04788208,0.11730957,9.9526825,0
5771.666004856,0.0161108,-0.9997124,0.017762335,0.9998578,0.016196964,0.0047177174,-0.005004057,0.017683804,0.9998312,0.010801062,-0.99977547,0.018230401,0.9999331,0.010874598,0.0039394614,-0.0041368245,0.01818663,0.999826,-0.15322876,0.10772705,9.818619,0
5771.670429905,0.015586998,-0.9997206,0.017775416,0.9998661,0.015673311,0.004726778,-0.005004056,0.017699359,0.9998309,0.010880669,-0.99977535,0.018190494,0.9999321,0.010954578,0.003968421,-0.0041667987,0.01814608,0.99982667,-0.05265808,0.24180603,9.70369,0
5771.674854954,0.015586998,-0.9997206,0.017775416,0.9998661,0.015673311,0.004726778,-0.005004056,0.017699359,0.9998309,0.010955613,-0.99977446,0.018191617,0.9999314,0.011029186,0.0039489386,-0.004148687,0.018147105,0.9998267,-0.06703186,0.16519165,9.804245,0
5771.679280003,0.015565145,-0.99972117,0.017760003,0.9998663,0.015651664,0.0047429656,-0.0050196163,0.0176838,0.999831,0.011052463,-0.9997728,0.018227033,0.9999302,0.011126551,0.003968297,-0.0041702,0.018181903,0.999826,-0.07661438,0.11730957,9.971848,0
5771.683705051,0.016912512,-0.9996983,0.017812772,0.9998445,0.016998779,0.0047026766,-0.005004053,0.017730467,0.9998303,0.011162823,-0.9997719,0.01820747,0.999929,0.01123668,0.003959165,-0.0041628536,0.018161982,0.99982643,-0.009567261,0.3088379,9.785095,0
5771.6881301,0.016937803,-0.9996975,0.01782947,0.99984366,0.01702522,0.0047626225,-0.0050647333,0.017746016,0.9998297,0.011277942,-0.99977064,0.018208167,0.9999277,0.011351928,0.00396511,-0.0041708983,0.018162131,0.9998264,-0.22505188,0.20350647,9.938324,0
5771.692524632,0.016983692,-0.9996962,0.017859768,0.9998427,0.017071798,0.004792406,-0.0050958493,0.017775567,0.999829,0.011399818,-0.999769,0.018222332,0.99992627,0.011474088,0.0039763777,-0.004184544,0.018175658,0.9998261,-0.13406372,0.24659729,9.74678,0
5771.69694968,0.047510203,-0.9987089,0.017982258,0.9988578,0.047593728,0.00424549,-0.005095851,0.017760012,0.9998293,0.011491951,-0.99976844,0.018190322,0.9999252,0.011566221,0.003983063,-0.004192535,0.018143188,0.9998266,-0.06703186,0.20828247,9.799454,0
5771.701374729,0.047533587,-0.9987075,0.017997894,0.9988566,0.04761717,0.0042443266,-0.0050958493,0.017775567,0.999829,0.011491951,-0.99976844,0.018190322,0.9999252,0.011566221,0.003983063,-0.004192535,0.018143188,0.9998266,-0.06703186,0.20828247,9.799454,0
5771.705799778,0.04755921,-0.99870604,0.01801502,0.99885535,0.04764342,0.004274201,-0.005126967,0.01779112,0.9998286,0.012841482,-0.9997521,0.018186744,0.99990845,0.012916898,0.0040353914,-0.004269307,0.018133258,0.99982643,-0.0909729,0.16519165,9.962265,0
5771.710224827,0.047560208,-0.9987059,0.01801569,0.99885523,0.04764467,0.0042881686,-0.005140971,0.01779112,0.9998286,0.012841482,-0.9997521,0.018186744,0.99990845,0.012916898,0.0040353914,-0.004269307,0.018133258,0.99982643,-0.0909729,0.16519165,9.962265,0
5771.714649876,0.009151452,-0.999799,0.017837789,0.9999448,0.009241863,0.0049926788,-0.00515653,0.017791117,0.9998284,0.01422347,-0.99973416,0.01814426,0.99988943,0.014299859,0.0040873513,-0.0043457253,0.018084114,0.999827,-0.09576416,0.18913269,9.828186,0
5771.719044407,0.009083231,-0.9998005,0.017792625,0.9999453,0.009173979,0.005025427,-0.0051876525,0.017746003,0.999829,0.014121968,-0.9997354,0.01815577,0.99989074,0.014198794,0.0041095656,-0.0043662684,0.018095752,0.9998267,-0.11491394,0.05984497,9.775513,0
5771.723469456,5.819683E-4,-0.9998426,0.017733688,0.9999865,6.733135E-4,0.0051454054,-0.0051565357,0.017730454,0.99982953,0.013994592,-0.9997366,0.018188154,0.9998924,0.014072101,0.0041404716,-0.0043953266,0.018128254,0.999826,0.01914978,0.13166809,9.674957,0
5771.727894505,5.143353E-4,-0.9998435,0.017686697,0.99998635,6.062757E-4,0.0051933085,-0.005203218,0.017683784,0.9998301,0.01369174,-0.9997404,0.018208921,0.9998965,0.01376974,0.004165142,-0.0044147926,0.01815001,0.9998255,-0.17237854,0.06463623,9.900009,0
5771.732319553,5.3691503E-4,-0.9998431,0.017702386,0.99998605,6.294562E-4,0.005222455,-0.0052327793,0.017699335,0.9998296,0.013397605,-0.9997444,0.018207433,0.99990046,0.013475846,0.0041813226,-0.0044256146,0.0181496,0.9998255,-0.11491394,0.20828247,9.971848,0
5771.736744602,-0.02835162,-0.99944454,0.017513702,0.99958414,-0.028254611,0.005761944,-0.0052639013,0.017669778,0.99983,0.013170087,-0.9997487,0.018138327,0.9999035,0.013248111,0.004188231,-0.0044274773,0.018081415,0.9998267,-0.13885498,0.08378601,9.832977,0
5771.741139133,-0.028375216,-0.99944425,0.017496295,0.99958324,-0.028277231,0.0058225673,-0.0053245844,0.01765422,0.99983,0.012326633,-0.99976,0.01811366,0.9999142,0.012404917,0.004215892,-0.0044395784,0.018060135,0.9998271,-0.2106781,0.12210083,9.880859,0
5771.745564182,-0.028335454,-0.9994448,0.017525628,0.9995843,-0.028237034,0.005838254,-0.0053401412,0.017683772,0.9998295,0.011478736,-0.99976915,0.018161023,0.99992436,0.011557051,0.0042132405,-0.004422156,0.018111287,0.9998262,-0.07661438,0.25616455,9.84256,0
5771.749989231,-0.031037124,-0.9993645,0.017524848,0.9995038,-0.030937959,0.0059016314,-0.005355699,0.017699324,0.999829,0.010725138,-0.9997776,0.018154355,0.99993235,0.010805011,0.004307312,-0.004502512,0.018106932,0.9998259,-0.09576416,0.21786499,9.9048,0
5771.75441428,-0.031037753,-0.9993646,0.017524412,0.99950385,-0.030938342,0.0059156376,-0.0053697024,0.017699324,0.99982893,0.009876073,-0.99978644,0.018151896,0.9999409,0.009957022,0.0043745236,-0.004554328,0.01810762,0.99982566,-0.0909729,0.18434143,9.837769,0
5771.758839329,-0.031060172,-0.9993642,0.01750873,0.9995032,-0.03096085,0.0059155505,-0.0053697038,0.017683769,0.99982923,0.008998324,-0.9997953,0.018120814,0.99994904,0.00907983,0.004420681,-0.00458431,0.018080112,0.9998261,-0.04788208,0.14125061,9.9048,0
5771.763264378,-0.007533728,-0.99981564,0.017658629,0.9999572,-0.0074376175,0.0055020545,-0.0053697024,0.017699324,0.99982893,0.008228074,-0.99980366,0.018026141,0.99995565,0.008309191,0.0044297096,-0.0045786225,0.017988892,0.9998277,-0.06703186,0.21307373,9.9479065,0
5771.767658909,-0.0075101047,-0.9998155,0.017673844,0.999957,-0.007412812,0.0055639767,-0.0054319385,0.017714873,0.99982834,0.007908361,-0.99980617,0.01802872,0.9999583,0.007989296,0.004421616,-0.004564796,0.017993001,0.9998277,-0.2106781,0.19871521,9.646225,0
5771.772083958,-0.007558822,-0.99981576,0.017642464,0.99995667,-0.007461696,0.005564609,-0.0054319412,0.017683761,0.9998289,0.0076218764,-0.9998088,0.018008787,0.9999605,0.007703013,0.004440271,-0.004578144,0.017974231,0.999828,-0.0909729,0.18913269,9.823395,0
5771.776509007,-0.0075346273,-0.99981564,0.017658047,0.9999568,-0.007437171,0.0055782977,-0.0054459437,0.017699316,0.9998286,0.0076218764,-0.9998088,0.018008787,0.9999605,0.007703013,0.004440271,-0.004578144,0.017974231,0.999828,-0.0909729,0.18913269,9.823395,0
5771.780934055,0.042038705,-0.9989551,0.01792969,0.9991009,0.042129677,0.0047266274,-0.0054770606,0.017714867,0.99982804,0.0069660204,-0.9998152,0.017913876,0.99996525,0.007046901,0.004455801,-0.0045812153,0.017882215,0.9998296,-0.12449646,0.22744751,9.770737,0
5771.785359104,0.042038705,-0.9989551,0.01792969,0.9991009,0.042129677,0.0047266274,-0.0054770606,0.017714867,0.99982804,0.007637361,-0.9998107,0.017896222,0.99996036,0.0077180457,0.004443743,-0.004581026,0.017861575,0.99983,-0.0622406,0.15083313,9.900009,0
5771.789784153,0.031457312,-0.9993451,0.017879127,0.99948996,0.031550102,0.004931761,-0.0054926197,0.017714866,0.999828,0.0082956515,-0.9998057,0.017881958,0.99995494,0.008376911,0.0044741137,-0.00462304,0.017844034,0.9998301,-0.08139038,0.20350647,9.990997,0
5771.794178684,0.03150377,-0.9993431,0.017910939,0.9994885,0.03159699,0.0049454933,-0.0055081765,0.017745975,0.9998274,0.008768187,-0.9998025,0.017837662,0.9999509,0.008849014,0.0044573466,-0.0046143117,0.017797703,0.99983096,-0.11012268,0.22744751,9.770737,0
5771.798603733,0.031504497,-0.99934316,0.017911434,0.9994884,0.03159799,0.004961029,-0.0055237357,0.017745974,0.99982727,0.009217467,-0.99979824,0.017844072,0.9999466,0.009299176,0.004501501,-0.004666528,0.017801628,0.9998306,-0.10055542,0.17955017,9.727631,0
5771.803028782,0.02299109,-0.99957657,0.01783811,0.99972034,0.023086188,0.0051436657,-0.0055533014,0.017714862,0.9998277,0.009645763,-0.9997941,0.01784948,0.99994254,0.009727646,0.0045062643,-0.00467897,0.017804988,0.9998305,-0.12927246,0.10772705,9.832977,0
5771.807453831,0.02301512,-0.9995756,0.01785518,0.9997193,0.023111377,0.005203532,-0.0056139817,0.017730411,0.9998271,0.00990276,-0.99979126,0.017868783,0.9999399,0.009985082,0.0045236717,-0.004701149,0.017822914,0.9998301,-0.20588684,0.19392395,9.938324,0
5771.81187888,0.022994082,-0.99957645,0.017840235,0.99971974,0.023090819,0.005235374,-0.005645102,0.017714852,0.9998272,0.010191517,-0.9997883,0.01787261,0.99993694,0.010273984,0.0045284303,-0.0047110943,0.01782533,0.99983,-0.12449646,0.15083313,9.895233,0
5771.816273411,-0.014884477,-0.99973434,0.017598052,0.9998733,-0.014782568,0.005906818,-0.0056451047,0.01768374,0.9998277,0.010446701,-0.99978584,0.017863521,0.99993396,0.010530351,0.004595074,-0.004782199,0.01781434,0.9998299,-0.06703186,0.09336853,9.9526825,0
5771.82069846,-0.014842958,-0.99973446,0.017629173,0.9998739,-0.014740598,0.0059220986,-0.005660661,0.01771485,0.9998271,0.009935219,-0.99979234,0.017794767,0.99993914,0.010018944,0.004622044,-0.004799369,0.017747764,0.999831,-0.08618164,0.24180603,9.871292,0
5771.825123508,-0.014864463,-0.9997344,0.017613053,0.9998734,-0.014761672,0.005951804,-0.0056902254,0.017699292,0.9998272,0.009452639,-0.9997968,0.01780517,0.99994373,0.009536958,0.0046566837,-0.004825544,0.01776015,0.99983066,-0.14364624,0.16519165,10.101135,0
5771.829548557,0.053981572,-0.99838006,0.01798014,0.99852586,0.054074306,0.0047115907,-0.0056762216,0.017699294,0.99982727,0.008975067,-0.9998008,0.017826993,0.99994767,0.009060928,0.004741406,-0.0049019903,0.017783506,0.9998298,-0.0143585205,0.17955017,9.876068,0
5771.833973606,0.05400653,-0.9983784,0.017997386,0.9985243,0.054099865,0.0047398126,-0.0057057827,0.017714845,0.9998268,0.00989312,-0.9997916,0.017856,0.99993896,0.009979244,0.0047405846,-0.004917786,0.01780801,0.99982935,-0.1484375,0.17955017,9.828186,0
5771.838398655,0.054048248,-0.99837565,0.01802621,0.99852234,0.05414091,0.004692325,-0.005660658,0.01774596,0.9998265,0.010741361,-0.99978334,0.017828995,0.99993014,0.010827483,0.004740916,-0.004932932,0.017776826,0.9998298,-0.10055542,0.23222351,9.981415,0
5771.842793186,0.054093577,-0.99837255,0.018057533,0.99851966,0.054186907,0.0047194157,-0.0056902175,0.017775511,0.99982584,0.010741361,-0.99978334,0.017828995,0.99993014,0.010827483,0.004740916,-0.004932932,0.017776826,0.9998298,-0.10055542,0.23222351,9.981415,0
5771.847218235,0.07490574,-0.9970249,0.018183053,0.9971745,0.07499612,0.004339467,-0.005690214,0.017806621,0.9998253,0.012457649,-0.99976397,0.017799044,0.99990976,0.012545028,0.004805981,-0.0050281365,0.017737567,0.99983007,-0.0909729,0.24659729,9.775513,0
5771.851643284,0.07490408,-0.9970249,0.018181995,0.99717456,0.0749942,0.004325535,-0.005676211,0.017806623,0.99982536,0.013703362,-0.99974716,0.017825948,0.99989355,0.013790454,0.0047719777,-0.0050165993,0.017758658,0.9998297,0.004776001,0.18434143,9.986206,0
5771.856068333,-0.0057653347,-0.9998254,0.017773895,0.99996734,-0.0056634396,0.005777881,-0.005676211,0.017806623,0.99982536,0.014967977,-0.9997282,0.017872384,0.9998753,0.015055399,0.0047670384,-0.005034819,0.017798802,0.9998289,-0.07661438,0.16519165,9.828186,0
5771.860493382,-0.005851639,-0.999826,0.017712913,0.99996704,-0.0057506333,0.0057479595,-0.0056450986,0.01774596,0.9998266,0.014548765,-0.99973357,0.017919699,0.9998815,0.014636361,0.004766796,-0.005027805,0.017848225,0.9998281,0.04788208,0.03590393,9.765945,0
5771.864887913,-0.0058737015,-0.99982613,0.017697321,0.9999669,-0.005773057,0.005732705,-0.0056295404,0.017730407,0.99982697,0.014148766,-0.9997403,0.017863896,0.99988705,0.014237009,0.004822221,-0.0050752973,0.01779365,0.9998288,-0.009567261,0.12689209,9.895233,0
5771.869312962,-0.005851769,-0.999826,0.017712822,0.9999669,-0.0057504876,0.005763518,-0.005660658,0.01774596,0.9998265,0.013718655,-0.99974614,0.017870864,0.9998929,0.0138073675,0.0048501436,-0.005095662,0.017802412,0.9998285,-0.14364624,0.22265625,9.957474,0
5771.873707493,-0.005832038,-0.9998259,0.017726762,0.9999669,-0.0057301545,0.005792805,-0.0056902193,0.017759956,0.99982613,0.013331176,-0.99975157,0.017863888,0.999898,0.013420513,0.004890398,-0.005128925,0.017796872,0.99982846,-0.13885498,0.20828247,9.895233,0
5771.878102024,-0.0058743404,-0.99982613,0.017696869,0.99996644,-0.0057723466,0.005808944,-0.0057057813,0.0177304,0.9998265,0.013018662,-0.9997547,0.017913513,0.9999022,0.013107891,0.0048727314,-0.0051063453,0.017848326,0.9998276,-0.12449646,0.11730957,10.034088,0
5771.882496555,-0.012730144,-0.99976337,0.017640676,0.99990255,-0.012626734,0.0059610563,-0.0057369014,0.017714841,0.9998266,0.012631179,-0.99976,0.017899467,0.99990714,0.01272044,0.0048817634,-0.005108281,0.017836142,0.99982786,-0.12927246,0.10772705,9.818619,0
5771.886891087,-0.012774078,-0.99976337,0.01760911,0.9999019,-0.012670573,0.005976996,-0.005752464,0.017683731,0.9998271,0.012098033,-0.9997667,0.017894555,0.9999138,0.012187343,0.0048902696,-0.005107216,0.01783385,0.9998279,-0.08618164,0.09815979,9.832977,0
5771.891285618,-0.012792888,-0.99976337,0.017595595,0.9999019,-0.012690285,0.005930484,-0.005705787,0.017669735,0.99982756,0.01159512,-0.9997741,0.017810827,0.99991953,0.011684769,0.004937654,-0.0051446543,0.01775214,0.9998292,0.05265808,0.13645935,9.6558075,0
5771.895680149,-0.028889418,-0.9994294,0.017496934,0.99956614,-0.028784055,0.0062441006,-0.005736906,0.017669734,0.99982744,0.011093678,-0.9997802,0.01778975,0.999925,0.011183968,0.004983991,-0.005181856,0.017733127,0.99982935,-0.11491394,0.16040039,9.737213,0
5771.90007468,-0.02884591,-0.9994301,0.017526748,0.99956733,-0.028740367,0.0062441854,-0.005736903,0.017699286,0.9998269,0.010267537,-0.99978924,0.017780306,0.9999338,0.010358265,0.005018093,-0.0052012084,0.017727606,0.99982935,-0.0622406,0.27053833,9.818619,0
5771.904469212,-0.02884591,-0.9994301,0.017526748,0.99956733,-0.028740367,0.0062441854,-0.005736903,0.017699286,0.9998269,0.009514283,-0.9997976,0.017726976,0.99994105,0.009605503,0.005067815,-0.0052370657,0.017677713,0.99983,-0.05744934,0.17477417,9.74678,0
5771.908863743,2.755426E-4,-0.99984324,0.01770116,0.99998343,3.7704475E-4,0.0057311268,-0.005736903,0.017699286,0.9998269,0.008736981,-0.99980396,0.017767983,0.9999477,0.008829956,0.0051610125,-0.005316891,0.01772196,0.9998288,-0.07661438,0.17477417,9.837769,0
5771.913258274,3.2023585E-4,-0.99984276,0.01773253,0.99998343,4.2218587E-4,0.005745877,-0.005752459,0.017730394,0.99982625,0.008519899,-0.99980605,0.017757796,0.9999497,0.008612681,0.0051549366,-0.005306879,0.017712982,0.99982905,-0.08139038,0.22744751,9.928741,0
5771.917652805,2.9788463E-4,-0.99984306,0.017716844,0.99998355,3.9947277E-4,0.0057307244,-0.0057369014,0.017714841,0.9998266,0.008321267,-0.99980795,0.017742671,0.99995124,0.008414238,0.0051717493,-0.005320047,0.017698769,0.99982923,0.0,0.14604187,9.8138275,0
5771.922047337,0.023956802,-0.9995537,0.01784784,0.9996964,0.024055313,0.005325502,-0.0057524606,0.01771484,0.9998265,0.008156341,-0.9998089,0.017764077,0.99995255,0.008249519,0.005178361,-0.0053239167,0.017720997,0.99982876,-0.11491394,0.17477417,9.789886,0
5771.926441868,0.024002705,-0.99955195,0.017879184,0.9996953,0.024101378,0.0053239297,-0.005752458,0.017745951,0.999826,0.00849665,-0.99980575,0.017785514,0.99994963,0.008590389,0.0052008335,-0.0053526075,0.017740425,0.99982834,-0.07182312,0.23701477,9.765945,0
5771.930836399,0.023934893,-0.9995545,0.017832883,0.9996968,0.024033854,0.0053558187,-0.005782025,0.017699283,0.9998266,0.00881121,-0.99980366,0.01774791,0.9999469,0.008904688,0.005194882,-0.0053519015,0.017701194,0.999829,-0.11012268,0.08857727,9.971848,0
5771.93523093,-0.0063438304,-0.9998241,0.017646993,0.99996316,-0.006240697,0.005893192,-0.0057820263,0.017683728,0.9998269,0.009087061,-0.99980104,0.017758498,0.99994427,0.009181079,0.0052199215,-0.0053819246,0.017710075,0.9998287,-0.07182312,0.11251831,9.895233,0
5771.939625462,-0.006363269,-0.9998243,0.017632777,0.999963,-0.006259941,0.0059090056,-0.0057975873,0.017669728,0.9998271,0.008773626,-0.99980307,0.01780069,0.999947,0.008867971,0.005228074,-0.0053849,0.017753879,0.9998279,-0.11491394,0.12689209,9.919174,0
5771.944019993,-0.0063225166,-0.9998239,0.017662572,0.9999632,-0.00621902,0.005908468,-0.0057975845,0.017699283,0.9998266,0.008475348,-0.9998059,0.017784314,0.99994963,0.00856965,0.005233061,-0.005384451,0.017739065,0.99982816,-0.05265808,0.27053833,9.880859,0
5771.948414524,0.037535585,-0.9991343,0.017936362,0.9992784,0.03763332,0.0051425872,-0.0058131404,0.01773039,0.99982595,0.008139192,-0.9998072,0.017871032,0.9999521,0.008234844,0.0052852323,-0.0054313783,0.017827159,0.9998263,-0.07182312,0.23222351,9.722839,0
5771.952809055,0.037535585,-0.9991343,0.017936362,0.9992784,0.03763332,0.0051425872,-0.0058131404,0.01773039,0.99982595,0.008753842,-0.9998019,0.017876504,0.99994695,0.008849246,0.005264772,-0.0054219225,0.01782947,0.9998263,-0.06703186,0.18434143,9.962265,0
5771.957203587,0.037514728,-0.9991354,0.017921295,0.99927914,0.03761266,0.0051590945,-0.0058287014,0.017714834,0.99982613,0.009352284,-0.9997967,0.017864149,0.9999417,0.009446964,0.005222993,-0.0053906934,0.017814262,0.9998268,-0.0909729,0.12689209,9.837769,0
5771.961598118,-0.036025632,-0.9991978,0.017493682,0.9993339,-0.035917405,0.0064622136,-0.0058287014,0.017714834,0.99982613,0.009905692,-0.9997904,0.017919417,0.99993634,0.010000806,0.005226032,-0.0054041445,0.017866509,0.9998258,-0.0622406,0.17477417,9.885651,0
5771.965992649,-0.03607291,-0.9991966,0.017462283,0.99933213,-0.035964873,0.006461925,-0.005828704,0.017683722,0.9998266,0.008964569,-0.9998002,0.017863752,0.99994504,0.009060089,0.005273336,-0.0054341294,0.017815497,0.9998265,-0.05744934,0.12210083,9.876068,0
5771.97038718,-0.03604927,-0.9991971,0.017477984,0.999333,-0.035941135,0.006462069,-0.0058287033,0.017699279,0.99982643,0.008067751,-0.99980783,0.017865306,0.99995255,0.008163809,0.005310376,-0.0054552043,0.017821617,0.99982625,-0.06703186,0.21307373,9.789886,0
5771.974781712,-0.0066196714,-0.99982154,0.017691629,0.999961,-0.0065151504,0.00595903,-0.005842703,0.017730385,0.9998257,0.007174557,-0.9998142,0.017888099,0.9999591,0.0072718114,0.005377722,-0.005506802,0.017848784,0.99982554,-0.11012268,0.22744751,9.909592,0
5771.979176243,-0.006619957,-0.9998216,0.017691422,0.99996096,-0.0065148864,0.0059901485,-0.0058738217,0.017730383,0.9998256,0.0068983766,-0.99981624,0.017884381,0.99996096,0.0069960128,0.0054025,-0.005526627,0.017846415,0.9998255,-0.13406372,0.19871521,9.933533,0
5771.983570774,-0.006619957,-0.9998216,0.017691422,0.99996096,-0.0065148864,0.0059901485,-0.0058738217,0.017730383,0.9998256,0.0066580074,-0.9998184,0.017855901,0.9999627,0.006755138,0.005384896,-0.0055045374,0.017819382,0.9998261,-0.05744934,0.17477417,9.785095,0
5771.987965305,0.0072711436,-0.9998156,0.017772922,0.99995637,0.007374271,0.0057438184,-0.0058738217,0.017730383,0.9998256,0.0063786097,-0.99982005,0.017866068,0.9999643,0.006476595,0.0054319464,-0.00554668,0.017830782,0.99982566,-0.06703186,0.15083313,9.785095,0
5771.992359837,0.007271452,-0.99981564,0.017773153,0.9999562,0.0073751314,0.0057749255,-0.00590494,0.01773038,0.99982536,0.006349071,-0.9998204,0.017855141,0.99996465,0.0064463224,0.005394399,-0.0055085304,0.017820261,0.999826,-0.12449646,0.16998291,9.837769,0
5771.996754368,0.0072505563,-0.99981606,0.017757691,0.99995613,0.0073546735,0.00580497,-0.005934504,0.01771482,0.9998254,0.006391615,-0.9998192,0.017907862,0.99996424,0.0064898194,0.0054311506,-0.0055463873,0.017872507,0.9998249,-0.13885498,0.14604187,9.890442,0
5772.001148899,0.032046616,-0.9993256,0.017928777,0.99946856,0.032148235,0.005408448,-0.005981179,0.017745927,0.9998247,0.0064180917,-0.99982,0.017856503,0.99996424,0.0065154512,0.0053994907,-0.0055148616,0.017821208,0.999826,-0.15800476,0.24659729,9.856918,0
5772.00554343,0.032024696,-0.9993265,0.017914059,0.99946904,0.032126762,0.005438885,-0.006010743,0.017730368,0.99982476,0.006930783,-0.99981636,0.017866576,0.9999608,0.007028195,0.0053952187,-0.0055197976,0.017828481,0.9998258,-0.1484375,0.13645935,9.852127,0
5772.009937962,0.032048035,-0.99932545,0.017929731,0.9994682,0.032150183,0.0054379646,-0.006010741,0.017745923,0.99982446,0.0074130734,-0.99981385,0.017813247,0.99995726,0.0075101955,0.0053915493,-0.0055243266,0.017772518,0.9998268,-0.0622406,0.24180603,9.990997,0
5772.014332493,-0.007137948,-0.9998183,0.017671784,0.9999565,-0.0070304787,0.0061361003,-0.0060107447,0.017714815,0.99982506,0.007958393,-0.999809,0.017846078,0.999953,0.008055709,0.0053878645,-0.0055305986,0.01780236,0.9998262,-0.07182312,0.09336853,9.967056,0
5772.018727024,-0.0071171434,-0.99981827,0.017687246,0.9999564,-0.007009031,0.0061669527,-0.006041861,0.017730365,0.9998245,0.0076621003,-0.999811,0.01786709,0.99995553,0.007759051,0.005363234,-0.005500852,0.017825201,0.99982595,-0.1197052,0.19871521,9.919174,0
5772.023121555,-0.0071382495,-0.9998184,0.01767156,0.9999563,-0.00703023,0.0061672186,-0.006041863,0.01771481,0.9998248,0.0073578246,-0.99981475,0.01778486,0.9999578,0.00745442,0.0053711566,-0.005502737,0.01774459,0.9998274,-0.05265808,0.13166809,9.852127,0
5772.027516087,0.06519006,-0.99770945,0.018056756,0.99785453,0.06528803,0.0048897336,-0.006057424,0.017699255,0.99982506,0.007089544,-0.9998168,0.017782876,0.99995965,0.007186606,0.0054002064,-0.005527015,0.017743872,0.9998273,-0.12927246,0.14125061,9.789886,0
5772.031910618,0.06516765,-0.99771124,0.01804214,0.99785584,0.06526582,0.0049066795,-0.006072984,0.017683696,0.9998251,0.00829709,-0.99980813,0.017743904,0.9999504,0.008393499,0.005365812,-0.005513716,0.017698502,0.99982816,-0.0909729,0.11730957,9.8138275,0
5772.036305149,0.06514605,-0.99771285,0.018028064,0.9978572,0.06524416,0.004907985,-0.006072986,0.017669698,0.9998254,0.009378981,-0.9997981,0.017771408,0.99994093,0.009474988,0.00532592,-0.005493229,0.017720405,0.9998279,-0.05744934,0.16998291,9.823395,0
5772.04069968,-0.0131404335,-0.99975926,0.017573357,0.9998954,-0.013031696,0.0062879534,-0.0060574287,0.017654145,0.99982584,0.010525061,-0.99978673,0.017766364,0.9999295,0.010620711,0.005298031,-0.005485593,0.017709352,0.9998281,-0.004776001,0.12210083,9.847351,0
5772.045094212,-0.013163468,-0.99975914,0.017557658,0.99989504,-0.013054825,0.006288157,-0.0060574305,0.01763859,0.99982613,0.010029414,-0.99979186,0.017767478,0.9999345,0.010125739,0.0053397287,-0.0055185263,0.017712759,0.99982786,-0.08139038,0.13166809,9.698898,0
5772.049488743,-0.013097234,-0.99975926,0.017602794,0.9998957,-0.012987796,0.00631713,-0.006086988,0.017683696,0.9998251,0.009547916,-0.9997975,0.017711218,0.9999391,0.00964436,0.005367983,-0.00553771,0.017658886,0.99982876,-0.12927246,0.26574707,9.837769,0
5772.053883274,0.043988533,-0.9988713,0.017921325,0.9990135,0.044090215,0.005318397,-0.006102549,0.017669694,0.9998253,0.009149485,-0.9998019,0.017679716,0.99994284,0.009245691,0.005367499,-0.0055298964,0.017629594,0.9998293,-0.11491394,0.16040039,9.9479065,0
5772.058277805,0.043988533,-0.9988713,0.017921325,0.9990135,0.044090215,0.005318397,-0.006102549,0.017669694,0.9998253,0.00985568,-0.99979514,0.01767972,0.9999362,0.009951507,0.0053403825,-0.0055152285,0.01762596,0.9998295,-0.04788208,0.16998291,10.014938,0
5772.062672337,0.043950234,-0.99887353,0.017892707,0.99901474,0.044052836,0.005381071,-0.006163233,0.017638577,0.9998254,0.010529409,-0.999788,0.017697653,0.9999292,0.01062573,0.005357402,-0.005544316,0.01763999,0.99982905,-0.24420166,0.07899475,9.895233,0
5772.067066868,-0.029855125,-0.9994019,0.017446142,0.9995351,-0.029741842,0.006717249,-0.0061943517,0.017638575,0.9998253,0.011154081,-0.99978083,0.017715866,0.99992245,0.011250249,0.0053380188,-0.005536157,0.017654952,0.9998288,-0.11012268,0.17955017,9.876068,0
5772.071461399,-0.029878749,-0.9994015,0.017430434,0.9995344,-0.029765567,0.0067172,-0.006194353,0.01762302,0.9998256,0.010333278,-0.9997896,0.017720386,0.99993104,0.0104303835,0.0053962283,-0.0055799237,0.017663404,0.99982846,-0.0909729,0.15083313,9.856918,0
5772.07585593,-0.029924346,-0.9994007,0.01740012,0.9995329,-0.029811084,0.006732667,-0.0062099155,0.017593464,0.99982595,0.009573532,-0.99979687,0.017734893,0.9999386,0.009670815,0.005407768,-0.005578181,0.017682033,0.9998281,-0.10055542,0.10293579,9.967056,0
5772.080250462,-0.029925691,-0.9994007,0.017399227,0.99953264,-0.029811913,0.0067622345,-0.0062394775,0.01759346,0.9998257,0.008835115,-0.9998039,0.0177206,0.99994504,0.008933536,0.005482609,-0.005639842,0.017671188,0.9998279,-0.11491394,0.14125061,9.856918,0
5772.084644993,-0.029972946,-0.99939984,0.017367812,0.99953127,-0.029859373,0.006762132,-0.0062394813,0.01756235,0.9998263,0.0080900695,-0.99981004,0.017732525,0.9999512,0.008189216,0.0055257054,-0.0056698713,0.017686957,0.9998275,-0.07661438,0.11730957,9.837769,0
5772.089039524,-0.0299716,-0.99939984,0.017368706,0.9995315,-0.02985854,0.0067325635,-0.0062099188,0.017562354,0.9998265,0.007290054,-0.99981725,0.017671475,0.9999575,0.007388405,0.0055066347,-0.005636192,0.01763058,0.99982864,0.03829956,0.16519165,9.880859,0
5772.093434055,0.01548531,-0.9997236,0.017687604,0.9998609,0.015592179,0.0059202034,-0.006194356,0.017593464,0.999826,0.0065484475,-0.99982196,0.017696971,0.9999624,0.006647888,0.0055660782,-0.005682735,0.017659858,0.9998279,-0.02394104,0.2609558,9.9048,0
5772.097828587,0.015464513,-0.9997242,0.017672861,0.9998609,0.015572365,0.00598148,-0.0062550385,0.017577903,0.99982595,0.0067718704,-0.99982107,0.017662182,0.99996096,0.006871012,0.0055585713,-0.0056789336,0.017623851,0.9998285,-0.22984314,0.11730957,9.876068,0
5772.102223118,0.015487675,-0.9997235,0.017689278,0.9998601,0.015596443,0.0060274904,-0.0063017146,0.017593453,0.99982536,0.006865993,-0.99982077,0.01764524,0.99995995,0.006966126,0.0056195823,-0.005741494,0.01760595,0.9998285,-0.17237854,0.21786499,9.856918,0
5772.106617649,0.039053008,-0.9990781,0.017826995,0.9992173,0.039158776,0.0056228186,-0.0063157184,0.017593453,0.99982536,0.007051371,-0.99982065,0.017576179,0.9999585,0.007151591,0.00564574,-0.005770425,0.01753564,0.9998296,-0.12927246,0.18913269,10.00058,0
5772.11101218,0.039055683,-0.9990779,0.017828833,0.9992168,0.039162282,0.0056694043,-0.0063623954,0.017593447,0.999825,0.007740868,-0.9998158,0.01756142,0.99995327,0.007841094,0.005645533,-0.0057821944,0.0175169,0.9998298,-0.1771698,0.15560913,9.871292,0
5772.115406712,0.0389881,-0.9990814,0.017782424,0.9992193,0.03909472,0.005687985,-0.0063779596,0.01754678,0.9998257,0.008323904,-0.99981153,0.017540118,0.99994874,0.008423565,0.005615674,-0.0057623656,0.017492473,0.99983037,-0.08139038,0.05505371,9.885651,0
5772.119801243,-0.022479473,-0.99959594,0.01739935,0.999727,-0.022364583,0.0067698252,-0.0063779596,0.01754678,0.9998257,0.0089507615,-0.9998064,0.01752278,0.9999434,0.009050131,0.005599849,-0.0057573477,0.017471664,0.9998308,-0.0909729,0.16519165,9.837769,0
5772.124195774,-0.022479473,-0.99959594,0.01739935,0.999727,-0.022364583,0.0067698252,-0.0063779596,0.01754678,0.9998257,0.008311505,-0.9998107,0.017590156,0.9999485,0.008412354,0.0056669894,-0.005813891,0.017542148,0.9998292,-0.04309082,0.18434143,10.00058,0
5772.128590305,-0.022502063,-0.99959564,0.017383995,0.9997266,-0.022387547,0.0067543187,-0.006362403,0.017531227,0.99982613,0.0077308463,-0.99981564,0.017573634,0.99995315,0.007831677,0.0056760325,-0.0058126175,0.017528933,0.9998294,-0.05265808,0.12210083,9.84256,0
5772.132984837,0.046946816,-0.9987384,0.017826445,0.9988773,0.04705206,0.005530609,-0.006362401,0.017546782,0.99982584,0.007071658,-0.99982053,0.01757537,0.9999579,0.0071730455,0.0057123643,-0.0058374084,0.017534234,0.99982923,-0.05744934,0.22265625,9.876068,0
5772.137379368,0.046992525,-0.9987356,0.017857771,0.998875,0.047097933,0.005528323,-0.006362397,0.017577892,0.9998253,0.007877456,-0.99981475,0.01756317,0.99995166,0.0079795895,0.005752751,-0.0058918325,0.017517002,0.99982923,-0.03829956,0.25616455,9.923965,0
5772.141773899,0.04699145,-0.99873567,0.017857034,0.99887514,0.047096577,0.005512803,-0.006346838,0.017577894,0.99982536,0.008629345,-0.9998086,0.017555898,0.9999453,0.008731541,0.0057528443,-0.0059050336,0.017505296,0.9998293,-0.04788208,0.16040039,9.713272,0
5772.14616843,-0.029513799,-0.9994127,0.017413298,0.99954444,-0.029398385,0.00684722,-0.0063312757,0.01760745,0.999825,0.009445605,-0.999801,0.017572,0.9999378,0.009548441,0.005777586,-0.005944221,0.017516334,0.99982893,-0.004776001,0.25138855,9.809036,0
5772.150562962,-0.029513799,-0.9994127,0.017413298,0.99954444,-0.029398385,0.00684722,-0.0063312757,0.01760745,0.999825,0.00868446,-0.99980783,0.017573468,0.99994475,0.0087869605,0.005763904,-0.0059172143,0.017522441,0.99982893,-0.06703186,0.19392395,9.837769,0
5772.154957493,-0.029492002,-0.9994131,0.017428538,0.99954486,-0.02937621,0.0068628453,-0.006346833,0.017623004,0.9998245,0.007925106,-0.9998137,0.01760135,0.9999511,0.008027736,0.0057677887,-0.0059080133,0.01755478,0.99982846,-0.0909729,0.18913269,9.804245,0
5772.159352024,0.030264677,-0.9993832,0.017807813,0.9995216,0.030372666,0.0058251135,-0.006362392,0.017623002,0.99982446,0.007220541,-0.99981886,0.017608512,0.9999563,0.007323933,0.0058142785,-0.0059421887,0.017565759,0.99982804,-0.10533142,0.20350647,10.038879,0
5772.163746555,0.030264677,-0.9993832,0.017807813,0.9995216,0.030372666,0.0058251135,-0.006362392,0.017623002,0.99982446,0.007685407,-0.9998145,0.017660797,0.9999526,0.007789711,0.0058447826,-0.005981271,0.017615039,0.99982697,-0.05744934,0.16519165,9.823395,0
5772.168141087,0.030265342,-0.9993832,0.017808288,0.99952155,0.030373609,0.005840651,-0.0063779512,0.017623,0.9998244,0.008162794,-0.9998105,0.017673012,0.9999491,0.0082661,0.0057802787,-0.0059252703,0.017624928,0.9998271,-0.11012268,0.15560913,9.923965,0
5772.172515305,0.023508968,-0.99956536,0.017783955,0.9997032,0.023618259,0.005960513,-0.0063779494,0.017638555,0.9998241,0.008555831,-0.99980724,0.017671661,0.99994546,0.008660131,0.0058339857,-0.0059859,0.017620785,0.9998268,-0.08618164,0.22744751,9.9479065,0
5772.176909836,0.023510512,-0.9995654,0.017785026,0.999703,0.023620604,0.0060055885,-0.006423071,0.01763855,0.9998238,0.008820011,-0.9998042,0.017713135,0.9999432,0.00892448,0.005827403,-0.0059843427,0.017660731,0.9998261,-0.18673706,0.15560913,9.871292,0
5772.181304367,0.023488944,-0.9995662,0.017770078,0.9997033,0.0235995,0.0060374457,-0.006454191,0.01762299,0.99982387,0.009053688,-0.9998028,0.017670788,0.9999407,0.009159043,0.0058903666,-0.006051053,0.01761641,0.9998265,-0.1197052,0.16519165,9.785095,0
5772.185698899,0.030796196,-0.999367,0.017815126,0.9995046,0.030906549,0.0059524775,-0.0064993124,0.017622987,0.9998236,0.0093908915,-0.9997993,0.017694375,0.99993765,0.009496098,0.0058711655,-0.0060380152,0.017638138,0.9998262,-0.1819458,0.16519165,9.9048,0
5772.19009343,0.03075446,-0.9993688,0.017785817,0.9995058,0.03086492,0.005969686,-0.0065148748,0.017593428,0.999824,0.009863266,-0.9997951,0.017677113,0.99993306,0.009968551,0.0058778794,-0.0060528903,0.017617954,0.9998265,-0.13406372,0.08378601,9.909592,0
5772.194487961,0.030734118,-0.99936956,0.01777153,0.99950606,0.03084529,0.006015622,-0.006559998,0.01757787,0.999824,0.010294151,-0.99979085,0.017670484,0.9999286,0.010399644,0.0058885417,-0.006071077,0.017608605,0.99982655,-0.16758728,0.12210083,9.8138275,0
5772.198882492,0.01625136,-0.99971104,0.017712327,0.99984634,0.016364956,0.006287509,-0.0065755537,0.017607423,0.9998234,0.010712022,-0.99978614,0.017689737,0.9999242,0.0108175,0.0058777384,-0.0060678404,0.017625432,0.99982625,-0.0622406,0.09815979,9.900009,0
5772.203277024,0.016230611,-0.9997117,0.0176982,0.9998467,0.016344124,0.0062881075,-0.006575555,0.017593423,0.9998236,0.010712022,-0.99978614,0.017689737,0.9999242,0.0108175,0.0058777384,-0.0060678404,0.017625432,0.99982625,-0.0622406,0.09815979,9.900009,0
5772.207671555,0.016250983,-0.9997111,0.017712072,0.9998465,0.016364306,0.0062719616,-0.006559995,0.017607424,0.9998235,0.010885475,-0.99978447,0.017675593,0.9999224,0.010990676,0.005865551,-0.0060585537,0.017610373,0.99982655,-0.004776001,0.21307373,9.890442,0
5772.212066086,-1.7710545E-4,-0.99984574,0.017561534,0.9999786,-6.238987E-5,0.0065325405,-0.0065304376,0.017562319,0.99982446,0.010992801,-0.9997834,0.017671837,0.99992114,0.011098062,0.0058693406,-0.0060641933,0.017605925,0.9998266,0.004776001,0.07899475,9.742004,0
5772.216460617,-1.3350534E-4,-0.99984527,0.017592926,0.9999785,-1.807227E-5,0.0065613296,-0.006559996,0.017593423,0.9998237,0.010808448,-0.99978566,0.01765522,0.999923,0.010914164,0.005902467,-0.006093894,0.017590066,0.99982667,-0.1484375,0.22744751,9.847351,0
5772.220855149,-1.7710931E-4,-0.99984574,0.017561533,0.99997854,-6.2120474E-5,0.006548098,-0.0065459968,0.017562317,0.9998244,0.010564405,-0.999788,0.017675335,0.999926,0.010669357,0.005854081,-0.0060414243,0.01761218,0.99982667,-0.03829956,0.10772705,9.86171,0
5772.22524968,0.044466034,-0.9988519,0.01782282,0.99898905,0.04457569,0.0058033173,-0.0065911193,0.017546754,0.9998242,0.010305048,-0.99979174,0.017614238,0.9999286,0.010410023,0.005878401,-0.0060605407,0.017552402,0.99982756,-0.16279602,0.13645935,10.101135,0
5772.229644211,0.044445243,-0.9988531,0.017807852,0.99898994,0.044555094,0.0058199246,-0.0066066803,0.0175312,0.99982446,0.010944281,-0.99978554,0.017579226,0.9999215,0.011049572,0.005903619,-0.0060965964,0.017513236,0.99982804,-0.10055542,0.12210083,9.804245,0
5772.234038742,0.04446797,-0.9988518,0.017824216,0.9989888,0.044578183,0.0058343657,-0.006622238,0.017546752,0.9998241,0.011658177,-0.9997779,0.017557496,0.9999134,0.011763486,0.0059066657,-0.006111891,0.017487114,0.99982846,-0.10533142,0.21786499,9.74678,0
5772.238433274,-0.014685095,-0.9997398,0.017447801,0.9998701,-0.014566725,0.006892191,-0.006636242,0.017546752,0.9998241,0.012314885,-0.9997702,0.017547764,0.9999055,0.012419945,0.005890694,-0.006107283,0.017473564,0.9998287,-0.1197052,0.18913269,9.641449,0
5772.242827805,-0.014731118,-0.9997397,0.017417705,0.99986935,-0.014612673,0.0069081206,-0.006651804,0.017517194,0.99982446,0.011765211,-0.9997771,0.017529355,0.9999117,0.011871352,0.0059633655,-0.006170133,0.017457647,0.9998286,-0.1197052,0.08857727,9.756363,0
5772.247222336,-0.014686827,-0.99973994,0.01744667,0.99986964,-0.014567125,0.0069684405,-0.0067124804,0.017546741,0.9998235,0.011194748,-0.99978423,0.017497577,0.99991786,0.01130202,0.0060438286,-0.006240282,0.01742848,0.99982864,-0.22026062,0.24180603,10.010147,0
5772.251616867,0.01696979,-0.9996998,0.017674057,0.99983346,0.017085427,0.006412435,-0.0067124786,0.017562296,0.9998232,0.010662487,-0.99979,0.017501745,0.9999237,0.010769862,0.006052371,-0.006239591,0.017435877,0.9998285,-0.0622406,0.19392395,9.799454,0
5772.256011399,0.016921736,-0.9997011,0.017642641,0.99983424,0.01703718,0.0064138183,-0.006712483,0.017531186,0.9998238,0.0107627055,-0.9997889,0.017504904,0.99992275,0.010869857,0.0060376422,-0.0062266435,0.017438568,0.9998286,-0.07182312,0.11251831,9.923965,0
5772.26040593,0.0169454,-0.9997005,0.01765811,0.99983394,0.017060691,0.006399135,-0.0066984775,0.017546743,0.9998236,0.010866232,-0.9997882,0.017478008,0.9999216,0.010973195,0.0060356287,-0.0062261396,0.017411053,0.99982905,-0.02394104,0.22265625,9.856918,0
5772.264800461,0.0085099675,-0.999809,0.017588193,0.9999411,0.008626801,0.0065775667,-0.0067280415,0.017531184,0.9998237,0.010961898,-0.9997873,0.01747259,0.9999206,0.011068663,0.0060254545,-0.0062175705,0.01740515,0.99982923,-0.1484375,0.11251831,9.828186,0
5772.269194992,0.00846684,-0.99981,0.017558752,0.99994123,0.008584305,0.006625251,-0.006774722,0.017501624,0.99982387,0.010934862,-0.99978757,0.017470486,0.99992085,0.011041727,0.0060321484,-0.0062237713,0.017403143,0.9998292,-0.15800476,0.09815979,9.708481,0
5772.273589524,0.008444199,-0.99981046,0.0175433,0.9999413,0.008562082,0.0066553405,-0.006804286,0.017486066,0.999824,0.010904604,-0.9997875,0.017492337,0.99992085,0.011012404,0.00607822,-0.0062695616,0.017424675,0.9998285,-0.1484375,0.14604187,9.785095,0
5772.277984055,-0.068736725,-0.99748987,0.017008506,0.99761164,-0.06860886,0.007991276,-0.0068042823,0.017517176,0.9998234,0.010859287,-0.99978876,0.017449964,0.99992114,0.010967479,0.0061164536,-0.0063065435,0.017382167,0.999829,-0.06703186,0.21786499,9.794678,0
5772.282378586,-0.06871445,-0.9974911,0.01702372,0.9976133,-0.068586744,0.007976335,-0.006788722,0.017531179,0.99982333,0.009233116,-0.9998043,0.017496536,0.9999379,0.009340832,0.0060846615,-0.006246903,0.017439265,0.99982846,-0.05744934,0.24180603,9.914383,0
5772.286773117,-0.068690024,-0.99749255,0.017040396,0.99761504,-0.068562426,0.007963015,-0.0067747165,0.017546734,0.9998231,0.0076555093,-0.99981725,0.017515248,0.99995106,0.0077638677,0.0061268928,-0.0062617594,0.017467488,0.9998278,-0.028717041,0.20350647,9.789886,0
5772.291167649,-0.06866545,-0.9974939,0.017057179,0.9976168,-0.068538,0.00794814,-0.006759156,0.01756229,0.9998229,0.0061366195,-0.99982804,0.017498603,0.9999616,0.006244934,0.0061420016,-0.006250223,0.01746024,0.999828,-0.028717041,0.19871521,9.804245,0
5772.29556218,-0.06873513,-0.99748987,0.017009586,0.99761176,-0.068607524,0.007975729,-0.0067887236,0.017517177,0.9998235,0.004599864,-0.99983644,0.017491544,0.9999698,0.0047088224,0.0061931065,-0.006274458,0.017462526,0.99982786,-0.11491394,0.07421875,9.828186,0
5772.299956711,-0.06867004,-0.9974937,0.017054046,0.9976163,-0.068541825,0.007993227,-0.006804277,0.017562287,0.9998227,0.0031496536,-0.99984264,0.017457334,0.9999753,0.0032587561,0.0062247487,-0.0062806588,0.017437298,0.9998282,-0.1197052,0.2609558,9.737213,0
5772.304351242,0.059742894,-0.99805236,0.017954232,0.9981905,0.05985472,0.0057564005,-0.006819834,0.017577838,0.9998222,0.0017469262,-0.99984634,0.017442131,0.99997854,0.0018565962,0.0062734284,-0.0063048475,0.0174308,0.99982816,-0.12449646,0.22265625,9.737213,0
5772.308745774,0.05976339,-0.9980508,0.017968947,0.99818945,0.059875026,0.0057395697,-0.006804274,0.017593397,0.99982214,0.002962254,-0.9998442,0.017403113,0.99997586,0.0030711533,0.006234054,-0.0062865303,0.017384227,0.9998291,-0.028717041,0.21307373,9.794678,0
5772.313140305,0.059826616,-0.9980462,0.018014338,0.9981856,0.059938494,0.0057357214,-0.006804268,0.017638505,0.99982125,0.004125581,-0.99984074,0.017366229,0.99997187,0.0042338595,0.0062028547,-0.006275393,0.017340148,0.99983,-0.0622406,0.28012085,9.957474,0
5772.317534836,-0.005876216,-0.99982816,0.017583165,0.9999597,-0.0057558008,0.0068911,-0.0067887106,0.017622951,0.9998216,0.0052255783,-0.9998358,0.017349668,0.99996656,0.005333747,0.0061941915,-0.006285713,0.01731672,0.99983025,-0.01914978,0.14604187,9.785095,0
5772.321929367,-0.0058760955,-0.99982816,0.01758325,0.9999599,-0.005755927,0.0068770978,-0.0067747077,0.017622953,0.9998218,0.00499863,-0.99983734,0.01732841,0.99996746,0.005107407,0.0062388107,-0.006326299,0.01729666,0.99983037,-0.0335083,0.17955017,9.919174,0
5772.326323899,-0.0058306516,-0.9998279,0.017614592,0.99996,-0.005710028,0.006890473,-0.0067887064,0.01765406,0.99982107,0.0047466867,-0.99983853,0.017329108,0.9999688,0.0048552006,0.006225255,-0.006308386,0.01729902,0.9998304,-0.09576416,0.2609558,9.890442,0
5772.33071843,-0.027703403,-0.9994637,0.017459216,0.9995931,-0.027579648,0.0072896946,-0.0068042665,0.01765406,0.99982107,0.00457417,-0.99983954,0.017320259,0.9999695,0.004683091,0.0062533095,-0.0063334187,0.017291127,0.9998304,-0.12927246,0.19392395,9.871292,0
5772.335112961,-0.027704012,-0.9994637,0.01745878,0.9995929,-0.027579984,0.0073052556,-0.006819825,0.017654058,0.9998209,0.00457417,-0.99983954,0.017320259,0.9999695,0.004683091,0.0062533095,-0.0063334187,0.017291127,0.9998304,-0.12927246,0.19392395,9.871292,0
5772.339507492,-0.027725955,-0.9994633,0.017443072,0.9995923,-0.02760204,0.0073052114,-0.006819827,0.017638503,0.9998212,0.0033350075,-0.999844,0.017343976,0.9999744,0.0034441042,0.006264128,-0.006322886,0.01732264,0.99983,-0.06703186,0.15083313,10.010147,0
5772.343902024,0.030693494,-0.9993702,0.017809281,0.9995055,0.03080975,0.0062906523,-0.00683539,0.01760739,0.9998216,0.0026890896,-0.9998461,0.017336534,0.99997634,0.0027983286,0.0062799123,-0.006327459,0.017319238,0.99983,-0.11012268,0.08857727,9.722839,0
5772.348296555,0.030674584,-0.999371,0.017796075,0.9995058,0.03079128,0.0063209655,-0.0068649533,0.017593388,0.9998216,0.0032311531,-0.99984443,0.017337166,0.9999745,0.0033410047,0.0063109733,-0.006367916,0.017316332,0.99982977,-0.14364624,0.13645935,9.837769,0
5772.352691086,0.030632406,-0.9993728,0.017766617,0.9995067,0.03075002,0.0063848733,-0.006927193,0.01756227,0.9998218,0.0037646429,-0.9998427,0.01733161,0.9999723,0.0038752179,0.0063508004,-0.0064169657,0.017307224,0.9998296,-0.21546936,0.06463623,9.9048,0
5772.357085617,0.031012112,-0.99936086,0.017783627,0.9994954,0.031129222,0.0063465405,-0.006896074,0.01757783,0.9998218,0.0043062484,-0.99984103,0.017300908,0.99996996,0.0044169407,0.0063649463,-0.0064403517,0.017272979,0.99983007,0.009567261,0.23222351,9.866501,0
5772.361480149,0.031033982,-0.99935985,0.01779883,0.9994947,0.03115091,0.006330115,-0.0068805125,0.017593386,0.99982154,0.0048006526,-0.9998387,0.017306162,0.9999676,0.004911818,0.0063866964,-0.0064706705,0.01727494,0.9998298,-0.04309082,0.20350647,9.832977,0
5772.36587468,0.031100143,-0.999357,0.017844822,0.9994925,0.031217624,0.006343072,-0.006896066,0.017638493,0.99982065,0.00530955,-0.9998366,0.017276874,0.9999645,0.0054215966,0.0064449743,-0.00653759,0.01724204,0.99982995,-0.10055542,0.3088379,9.84256,0
5772.370269211,0.0209995,-0.99962187,0.01774904,0.9997555,0.02111842,0.006539269,-0.0069116284,0.017607382,0.99982107,0.0058159926,-0.99983335,0.017305866,0.99996144,0.0059288656,0.006478076,-0.0065796003,0.017267523,0.9998293,-0.09576416,0.07421875,9.823395,0
5772.374663742,0.021040251,-0.9996205,0.017780412,0.9997548,0.021159368,0.0065378835,-0.006911625,0.017638493,0.9998206,0.0060703247,-0.9998319,0.017299928,0.9999599,0.006183216,0.0064795096,-0.00658539,0.017259901,0.99982935,-0.0909729,0.25138855,9.756363,0
5772.379058274,0.021019448,-0.9996213,0.017764397,0.9997553,0.021138187,0.0065230317,-0.0068960683,0.01762294,0.99982095,0.0064260634,-0.99982876,0.017353423,0.99995744,0.006539824,0.0065067355,-0.00661911,0.017310873,0.9998282,-0.0143585205,0.14125061,9.694122,0
5772.383452805,0.007826208,-0.99981385,0.017632145,0.9999451,0.007947472,0.006817891,-0.0069567533,0.017577821,0.99982125,0.0067576002,-0.99982685,0.017339721,0.9999553,0.006871171,0.006498533,-0.0066165514,0.01729503,0.9998286,-0.21546936,0.06463623,9.74678,0
5772.387847336,0.007760714,-0.99981534,0.017585156,0.99994576,0.007881942,0.006834977,-0.0069723185,0.017531157,0.9998221,0.006789595,-0.99982655,0.017340325,0.9999553,0.006902517,0.006460579,-0.0065791504,0.017295685,0.99982876,-0.10533142,0.02154541,9.890442,0
5772.392241867,0.007760714,-0.99981534,0.017585156,0.99994576,0.007881942,0.006834977,-0.0069723185,0.017531157,0.9998221,0.0068129813,-0.99982595,0.017367247,0.9999549,0.00692659,0.006489808,-0.0066089747,0.01732225,0.9998281,-0.10055542,0.17477417,9.909592,0
5772.396636399,-0.027663179,-0.9994672,0.017317595,0.9995928,-0.027537245,0.007468736,-0.0069878786,0.017517153,0.99982214,0.006817723,-0.9998265,0.017337024,0.99995446,0.006932315,0.006558171,-0.0066772182,0.017291524,0.9998282,-0.10533142,0.14604187,9.923965,0
5772.40103093,-0.027643234,-0.9994677,0.017331742,0.9995935,-0.027517196,0.007468775,-0.0069878767,0.017531153,0.99982184,0.0061717373,-0.99983096,0.017317645,0.99995834,0.006287028,0.006610864,-0.0067186235,0.017276127,0.99982816,-0.06703186,0.22265625,9.976624,0
5772.405425461,-0.027601281,-0.99946815,0.017361475,0.9995941,-0.027473966,0.0075295456,-0.0070485533,0.017562257,0.99982095,0.005473379,-0.9998343,0.017362077,0.99996245,0.0055891695,0.0066276877,-0.0067236293,0.017325148,0.9998273,-0.22505188,0.24180603,9.852127,0
5772.409819992,-0.015806036,-0.9997231,0.01743355,0.9998503,-0.01568033,0.0073239473,-0.0070485556,0.017546702,0.99982125,0.0047917175,-0.9998367,0.017426642,0.9999657,0.00490859,0.0066699553,-0.0067544063,0.017394083,0.9998259,-0.08139038,0.15560913,9.9048,0
5772.414214524,-0.015785992,-0.9997231,0.017448291,0.99985003,-0.015659112,0.0073845014,-0.0071092327,0.017562248,0.9998205,0.0043588355,-0.9998384,0.01743983,0.99996805,0.0044749756,0.006625995,-0.006702967,0.01741039,0.99982595,-0.22984314,0.19392395,9.885651,0
5772.418609055,-0.015808366,-0.9997231,0.017431835,0.9998495,-0.015680786,0.007431315,-0.007155912,0.017546687,0.9998205,0.003951661,-0.9998407,0.01740522,0.9999697,0.004067705,0.006636884,-0.0067066257,0.017378464,0.9998265,-0.17237854,0.13645935,9.885651,0
5772.423003586,0.037283957,-0.9991464,0.017786738,0.99927896,0.037404824,0.006511721,-0.0071714725,0.01753113,0.9998206,0.003536506,-0.9998414,0.01745527,0.9999711,0.003653277,0.006662362,-0.006725074,0.017431205,0.9998254,-0.12449646,0.10772705,9.751572,0
5772.427398117,0.037263483,-0.99914736,0.017772034,0.9992798,0.037383985,0.0064970646,-0.0071559157,0.017517133,0.99982095,0.0042200773,-0.9998388,0.017448751,0.99996835,0.004337072,0.006672659,-0.00674726,0.01742004,0.9998255,-0.01914978,0.16519165,9.928741,0
5772.431792649,0.037240822,-0.9991485,0.017755764,0.99928075,0.03736095,0.0064825052,-0.0071403584,0.01750158,0.9998213,0.004895368,-0.9998352,0.017479908,0.999965,0.005013115,0.0066986545,-0.0067851795,0.017446503,0.99982476,-0.03829956,0.14125061,9.9479065,0
5772.43618718,-0.036573794,-0.9991824,0.01722863,0.9993053,-0.036443967,0.007790166,-0.0071559176,0.01750158,0.99982125,0.0055506704,-0.99983084,0.017533688,0.9999613,0.005669248,0.006720381,-0.006818647,0.017495707,0.9998237,-0.0909729,0.13645935,9.880859,0
5772.440581711,-0.03655345,-0.9991829,0.017243251,0.99930584,-0.036422998,0.007819917,-0.0071854773,0.017517129,0.99982077,0.004690416,-0.99983567,0.017510755,0.9999657,0.0048091784,0.0067463084,-0.006829412,0.017478513,0.9998239,-0.16279602,0.23222351,9.852127,0
5772.444976242,-0.03655273,-0.99918294,0.017243769,0.999306,-0.03642252,0.0078059146,-0.007171475,0.017517133,0.9998209,0.0038560831,-0.99983895,0.017525537,0.9999694,0.0039746095,0.0067332895,-0.0068018627,0.017499035,0.99982375,-0.0335083,0.15083313,9.804245,0
5772.449370774,8.004136E-4,-0.99984586,0.01753729,0.9999741,9.254926E-4,0.007125221,-0.0071403543,0.017531134,0.99982077,0.0030124679,-0.9998423,0.01750308,0.9999722,0.0031313389,0.0067680073,-0.006821748,0.017482204,0.9998239,-0.028717041,0.18434143,9.74678,0
5772.453765305,8.23131E-4,-0.99984556,0.017552996,0.9999742,9.480449E-4,0.0071092504,-0.007124794,0.017546691,0.99982065,0.0030124679,-0.9998423,0.01750308,0.9999722,0.0031313389,0.0067680073,-0.006821748,0.017482204,0.9998239,-0.028717041,0.18434143,9.74678,0
5772.458159836,7.799502E-4,-0.99984616,0.017523145,0.9999742,9.049321E-4,0.007125595,-0.007140356,0.017517135,0.99982107,0.0029594782,-0.99984246,0.017500103,0.99997234,0.0030782993,0.006766717,-0.006819522,0.017479593,0.999824,-0.07661438,0.11251831,9.780304,0
5772.462554367,-4.550886E-4,-0.9998459,0.017543871,0.9999742,-3.291915E-4,0.0071783513,-0.007171471,0.017546687,0.9998204,0.0029247932,-0.99984276,0.017487444,0.99997246,0.0030434963,0.006765152,-0.0068173115,0.017467177,0.99982417,-0.15322876,0.24180603,9.986206,0
5772.466948899,-5.177105E-4,-0.9998468,0.017498313,0.99997425,-3.9212924E-4,0.007179439,-0.0071714767,0.017501578,0.9998212,0.002886898,-0.99984324,0.017468944,0.99997264,0.0030053565,0.006758654,-0.0068100947,0.017448954,0.9998246,-0.06703186,0.07421875,9.804245,0
5772.47134343,-5.8249134E-4,-0.9998476,0.01745118,0.9999741,-4.5723678E-4,0.007180556,-0.007171482,0.017454911,0.9998219,0.002832598,-0.99984354,0.01746068,0.999973,0.002950529,0.0067320317,-0.0067824963,0.017441139,0.9998249,-0.07182312,0.05027771,9.756363,0
5772.475737961,-0.013529843,-0.99975747,0.01737251,0.9998828,-0.013403115,0.0073905583,-0.0071559213,0.017470468,0.9998218,0.0027595721,-0.99984396,0.01744747,0.999973,0.0028779425,0.0067629274,-0.0068120854,0.017428337,0.99982494,-0.06703186,0.17955017,9.9526825,0
5772.480132492,-0.013572449,-0.99975747,0.017342033,0.99988186,-0.013445151,0.0074360147,-0.0072010458,0.017440908,0.9998219,0.0024329352,-0.99984396,0.017495489,0.9999734,0.0025526688,0.0068246084,-0.0068682036,0.017478421,0.99982363,-0.17237854,0.12689209,9.856918,0
5772.484527024,-0.013572748,-0.9997575,0.017341819,0.99988186,-0.013445181,0.007451576,-0.007216605,0.017440906,0.99982184,0.0021302428,-0.9998444,0.017514454,0.99997413,0.0022502812,0.0068368185,-0.0068751667,0.017499436,0.9998232,-0.1197052,0.14604187,9.895233,0
5772.488921555,-0.015220463,-0.9997345,0.017298408,0.9998582,-0.015092925,0.0074796784,-0.007216609,0.017409798,0.99982244,0.0018166483,-0.9998447,0.017532978,0.9999749,0.0019364512,0.006818439,-0.006851331,0.01752015,0.99982303,-0.05744934,0.10293579,9.880859,0
5772.493316086,-0.01533061,-0.99973416,0.01722185,0.9998567,-0.015204164,0.0074493247,-0.0071855006,0.01733358,0.999824,0.0014362587,-0.99984545,0.017523535,0.9999754,0.0015563518,0.006841536,-0.0068677515,0.017513277,0.99982303,-0.009567261,-0.01675415,9.852127,0
5772.497710617,-0.015309376,-0.9997343,0.017236607,0.9998566,-0.015181743,0.0075114127,-0.0072477343,0.017349128,0.9998232,0.0010830177,-0.9998457,0.017535167,0.9999756,0.0012036657,0.0068712486,-0.006891295,0.017527299,0.9998226,-0.22984314,0.17955017,9.804245,0
5772.502105149,-0.01535427,-0.9997341,0.0172054,0.999856,-0.015227133,0.007496162,-0.0072321794,0.01731802,0.99982387,7.802373E-4,-0.9998456,0.017553955,0.9999761,9.0068206E-4,0.006854544,-0.006869296,0.017548187,0.99982244,-0.0335083,0.11730957,9.900009,0
5772.50649968,-0.0153546175,-0.9997341,0.017205158,0.99985594,-0.0152272135,0.007511723,-0.0072477385,0.017318018,0.9998238,4.710215E-4,-0.9998465,0.017512139,0.9999764,5.9090526E-4,0.00684121,-0.006850508,0.017508505,0.9998232,-0.0909729,0.15560913,9.722839,0
5772.510894211,-0.015400521,-0.99973387,0.017173251,0.9998549,-0.015272837,0.007541595,-0.0072773043,0.017286904,0.9998241,1.4196699E-4,-0.99984723,0.017475557,0.99997675,2.6110397E-4,0.006815256,-0.0068187783,0.017474184,0.99982405,-0.1484375,0.11251831,9.9048,0
5772.515288742,-0.036107995,-0.9992031,0.017012227,0.99932116,-0.035977304,0.007926794,-0.007308422,0.0172869,0.99982387,-1.6873066E-4,-0.99984676,0.017504191,0.9999767,-4.9269594E-5,0.0068249186,-0.0068230103,0.017504936,0.99982345,-0.16279602,0.17477417,10.024521,0
5772.519683274,-0.03615015,-0.9992021,0.016981795,0.9993195,-0.036019422,0.007941996,-0.0073239845,0.017257342,0.9998242,-8.5679843E-4,-0.99984574,0.017543087,0.9999764,-7.370012E-4,0.00683407,-0.006820087,0.017548528,0.9998228,-0.13406372,0.08378601,9.866501,0
5772.524077805,-0.036149364,-0.9992022,0.016982364,0.9993198,-0.0360189,0.007926437,-0.007308426,0.017257346,0.9998244,-0.0015776749,-0.9998458,0.017488176,0.9999754,-0.0014578687,0.0068613263,-0.006834773,0.017498571,0.9998235,-0.02394104,0.17955017,10.06282,0
5772.528472336,0.04471397,-0.9988451,0.017582832,0.9989731,0.04483461,0.0065276427,-0.0073084235,0.0172729,0.9998241,-0.0022523694,-0.9998446,0.017482903,0.99997383,-0.0021317739,0.006913498,-0.006875154,0.017498016,0.9998232,-0.06703186,0.20350647,9.923965,0
5772.532866867,0.044739213,-0.9988436,0.017600395,0.9989714,0.04486128,0.006602719,-0.0073846607,0.01728689,0.99982333,-0.0013522786,-0.9998466,0.017463049,0.9999754,-0.0012317642,0.006910028,-0.0068874573,0.017471964,0.99982363,-0.24899292,0.18434143,9.74678,0
5772.537261399,0.04465125,-0.99884874,0.01753921,0.99897546,0.04477293,0.006606994,-0.0073846686,0.017226227,0.9998244,-3.7037785E-4,-0.99984765,0.01745098,0.9999764,-2.5070267E-4,0.0068594785,-0.0068540587,0.017453112,0.9998242,-0.08618164,0.02154541,9.890442,0
5772.54165593,-0.01573359,-0.99972993,0.017107679,0.9998488,-0.015603716,0.0076988135,-0.0074297898,0.017226221,0.9998241,4.8268313E-4,-0.9998477,0.017443828,0.9999765,6.018716E-4,0.006828096,-0.006837555,0.017440123,0.9998245,-0.07661438,0.08378601,9.852127,0
5772.546050461,-0.015777253,-0.9997297,0.01707779,0.99984795,-0.0156476,0.0076991008,-0.007429793,0.017196665,0.9998245,4.8268313E-4,-0.9998477,0.017443828,0.9999765,6.018716E-4,0.006828096,-0.006837555,0.017440123,0.9998245,-0.07661438,0.08378601,9.852127,0
5772.550444992,-0.015756572,-0.9997298,0.017091949,0.99984825,-0.015626812,0.007698965,-0.007429791,0.017210664,0.9998242,-1.3279593E-4,-0.9998467,0.017509732,0.99997693,-1.3869862E-5,0.0067919446,-0.0067906603,0.017510232,0.99982363,-0.08618164,0.19871521,9.914383,0
5772.554839524,-0.008214789,-0.99981946,0.017135533,0.9999387,-0.008086034,0.0075697186,-0.007429793,0.017196665,0.9998245,-4.4919117E-4,-0.9998472,0.017475411,0.99997693,-3.3067976E-4,0.0067839064,-0.006777091,0.017478056,0.9998243,-0.06703186,0.14125061,9.86171,0
5772.559234055,-0.008281495,-0.9998197,0.017088104,0.99993795,-0.008152555,0.007601599,-0.007460917,0.017149996,0.9998251,-6.139966E-4,-0.9998469,0.017488416,0.9999769,-4.9540173E-4,0.0067848605,-0.006775158,0.017492179,0.99982405,-0.14364624,0.05984497,9.852127,0
5772.563628586,-0.008237085,-0.9998196,0.017119681,0.9999385,-0.00810818,0.007585533,-0.007445354,0.017181108,0.9998247,-7.98317E-4,-0.99984634,0.017511182,0.9999766,-6.790748E-4,0.006814381,-0.0068014427,0.017516209,0.99982345,-0.0622406,0.24659729,9.742004,0
5772.568023117,0.036013342,-0.999199,0.017453523,0.9993238,0.0361367,0.006804532,-0.007429793,0.017196665,0.9998245,-9.595363E-4,-0.9998464,0.017499102,0.9999766,-8.4081705E-4,0.0067904023,-0.0067746458,0.017505208,0.9998238,-0.028717041,0.20350647,9.909592,0
5772.572417649,0.035994213,-0.99919987,0.017439526,0.9993241,0.03611828,0.006852069,-0.007476472,0.017181104,0.99982446,-1.8049464E-4,-0.99984664,0.017512692,0.999977,-6.166546E-5,0.0067856205,-0.0067835,0.017513514,0.99982363,-0.18673706,0.12210083,9.943115,0
5772.57681218,0.036015656,-0.9991987,0.017455216,0.9993231,0.036139827,0.0068511297,-0.00747647,0.017196659,0.99982417,5.2542833E-4,-0.9998471,0.017480358,0.9999767,6.443032E-4,0.006795545,-0.0068057687,0.017476382,0.9998241,-0.05744934,0.20828247,9.8138275,0
5772.581206711,0.07453379,-0.99706155,0.017689811,0.99719054,0.074652694,0.006158416,-0.0074609127,0.017181106,0.9998245,0.0012443046,-0.99984556,0.017527748,0.99997604,0.0013633816,0.0067833164,-0.006806166,0.01751889,0.99982333,-0.04788208,0.14125061,9.84256,0
5772.585601242,0.07448938,-0.99706537,0.017658513,0.9971939,0.0746081,0.0061615296,-0.007460917,0.017149996,0.9998251,0.0026767969,-0.99984366,0.017476866,0.9999731,0.0027955805,0.0067757256,-0.006823525,0.01745826,0.9998243,-0.0909729,0.07421875,9.627075,0
5772.589995774,0.07449105,-0.9970653,0.017659685,0.9971937,0.07461004,0.006177014,-0.007476476,0.017149992,0.999825,0.004101432,-0.9998389,0.017476056,0.9999683,0.004220025,0.006754603,-0.0068272636,0.017447796,0.99982446,-0.08618164,0.15560913,9.694122,0
5772.594390305,0.015766887,-0.99972713,0.017236901,0.99984765,0.015893273,0.0072200582,-0.0074920384,0.017120436,0.99982536,0.00548211,-0.99983144,0.017523626,0.99996203,0.0055998806,0.00667867,-0.0067756744,0.017486345,0.99982417,-0.11012268,0.11251831,9.871292,0
5772.598784836,0.015767222,-0.9997271,0.017237123,0.99984753,0.01589385,0.007234052,-0.007506042,0.017120434,0.9998253,0.0056354506,-0.99983066,0.017517688,0.99996114,0.0057531586,0.0066762613,-0.0067759133,0.017479382,0.9998243,-0.12449646,0.13645935,9.832977,0
5772.603179367,0.015742803,-0.99972785,0.01722093,0.9998482,0.015868811,0.0072051673,-0.007476481,0.017104883,0.9998257,0.00583844,-0.9998298,0.017498687,0.99996006,0.005955782,0.0066611553,-0.0067642406,0.017459098,0.9998247,-0.004776001,0.13166809,9.9526825,0
5772.607573899,-0.051412635,-0.99853796,0.016696077,0.9986492,-0.05127808,0.008390012,-0.0075216023,0.017104877,0.9998254,0.0060011763,-0.9998284,0.017527802,0.9999587,0.006119783,0.0067210123,-0.006827125,0.017486744,0.9998238,-0.18673706,0.19871521,9.962265,0
5772.61196843,-0.05139035,-0.9985388,0.0167118,0.99865025,-0.051255666,0.008390435,-0.0075216005,0.017120432,0.9998251,0.0047912435,-0.999835,0.017521212,0.99996525,0.0049100122,0.0067418553,-0.0068267724,0.0174883,0.99982375,-0.07182312,0.19392395,9.895233,0
5772.616362961,-0.051412635,-0.99853796,0.016696077,0.9986492,-0.05127808,0.008390012,-0.0075216023,0.017104877,0.9998254,0.0036585706,-0.9998397,0.017525729,0.99997044,0.0037765154,0.00670145,-0.0067665624,0.017500693,0.999824,-0.09576416,0.12210083,9.933533,0
5772.620757492,-0.023307843,-0.99958533,0.016909508,0.99969995,-0.02317633,0.007932353,-0.0075371633,0.01708932,0.9998256,0.0025340696,-0.99984384,0.017488735,0.99997354,0.0026529084,0.006775322,-0.00682066,0.017471103,0.9998241,-0.0909729,0.12210083,9.694122,0
5772.625152024,-0.023307843,-0.99958533,0.016909508,0.99969995,-0.02317633,0.007932353,-0.0075371633,0.01708932,0.9998256,0.0019896263,-0.9998457,0.017455947,0.99997413,0.0021098766,0.006873072,-0.0069088414,0.017441822,0.999824,-0.10055542,0.16040039,9.856918,0
5772.629546555,-0.023306733,-0.9995853,0.01691024,0.9997001,-0.023175744,0.007901229,-0.007506046,0.017089324,0.99982584,0.0014840604,-0.9998466,0.017450336,0.9999751,0.0016041495,0.006869778,-0.006896717,0.017439708,0.9998241,0.01914978,0.19392395,9.84256,0
5772.633941086,-0.029577607,-0.9994203,0.016859423,0.99953413,-0.029445378,0.008038255,-0.0075371633,0.01708932,0.9998256,0.001000606,-0.99984616,0.017510016,0.9999753,0.0011220203,0.006925543,-0.006944124,0.017502656,0.9998227,-0.13885498,0.16519165,9.938324,0
5772.638335617,-0.02964485,-0.9994191,0.01681379,0.9995321,-0.029512974,0.0080380635,-0.007537169,0.017044209,0.9998263,4.59128E-4,-0.999847,0.017484404,0.99997574,5.8053597E-4,0.0069393427,-0.0069484315,0.017480796,0.99982303,-0.10055542,0.05027771,9.923965,0
5772.642730149,-0.029601483,-0.9994199,0.016843222,0.99953336,-0.02946911,0.008053752,-0.0075527243,0.017073762,0.9998257,-1.2778204E-4,-0.9998479,0.017442005,0.999976,-6.956792E-6,0.0069271415,-0.006925966,0.017442472,0.99982387,-0.1197052,0.2609558,10.01973,0
5772.64712468,0.045037873,-0.9988335,0.01741258,0.9989566,0.045161523,0.0067742453,-0.007552722,0.017089317,0.9998254,-7.3509174E-4,-0.9998468,0.017487468,0.9999756,-6.1340077E-4,0.0069630947,-0.0069513014,0.01749216,0.99982285,-0.0622406,0.17477417,9.900009,0
5772.651519211,0.04499073,-0.9988362,0.017379783,0.9989591,0.045113638,0.0067453934,-0.0075216084,0.017058212,0.99982625,1.9035672E-4,-0.999848,0.017431675,0.9999757,3.1187962E-4,0.00696893,-0.006973307,0.017429926,0.99982375,0.009567261,0.10772705,9.866501,0
5772.655913742,0.0450143,-0.99883485,0.01739618,0.9989579,0.045137577,0.00675982,-0.0075371657,0.017073765,0.99982584,0.0010431648,-0.9998483,0.017386766,0.9999752,0.0011640972,0.006946765,-0.0069659506,0.017379086,0.9998247,-0.1197052,0.21786499,9.962265,0
5772.660308274,0.030630754,-0.9993809,0.017313106,0.9995023,0.030756168,0.007024587,-0.007552722,0.017089317,0.9998254,0.0019095876,-0.9998478,0.017338704,0.9999737,0.0020303803,0.0069517163,-0.0069858627,0.017324975,0.9998255,-0.13406372,0.18913269,9.751572,0
5772.664702805,0.030629348,-0.9993809,0.017312143,0.9995026,0.030754225,0.006993513,-0.0075216047,0.017089322,0.9998257,0.0025041066,-0.9998467,0.017328098,0.99997246,0.0026246677,0.0069383085,-0.0069827256,0.017310249,0.9998258,0.02394104,0.16519165,9.928741,0
5772.669097336,0.030652288,-0.9993799,0.01732785,0.9995018,0.03077727,0.0069926344,-0.0075216023,0.017104877,0.9998254,0.003066907,-0.9998439,0.017402014,0.9999709,0.003187841,0.00692594,-0.006980334,0.017380266,0.9998246,-0.0622406,0.23701477,9.9479065,0
5772.673491867,7.101136E-4,-0.9998531,0.01712622,0.99997187,8.380336E-4,0.007463224,-0.00747648,0.01712044,0.9998256,0.0036000288,-0.9998426,0.017375566,0.99996954,0.0037196712,0.0068582688,-0.006921821,0.017350346,0.99982554,0.009567261,0.17955017,9.84256,0
5772.677886399,7.548668E-4,-0.9998526,0.0171561,0.9999719,8.82735E-4,0.007446871,-0.007460917,0.017149996,0.9998251,0.0034768155,-0.99984366,0.017335556,0.99997,0.003596073,0.006852947,-0.006914216,0.01731121,0.99982625,-0.01914978,0.2609558,9.981415,0
5772.68228093,7.100634E-4,-0.9998531,0.017126186,0.9999721,8.371839E-4,0.0074165547,-0.007429803,0.017120445,0.99982584,0.0034048134,-0.9998433,0.017371366,0.99997026,0.003524437,0.006860307,-0.006920456,0.01734749,0.99982554,0.02394104,0.10293579,9.770737,0
5772.686675461,0.023386374,-0.9995765,0.017320609,0.99969864,0.023511779,0.007072234,-0.007476476,0.017149992,0.999825,0.0033210944,-0.9998437,0.017366536,0.9999704,0.0034411233,0.006886191,-0.0069448752,0.017343152,0.9998255,-0.21546936,0.25138855,9.914383,0
5772.691069992,0.023433927,-0.9995748,0.01735274,0.9996972,0.02356006,0.0071002217,-0.007506034,0.0171811,0.9998242,0.0037004484,-0.99984246,0.017361103,0.999969,0.0038206265,0.00689421,-0.0069594537,0.017335052,0.99982554,-0.15800476,0.23222351,9.962265,0
5772.695464524,0.02341121,-0.99957556,0.017337391,0.9996976,0.023537505,0.007116536,-0.007521595,0.017165544,0.9998244,0.004116851,-0.9998409,0.017352063,0.99996716,0.004237317,0.0069114435,-0.0069838706,0.017323041,0.99982554,-0.09576416,0.13645935,9.871292,0
5772.699859055,5.4828683E-4,-0.9998522,0.017185714,0.99997145,6.7772163E-4,0.0075266166,-0.007537151,0.017181095,0.999824,0.0044690175,-0.99983865,0.01739571,0.99996585,0.0045890445,0.0068659913,-0.006944713,0.017364433,0.99982506,-0.12449646,0.21307373,9.938324,0
5772.704253586,5.48274E-4,-0.9998522,0.017185705,0.99997157,6.774414E-4,0.0075110607,-0.0075215925,0.017181097,0.9998241,0.0044215573,-0.99983877,0.017404567,0.99996614,0.004541487,0.006857209,-0.006935146,0.01737366,0.999825,-0.028717041,0.16040039,9.718063,0
5772.708648117,5.015965E-4,-0.9998528,0.017154235,0.99997175,6.3026894E-4,0.0074963304,-0.0075060376,0.017149989,0.99982476,0.004348595,-0.9998398,0.017360957,0.99996626,0.0044687837,0.006890163,-0.006966642,0.01733041,0.99982554,-0.05744934,0.06942749,9.986206,0
5772.713042649,4.5726344E-4,-0.9998532,0.017124346,0.9999717,5.857196E-4,0.0074971113,-0.007506042,0.017120434,0.9998253,0.0042637596,-0.99984056,0.01733921,0.999967,0.0043830876,0.0068498207,-0.0069247275,0.01730943,0.9998262,-0.05265808,0.10772705,10.010147,0
5772.71743718,4.782853E-4,-0.9998531,0.01713852,0.9999715,6.073772E-4,0.0075278548,-0.0075371573,0.01713443,0.99982476,0.0042354157,-0.9998405,0.017352547,0.99996686,0.0043554353,0.006884593,-0.0069590732,0.017322812,0.9998258,-0.1484375,0.19871521,9.919174,0
5772.721831711,4.572848E-4,-0.99985325,0.01712436,0.9999715,5.8627385E-4,0.007528225,-0.0075371596,0.01712043,0.99982506,0.0041100904,-0.9998421,0.017289443,0.999967,0.0042306473,0.0069420366,-0.007014086,0.01726034,0.99982643,-0.07661438,0.14604187,9.832977,0
5772.726226242,-0.015360096,-0.99973714,0.017017374,0.9998536,-0.015229407,0.0077828076,-0.007521598,0.01713443,0.9998248,0.004015044,-0.99984217,0.017303675,0.9999672,0.0041358895,0.0069537,-0.0070241685,0.017275192,0.9998261,-0.05265808,0.18913269,9.876068,0
5772.730620774,-0.015314585,-0.9997374,0.01704791,0.99985397,-0.0151826255,0.007843166,-0.007582274,0.017165534,0.99982387,0.003671954,-0.99984246,0.017363736,0.99996877,0.003792855,0.0069350544,-0.00699982,0.017337728,0.9998252,-0.1197052,0.18913269,9.943115,0
5772.735015305,-0.015290447,-0.99973744,0.017064104,0.99985456,-0.015158873,0.007813434,-0.0075527104,0.017181093,0.99982387,0.0031486773,-0.99984366,0.017397223,0.99997014,0.003270917,0.0070024226,-0.0070582326,0.017374655,0.9998241,-0.01914978,0.20350647,9.9048,0
5772.739409836,0.02367423,-0.99956936,0.017339263,0.9996915,0.02380049,0.0071119745,-0.007521595,0.017165544,0.9998244,0.002731299,-0.9998441,0.017447809,0.99997115,0.0028545815,0.007044789,-0.007093496,0.017428063,0.999823,0.028717041,0.10293579,9.823395,0
5772.743804367,0.023650173,-0.9995703,0.017323174,0.9996922,0.023776056,0.007097212,-0.0075060376,0.017149989,0.99982476,0.003110982,-0.9998421,0.017494718,0.9999701,0.00323432,0.007026142,-0.007081616,0.017472336,0.99982226,-0.05265808,0.14125061,9.809036,0
5772.748198899,0.023674786,-0.9995694,0.017339636,0.99969137,0.023801316,0.007127518,-0.0075371535,0.01716554,0.9998242,0.0035435716,-0.99984056,0.017499978,0.9999686,0.0036671,0.0070317606,-0.007094814,0.01747451,0.99982214,-0.15322876,0.16998291,9.856918,0
5772.75259343,0.023675898,-0.99956924,0.017340379,0.99969107,0.02380297,0.007158602,-0.007568272,0.017165538,0.9998241,0.0035435716,-0.99984056,0.017499978,0.9999686,0.0036671,0.0070317606,-0.007094814,0.01747451,0.99982214,-0.15322876,0.16998291,9.856918,0
5772.756987961,0.015017407,-0.9997387,0.017232392,0.9998586,0.015144927,0.0072936397,-0.007552718,0.017120427,0.9998248,0.0044239857,-0.99983776,0.017463574,0.9999655,0.0045460113,0.006953903,-0.007032164,0.017432207,0.99982333,-0.06703186,0.04548645,9.943115,0
5772.761382492,0.014995658,-0.99973935,0.017217359,0.99985874,0.015123845,0.0073393616,-0.007597841,0.017104868,0.9998248,0.004600567,-0.9998367,0.01747644,0.99996454,0.004723126,0.0069780555,-0.007059459,0.017443715,0.9998229,-0.15800476,0.10293579,9.9526825,0
5772.765777024,0.0071118847,-0.9998277,0.0171434,0.9999458,0.007240894,0.0074749966,-0.007597843,0.017089313,0.9998251,0.0047583026,-0.99983555,0.017500982,0.9999633,0.004882124,0.0070391917,-0.007123476,0.017466845,0.9998221,-0.10055542,0.16519165,9.876068,0
5772.770171555,0.007112203,-0.99982774,0.017143626,0.9999456,0.007241745,0.0075061037,-0.0076289605,0.017089307,0.9998248,0.0047870036,-0.9998347,0.017542183,0.9999628,0.004912037,0.0070914314,-0.007176427,0.017507583,0.999821,-0.13406372,0.14604187,9.809036,0
5772.774566086,0.0070903134,-0.9998281,0.017128225,0.99994534,0.0072205146,0.007551706,-0.0076740836,0.017073747,0.99982476,0.004842686,-0.9998345,0.017538479,0.99996257,0.0049674604,0.0070777317,-0.007163682,0.017503547,0.9998211,-0.19631958,0.15083313,9.866501,0
5772.778960617,0.0680795,-0.9975259,0.017528592,0.99765015,0.068202384,0.006510261,-0.007689646,0.017044188,0.9998251,0.004843577,-0.99983495,0.017510565,0.9999626,0.004968059,0.0070724725,-0.0071582985,0.017475655,0.99982166,-0.14364624,0.07421875,9.852127,0
5772.783355149,0.0680795,-0.9975259,0.017528592,0.99765015,0.068202384,0.006510261,-0.007689646,0.017044188,0.9998251,0.0061005848,-0.99982804,0.017510941,0.9999557,0.006225029,0.0070609804,-0.007168772,0.017467089,0.9998217,-0.06703186,0.17955017,9.689331,0
5772.78774968,0.06814755,-0.99752045,0.017576164,0.9976454,0.06827127,0.0065370207,-0.007720758,0.017089296,0.99982417,0.0073896567,-0.99981904,0.01752864,0.9999471,0.007513811,0.0070276475,-0.0071580824,0.01747578,0.99982166,-0.16279602,0.2609558,9.809036,0
5772.792144211,0.06258232,-0.9978867,0.017476935,0.9980101,0.06270579,0.0066077067,-0.0076896483,0.017028634,0.9998254,0.008625066,-0.9998088,0.01754944,0.99993694,0.008749779,0.007042094,-0.007194301,0.017487593,0.9998212,0.004776001,0.026321411,9.938324,0
5772.796538742,0.06256025,-0.9978884,0.017462237,0.9980114,0.062683895,0.0066245967,-0.0077052093,0.017013077,0.9998256,0.009735623,-0.9997986,0.01754791,0.9999267,0.009860235,0.007028742,-0.007200353,0.017478192,0.9998213,-0.12449646,0.10772705,9.880859,0
5772.800933274,0.062586606,-0.9978864,0.017479789,0.99800956,0.06271087,0.0066526574,-0.0077347695,0.01702863,0.9998251,0.010773359,-0.9997876,0.017565604,0.9999161,0.010897736,0.0070004114,-0.0071903504,0.017488714,0.9998212,-0.15322876,0.21786499,9.895233,0
5772.805327805,-0.024981223,-0.99954355,0.016987955,0.9996595,-0.024848785,0.007962916,-0.007537151,0.017181095,0.999824,0.011784379,-0.99977607,0.017576685,0.99990475,0.011908529,0.0069754706,-0.0071832207,0.017492808,0.9998212,-0.09576416,0.12210083,10.00058,0
5772.809722336,-0.024594098,-0.9995487,0.017246818,0.9996725,-0.024467917,0.007489502,-0.007064129,0.017425371,0.9998232,0.011004252,-0.9997824,0.017720802,0.999915,0.011126181,0.006796736,-0.006992422,0.017644502,0.9998199,-0.16758728,0.16998291,9.66539,0
5772.814116867,-0.02395051,-0.9995569,0.01767716,0.99969244,-0.023832386,0.006862938,-0.0064386073,0.017836094,0.9998202,0.010178373,-0.9997867,0.0179722,0.9999273,0.0102928,0.0062859035,-0.006469547,0.01790691,0.99981874,-0.22505188,0.15560913,9.775513,0
5772.818511399,0.053017836,-0.99842024,0.018603481,0.998577,0.053114783,0.004756312,-0.0057369187,0.01832484,0.9998156,0.00937154,-0.99978775,0.018345697,0.9999391,0.009476798,0.005659015,-0.0058316723,0.018291546,0.9998157,0.0,0.16998291,9.923965,0
5772.82290593,0.053530045,-0.99838597,0.018971764,0.9985528,0.05361807,0.004161561,-0.005172074,0.018721538,0.99981135,0.00937154,-0.99978775,0.018345697,0.9999391,0.009476798,0.005659015,-0.0058316723,0.018291546,0.9998157,0.0,0.16998291,9.923965,0
5772.827300461,0.053921316,-0.99835944,0.019253094,0.99853265,0.054006647,0.003939553,-0.0049728863,0.019012421,0.9998069,0.010402738,-0.99976104,0.019227475,0.99993545,0.010488609,0.004370634,-0.004571259,0.019180767,0.9998056,0.07182312,0.14604187,9.9048,0
5772.831694992,-0.020102449,-0.9996175,0.018996593,0.999785,-0.020001717,0.0054778564,-0.005095796,0.019102624,0.99980456,0.010693739,-0.99975234,0.019515539,0.99993294,0.010778277,0.004231756,-0.0044410517,0.019468976,0.99980056,0.0622406,0.21786499,9.727631,0
5772.836089524,-0.020353397,-0.9996157,0.018821692,0.9997781,-0.020246945,0.005829219,-0.005445896,0.01893616,0.99980587,0.009167804,-0.99976623,0.019581476,0.99994725,0.009256684,0.0044531403,-0.0046333587,0.019539619,0.99979836,-0.07661438,0.24180603,9.919174,0
5772.840484055,-0.020846799,-0.99961203,0.018477818,0.9997666,-0.020737713,0.006075758,-0.005690212,0.018600162,0.9998108,0.007524497,-0.9997835,0.019398998,0.9999593,0.007619504,0.004828253,-0.004975018,0.01936188,0.99980015,-0.12449646,0.12210083,9.794678,0
5772.844878586,-0.01937704,-0.9996481,0.018119147,0.99979603,-0.01927012,0.00605702,-0.0057057296,0.018232817,0.9998175,0.0056786253,-0.9998018,0.019080548,0.99997044,0.005776592,0.0050831973,-0.00519241,0.019051118,0.99980503,-0.15800476,0.19392395,9.627075,0
5772.849273117,-0.019685945,-0.9996461,0.017892245,0.999791,-0.019583622,0.0058761844,-0.00552371,0.018004183,0.9998227,0.0035716936,-0.99981934,0.018667802,0.99998015,0.0036678568,0.0051195966,-0.0051871426,0.018649146,0.9998126,-0.20588684,0.20350647,9.775513,0
5772.853667649,-0.019754672,-0.99964565,0.017841762,0.99979246,-0.019662244,0.005341176,-0.0049884743,0.01794357,0.9998266,0.0015299026,-0.9998292,0.018420098,0.99998647,0.0016210462,0.00493414,-0.004963157,0.018412301,0.99981815,-0.08139038,0.10772705,9.880859,0
5772.85806218,0.05485781,-0.9983245,0.018401628,0.9984845,0.054929066,0.0033889762,-0.004394083,0.01818783,0.999825,-4.816422E-4,-0.9998311,0.018374018,0.9999902,-4.0075765E-4,0.0044055423,-0.0043974346,0.01837596,0.9998215,-0.16758728,0.002380371,9.847351,0
5772.862456711,0.055426758,-0.9982859,0.018790895,0.998456,0.05548587,0.002638652,-0.0036767584,0.018615631,0.99982,-5.280944E-4,-0.9998257,0.01865966,0.9999926,-4.5713168E-4,0.003807063,-0.0037978697,0.018661533,0.9998186,-0.04788208,0.11251831,10.077194,0
5772.866851242,0.05606711,-0.9982418,0.019229019,0.9984224,0.056115013,0.00196013,-0.0030357204,0.019088784,0.9998132,-1.2272954E-4,-0.9998178,0.019087497,0.9999951,-6.2974745E-5,0.0031311421,-0.0031293696,0.019087788,0.9998129,-0.01914978,0.23701477,9.880859,0
5772.871245774,0.026193865,-0.9994668,0.019492477,0.99965423,0.026233735,0.001792437,-0.002302842,0.019438788,0.99980843,7.28778E-4,-0.9998081,0.019578004,0.9999967,7.769327E-4,0.0024521367,-0.0024668768,0.019576153,0.99980533,-0.05265808,0.20350647,9.828186,0
5772.875640305,0.026412757,-0.99945813,0.019642672,0.9996498,0.026439402,0.0010979086,-0.0016166541,0.019606793,0.99980646,0.0013172936,-0.99980134,0.019890793,0.99999756,0.0013524754,0.00175539,-0.001781943,0.019888433,0.9998006,-0.0622406,0.23701477,9.976624,0
5772.880034836,0.026360134,-0.9994602,0.019606562,0.9996522,0.02637151,3.2178866E-4,-8.386696E-4,0.01959126,0.9998078,0.0018544681,-0.99979746,0.020038007,0.9999977,0.0018764095,0.0010762414,-0.0011136229,0.020035964,0.99979866,0.0622406,0.3184204,9.943115,0
5772.884429367,0.032080926,-0.999298,0.019345896,0.99948514,0.03208022,-3.4701146E-4,-2.738527E-4,0.01934707,0.9998128,0.0022516341,-0.99979824,0.019959005,0.9999974,0.0022579245,2.9263555E-4,-3.3764247E-4,0.019958295,0.99980074,-0.15322876,0.26574707,9.765945,0
5772.888823899,0.03169322,-0.99931574,0.019066934,0.99949753,0.031680174,-9.859303E-4,3.8121192E-4,0.019088604,0.9998177,0.0025489104,-0.9998029,0.01969156,0.9999968,0.0025436247,-2.934671E-4,2.4332131E-4,0.019692242,0.9998061,0.0909729,0.24659729,9.823395,0
5772.89321843,0.031284817,-0.9993343,0.018773085,0.99951005,0.031260654,-0.0015790662,9.911557E-4,0.018813288,0.9998225,0.0027899407,-0.9998082,0.019386886,0.9999957,0.002772001,-9.521517E-4,8.9822855E-4,0.019389458,0.9998116,-0.06703186,0.15560913,9.971848,0
5772.897612961,0.01778256,-0.999666,0.018751554,0.9998407,0.017750226,-0.0018894497,0.0015559744,0.018782167,0.99982244,0.0029948351,-0.99981236,0.019136595,0.9999944,0.0029656934,-0.0015510222,0.001493978,0.019141134,0.99981564,0.0622406,0.09815979,9.871292,0
5772.902007492,0.017857736,-0.9996638,0.018803008,0.99983835,0.017814092,-0.0024861463,0.0021503516,0.018844362,0.9998202,0.0028883142,-0.9998128,0.019131841,0.99999386,0.0028497246,-0.00204399,0.0019890869,0.019137627,0.99981487,-0.06703186,0.13645935,9.923965,0
5772.906402024,0.017886452,-0.9996629,0.018822663,0.99983644,0.01783239,-0.003036281,0.0026996043,0.01887389,0.99981827,0.0028309424,-0.99981153,0.019207135,0.9999925,0.0027795194,-0.0027034527,0.0026495566,0.019214643,0.9998119,-0.14364624,0.08857727,9.775513,0
5772.910796555,-0.020038128,-0.99961716,0.01907608,0.9997936,-0.02009842,-0.0029739933,0.0033562542,0.01901255,0.9998137,0.002858589,-0.9998104,0.019259049,0.99999064,0.002795845,-0.00328403,0.0032295622,0.019268258,0.9998091,-0.0909729,0.23701477,9.9048,0
5772.915191086,-0.019971743,-0.99961776,0.019120065,0.9997923,-0.020046141,-0.0037072424,0.0040891087,0.019042052,0.9998104,0.0020995631,-0.9998098,0.01939172,0.9999899,0.0020223174,-0.004002188,0.0039622104,0.019399926,0.99980396,-0.10533142,0.13645935,9.799454,0
5772.919585617,-0.019946638,-0.9996179,0.019136697,0.99978894,-0.020037083,-0.004546055,0.004927762,0.01904198,0.9998066,0.0014007968,-0.9998101,0.019437758,0.999988,0.0013092223,-0.004723086,0.0046967403,0.019444142,0.9997999,-0.02394104,0.32321167,9.804245,0
5772.923980149,-0.020031532,-0.99961734,0.019080454,0.9997819,-0.020140247,-0.005522718,0.0059048887,0.018965662,0.99980265,8.142263E-4,-0.9998119,0.019378526,0.99998456,7.074496E-4,-0.0055162674,0.0055015204,0.019382717,0.999797,-0.10055542,0.16040039,9.641449,0
5772.92837468,-0.020156238,-0.9996164,0.018997828,0.99977237,-0.02028521,-0.006620639,0.0070034736,0.018860055,0.99979764,1.5238528E-4,-0.9998137,0.019303326,0.99997824,2.4985582E-5,-0.006599953,0.0065982407,0.01930391,0.9997919,0.04788208,0.17477417,9.943115,0
5772.932769211,-0.020171016,-0.9996163,0.01898804,0.99976414,-0.02031974,-0.0076723704,0.008055258,0.018828796,0.99979025,-4.9252954E-4,-0.9998153,0.019214356,0.99997085,-6.388875E-4,-0.007611723,0.0076225926,0.019210046,0.9997864,0.05265808,0.21786499,9.919174,0
5772.937163742,-0.034979828,-0.99920565,0.01908903,0.9993467,-0.035145495,-0.008413388,0.0090776,0.018782262,0.9997823,-0.0010774299,-0.9998157,0.01916699,0.9999623,-0.0012423338,-0.008593717,0.008615945,0.019157007,0.99977934,0.20588684,0.23222351,9.823395,0
5772.941558274,-0.035052262,-0.99920416,0.019040244,0.99933696,-0.035231814,-0.009178013,0.00984153,0.018705908,0.9997765,-0.0020266061,-0.9998153,0.019113144,0.9999514,-0.0022104944,-0.009604826,0.009645301,0.01909275,0.9997712,0.13885498,0.21307373,9.727631,0
5772.945952805,-0.035232496,-0.99920005,0.018918848,0.9993222,-0.035426192,-0.0100025255,0.010664746,0.018553609,0.99977094,-0.0030331353,-0.9998142,0.019034961,0.9999419,-0.0032293114,-0.010283821,0.010343381,0.019002665,0.99976593,0.10055542,0.24659729,9.962265,0
5772.950347336,-0.061955065,-0.9979004,0.018877294,0.99801064,-0.062160946,-0.0105216345,0.011672974,0.01818787,0.9997664,-0.004178011,-0.9998134,0.018858774,0.99992836,-0.004388539,-0.011135863,0.011216547,0.0188109,0.9997601,0.03829956,0.20828247,9.742004,0
5772.954741867,-0.06268422,-0.99786466,0.018354595,0.99794656,-0.06291082,-0.012039181,0.013168175,0.017562235,0.999759,-0.0058375713,-0.9998115,0.018518742,0.9999088,-0.0060617207,-0.012070993,0.012180972,0.018446587,0.9997556,-0.04309082,0.28012085,9.919174,0
5772.959136399,-0.06388906,-0.9978038,0.017490786,0.9978386,-0.06414179,-0.014290284,0.015380788,0.016539987,0.99974495,-0.0074611083,-0.99981165,0.017916927,0.9998788,-0.0077039567,-0.013523559,0.013659043,0.017813858,0.999748,-0.24420166,0.31362915,9.957474,0
5772.96353093,-0.06560514,-0.9977132,0.016260196,0.997678,-0.06588417,-0.017263375,0.018295186,0.015089871,0.9997187,-0.0074611083,-0.99981165,0.017916927,0.9998788,-0.0077039567,-0.013523559,0.013659043,0.017813858,0.999748,-0.24420166,0.31362915,9.957474,0
5772.967925461,-0.056379717,-0.99830425,0.014493307,0.9981683,-0.056679167,-0.021155227,0.02194082,0.013274033,0.9996711,-0.0103213135,-0.9998278,0.015421176,0.99976563,-0.010611699,-0.01886864,0.019029036,0.015222815,0.999703,-0.14364624,0.3663025,10.37886,0
5772.972319992,-0.058999095,-0.9981775,0.012679924,0.99790907,-0.059309594,-0.025691777,0.026396995,0.011137618,0.99958956,-0.011270393,-0.99984306,0.013671481,0.9996804,-0.011575873,-0.022474898,0.02262963,0.01341381,0.99965394,-0.22984314,0.23701477,10.800232,0
5772.976714524,-0.06295951,-0.9979599,0.010591108,0.99753433,-0.063255265,-0.030397784,0.03100571,0.008651164,0.99948174,-0.012058724,-0.9998617,0.011454194,0.99955267,-0.012366927,-0.02722895,0.027366837,0.0111207245,0.9995636,-0.85232544,-0.15083313,10.661377,0
5772.981109055,-0.06611576,-0.99777627,0.008437195,0.99714977,-0.06637753,-0.03586576,0.036346048,0.0060418556,0.99932104,-0.012757281,-0.9998758,0.009257248,0.9994016,-0.013047812,-0.03203362,0.03215043,0.008843047,0.9994439,-1.1156921,-0.41418457,11.398788,0
5772.985503586,-0.06964433,-0.99755365,0.006028284,0.99668187,-0.06983613,-0.041810878,0.042129587,0.003096391,0.99910736,-0.0131702665,-0.99989176,0.006563858,0.99919754,-0.013408891,-0.03774318,0.03782711,0.0060615027,0.9992659,-1.2641296,-0.4860077,11.1258545,0
5772.989898117,0.011392999,-0.9999347,-8.104676E-4,0.9987637,0.011418869,-0.048378352,0.048384454,-2.5829108E-4,0.9988287,-0.013427825,-0.9999025,0.0038389512,0.99897134,-0.013581427,-0.04326451,0.043312423,0.0032540539,0.9990563,-0.61769104,-0.20828247,11.805801,0
5772.994292649,0.006673302,-0.99996877,-0.004232653,0.9984728,0.0068953317,-0.05481328,0.054840755,-0.0038604033,0.99848765,-0.011880717,-0.9999292,6.421222E-4,0.9987166,-0.011897923,-0.049229786,0.049233943,5.6412882E-5,0.9987873,-0.27293396,-0.12210083,11.748337,0
5772.99868718,0.0025897708,-0.99997085,-0.0071933153,0.9980741,0.003030574,-0.06196066,0.061980646,-0.007018996,0.9980527,-0.010237749,-0.9999424,-0.003216844,0.9983719,-0.01004104,-0.0561479,0.056112368,-0.0037864351,0.99841726,0.20588684,0.06942749,13.409912,0
5773.003081711,-0.11975755,-0.9928014,-0.0018290915,0.99030364,-0.1193252,-0.07113403,0.07040372,-0.010330194,0.9974651,-0.008931177,-0.9999407,-0.006235541,0.9979809,-0.0085211815,-0.0629404,0.062883526,-0.0067850826,0.9979978,0.22505188,-0.03111267,11.40358,0
5773.007476242,-0.12285776,-0.9924166,-0.0038978558,0.989171,-0.12213632,-0.081384294,0.080291055,-0.013854338,0.9966752,-0.01006654,-0.9999029,-0.009637148,0.9973639,-0.0093474435,-0.07195775,0.07186068,-0.010336109,0.9973611,0.8379669,-0.09336853,11.417938,0
5773.011870774,-0.12611783,-0.9919967,-0.0060744695,0.98777455,-0.12501073,-0.09313367,0.09162892,-0.017746022,0.9956351,-0.011556847,-0.99985147,-0.012785968,0.9966281,-0.010478917,-0.08137964,0.08123357,-0.013683347,0.9966011,1.5562286,0.11251831,11.944672,0
5773.016265305,-0.025186423,-0.99949515,-0.019363519,0.99420667,-0.023019152,-0.104990184,0.10449146,-0.021895671,0.9942847,-0.013488427,-0.99977744,-0.016218333,0.99566716,-0.011937003,-0.09221895,0.09200483,-0.01739195,0.99560666,2.3032074,0.46206665,12.006912,0
5773.020659836,-0.03045115,-0.9992791,-0.0226747,0.9924742,-0.027536321,-0.11931848,0.11860807,-0.026137436,0.9925971,-0.013892554,-0.9996939,-0.020474961,0.9942959,-0.011646136,-0.106019154,0.10574824,-0.021831047,0.99415326,2.6431885,0.7206421,11.537643,0
5773.025054367,-0.035456564,-0.99903756,-0.025822664,0.9903834,-0.031668365,-0.13467659,0.1337292,-0.030349504,0.990553,-0.015163515,-0.99959165,-0.024219682,0.99276024,-0.012164559,-0.11949549,0.11915207,-0.025856309,0.9925393,3.193863,0.9361267,11.039658,0
5773.029448899,-0.03791224,-0.9988637,-0.028877426,0.9881119,-0.033164237,-0.15011671,0.14898844,-0.034225393,0.9882465,-0.017419446,-0.999462,-0.02779075,0.9908922,-0.013544817,-0.13397494,0.13352643,-0.029871404,0.9905949,4.0892944,1.0031586,9.967056,0
5773.03384343,-0.04127354,-0.99867564,-0.03071404,0.98538965,-0.035602182,-0.16655204,0.165238,-0.037139494,0.98555416,-0.02086952,-0.9992938,-0.031245368,0.9884904,-0.015939977,-0.15044144,0.14983715,-0.034025386,0.988125,4.6591034,0.93133545,9.076416,0
5773.038237961,-0.043937102,-0.9985163,-0.032169327,0.98249006,-0.037351202,-0.18253352,0.1810611,-0.039626032,0.9826733,-0.024933094,-0.9991234,-0.033626057,0.9861138,-0.019056143,-0.16497408,0.16418868,-0.037272435,0.9857245,5.0038757,0.7158661,8.0229645,0
5773.042632492,-0.07589941,-0.99673986,-0.027362196,0.9779516,-0.06905848,-0.19708227,0.1945502,-0.04171734,0.980005,-0.030410336,-0.998909,-0.035440855,0.98324674,-0.023520393,-0.18075556,0.17972478,-0.040343948,0.9828893,4.539398,0.63446045,7.266388,0
5773.047027024,-0.07656256,-0.9966788,-0.027740512,0.97534025,-0.06908919,-0.20961437,0.20700163,-0.043105047,0.9773906,-0.036619347,-0.99868405,-0.03590444,0.9805946,-0.0289853,-0.19389181,0.19259596,-0.042307895,0.9803657,3.830719,0.66319275,7.0461273,0
5773.051421555,-0.07656972,-0.9966782,-0.027744599,0.9729053,-0.06859714,-0.22079322,0.21815656,-0.04389894,0.9749259,-0.043220937,-0.9984351,-0.03548794,0.97791475,-0.03500885,-0.20605114,0.20448628,-0.0436099,0.9778975,2.6192474,0.5434723,7.1802063,0
5773.055816086,-0.031200485,-0.9987846,-0.03815566,0.97315794,-0.021647174,-0.22911766,0.22801323,-0.044280063,0.9726505,-0.050512798,-0.99813575,-0.03425678,0.9749859,-0.04184932,-0.21829154,0.21645096,-0.04442639,0.97528213,1.5179138,0.6584015,7.7117157,0
5773.060210617,-0.030820502,-0.99880344,-0.03797122,0.9712363,-0.0209525,-0.23719437,0.23611496,-0.04418948,0.9707199,-0.055826053,-0.99789673,-0.032947756,0.9725586,-0.04688442,-0.22788498,0.22586095,-0.044765543,0.9731304,0.4453125,0.19392395,8.832199,0
5773.064605149,-0.030393105,-0.9988244,-0.037763767,0.96949685,-0.020265488,-0.24426472,0.24321224,-0.04403581,0.968973,-0.060412727,-0.99767584,-0.031514388,0.9703092,-0.051289245,-0.23636746,0.23420176,-0.044858303,0.97115254,-0.39743042,0.28012085,9.622284,0
5773.06899968,-0.07863343,-0.99658644,-0.025148226,0.96511817,-0.06978276,-0.25234374,0.24972741,-0.044113662,0.9673108,-0.065012224,-0.9974342,-0.029971946,0.967875,-0.05571813,-0.24518044,0.24288139,-0.044948827,0.96901405,-0.51234436,-0.11251831,10.297455,0
5773.073394211,-0.07853888,-0.9965949,-0.025104932,0.96339285,-0.069399044,-0.25895554,0.2563315,-0.044523988,0.96556294,-0.069650784,-0.99716413,-0.028505465,0.9656938,-0.060231604,-0.252602,0.25016874,-0.04512148,0.9671503,0.31602478,-0.60572815,10.5368805,0
5773.077788742,-0.07808123,-0.9966361,-0.024895402,0.96163887,-0.06870547,-0.2655751,0.2629713,-0.04467682,0.96376866,-0.075099096,-0.9968137,-0.026879454,0.96318316,-0.065534554,-0.26073614,0.25814384,-0.04547089,0.9650358,1.4843903,-0.05984497,10.172958,0
5773.082183274,-0.0774053,-0.99668175,-0.02517516,0.96013117,-0.06771583,-0.27122414,0.26861945,-0.04516565,0.9621869,-0.08024859,-0.99645466,-0.02526354,0.9609445,-0.07060466,-0.267583,0.26485065,-0.045750022,0.96320355,-0.39263916,-0.3663025,9.909592,0
5773.086577805,-0.07731,-0.99669015,-0.0251367,0.958782,-0.06740804,-0.27603105,0.27342302,-0.04544058,0.96081996,-0.08532254,-0.9960687,-0.023814628,0.9587272,-0.0755705,-0.27410102,0.27122378,-0.046218723,0.96140605,-0.44052124,-0.12210083,9.770737,0
5773.090972336,-0.0778623,-0.9966415,-0.02535959,0.9576274,-0.06769119,-0.2799422,0.27728543,-0.046081983,0.95968187,-0.09048339,-0.99565035,-0.022208178,0.9564526,-0.080664076,-0.28052053,0.27750897,-0.046623517,0.95959103,-1.4891815,-0.75416565,9.176971,0
5773.095366867,-0.10104303,-0.9946952,-0.019283187,0.95420945,-0.09140866,-0.2848312,0.28155756,-0.047180407,0.9583837,-0.09469801,-0.9952845,-0.021001622,0.95459104,-0.084799774,-0.28559574,0.2824681,-0.04709331,0.95812005,0.49319458,-1.0845642,9.579193,0
5773.099761399,-0.10288385,-0.99449074,-0.020077843,0.9528475,-0.09274246,-0.28893042,0.28547654,-0.04885739,0.9571396,-0.09964437,-0.994823,-0.019956743,0.9524971,-0.08956566,-0.29107946,0.28778508,-0.04801317,0.9564907,1.9488678,-0.9504852,9.995789,0
5773.10415593,-0.10613586,-0.9941196,-0.021481939,0.95193046,-0.09534125,-0.29109845,0.28733855,-0.051345296,0.95645183,-0.10377632,-0.9944038,-0.019789973,0.9508598,-0.09335694,-0.29521215,0.29171255,-0.049453516,0.9552268,-0.21546936,-1.0318909,10.330978,0
5773.108550461,-0.0982537,-0.99478686,-0.02730378,0.9528265,-0.08612117,-0.29104102,0.2871723,-0.05461161,0.9563208,-0.10794897,-0.99394554,-0.020476073,0.9495506,-0.09698339,-0.2982411,0.29444957,-0.051637888,0.9542709,-1.6807251,-1.0606232,10.493774,0
5773.112944992,-0.10401999,-0.9941449,-0.029253392,0.9522641,-0.09106394,-0.29137668,0.2870067,-0.058165953,0.95616096,-0.11268808,-0.9933811,-0.022257088,0.94854045,-0.100876234,-0.30015835,0.29592642,-0.054936014,0.9536297,-2.0590057,-1.2138519,11.188095,0
5773.117339524,-0.111095525,-0.9933057,-0.03164597,0.9520292,-0.09723511,-0.29014736,0.28512797,-0.062361967,0.95645857,-0.11720139,-0.9928079,-0.024417518,0.9480997,-0.10453791,-0.3002979,0.29558557,-0.058345575,0.9535329,-1.8866272,-1.371872,10.599121,0
5773.121734055,-0.12063714,-0.9921133,-0.034028813,0.9519851,-0.105905466,-0.28724298,0.2813737,-0.06704709,0.95725316,-0.122164674,-0.9921354,-0.027261164,0.9480825,-0.10852642,-0.29893404,0.2936245,-0.062365014,0.9538843,-0.1484375,-1.3048248,11.221619,0
5773.126128586,-0.12942037,-0.9908891,-0.037272736,0.95241255,-0.1137577,-0.28278905,0.27597252,-0.07209769,0.9584577,-0.1283287,-0.9912441,-0.031094082,0.9485529,-0.11353031,-0.2955643,0.28944626,-0.06742376,0.9548167,1.0151367,-1.4772186,11.164154,0
5773.130523117,-0.13869064,-0.98949915,-0.040697563,0.952926,-0.122150645,-0.27750927,0.26962397,-0.07726971,0.9598606,-0.1342485,-0.99033105,-0.034952275,0.9493338,-0.118416764,-0.29110616,0.28415257,-0.072261944,0.95605206,1.0821686,-1.8411407,11.030075,0
5773.134917649,-0.14812057,-0.98798186,-0.044182464,0.9533993,-0.1307767,-0.27189574,0.26285002,-0.08239688,0.961312,-0.14119864,-0.9891923,-0.03951583,0.95037603,-0.12426455,-0.2852083,0.27721545,-0.077825926,0.95765066,0.0909729,-2.190689,10.857697,0
5773.13931218,-0.15766655,-0.9863391,-0.047711365,0.953753,-0.13958004,-0.2662191,0.2559228,-0.087478705,0.962731,-0.1474191,-0.98811066,-0.043646004,0.9513323,-0.12958182,-0.27959883,0.27061886,-0.08274006,0.9591244,-0.51234436,-2.463623,11.303024,0
5773.143706711,-0.16719103,-0.9845924,-0.05123343,0.95392877,-0.14841574,-0.26075408,0.24913266,-0.09246879,0.9640449,-0.15368591,-0.98696285,-0.047801163,0.9522362,-0.13501304,-0.2738935,0.26386896,-0.08761158,0.96057135,-0.19152832,-2.525879,11.657364,0
5773.148101242,-0.19052844,-0.9803729,-0.050674383,0.95122474,-0.17161272,-0.25636008,0.2426321,-0.09704661,0.96525204,-0.16062996,-0.9856211,-0.0524321,0.95311034,-0.14108965,-0.26772064,0.25647348,-0.09297753,0.96206886,0.5027771,-2.5354462,12.1697235,0
5773.152495774,-0.19808465,-0.97870487,-0.05384632,0.95127165,-0.17870688,-0.25128925,0.23631527,-0.100999005,0.9664131,-0.16710907,-0.9843411,-0.05609966,0.9536805,-0.14694405,-0.2624898,0.250136,-0.09736558,0.9633026,0.7996521,-2.6695251,12.773056,0
5773.156890305,-0.20423526,-0.9772941,-0.056429714,0.95154905,-0.18465786,-0.24587794,0.22987485,-0.10391258,0.9676568,-0.17461938,-0.9828357,-0.05951551,0.9541177,-0.15396567,-0.25681508,0.2432437,-0.10162969,0.9646264,2.4181366,-2.664734,12.820938,0
5773.161284836,-0.24968937,-0.96714157,-0.047878873,0.9420213,-0.2311629,-0.24322754,0.22416764,-0.10583425,0.9687869,-0.18212491,-0.9813544,-0.06143366,0.95429295,-0.16135387,-0.25157496,0.23697163,-0.104443766,0.9658861,1.3072205,-1.9752045,12.916718,0
5773.165679367,-0.25237742,-0.96638393,-0.04906762,0.9425281,-0.2340393,-0.23846664,0.2189666,-0.10643122,0.9699104,-0.19038826,-0.9797395,-0.06215158,0.9540459,-0.16972908,-0.24695837,0.23140594,-0.106313445,0.9670309,-0.23461914,-2.1954803,14.310135,0
5773.170073899,-0.2528557,-0.9662482,-0.049279176,0.94346905,-0.23497163,-0.23378259,0.21431279,-0.10560663,0.9710392,-0.19899979,-0.9780561,-0.061688095,0.95365566,-0.17876934,-0.24203804,0.22569884,-0.106994726,0.96830374,-0.68473816,-2.2002563,13.682861,0
5773.17446843,-0.24222027,-0.9688931,-0.050748516,0.9471624,-0.22480392,-0.22879386,0.21026833,-0.1034856,0.9721512,-0.20627174,-0.97665465,-0.059981223,0.9531805,-0.18670434,-0.23788336,0.22113113,-0.10624155,0.9694399,-0.46925354,-2.3151855,13.702011,0
5773.178862961,-0.23902996,-0.9697616,-0.049265604,0.9487877,-0.22246534,-0.2243013,0.2065589,-0.10035733,0.97327375,-0.21307412,-0.97536635,-0.05709506,0.9526031,-0.19440384,-0.23399694,0.21713325,-0.104247615,0.9705594,-0.45968628,-2.1811066,13.649338,0
5773.183257492,-0.23462555,-0.97093827,-0.047219694,0.95063335,-0.21902815,-0.21982466,0.20309374,-0.096465096,0.97439593,-0.22060844,-0.97393197,-0.05280497,0.9518138,-0.20314188,-0.22974724,0.2130313,-0.10094469,0.97181684,-0.39743042,-2.0278778,13.6445465,0
5773.187652024,-0.2365926,-0.9706496,-0.043167762,0.95088214,-0.22218882,-0.21553564,0.19961816,-0.092041574,0.9755414,-0.22730108,-0.9726269,-0.048280988,0.95100176,-0.21103027,-0.22596864,0.20959443,-0.097278215,0.9729373,-0.51234436,-2.05661,13.491318,0
5773.192046555,-0.23120089,-0.9720722,-0.04027063,0.9528896,-0.2178971,-0.21100271,0.19633503,-0.087157495,0.9766556,-0.23492493,-0.9710762,-0.042677116,0.9499872,-0.2200861,-0.22155453,0.2057537,-0.0925914,0.97421366,-0.5746002,-2.0853424,13.543991,0
5773.196441086,-0.22528379,-0.9735867,-0.037094995,0.9549345,-0.21309537,-0.20661671,0.19325455,-0.0819707,0.97771853,-0.24182612,-0.9696039,-0.037260488,0.94895595,-0.22831379,-0.21761307,0.2024914,-0.08798308,0.9753236,-1.0342865,-2.0518188,13.395554,0
5773.200835617,-0.20462477,-0.97815984,-0.03649704,0.960153,-0.19332762,-0.2018182,0.19035457,-0.07633975,0.9787427,-0.24871059,-0.9680633,-0.031565793,0.94782454,-0.2365421,-0.21372038,0.19942823,-0.08307336,0.9763847,-1.8100128,-2.23378,12.998108,0
5773.205230149,-0.19732833,-0.9797953,-0.03259899,0.9622098,-0.18720722,-0.19775161,0.18765333,-0.07038906,0.97971,-0.24871059,-0.9680633,-0.031565793,0.94782454,-0.2365421,-0.21372038,0.19942823,-0.08307336,0.9763847,-1.8100128,-2.23378,12.998108,0
5773.20962468,-0.18975453,-0.9814161,-0.02855825,0.96423364,-0.18079227,-0.19382353,0.18505844,-0.06431572,0.9806207,-0.26256892,-0.96473706,-0.018436655,0.94532186,-0.25336012,-0.2053659,0.19345297,-0.071351275,0.9785116,-1.8052216,-2.2768707,12.8975525,0
5773.214019211,-0.23331872,-0.9722962,-0.014224186,0.9551216,-0.22640304,-0.19100818,0.18249616,-0.05815162,0.98148537,-0.26885414,-0.96310467,-0.012116738,0.94408387,-0.26101008,-0.20144317,0.19084826,-0.06559804,0.97942525,-1.7429657,-2.2720947,12.7586975,0
5773.218413742,-0.22640023,-0.9739811,-0.010182815,0.9572965,-0.22056788,-0.18690427,0.17979524,-0.052063145,0.98232543,-0.27699244,-0.9608604,-0.0047559775,0.9423024,-0.27066758,-0.19699037,0.18799296,-0.059046414,0.9803939,-1.656784,-2.2002563,12.557587,0
5773.222808274,-0.21967652,-0.9755526,-0.006263052,0.9594289,-0.21487379,-0.18255201,0.17674333,-0.046111353,0.98317623,-0.28385517,-0.958866,0.0015380308,0.9407943,-0.2788146,-0.19279155,0.18529008,-0.053277906,0.98123854,-1.7046661,-2.0661926,12.241547,0
5773.227202805,-0.24908607,-0.9684724,0.0041684886,0.9528233,-0.2458275,-0.17803589,0.17344756,-0.04037442,0.9840152,-0.2915502,-0.95651984,0.008261312,0.93909943,-0.28786144,-0.18769157,0.18190882,-0.046963315,0.9821933,-1.5562286,-1.9129639,11.906357,0
5773.231597336,-0.24353479,-0.9698629,0.007545336,0.9548615,-0.2411177,-0.1734986,0.17008914,-0.03504819,0.98480517,-0.29885072,-0.954197,0.014011193,0.9374263,-0.2962837,-0.18288751,0.178662,-0.041521605,0.98303396,-1.5083466,-1.7645264,11.7196045,0
5773.235991867,-0.23845927,-0.9710945,0.010626794,0.95673794,-0.2367841,-0.16907437,0.1667034,-0.030150292,0.985546,-0.306196,-0.9517734,0.01927318,0.9356808,-0.3046245,-0.17805992,0.17534378,-0.036487687,0.98383087,-1.5131226,-1.8171844,11.389206,0
5773.240386399,-0.24415942,-0.9696165,0.015166656,0.9558553,-0.24327202,-0.16480036,0.16348277,-0.025740432,0.9862103,-0.31450072,-0.9489364,0.024678048,0.93361706,-0.31391412,-0.17267638,0.1716057,-0.031267002,0.98466945,-1.6280518,-1.7788849,11.202469,0
5773.24478093,-0.2403587,-0.9705241,0.017624268,0.9573194,-0.24001282,-0.16103847,0.16052178,-0.021834945,0.9867908,-0.3217985,-0.9463645,0.028981362,0.9317056,-0.32196248,-0.16812135,0.168435,-0.027099103,0.9853402,-1.8961945,-1.716629,10.919952,0
5773.249175461,-0.23711193,-0.9712821,0.019720789,0.9585896,-0.23721315,-0.15759334,0.15774563,-0.018463122,0.9873071,-0.3300379,-0.9433791,0.03333015,0.92940795,-0.33092228,-0.16337462,0.16515388,-0.022942498,0.98600096,-1.8100128,-1.7453613,10.71405,0
5773.253569992,-0.1844905,-0.98274213,0.013467836,0.97052056,-0.18432428,-0.15528914,0.1550916,-0.015578558,0.9877773,-0.33699813,-0.94079226,0.036635093,0.9273928,-0.3384073,-0.159446,0.16240315,-0.019757884,0.9865266,-1.5801697,-1.6735382,10.642212,0
5773.257964524,-0.18308234,-0.98299307,0.014336476,0.9713867,-0.18312636,-0.15123715,0.15129045,-0.013762589,0.9883935,-0.34291458,-0.93854344,0.039316528,0.9256807,-0.34474093,-0.15578447,0.15976451,-0.017026216,0.9870083,-1.5227051,-1.5346832,10.450684,0
5773.262359055,-0.18237299,-0.9831184,0.014773887,0.9720807,-0.18254106,-0.14743733,0.1476452,-0.01252718,0.988961,-0.3499511,-0.9358352,0.041795395,0.92354447,-0.35213774,-0.15187068,0.15684365,-0.014547398,0.98751634,-1.4700317,-1.6352386,10.330978,0
5773.266753586,-0.24008131,-0.9704746,0.023235831,0.9600041,-0.24090706,-0.1426738,0.144059,-0.011946827,0.98949695,-0.3558402,-0.9335371,0.043430556,0.92171794,-0.35825005,-0.14863701,0.15431717,-0.0128603075,0.9879377,-1.3886261,-1.6735382,10.278305,0
5773.271148117,-0.24113917,-0.97022915,0.022521414,0.9602348,-0.24189146,-0.13941845,0.1407156,-0.011993408,0.9899774,-0.36301747,-0.9307129,0.04463011,0.91933775,-0.36556002,-0.14554724,0.15177767,-0.011806045,0.9883442,-1.1779327,-1.716629,10.225632,0
5773.275542649,-0.24301395,-0.96979,0.021254512,0.96024156,-0.24360955,-0.13634746,0.13740619,-0.01272487,0.99043304,-0.37148026,-0.9273293,0.045418046,0.9163897,-0.37407565,-0.14246882,0.1491053,-0.011303719,0.9887567,-1.5274963,-1.6448059,10.292664,0
5773.27993718,-0.22744589,-0.9736447,0.01686487,0.9644969,-0.2276284,-0.13390699,0.13421676,-0.014190482,0.9908504,-0.37885222,-0.9243406,0.045447506,0.91373473,-0.38139358,-0.1400991,0.14683267,-0.011549887,0.9890939,-1.5753784,-1.6304474,10.01973,0
5773.284331711,-0.23111401,-0.97281957,0.014436265,0.9640465,-0.23097952,-0.13138793,0.13115123,-0.016448364,0.9912259,-0.38724333,-0.9208906,0.044755533,0.9105953,-0.38961592,-0.13789731,0.14442581,-0.012645641,0.98943484,-1.7190247,-1.692688,10.273514,0
5773.288726242,-0.23541728,-0.9718254,0.011582878,0.9633668,-0.2349104,-0.12938936,0.12846479,-0.019301929,0.99152625,-0.39441863,-0.917905,0.043409087,0.9078305,-0.3965394,-0.13638316,0.14240019,-0.014383963,0.98970467,-1.6472015,-1.8794403,10.311813,0
5773.293120774,-0.13066745,-0.99141145,-0.005401403,0.9832289,-0.12888601,-0.1290313,0.12722698,-0.022171013,0.9916258,-0.40148777,-0.91491574,0.041675508,0.90499187,-0.40330136,-0.13541718,0.1407031,-0.016652348,0.9899118,-1.8914185,-1.8842316,10.647003,0
5773.297515305,-0.13516936,-0.9907867,-0.008421311,0.98275006,-0.13298054,-0.12852404,0.12622003,-0.025648559,0.9916706,-0.4077687,-0.9122532,0.038972497,0.90241665,-0.4091426,-0.13508008,0.13917254,-0.019911993,0.99006796,-1.9919739,-1.960846,10.517715,0
5773.301909836,-0.1405998,-0.989993,-0.012067344,0.98208356,-0.1379111,-0.12842336,0.125474,-0.029907437,0.99164605,-0.41288525,-0.91007024,0.0360262,0.90026987,-0.41379258,-0.13523984,0.13798514,-0.023405235,0.9901577,-1.8770447,-1.7357941,10.584763,0
5773.306304367,-0.192251,-0.9812934,-0.01013826,0.9733561,-0.18936001,-0.12930836,0.12496966,-0.0347278,0.99155265,-0.41933006,-0.9072617,0.032226354,0.8974405,-0.41962418,-0.13607381,0.13697752,-0.028138602,0.9901745,-1.953659,-1.692688,10.57518,0
5773.310698899,-0.19940764,-0.9798067,-0.014680221,0.9719564,-0.19585991,-0.1301527,0.12464921,-0.04022197,0.9913852,-0.4252989,-0.9046042,0.028496852,0.8947328,-0.42498216,-0.13727172,0.13628723,-0.03288444,0.99012345,-1.7860718,-1.5011597,10.565598,0
5773.31509343,-0.20783599,-0.9779584,-0.02003995,0.970376,-0.20355797,-0.13013256,0.12318493,-0.04649251,0.9912941,-0.4314817,-0.90179414,0.02430635,0.89184606,-0.43046716,-0.138955,0.1357719,-0.038279023,0.99000037,-1.5657959,-1.3622894,10.201691,0
5773.319487961,-0.08265234,-0.9956489,-0.043031327,0.98913014,-0.07668887,-0.12546045,0.121614546,-0.05293319,0.991165,-0.43919402,-0.8981846,0.019314434,0.88817006,-0.4373303,-0.14105363,0.13513899,-0.04479541,0.98981357,-1.4843903,-1.2808838,10.4028015,0
5773.323882492,-0.090763755,-0.9946872,-0.04857369,0.9886188,-0.08411916,-0.12472805,0.119979404,-0.05934164,0.99100137,-0.44326898,-0.8962765,0.014177736,0.8862549,-0.4405745,-0.14299078,0.13440563,-0.050818294,0.9896224,-1.4556732,-1.2952576,10.254364,0
5773.328277024,-0.09887671,-0.993627,-0.054118413,0.9880645,-0.09157685,-0.12386422,0.11811883,-0.06571977,0.9908224,-0.44749954,-0.8942387,0.009018682,0.884252,-0.44396326,-0.14489673,0.13357623,-0.056866426,0.9894057,-1.5227051,-1.5155182,10.4028015,0
5773.332671555,-0.06956453,-0.99554926,-0.06357947,0.99068296,-0.06146314,-0.12152997,0.11708129,-0.07144128,0.99054945,-0.45320332,-0.89140064,0.0034017488,0.8815122,-0.44873634,-0.14687386,0.13244994,-0.06356504,0.98914933,-1.3072205,-1.7501526,10.589554,0
5773.337066086,-0.07560111,-0.99480337,-0.068195686,0.9903859,-0.06696777,-0.12104139,0.11584548,-0.07669091,0.9903021,-0.45685512,-0.8895396,-0.0016512536,0.8798122,-0.45158386,-0.14833276,0.13120218,-0.06921937,0.9889361,-1.3455353,-2.094925,10.723618,0
5773.341460617,-0.0810941,-0.99407375,-0.0723957,0.9901463,-0.072027676,-0.1200929,0.1141667,-0.08142116,0.99011946,-0.4618415,-0.8869366,-0.0067732036,0.87744004,-0.4557539,-0.14962417,0.12962024,-0.075045735,0.9887197,-1.4173584,-2.415741,10.819397,0
5773.345855149,-0.0859759,-0.99338436,-0.07612796,0.9899716,-0.07658353,-0.11870568,0.112090245,-0.08557036,0.9900068,-0.4654812,-0.8849867,-0.011219814,0.8757869,-0.45873827,-0.1501883,0.12776768,-0.07973599,0.9885938,-1.4317322,-2.5306702,10.939102,0
5773.35024968,-0.0902034,-0.9927565,-0.07935967,0.9898722,-0.080599524,-0.116862014,0.10961917,-0.08909728,0.98997235,-0.46918458,-0.8829668,-0.015342351,0.8741326,-0.46188053,-0.15019515,0.125531,-0.08388051,0.9885373,-1.1970978,-2.5162964,11.034866,0
5773.354644211,-0.093842715,-0.9921927,-0.08214151,0.98984903,-0.08413842,-0.114541195,0.10673568,-0.09205655,0.9900167,-0.4741987,-0.8802038,-0.019412167,0.87183446,-0.46639016,-0.14961554,0.12263853,-0.08787169,0.98855364,-1.1396332,-2.4253235,11.006134,0
5773.359038742,-0.054887053,-0.9945053,-0.08914427,0.9931106,-0.04511611,-0.108147144,0.10353106,-0.094465986,0.99012995,-0.47783473,-0.8781517,-0.02288277,0.8702636,-0.4696733,-0.14848658,0.11964632,-0.09086609,0.98864967,-1.1252747,-2.2002563,11.149796,0
5773.363433274,-0.057325926,-0.9942012,-0.090982094,0.99334025,-0.04767746,-0.104890555,0.09994452,-0.09638913,0.99031323,-0.4806979,-0.8764954,-0.026178345,0.86913395,-0.4722749,-0.14684236,0.11634327,-0.0933393,0.98881346,-0.9911957,-2.1332245,11.025284,0
5773.367827805,-0.059204396,-0.99396056,-0.092397325,0.993602,-0.049758293,-0.10138631,0.09617646,-0.09780868,0.99054706,-0.48487976,-0.8740857,-0.02942377,0.8673448,-0.47627705,-0.14447519,0.11226983,-0.09557366,0.98907083,-0.8283844,-1.9752045,10.838547,0
5773.372222336,-0.06806193,-0.9933652,-0.09269794,0.9934009,-0.058879487,-0.09842666,0.09231563,-0.09878535,0.99081755,-0.48772997,-0.8724018,-0.03216584,0.8662333,-0.4790471,-0.14196406,0.10844074,-0.09710324,0.98934907,-0.68473816,-1.7932434,10.92952,0
5773.376616867,-0.06883278,-0.9932515,-0.09334617,0.9937018,-0.05996772,-0.09466082,0.08842424,-0.099274024,0.99112356,-0.49206346,-0.8698689,-0.0346651,0.864314,-0.4833849,-0.13892558,0.10409046,-0.09832174,0.9896959,-0.8283844,-1.7597351,10.642212,0
5773.381011399,-0.069214694,-0.99319476,-0.09366733,0.9940111,-0.06070187,-0.09086838,0.08456422,-0.09939579,0.99144804,-0.49501538,-0.8681098,-0.036675174,0.8630937,-0.48641327,-0.13590977,0.10014532,-0.098931536,0.99004215,-0.7805023,-1.5969238,10.795441,0
5773.38540593,-0.027228506,-0.9948663,-0.097467326,0.9963982,-0.019178,-0.08260091,0.08030762,-0.099365346,0.99180496,-0.49798477,-0.8663357,-0.038387984,0.8618281,-0.48950982,-0.13278735,0.09624713,-0.09920993,0.99040085,-0.8188019,-1.577774,10.479416,0
5773.389800461,-0.026903516,-0.9949023,-0.09718828,0.9967235,-0.019279255,-0.07855259,0.07627844,-0.09898319,0.9921612,-0.50158226,-0.8641934,-0.039812237,0.8601896,-0.49329993,-0.12934071,0.09213602,-0.09912109,0.9908007,-0.9002075,-1.4149628,10.340546,0
5773.394194992,-0.026359294,-0.99496245,-0.096721,0.99701375,-0.019140897,-0.07481422,0.07258601,-0.09840422,0.9924958,-0.50383013,-0.8628337,-0.040905815,0.8592395,-0.49574512,-0.12627009,0.08867122,-0.09876657,0.9911521,-0.9768219,-1.5059509,10.493774,0
5773.398589524,-0.028399536,-0.9949808,-0.09595119,0.99719757,-0.021554127,-0.07164065,0.06921293,-0.09771686,0.9928046,-0.5075205,-0.8606356,-0.041584417,0.8574195,-0.49967536,-0.12311118,0.08517516,-0.09813673,0.99152124,-1.1156921,-1.4053955,10.115494,0
5773.402984055,-0.027729126,-0.9950607,-0.09531707,0.9974296,-0.02124001,-0.068432175,0.066069625,-0.09696964,0.993092,-0.509908,-0.8591969,-0.04212534,0.85627675,-0.5022676,-0.12048829,0.08236498,-0.09750889,0.9918206,-1.3311615,-1.3910217,10.072403,0
5773.407378586,-0.02709365,-0.9951356,-0.09471596,0.9976272,-0.020918425,-0.0655929,0.06329252,-0.09626836,0.9933411,-0.5123337,-0.85773546,-0.04247422,0.8550669,-0.5048923,-0.11808581,0.07984148,-0.09681765,0.9920946,-1.4460907,-1.4820099,9.785095,0
5773.411773117,-0.06359316,-0.9937472,-0.09177339,0.99612534,-0.0576088,-0.06644819,0.060745757,-0.095643446,0.9935604,-0.5162639,-0.85537374,-0.042512033,0.8529221,-0.50902784,-0.115821406,0.077430785,-0.09605386,0.9923598,-1.656784,-1.577774,9.990997,0
5773.416167649,-0.06313123,-0.9938146,-0.091361225,0.9962989,-0.057407945,-0.06397378,0.058333226,-0.09506184,0.99376076,-0.5194529,-0.8534409,-0.04251327,0.8511539,-0.5123806,-0.11403103,0.07553577,-0.09541909,0.9925672,-1.771698,-1.4867859,9.986206,0
5773.42056218,-0.062696084,-0.9938779,-0.09097296,0.99645954,-0.057220705,-0.061597608,0.05601496,-0.09451279,0.9939465,-0.5227197,-0.8514436,-0.04251829,0.84930533,-0.5157932,-0.1124177,0.07378669,-0.094873965,0.99275094,-1.771698,-1.5490417,10.077194,0
5773.424956711,-0.07087766,-0.9934053,-0.090123385,0.9960346,-0.0656146,-0.06008099,0.053771365,-0.09402443,0.9941167,-0.52742535,-0.84854484,-0.042357214,0.8465495,-0.5206553,-0.11077917,0.07194759,-0.09428522,0.992942,-1.8243713,-1.5346832,9.923965,0
5773.429351242,-0.07064338,-0.99344385,-0.08988233,0.9961651,-0.0655988,-0.057895143,0.0516194,-0.09362756,0.99426824,-0.5308608,-0.84639937,-0.04236687,0.84453523,-0.5242185,-0.109340064,0.070335865,-0.09382466,0.99310106,-1.6711426,-1.4724274,9.890442,0
5773.433745774,-0.07035964,-0.99349034,-0.089590386,0.9962996,-0.06554509,-0.055596057,0.049361937,-0.093170576,0.9944258,-0.5357741,-0.8432999,-0.04232394,0.8415708,-0.5292603,-0.10789921,0.06859102,-0.093428195,0.9932605,-1.771698,-1.3670807,9.923965,0
5773.438140305,-0.15460576,-0.9843598,-0.08445597,0.98684394,-0.14977188,-0.0608878,0.047286373,-0.09275846,0.9945651,-0.5391221,-0.8411546,-0.04250201,0.8395654,-0.53272396,-0.10646707,0.066913426,-0.09308196,0.9934075,-1.6759338,-1.5251007,9.8138275,0
5773.442534836,-0.15462825,-0.98435444,-0.084477805,0.98693705,-0.14998624,-0.058816977,0.045226242,-0.09246904,0.9946879,-0.54381806,-0.8381299,-0.04242959,0.8366544,-0.53753555,-0.10518959,0.06535512,-0.0927029,0.9935466,-1.7190247,-1.716629,9.765945,0
5773.446929367,-0.15468462,-0.98434085,-0.08453261,0.9870178,-0.15022603,-0.056816638,0.043227937,-0.09222385,0.9947996,-0.54989344,-0.8341638,-0.04228501,0.8328044,-0.54373085,-0.10389242,0.063671626,-0.0923449,0.99368924,-1.7046661,-1.8411407,9.48822,0
5773.451323899,-0.17640509,-0.98077124,-0.08348075,0.98345315,-0.17206146,-0.056698285,0.041244227,-0.09210127,0.99489504,-0.5542995,-0.8312415,-0.042304114,0.8299936,-0.5482422,-0.10266984,0.062150534,-0.09202199,0.99381554,-1.498764,-2.1092834,9.440323,0
5773.45571843,-0.17676906,-0.9806744,-0.08384779,0.9834654,-0.17257963,-0.054883026,0.039351955,-0.09216302,0.99496603,-0.5542995,-0.8312415,-0.042304114,0.8299936,-0.5482422,-0.10266984,0.062150534,-0.09202199,0.99381554,-1.498764,-2.1092834,9.440323,0
5773.460112961,-0.17731689,-0.9805281,-0.08440026,0.98344356,-0.1732785,-0.053041533,0.03738396,-0.09240805,0.9950192,-0.56490916,-0.8240602,-0.04245426,0.82304543,-0.5590449,-0.100324504,0.0589396,-0.09161602,0.99404866,-1.474823,-2.3103943,9.100357,0
5773.464507492,-0.17789166,-0.9803739,-0.084979974,0.9834213,-0.17402734,-0.050960246,0.035171255,-0.092636526,0.9950786,-0.56490916,-0.8240602,-0.04245426,0.82304543,-0.5590449,-0.100324504,0.0589396,-0.09161602,0.99404866,-1.474823,-2.3103943,9.100357,0
5773.468902024,-0.2225538,-0.9713692,-0.08313644,0.97436464,-0.21873797,-0.05260294,0.032911777,-0.092712194,0.9951488,-0.5750537,-0.8169678,-0.04332276,0.8162464,-0.56935716,-0.097848475,0.055272926,-0.09163017,0.9942579,-1.3024445,-2.3199768,8.942337,0
5773.473296555,-0.22309354,-0.971199,-0.083677635,0.9743107,-0.21944766,-0.050611936,0.030791396,-0.0928192,0.9952068,-0.58005035,-0.8134062,-0.043725006,0.8128344,-0.57445955,-0.09641898,0.053309545,-0.09146904,0.99438,-1.2401886,-2.3870087,9.282318,0
5773.477691086,-0.3216841,-0.9435593,-0.07883621,0.9464091,-0.31788686,-0.057075925,0.028793523,-0.09297173,0.9952523,-0.58494246,-0.8098745,-0.044109747,0.8094416,-0.5794512,-0.095081866,0.051444925,-0.09132169,0.9944917,-1.206665,-2.54982,9.440323,0
5773.482085617,-0.32247156,-0.94322187,-0.07965348,0.946197,-0.3188066,-0.05544337,0.02690134,-0.09324678,0.9952796,-0.5928786,-0.8040789,-0.04418382,0.80376804,-0.5874914,-0.09386643,0.0495184,-0.091164924,0.9946038,-1.1252747,-2.8083954,9.641449,0
5773.486480149,-0.32313415,-0.9429366,-0.08034141,0.94602424,-0.31961775,-0.05368915,0.024946922,-0.09335374,0.99532044,-0.59929323,-0.79929864,-0.04437641,0.79910016,-0.59399194,-0.092804074,0.047818944,-0.09107804,0.994695,-0.93852234,-2.688675,9.449905,0
5773.49087468,-0.34077445,-0.936737,-0.07997902,0.9398617,-0.33734778,-0.053447895,0.023085875,-0.09338289,0.99536264,-0.60693693,-0.7935035,-0.04449464,0.79342836,-0.6017498,-0.09148064,0.045815572,-0.090826295,0.9948123,-0.68473816,-2.822754,9.727631,0
5773.495269211,-0.34124145,-0.93652374,-0.08048432,0.9397371,-0.33797276,-0.05165908,0.021178441,-0.093262315,0.9954163,-0.61328924,-0.78859633,-0.044633865,0.7886323,-0.6082113,-0.09021186,0.043993924,-0.09052567,0.9949219,-0.49798584,-2.7844543,9.943115,0
5773.499663742,-0.34149957,-0.9364056,-0.08076361,0.9396856,-0.33840904,-0.04970205,0.019210141,-0.09286561,0.99549323,-0.61951214,-0.783709,-0.04477548,0.7838602,-0.6145605,-0.08876098,0.042045537,-0.09008623,0.995046,-0.20111084,-2.688675,9.9479065,0
5773.504058274,-0.4240064,-0.90243185,-0.07638974,0.90549564,-0.42081627,-0.054692894,0.017210564,-0.09236071,0.99557686,-0.6269381,-0.77777976,-0.04480336,0.7780549,-0.6221523,-0.086931475,0.039739028,-0.089360125,0.9952063,-0.25856018,-2.822754,9.995789,0
5773.508452805,-0.4240671,-0.9023979,-0.07645316,0.90550345,-0.42107877,-0.05249843,0.015181672,-0.09149147,0.99569017,-0.63417155,-0.77189857,-0.044710536,0.77227676,-0.6295475,-0.08519708,0.0376161,-0.08855848,0.99536043,-0.39263916,-2.6695251,9.780304,0
5773.512847336,-0.42390138,-0.9024905,-0.07628008,0.90561336,-0.42113078,-0.05013396,0.013121532,-0.0903321,0.99582523,-0.6411376,-0.76613927,-0.044421323,0.7666035,-0.6366974,-0.08327981,0.035520993,-0.08744735,0.9955357,-0.59854126,-2.645584,9.84256,0
5773.517241867,-0.42350888,-0.9027112,-0.07584706,0.90582466,-0.42096943,-0.047608547,0.011047469,-0.08886678,0.9959823,-0.6492035,-0.759351,-0.043827437,0.7598869,-0.6449846,-0.08103496,0.033265956,-0.085912086,0.9957472,-1.0726013,-2.6024933,9.631866,0
5773.521636399,-0.42277414,-0.90312135,-0.07505998,0.90618783,-0.42045307,-0.045199286,0.009261237,-0.08712752,0.9961541,-0.6555812,-0.753892,-0.043129995,0.7544728,-0.651573,-0.07888839,0.031370986,-0.08425815,0.99595004,-1.1635742,-2.5450287,9.789886,0
5773.52603093,-0.4219612,-0.9035733,-0.07418978,0.90658283,-0.4198541,-0.04278002,0.0075059966,-0.08531069,0.99632615,-0.6630197,-0.7474286,-0.04189656,0.7480154,-0.6592469,-0.07659247,0.029627228,-0.08212159,0.99618185,-1.450882,-2.5881195,9.727631,0
5773.530425461,-0.4896146,-0.8691435,-0.069764815,0.8719199,-0.48750505,-0.04576592,0.005766451,-0.08323699,0.99651307,-0.66887856,-0.74225223,-0.04078185,0.74283797,-0.665313,-0.07450105,0.028165873,-0.08012646,0.9963867,-1.5753784,-2.5067291,9.612717,0
5773.534819992,-0.48868325,-0.86974835,-0.06875045,0.87245214,-0.48679608,-0.043093316,0.0040128897,-0.08104045,0.9967028,-0.67572194,-0.73610157,-0.039425794,0.7366712,-0.67236984,-0.07234874,0.026747309,-0.07793148,0.99659985,-1.7142334,-2.5546112,9.54567,0
5773.539214524,-0.4877327,-0.87036276,-0.06771625,0.87299,-0.4860583,-0.04044445,0.0022872959,-0.07884169,0.9968845,-0.6835475,-0.7289298,-0.03773882,0.72946936,-0.6804366,-0.06985991,0.025244093,-0.07528187,0.9968427,-1.8435211,-2.5689697,9.473846,0
5773.543609055,-0.5229299,-0.8498952,-0.06498136,0.8523755,-0.5213548,-0.04056115,5.943829E-4,-0.07659915,0.9970617,-0.6898924,-0.7229992,-0.036338717,0.72351664,-0.68698794,-0.06761052,0.023918096,-0.07293565,0.9970498,-1.771698,-2.6120605,9.234421,0
