Time,Rot1,Rot2,Rot3,Rot4,Rot5,Rot6,Rot7,Rot8,Rot9,FRot1,FRot2,FRot3,FRot4,FRot5,FRot6,FRot7,FRot8,FRot9,AccX,AccY,AccZ,Imid
5507.884141501,0.6320402,0.77491826,0.005176266,-0.7748818,0.6320609,-0.0075523984,-0.009124207,7.6242525E-4,0.99995804,0.6142662,0.789083,0.004998864,-0.789045,0.61428595,-0.0077955285,-0.009222051,8.4420125E-4,0.99995714,-0.10533142,0.07421875,9.727631,0
5507.888566549,0.6023644,0.7982059,0.004945543,-0.7981689,0.60238427,-0.0077181207,-0.009139767,7.0174236E-4,0.999958,0.6146079,0.7888177,0.0048792637,-0.7887797,0.61462647,-0.00780348,-0.009154447,9.474161E-4,0.9999576,0.0,0.05505371,9.751572,0
5507.892961081,0.60232174,0.7982376,0.005030656,-0.7981998,0.6023424,-0.0078058783,-0.009261122,6.8618194E-4,0.9999569,0.61435634,0.78901285,0.0049928296,-0.78897476,0.61437607,-0.0078016757,-0.009223097,8.53793E-4,0.9999571,-0.05265808,0.10293579,9.689331,0
5507.897386129,0.60223454,0.79830223,0.0052042995,-0.7982635,0.6022567,-0.007885269,-0.009429152,5.943789E-4,0.99995536,0.61407834,0.78922856,0.005099153,-0.78918964,0.61409897,-0.00788042,-0.009350837,8.149971E-4,0.9999559,-0.12449646,-0.01675415,9.832977,0
5507.901811178,0.621086,0.78372324,0.005483112,-0.7836846,0.62111,-0.007802922,-0.009520946,5.4925546E-4,0.9999546,0.61384195,0.78941137,0.005273987,-0.78937155,0.61386424,-0.007958239,-0.009519836,7.219654E-4,0.99995446,-0.06703186,0.05984497,9.751572,0
5507.906236227,0.6210848,0.7837241,0.00548563,-0.7836857,0.62110883,-0.0077810725,-0.009505388,5.3369586E-4,0.9999547,0.6139972,0.7892898,0.0053863917,-0.7892496,0.6140205,-0.007987402,-0.00961173,6.530351E-4,0.99995357,-0.05265808,-0.026321411,9.84256,0
5507.910661276,0.62110615,0.7837076,0.005441015,-0.78367,0.62112975,-0.007699324,-0.009413594,5.181367E-4,0.9999556,0.6141224,0.78919214,0.00543255,-0.78915274,0.6141461,-0.007904592,-0.009574621,5.672754E-4,0.999954,-0.10533142,0.08857727,9.895233,0
5507.915086325,0.59664184,0.80249053,0.0052352333,-0.8024522,0.5966646,-0.00785738,-0.009429153,4.870173E-4,0.9999554,0.6142242,0.789113,0.0054140887,-0.78907466,0.61424786,-0.007796446,-0.00947787,5.166453E-4,0.99995494,-0.12927246,-0.06942749,9.837769,0
5507.919511374,0.59664637,0.8024873,0.0052259937,-0.8024491,0.596669,-0.007844867,-0.009413594,4.8701736E-4,0.9999556,0.6138897,0.7893738,0.0053356434,-0.7893357,0.6139126,-0.0077727474,-0.009411221,5.5999524E-4,0.99995553,-0.07182312,0.02154541,9.823395,0
5507.923936422,0.59667486,0.80246633,0.005167041,-0.8024279,0.596697,-0.007869334,-0.009398036,5.4925604E-4,0.99995565,0.6135674,0.789625,0.0052397554,-0.789587,0.61358947,-0.0077659655,-0.009347259,6.277007E-4,0.99995613,-0.04788208,0.14604187,9.938324,0
5507.928361471,0.63704747,0.7708042,0.0056076865,-0.7707669,0.6370719,-0.0075981086,-0.009429153,5.181366E-4,0.9999554,0.6132115,0.7899015,0.0052356673,-0.7898636,0.6132335,-0.0077646114,-0.009343964,6.2588626E-4,0.9999562,-0.16279602,-0.06942749,9.727631,0
5507.93278652,0.63703674,0.7708129,0.0056315684,-0.7707758,0.6370614,-0.007578361,-0.009429153,4.870173E-4,0.9999554,0.61368614,0.7895325,0.0052780868,-0.78949475,0.61370856,-0.007734283,-0.009345674,5.794004E-4,0.99995613,-0.11491394,-0.07899475,9.756363,0
5507.937211569,0.636971,0.77086616,0.0057772165,-0.7708296,0.6369971,-0.0075164833,-0.009474272,3.3453252E-4,0.99995506,0.6141444,0.7891755,0.0053638956,-0.78913736,0.6141676,-0.00777544,-0.009430517,5.423922E-4,0.9999554,-0.10055542,0.026321411,9.832977,0
5507.941636618,0.5869283,0.8096214,0.005320975,-0.80958307,0.5869524,-0.007882981,-0.009505389,3.1897277E-4,0.99995476,0.61461365,0.78880894,0.0055238255,-0.7887714,0.6146383,-0.0077086,-0.009475768,3.8077502E-4,0.99995506,-0.15800476,-0.05505371,9.914383,0
5507.946061667,0.58693725,0.80961514,0.005302796,-0.8095771,0.5869611,-0.007857731,-0.009474272,3.189729E-4,0.99995506,0.6140564,0.78924257,0.005559708,-0.78920466,0.61408144,-0.0077420482,-0.009524467,3.6630654E-4,0.9999546,-0.04309082,0.01675415,9.900009,0
5507.950456198,0.58692956,0.8096205,0.005318438,-0.8095826,0.5869535,-0.0078290915,-0.0094602695,2.8940957E-4,0.9999551,0.6135037,0.7896724,0.005544623,-0.7896347,0.6135286,-0.0077244653,-0.009501582,3.6076142E-4,0.9999548,-0.0622406,-0.07899475,9.708481,0
5507.954881247,0.63784593,0.77014256,0.005736953,-0.77010536,0.63787156,-0.0075705326,-0.00948983,4.1077472E-4,0.9999548,0.61297107,0.79008603,0.0055202367,-0.7900484,0.6129958,-0.0077171233,-0.009481073,3.6911928E-4,0.999955,-0.21546936,0.04548645,9.785095,0
5507.959306295,0.63785625,0.7701342,0.0057151457,-0.77009714,0.63788164,-0.0075684013,-0.009474272,4.2633445E-4,0.999955,0.61349905,0.78967667,0.0054385667,-0.78963876,0.613523,-0.007753377,-0.009459347,4.6218623E-4,0.9999551,-0.0622406,0.07899475,9.837769,0
5507.963731344,0.63787085,0.7701224,0.005684447,-0.77008545,0.63789606,-0.0075554545,-0.009444711,4.4189423E-4,0.9999553,0.61402345,0.7892696,0.0053560003,-0.7892315,0.6140465,-0.007780901,-0.009430062,5.5053167E-4,0.99995536,-0.02394104,0.04069519,9.84256,0
5507.968156393,0.599864,0.80008423,0.005324677,-0.8000462,0.5998875,-0.0078123068,-0.009444711,4.2633456E-4,0.9999553,0.61449933,0.7888994,0.0053257714,-0.78886133,0.6145221,-0.007771938,-0.009404081,5.7455536E-4,0.9999556,-0.10055542,-0.06942749,9.794678,0
5507.972581442,0.5998557,0.8000904,0.0053423303,-0.8000521,0.5998793,-0.007836013,-0.009474272,4.2633445E-4,0.999955,0.61420095,0.7891317,0.005326653,-0.7890937,0.6142237,-0.007765843,-0.00940003,5.665597E-4,0.99995565,-0.14364624,0.007171631,9.938324,0
5507.977006491,0.5998698,0.80007994,0.005312284,-0.80004185,0.59989315,-0.007821603,-0.009444711,4.4189423E-4,0.9999553,0.6139331,0.7893401,0.005327407,-0.7893019,0.6139559,-0.0077891243,-0.009419061,5.7706906E-4,0.9999555,-0.0143585205,0.07421875,9.809036,0
5507.98143154,0.631466,0.7753832,0.005631454,-0.77534586,0.63149095,-0.0076143746,-0.0094602695,4.4189417E-4,0.9999551,0.6133812,0.78976905,0.0053200494,-0.78973144,0.61340404,-0.0077269096,-0.009365815,5.381303E-4,0.999956,-0.15322876,-0.02154541,9.86171,0
5507.985856588,0.6314458,0.77539927,0.0056740553,-0.7753619,0.6314711,-0.0076177893,-0.00948983,4.1077472E-4,0.9999548,0.6133812,0.78976905,0.0053200494,-0.78973144,0.61340404,-0.0077269096,-0.009365815,5.381303E-4,0.999956,-0.0335083,-0.04069519,9.809036,0
5507.990281637,0.6314355,0.77540743,0.005695845,-0.77537006,0.6314611,-0.0076201027,-0.009505389,3.9521506E-4,0.99995476,0.6133812,0.78976905,0.0053200494,-0.78973144,0.61340404,-0.0077269096,-0.009365815,5.381303E-4,0.999956,-0.0335083,-0.04069519,9.809036,0
5507.994706686,0.6314396,0.7754041,0.0056870943,-0.7753671,0.63146514,-0.0075871013,-0.009474272,3.812115E-4,0.99995506,0.6133812,0.78976905,0.0053200494,-0.78973144,0.61340404,-0.0077269096,-0.009365815,5.381303E-4,0.999956,-0.0335083,-0.04069519,9.809036,0
5507.999131735,0.6417345,0.766905,0.005777134,-0.7668683,0.64176035,-0.00751949,-0.009474272,3.9521517E-4,0.99995506,0.6144549,0.7889339,0.0053381114,-0.7888966,0.6144779,-0.0076894592,-0.009346627,5.13608E-4,0.9999562,-0.09576416,0.011962891,9.837769,0
5508.003556784,0.64172965,0.7669091,0.0057870722,-0.7668722,0.6417556,-0.007531458,-0.00948983,3.952151E-4,0.9999548,0.6150157,0.7884967,0.005355196,-0.78845924,0.6150388,-0.007704885,-0.00936893,5.1627157E-4,0.999956,-0.11012268,0.002380371,9.68454,0
5508.007951315,0.6093589,0.79287565,0.0054712244,-0.7928379,0.6093834,-0.007744214,-0.009474272,3.812115E-4,0.99995506,0.6155467,0.7880821,0.0053689727,-0.7880443,0.61556995,-0.00773656,-0.009402023,5.312256E-4,0.99995565,-0.0622406,-0.02154541,9.832977,0
5508.012376364,0.6093597,0.7928751,0.005469611,-0.79283714,0.60938406,-0.007765078,-0.00948983,3.952151E-4,0.9999548,0.61538535,0.7882081,0.0053640944,-0.7881703,0.61540854,-0.007742096,-0.009403493,5.3655286E-4,0.99995565,-0.16279602,0.05505371,9.856918,0
5508.016801413,0.60935706,0.79287696,0.005475011,-0.79283935,0.6093815,-0.007723642,-0.0094602695,3.6565185E-4,0.9999551,0.61525726,0.78830767,0.005428388,-0.78826976,0.61528105,-0.0077502998,-0.009449605,4.8939453E-4,0.99995524,-0.0143585205,-0.08857727,9.86171,0
5508.021226461,0.6022734,0.7982717,0.005378434,-0.79823357,0.60229725,-0.0078104422,-0.009474272,4.1077478E-4,0.999955,0.6151295,0.7884076,0.00539669,-0.78836983,0.61515296,-0.007736391,-0.00941922,5.042942E-4,0.99995553,-0.13406372,0.11730957,9.995789,0
5508.02565151,0.60225856,0.7982828,0.005409453,-0.79824454,0.60228276,-0.007826011,-0.009505389,3.9521506E-4,0.99995476,0.6149048,0.7885828,0.0054042055,-0.78854454,0.61492836,-0.007787997,-0.00946468,5.2742055E-4,0.9999551,-0.17237854,-0.026321411,9.900009,0
5508.030076559,0.60226005,0.7982817,0.0054064174,-0.7982433,0.6022842,-0.007847791,-0.009520946,4.107746E-4,0.9999546,0.614605,0.7888165,0.0054047625,-0.788778,0.61462855,-0.0078106457,-0.009483088,5.3730386E-4,0.99995494,-0.13406372,0.04069519,9.789886,0
5508.034501608,0.61353165,0.78965116,0.005480422,-0.78961277,0.6135559,-0.0077988887,-0.009520946,4.5745354E-4,0.9999546,0.6143948,0.7889801,0.0054124757,-0.7889423,0.61441845,-0.007749227,-0.009439512,4.90954E-4,0.99995536,-0.07661438,0.11251831,9.995789,0
5508.038926657,0.61354667,0.78963965,0.0054491893,-0.7896014,0.6135707,-0.0077837617,-0.00948983,4.7301332E-4,0.9999548,0.6143776,0.7889934,0.0054299315,-0.78895575,0.61440146,-0.007721072,-0.009428033,4.5967795E-4,0.9999554,-0.02394104,0.06942749,9.828186,0
5508.043351706,0.61351985,0.78966016,0.00550488,-0.78962195,0.61354434,-0.0077798767,-0.009520946,4.2633427E-4,0.9999546,0.61433756,0.7890243,0.005477822,-0.78898656,0.6143618,-0.007735324,-0.009468723,4.3017257E-4,0.99995506,-0.17237854,-0.11730957,9.694122,0
5508.047776754,0.63525605,0.77228016,0.0057479152,-0.77224225,0.63528186,-0.0076585137,-0.009566065,4.2633407E-4,0.9999541,0.6143282,0.7890316,0.005473008,-0.7889939,0.6143524,-0.007729336,-0.009461046,4.3017892E-4,0.9999551,-0.19631958,0.002380371,9.890442,0
5508.052201803,0.6352678,0.7722708,0.0057240864,-0.7722327,0.6352934,-0.0076783174,-0.009566214,4.5746047E-4,0.9999541,0.61475116,0.7887025,0.0054178894,-0.7886644,0.6147748,-0.0077642044,-0.00945443,5.001571E-4,0.9999552,-0.10055542,0.05984497,9.708481,0
5508.056626852,0.63526195,0.77227557,0.0057360455,-0.77223754,0.6352877,-0.0076684756,-0.009566214,4.419006E-4,0.9999541,0.615154,0.78838784,0.0054930323,-0.78835016,0.6151784,-0.007715005,-0.009461611,4.1548334E-4,0.9999552,-0.11012268,-0.007171631,9.852127,0
5508.061051901,0.6352571,0.77227944,0.0057458826,-0.77224135,0.635283,-0.0076805265,-0.009581773,4.419005E-4,0.999954,0.6155842,0.78805184,0.005502212,-0.7880138,0.61560863,-0.00775525,-0.009498749,4.381907E-4,0.99995476,-0.13885498,-0.026321411,9.86171,0
5508.06547695,0.6352711,0.77226806,0.0057172654,-0.7722303,0.63529664,-0.0076454603,-0.009536505,4.4189385E-4,0.9999544,0.6159581,0.7877599,0.0054770773,-0.7877212,0.61598223,-0.007827363,-0.009539865,5.069175E-4,0.9999544,0.028717041,0.002380371,9.880859,0
5508.069871481,0.6352678,0.77227074,0.0057239975,-0.77223265,0.6352934,-0.007678197,-0.009566065,4.5745334E-4,0.9999541,0.61634094,0.7874602,0.0054951385,-0.7874211,0.61636525,-0.007869052,-0.009583578,5.230317E-4,0.999954,-0.1484375,0.04548645,9.828186,0
5508.07429653,0.63182604,0.7750894,0.005687643,-0.77505106,0.63185143,-0.007725597,-0.009581773,4.7302028E-4,0.999954,0.6167112,0.7871703,0.0054952665,-0.7871306,0.6167354,-0.007931395,-0.009632484,5.6588807E-4,0.99995345,-0.13885498,0.05505371,9.694122,0
5508.078721579,0.63183737,0.7750803,0.00566484,-0.7750418,0.6318626,-0.0077441945,-0.009581773,5.0258404E-4,0.999954,0.61699486,0.7869476,0.005550269,-0.78690773,0.6170196,-0.007942887,-0.009675262,5.33171E-4,0.9999531,-0.11491394,0.07421875,10.067612,0
5508.083146628,0.6318492,0.77507085,0.0056408374,-0.7750321,0.6318742,-0.0077637723,-0.009581772,5.337038E-4,0.9999539,0.6172937,0.7867127,0.005621722,-0.7866729,0.6173191,-0.007934847,-0.009712841,4.756749E-4,0.99995273,-0.07182312,0.07899475,9.770737,0
5508.087571676,0.5830933,0.812389,0.005129711,-0.8123487,0.5831156,-0.008112564,-0.009581772,5.632675E-4,0.9999539,0.617614,0.78646094,0.0056622643,-0.78642124,0.6176398,-0.007918741,-0.00972502,4.3780022E-4,0.9999526,-0.12449646,0.07899475,9.789886,0
5508.091996725,0.58308125,0.8123975,0.0051536094,-0.8123573,0.5831037,-0.0080954,-0.009581772,5.337038E-4,0.9999539,0.6169242,0.78700215,0.00566173,-0.7869623,0.61695004,-0.007942855,-0.009744049,4.4457207E-4,0.99995244,-0.08139038,-0.07421875,9.976624,0
5508.096421774,0.58307546,0.81240153,0.005165084,-0.812362,0.5830981,-0.008031438,-0.009536505,4.870168E-4,0.9999544,0.61627716,0.78750885,0.0056750635,-0.78746855,0.61630315,-0.007984181,-0.0097851725,4.5153417E-4,0.999952,0.0143585205,-0.08857727,9.742004,0
5508.100846823,0.60616726,0.79531884,0.0053963154,-0.7952794,0.606191,-0.007934646,-0.009581772,5.181439E-4,0.9999539,0.6156443,0.78800386,0.0056563006,-0.7879639,0.6156701,-0.007953218,-0.009749582,4.3939272E-4,0.9999524,-0.19631958,0.06463623,9.856918,0
5508.105271872,0.60615057,0.79533136,0.0054273894,-0.7952917,0.6061746,-0.007950073,-0.009612889,5.0258386E-4,0.9999536,0.6154634,0.7881452,0.0056571695,-0.7881052,0.6154892,-0.007960683,-0.0097561,4.410641E-4,0.9999523,-0.1819458,-0.011962891,9.765945,0
5508.10969692,0.6061541,0.7953288,0.005420936,-0.7952896,0.6061781,-0.007915871,-0.009581773,4.8702417E-4,0.999954,0.6153088,0.78826594,0.005639626,-0.78822535,0.6153345,-0.008015086,-0.009788276,4.8645656E-4,0.99995196,-0.004776001,-0.05027771,9.785095,0
5508.114121969,0.6379675,0.7700418,0.005748879,-0.7700037,0.6379932,-0.0076801376,-0.009581773,4.7302028E-4,0.999954,0.61508864,0.7884378,0.005635224,-0.78839725,0.6151143,-0.00801314,-0.0097841695,4.8599642E-4,0.999952,-0.10533142,-0.02154541,9.765945,0
5508.118547018,0.63797206,0.7700382,0.005738996,-0.7700001,0.6379977,-0.0076681236,-0.009566214,4.7302034E-4,0.9999541,0.61555123,0.78807616,0.0057037184,-0.78803563,0.6155775,-0.00801118,-0.009824501,4.3655897E-4,0.9999516,-0.05265808,-0.02154541,9.818619,0
5508.122972067,0.63796216,0.7700461,0.0057608075,-0.7700081,0.637988,-0.0076702493,-0.009581773,4.574604E-4,0.999954,0.6159702,0.78774875,0.0057065217,-0.78770816,0.6159965,-0.008013898,-0.009828135,4.412481E-4,0.9999516,-0.15800476,-0.03111267,9.943115,0
5508.127366598,0.6216244,0.7832954,0.0055981954,-0.78325677,0.62164944,-0.007789727,-0.009581773,4.574604E-4,0.999954,0.61643434,0.7873857,0.0056944536,-0.78734493,0.61646044,-0.008029952,-0.009833075,4.664387E-4,0.99995154,-0.07661438,0.011962891,9.832977,0
5508.131791647,0.6216396,0.7832836,0.005566725,-0.78324515,0.62166435,-0.007774799,-0.009550507,4.7301306E-4,0.9999543,0.61654186,0.7873016,0.0056802686,-0.7872609,0.61656785,-0.008023683,-0.00981933,4.750827E-4,0.99995166,-0.02394104,0.04548645,9.909592,0
5508.136216696,0.62163204,0.78328943,0.0055823205,-0.7832513,0.6216569,-0.007744539,-0.009536505,4.4189385E-4,0.9999544,0.6166366,0.7872274,0.005686904,-0.78718716,0.6166626,-0.007974181,-0.009784395,4.405135E-4,0.999952,-0.04788208,-0.07899475,9.9048,0
5508.140641745,0.63641256,0.7713274,0.005759475,-0.7712895,0.6364384,-0.007650011,-0.009566214,4.263407E-4,0.9999541,0.61676097,0.78713006,0.005669144,-0.7870899,0.61678684,-0.007970795,-0.009770706,4.5394892E-4,0.99995214,-0.17237854,-0.02154541,9.885651,0
5508.145066794,0.6364246,0.7713175,0.005733491,-0.7712793,0.6364503,-0.00769163,-0.009581773,4.7302028E-4,0.999954,0.6171232,0.78684634,0.0056373393,-0.7868063,0.61714876,-0.007953265,-0.009737074,4.7264976E-4,0.9999525,-0.13406372,0.09815979,9.967056,0
5508.149491842,0.6364136,0.7713266,0.005757386,-0.7712886,0.6364395,-0.0076719075,-0.009581773,4.419005E-4,0.999954,0.6174681,0.7865757,0.005634467,-0.78653556,0.6174937,-0.007963033,-0.009742776,4.8521085E-4,0.99995244,-0.11012268,-0.04548645,9.828186,0
5508.153916891,0.63077724,0.77594304,0.0057013365,-0.77590483,0.63080287,-0.0077136504,-0.009581773,4.419005E-4,0.999954,0.6178714,0.786259,0.005622028,-0.78621894,0.61789685,-0.007952343,-0.009726435,4.9338094E-4,0.99995255,-0.0909729,-0.01675415,9.785095,0
5508.15834194,0.63077134,0.7759477,0.0057133525,-0.77590954,0.630797,-0.007703878,-0.009581773,4.2634064E-4,0.999954,0.6181545,0.78603643,0.0056314413,-0.7859965,0.61818,-0.007941468,-0.009723527,4.8276092E-4,0.9999526,-0.0909729,-0.011962891,9.928741,0
5508.162766989,0.63077724,0.77594304,0.0057013365,-0.77590483,0.63080287,-0.0077136504,-0.009581773,4.419005E-4,0.999954,0.6184632,0.78579366,0.0056108055,-0.7857532,0.6184885,-0.007993327,-0.0097513255,5.3487107E-4,0.9999523,-0.07661438,0.02154541,9.780304,0
5508.167192038,0.61964244,0.78486425,0.0056151245,-0.7848258,0.61966777,-0.0077749277,-0.009581773,4.1078078E-4,0.999954,0.6187421,0.78557396,0.005632847,-0.7855338,0.61876756,-0.007965669,-0.009743046,5.0390355E-4,0.99995244,-0.11012268,-0.05505371,9.885651,0
5508.171617086,0.6196412,0.78486514,0.0056175953,-0.78482693,0.6196665,-0.007752963,-0.009566066,3.9521483E-4,0.99995416,0.618781,0.7855439,0.0055619725,-0.7855036,0.61880565,-0.007978447,-0.0097092,5.679614E-4,0.9999527,-0.03829956,-0.05984497,9.871292,0
5508.176042135,0.61962354,0.78487873,0.005652839,-0.78484076,0.61964923,-0.0077251266,-0.009566066,3.5009187E-4,0.99995416,0.6187982,0.7855305,0.0055346205,-0.7854902,0.6188227,-0.007977594,-0.009691591,5.891308E-4,0.99995285,-0.10055542,-0.11730957,9.890442,0
5508.180467184,0.59733087,0.8019764,0.0054429695,-0.8019376,0.59735554,-0.007893479,-0.009581773,3.5009725E-4,0.999954,0.6188286,0.7855067,0.005507752,-0.7854666,0.61885285,-0.0079566175,-0.009658464,5.9762783E-4,0.99995315,-0.1484375,0.03111267,10.014938,0
5508.184892233,0.5973074,0.80199355,0.0054914663,-0.8019543,0.5973325,-0.007933005,-0.00964245,3.3453718E-4,0.9999534,0.61843073,0.78581995,0.005525778,-0.7857802,0.6184551,-0.007923388,-0.0096438015,5.580195E-4,0.9999533,-0.23461914,-0.03590393,9.799454,0
5508.189286764,0.59735,0.8019625,0.005403639,-0.801924,0.5973744,-0.007866342,-0.009536506,3.6565162E-4,0.99995446,0.617993,0.786164,0.0055496367,-0.7861242,0.61801773,-0.007923069,-0.009658606,5.336975E-4,0.9999532,-0.06703186,-0.07421875,9.890442,0
5508.193711813,0.62299436,0.7822058,0.0056763273,-0.7821681,0.6230201,-0.007688568,-0.009550507,3.500919E-4,0.9999543,0.61754334,0.78651786,0.0054628295,-0.78647846,0.61756724,-0.007893205,-0.009581811,5.7799823E-4,0.9999539,-0.13406372,-0.007171631,9.789886,0
5508.198136862,0.6230134,0.7821909,0.0056337533,-0.78215325,0.6230387,-0.0076846974,-0.009520946,3.8121128E-4,0.9999546,0.61764896,0.7864351,0.005435601,-0.7863958,0.6176726,-0.007888867,-0.009561503,5.980172E-4,0.9999541,0.009567261,0.08378601,9.785095,0
5508.202561911,0.62302256,0.78218365,0.005613195,-0.78214604,0.6230477,-0.0076811877,-0.009505389,3.9521506E-4,0.99995476,0.6177359,0.7863666,0.005471292,-0.7863276,0.6177599,-0.007854397,-0.00955638,5.4971606E-4,0.99995416,-0.07661438,0.007171631,9.914383,0
5508.20698696,0.6038154,0.7971058,0.0054029184,-0.7970676,0.60383934,-0.00781243,-0.00948983,4.1077472E-4,0.9999548,0.61783016,0.7862924,0.005503235,-0.7862532,0.6178544,-0.007871974,-0.009589871,5.366069E-4,0.9999539,-0.04309082,0.07899475,9.770737,0
5508.211412008,0.6038139,0.79710704,0.005405911,-0.7970691,0.60383797,-0.0077906456,-0.009474272,3.9521517E-4,0.99995506,0.6176031,0.7864705,0.0055282274,-0.78643095,0.6176277,-0.007905223,-0.009631611,5.347215E-4,0.9999535,-0.0622406,-0.06942749,9.770737,0
5508.215837057,0.6038038,0.7971145,0.0054246034,-0.7970763,0.6038281,-0.007815516,-0.009505389,3.9521506E-4,0.99995476,0.6172827,0.78672224,0.0054917466,-0.78668255,0.6173069,-0.007923426,-0.009623628,5.7073333E-4,0.9999535,-0.1484375,0.026321411,9.809036,0
5508.220262106,0.60393435,0.7970156,0.005427648,-0.7969775,0.60395855,-0.0077937692,-0.00948983,3.812114E-4,0.9999548,0.6169874,0.78695357,0.0055277273,-0.7869144,0.617012,-0.007869727,-0.009603784,5.0567463E-4,0.99995375,-0.07661438,-0.03111267,9.8138275,0
5508.224687155,0.6039448,0.79700774,0.005407191,-0.7969698,0.60396886,-0.007789756,-0.009474272,3.9521517E-4,0.99995506,0.6167349,0.7871515,0.0055127,-0.78711236,0.6167594,-0.007872898,-0.009597174,5.163775E-4,0.9999538,-0.04309082,0.02154541,9.852127,0
5508.229112204,0.6039618,0.7969951,0.005374096,-0.7969571,0.60398555,-0.007797278,-0.0094602695,4.263345E-4,0.9999551,0.6164923,0.7873419,0.005477018,-0.7873023,0.61651635,-0.007916325,-0.009609525,5.682842E-4,0.9999536,-0.0622406,0.07421875,9.957474,0
5508.233537253,0.60149807,0.7988564,0.005328204,-0.7988183,0.6015215,-0.007810766,-0.009444711,4.4189423E-4,0.9999553,0.61624336,0.7875369,0.005447931,-0.7874977,0.6162672,-0.007879482,-0.009562763,5.6544517E-4,0.9999541,-0.07182312,0.05984497,9.780304,0
5508.237962301,0.60149354,0.7988598,0.005337519,-0.7988215,0.601517,-0.007823225,-0.0094602695,4.4189417E-4,0.9999551,0.61595845,0.7877604,0.0053643454,-0.7877209,0.61598146,-0.007910318,-0.009535773,6.468194E-4,0.9999543,-0.1197052,0.002380371,9.866501,0
5508.24238735,0.60150415,0.798852,0.0053158333,-0.7988139,0.60152745,-0.007820087,-0.009444711,4.574539E-4,0.9999553,0.6156332,0.7880146,0.005368723,-0.78797525,0.6156563,-0.00789362,-0.009525576,6.291539E-4,0.99995446,-0.01914978,-0.026321411,9.928741,0
5508.246781881,0.6015071,0.79884976,0.005309573,-0.79881203,0.60153043,-0.007785851,-0.009413595,4.418944E-4,0.99995565,0.6156332,0.7880146,0.005368723,-0.78797525,0.6156563,-0.00789362,-0.009525576,6.291539E-4,0.99995446,-0.01914978,-0.026321411,9.928741,0
5508.25120693,0.6149353,0.7885586,0.0054692393,-0.78852075,0.6149594,-0.007731713,-0.0094602695,4.4189417E-4,0.9999551,0.6151158,0.7884187,0.005329987,-0.7883791,0.6151386,-0.007933231,-0.009533389,6.778059E-4,0.99995434,-0.20588684,0.007171631,9.765945,0
5508.255631979,0.61492217,0.7885686,0.0054968596,-0.78853047,0.6149466,-0.007767382,-0.009505389,4.41894E-4,0.99995476,0.6151158,0.7884187,0.005329987,-0.7883791,0.6151386,-0.007933231,-0.009533389,6.778059E-4,0.99995434,-0.20588684,0.007171631,9.765945,0
5508.260057028,0.6320736,0.77488804,0.0056113056,-0.7748504,0.6320983,-0.0076493304,-0.009474272,4.870171E-4,0.999955,0.61514324,0.78839767,0.005274486,-0.7883578,0.6151654,-0.0079659,-0.009524979,7.419872E-4,0.99995434,-0.028717041,0.09336853,9.832977,0
5508.264482077,0.63208014,0.77488285,0.0055970903,-0.7748449,0.63210464,-0.00768101,-0.00948983,5.1813625E-4,0.99995476,0.61548465,0.7881311,0.0052936557,-0.7880912,0.615507,-0.007961191,-0.009532745,7.281074E-4,0.99995434,-0.1197052,0.09336853,9.818619,0
5508.268907126,0.6320901,0.7748749,0.0055752965,-0.7748371,0.63211447,-0.0076787197,-0.009474272,5.3369603E-4,0.999955,0.615804,0.78788173,0.0052699912,-0.7878421,0.6158261,-0.007941469,-0.009502336,7.38467E-4,0.9999546,-0.05744934,0.03111267,9.914383,0
5508.273332174,0.6320866,0.77487767,0.005582911,-0.77484035,0.632111,-0.0076142773,-0.009429153,4.870173E-4,0.9999554,0.6161113,0.78764105,0.005345366,-0.78760093,0.61613405,-0.007982194,-0.009580567,7.079049E-4,0.99995387,0.0143585205,-0.08378601,9.804245,0
5508.277757223,0.6320966,0.7748697,0.0055611166,-0.7748325,0.63212085,-0.0076119862,-0.009413594,5.0257705E-4,0.9999556,0.61640245,0.78741336,0.0053126276,-0.78737336,0.616425,-0.0079668015,-0.009548003,7.277348E-4,0.99995416,-0.0335083,0.03111267,9.68454,0
5508.282182272,0.6320946,0.77487123,0.0055653183,-0.77483445,0.63211894,-0.007570408,-0.009384034,4.7301382E-4,0.9999559,0.6166949,0.78718436,0.005309857,-0.78714484,0.6167174,-0.007921471,-0.00951034,7.055046E-4,0.9999545,-0.0335083,-0.06942749,9.66539,0
5508.286607321,0.61363494,0.7895717,0.005352238,-0.7895343,0.6136581,-0.0077054817,-0.009368475,5.025772E-4,0.99995595,0.6169879,0.78695476,0.005296845,-0.7869149,0.6170102,-0.007962213,-0.009534108,7.444229E-4,0.9999542,-0.04309082,0.06463623,9.751572,0
5508.29103237,0.61363816,0.7895693,0.005345459,-0.7895321,0.6136612,-0.007671344,-0.009337358,4.8701768E-4,0.99995625,0.6169289,0.7870009,0.0053261705,-0.78696156,0.6169515,-0.00789737,-0.009501226,6.80624E-4,0.99995464,-0.0143585205,-0.026321411,9.698898,0
5508.295457419,0.6136213,0.7895821,0.0053809253,-0.7895452,0.6136447,-0.007643767,-0.009337359,4.418947E-4,0.9999563,0.6168975,0.78702545,0.0053270534,-0.78698593,0.6169202,-0.007914755,-0.00951548,6.902761E-4,0.99995446,-0.09576416,-0.09336853,9.866501,0
5508.299882467,0.61921024,0.78520644,0.0054131937,-0.7851697,0.6192337,-0.0076027983,-0.0093218,4.5745441E-4,0.9999564,0.61682045,0.78708595,0.005321753,-0.7870463,0.616843,-0.007933135,-0.009526745,7.0485345E-4,0.9999544,-0.0335083,0.007171631,9.765945,0
5508.304276999,0.6192075,0.78520864,0.0054188585,-0.7851715,0.61923105,-0.007657773,-0.0093684755,4.870176E-4,0.999956,0.6168993,0.78702414,0.005315247,-0.7869843,0.61692184,-0.007944239,-0.0095314,7.177796E-4,0.99995434,-0.23461914,0.08857727,9.837769,0
5508.308702047,0.6192115,0.7852056,0.0054106233,-0.7851687,0.6192349,-0.007624642,-0.009337358,4.73014E-4,0.99995625,0.61695355,0.7869822,0.005227131,-0.78694236,0.6169752,-0.007959205,-0.009488763,7.9700927E-4,0.9999547,-0.004776001,-0.007171631,9.86171,0
5508.313127096,0.61570525,0.78795815,0.0053792605,-0.78792137,0.61572856,-0.0076268455,-0.0093218,4.5745441E-4,0.9999564,0.61701256,0.78693604,0.005222467,-0.7868961,0.61703414,-0.007970232,-0.009494502,8.081941E-4,0.99995464,-0.06703186,-0.04069519,9.737213,0
5508.317552145,0.6156963,0.787965,0.005398335,-0.78792804,0.6157198,-0.007651424,-0.009352917,4.5745427E-4,0.9999562,0.6170021,0.78694445,0.0051741456,-0.78690475,0.6170232,-0.007953665,-0.00945166,8.358687E-4,0.999955,-0.15322876,0.011962891,9.837769,0
5508.321977194,0.6156919,0.78796846,0.005407873,-0.78793126,0.6157155,-0.0076637142,-0.0093684755,4.574542E-4,0.999956,0.61696565,0.7869732,0.0051537855,-0.7869333,0.6169866,-0.0079726605,-0.009454086,8.6317264E-4,0.99995494,-0.1197052,-0.011962891,9.856918,0
5508.326402243,0.63000613,0.77657056,0.005514433,-0.77653384,0.6300301,-0.007570024,-0.009352917,4.8701765E-4,0.9999562,0.6169333,0.7869983,0.005191071,-0.78695846,0.61695457,-0.007957954,-0.009465551,8.2436984E-4,0.9999548,-0.05265808,0.07421875,9.847351,0
5508.330827292,0.6300147,0.7765637,0.0054949103,-0.77652717,0.63003844,-0.0075458004,-0.0093218,4.870178E-4,0.9999564,0.6172235,0.7867707,0.005194355,-0.78673077,0.6172447,-0.0079779755,-0.009483025,8.376351E-4,0.9999547,-0.03829956,0.026321411,9.818619,0
5508.33525234,0.63002,0.7765595,0.0054828785,-0.7765229,0.6300436,-0.0075555663,-0.0093218,5.0257746E-4,0.9999564,0.6174948,0.78655773,0.005204725,-0.7865179,0.61751616,-0.007960583,-0.009475459,8.220088E-4,0.99995476,-0.07661438,0.03111267,9.84256,0
5508.339677389,0.60000163,0.79998183,0.0052006054,-0.7999442,0.600024,-0.0077712643,-0.009337358,5.0257734E-4,0.99995625,0.61775476,0.78635365,0.0051935236,-0.78631395,0.617776,-0.007947057,-0.009457631,8.255917E-4,0.99995494,-0.13885498,-0.007171631,9.895233,0
5508.344102438,0.6000238,0.79996556,0.0051519596,-0.79992837,0.60004574,-0.0077319196,-0.009276681,5.1813736E-4,0.99995685,0.6174025,0.7866301,0.0052083014,-0.7865901,0.6174239,-0.007976498,-0.009490284,8.2791183E-4,0.9999546,0.05744934,0.03590393,9.8138275,0
5508.348527487,0.60003084,0.7999604,0.0051364694,-0.79992294,0.6000526,-0.0077629946,-0.00929224,5.492566E-4,0.9999567,0.6170772,0.7868853,0.0052131424,-0.7868453,0.6170986,-0.007979369,-0.009495871,8.2195015E-4,0.9999546,-0.1197052,0.09815979,9.804245,0
5508.352952536,0.6087264,0.793363,0.0052484605,-0.79332614,0.6087488,-0.0076657073,-0.009276681,5.0257763E-4,0.99995685,0.61671835,0.78716695,0.0051720813,-0.7871266,0.6167394,-0.008017074,-0.009500601,8.731938E-4,0.9999545,-0.03829956,-0.09815979,9.775513,0
5508.357377585,0.6087427,0.7933506,0.005214456,-0.79331356,0.60876477,-0.007672201,-0.009261122,5.336971E-4,0.9999569,0.61654884,0.7872999,0.005131265,-0.7872598,0.6165696,-0.007998675,-0.009461138,8.919356E-4,0.9999548,-0.0622406,0.08378601,9.847351,0
5508.361802633,0.60875136,0.793344,0.005196542,-0.79330724,0.6087733,-0.0076486934,-0.009231562,5.336972E-4,0.9999572,0.61636627,0.7874432,0.005072533,-0.78740287,0.6163864,-0.008026893,-0.009447363,9.533793E-4,0.9999549,-0.02394104,-0.007171631,9.809036,0
5508.366197165,0.5831128,0.8123758,0.005013926,-0.8123383,0.5831341,-0.007820137,-0.009276681,4.8701797E-4,0.99995685,0.616225,0.7875537,0.005079889,-0.7875136,0.61624527,-0.008004355,-0.009434318,9.3200215E-4,0.99995506,-0.18673706,-0.11251831,9.698898,0
5508.370622213,0.58312106,0.81236994,0.004997798,-0.8123322,0.5831423,-0.007850873,-0.00929224,5.181373E-4,0.9999567,0.61555743,0.7880758,0.0050589284,-0.78803563,0.61557746,-0.008015754,-0.009431183,9.475411E-4,0.99995506,-0.14364624,0.06463623,9.919174,0
5508.375047262,0.5831164,0.8123732,0.0050068265,-0.8123353,0.5831377,-0.00786354,-0.009307798,5.181372E-4,0.99995655,0.6149183,0.7885747,0.005042592,-0.78853416,0.6149382,-0.008057323,-0.009454683,9.783393E-4,0.9999548,-0.12449646,0.01675415,9.876068,0
5508.379472311,0.61087847,0.7917066,0.005306329,-0.7916693,0.6109013,-0.007699462,-0.009337358,5.0257734E-4,0.99995625,0.61426425,0.7890843,0.005048573,-0.78904325,0.61428416,-0.008110376,-0.009501029,9.983721E-4,0.9999544,-0.17237854,-0.02154541,9.837769,0
5508.38389736,0.610865,0.79171675,0.0053347144,-0.79167914,0.6108881,-0.007736504,-0.009384034,5.0257717E-4,0.9999559,0.61419296,0.78913975,0.0050468408,-0.78909826,0.6142128,-0.008157459,-0.00953721,0.0010278007,0.999954,-0.22505188,-0.02154541,9.818619,0
5508.388322409,0.61086816,0.79171443,0.0053281663,-0.7916764,0.61089116,-0.007778897,-0.009413594,5.336963E-4,0.9999556,0.6141576,0.78916734,0.0050337515,-0.7891257,0.61417735,-0.00817478,-0.009542886,0.0010483414,0.9999539,-0.15800476,-0.04069519,9.742004,0
5508.392747458,0.61085343,0.7917257,0.0053593516,-0.7916875,0.61087674,-0.0077941255,-0.009444711,5.1813654E-4,0.9999553,0.6141576,0.78916734,0.0050337515,-0.7891257,0.61417735,-0.00817478,-0.009542886,0.0010483414,0.9999539,-0.15800476,-0.04069519,9.742004,0
5508.397172506,0.61762655,0.7864526,0.005435668,-0.78641444,0.6176502,-0.007760068,-0.009460269,5.181364E-4,0.99995506,0.61407155,0.7892344,0.005025975,-0.78919315,0.61409116,-0.008134633,-0.009506539,0.001028781,0.9999543,-0.15322876,0.002380371,9.928741,0
5508.401597555,0.6176154,0.7864613,0.005460033,-0.7864233,0.61763936,-0.007740925,-0.0094602695,4.8701715E-4,0.9999551,0.6141699,0.78915745,0.0050769104,-0.78911656,0.61419016,-0.008093937,-0.009505579,9.64779E-4,0.99995434,-0.0909729,-0.06942749,9.866501,0
5508.406022604,0.6222454,0.78280276,0.005514331,-0.78276485,0.62226963,-0.0077195303,-0.009474272,4.870171E-4,0.999955,0.61422527,0.78911453,0.0050635096,-0.7890737,0.61424536,-0.008081152,-0.009487191,9.6816546E-4,0.9999545,-0.1197052,-0.01675415,9.799454,0
5508.410447653,0.6222543,0.78279597,0.0054960228,-0.7827583,0.6222784,-0.00769633,-0.009444711,4.8701724E-4,0.9999553,0.6144018,0.788977,0.0050639915,-0.7889362,0.61442196,-0.008086958,-0.009491852,9.7347633E-4,0.99995446,-0.01914978,0.002380371,9.785095,0
5508.414872702,0.6222695,0.78278404,0.0054646265,-0.78274655,0.6222933,-0.00768155,-0.009413594,5.0257705E-4,0.9999556,0.61455613,0.7888568,0.0050708093,-0.7888161,0.6145763,-0.008069647,-0.009482195,9.593153E-4,0.9999546,-0.0143585205,0.06463623,9.761154,0
5508.419297751,0.6085584,0.7934911,0.005339638,-0.79345304,0.60858166,-0.0077877967,-0.009429153,5.0257694E-4,0.9999554,0.61471087,0.7887364,0.005044262,-0.78869534,0.61473066,-0.008113885,-0.00950058,0.0010093072,0.99995434,-0.13406372,-0.01675415,9.742004,0
5508.423692282,0.60851854,0.79352117,0.0054186867,-0.7934832,0.6085425,-0.0077663567,-0.0094602695,4.263345E-4,0.9999551,0.61457086,0.78884536,0.0050631557,-0.7888043,0.61459094,-0.008102721,-0.009503563,9.858568E-4,0.99995434,-0.1484375,-0.17477417,9.789886,0
5508.428117331,0.6085343,0.7935093,0.0053875553,-0.7934715,0.60855794,-0.0077510285,-0.009429153,4.4189428E-4,0.9999554,0.6144365,0.7889499,0.0050816773,-0.7889094,0.61445683,-0.0080536995,-0.009476437,9.3950407E-4,0.9999547,-0.0143585205,0.05027771,9.909592,0
5508.432542379,0.6148661,0.7886128,0.0054398575,-0.7885754,0.61489004,-0.0076953876,-0.009413595,4.418944E-4,0.99995565,0.61424893,0.7890961,0.0050536906,-0.7890555,0.61426896,-0.008067943,-0.009470708,9.68083E-4,0.9999547,-0.0909729,-0.007171631,9.967056,0
5508.436967428,0.61486137,0.78861636,0.0054493793,-0.7885788,0.61488533,-0.007707688,-0.009429153,4.4189428E-4,0.9999554,0.61430275,0.7890541,0.005069104,-0.7890136,0.614323,-0.008049029,-0.009465187,9.44949E-4,0.99995476,-0.1197052,0.011962891,9.832977,0
5508.441392477,0.61487335,0.7886072,0.0054249545,-0.78856945,0.6148971,-0.0077267415,-0.009429153,4.730136E-4,0.9999554,0.61430657,0.7890516,0.005010633,-0.78901124,0.6143262,-0.008037501,-0.009420166,9.84044E-4,0.9999552,-0.07661438,0.06942749,9.856918,0
5508.445817526,0.6102429,0.79219604,0.0053919205,-0.79215825,0.61026657,-0.0077488953,-0.009429153,4.5745395E-4,0.9999554,0.6143213,0.78904015,0.004996702,-0.7889996,0.6143407,-0.00805972,-0.00942912,0.0010088611,0.999955,-0.11491394,-0.011962891,9.866501,0
5508.450242575,0.61024714,0.79219276,0.0053824666,-0.79215515,0.6102707,-0.0077365413,-0.009413594,4.57454E-4,0.9999556,0.6142205,0.7891189,0.0049596843,-0.78907824,0.6142396,-0.008075974,-0.009419339,0.0010468495,0.9999551,-0.04788208,-0.007171631,9.852127,0
5508.454667624,0.6102331,0.79220337,0.005413647,-0.7921656,0.61025697,-0.00775179,-0.009444711,4.4189423E-4,0.9999553,0.6141481,0.78917533,0.004947366,-0.7891346,0.6141671,-0.0080852825,-0.009419215,0.0010614229,0.9999551,-0.16758728,-0.03111267,9.751572,0
5508.459092672,0.6101452,0.79227096,0.0054251147,-0.7922332,0.6101692,-0.0077428957,-0.009444711,4.2633456E-4,0.9999553,0.6140629,0.7892417,0.0049340096,-0.78920054,0.61408174,-0.008135047,-0.009450403,0.0011015071,0.99995476,-0.11012268,-0.04548645,9.856918,0
5508.463517721,0.6101523,0.7922657,0.0054100226,-0.7922276,0.61017615,-0.0077741635,-0.0094602695,4.574538E-4,0.9999551,0.6139963,0.7892935,0.0049239374,-0.78925204,0.614015,-0.008173797,-0.009474896,0.0011324536,0.99995446,-0.11012268,0.06942749,9.809036,0
5508.46794277,0.6101763,0.7922475,0.005358352,-0.7922097,0.61019963,-0.007755063,-0.009413594,4.8701736E-4,0.9999556,0.6139023,0.7893664,0.004964662,-0.78932524,0.6139214,-0.008141614,-0.009474629,0.0010794225,0.9999545,0.004776001,0.09336853,9.895233,0
5508.472367819,0.61488694,0.78859687,0.0053973407,-0.7885595,0.6149105,-0.00769107,-0.009384034,4.7301382E-4,0.9999559,0.6138474,0.7894093,0.00493453,-0.7893679,0.61386627,-0.008157201,-0.009468512,0.0011121173,0.9999546,-0.004776001,-0.02154541,9.976624,0
5508.476792868,0.61489415,0.7885914,0.005382707,-0.7885537,0.6149175,-0.0077202413,-0.009398036,5.0257705E-4,0.99995565,0.61387867,0.7893848,0.004953751,-0.78934383,0.61389774,-0.008117982,-0.009449309,0.001073244,0.99995476,-0.1197052,0.06463623,9.775513,0
5508.481217917,0.6148827,0.7886001,0.0054059103,-0.7885626,0.61490625,-0.00770214,-0.009398037,4.7301373E-4,0.9999557,0.613868,0.78939366,0.0048746653,-0.7893523,0.61388624,-0.0081658,-0.00943852,0.0011648951,0.9999548,-0.10533142,-0.07899475,9.84256,0
5508.485612448,0.6148809,0.78860146,0.005409553,-0.78856415,0.6149046,-0.007681543,-0.009384034,4.5745415E-4,0.9999559,0.61394364,0.7893351,0.0048338403,-0.7892937,0.6139615,-0.008168834,-0.009415739,0.0011998843,0.99995494,-0.06703186,-0.03590393,9.799454,0
5508.490037497,0.61488694,0.78859687,0.0053973407,-0.7885595,0.6149105,-0.00769107,-0.009384034,4.7301382E-4,0.9999559,0.6139705,0.7893143,0.004809106,-0.78927356,0.6139882,-0.008112487,-0.009356037,0.0011851283,0.99995553,-0.06703186,0.04548645,9.775513,0
5508.494462545,0.6148749,0.788606,0.0054217656,-0.7885688,0.6148987,-0.007672015,-0.009384034,4.418945E-4,0.9999559,0.6140027,0.78928894,0.004858849,-0.7892485,0.6140209,-0.008074533,-0.009356574,0.0011229463,0.9999556,-0.16279602,-0.07421875,9.852127,0
5508.498887594,0.6148587,0.7886183,0.0054547605,-0.78858113,0.6148827,-0.0076640327,-0.009398037,4.107751E-4,0.9999557,0.6140027,0.78928894,0.004858849,-0.7892485,0.6140209,-0.008074533,-0.009356574,0.0011229463,0.9999556,-0.16279602,-0.07421875,9.852127,0
5508.503312643,0.62590384,0.77988046,0.0055533927,-0.7798438,0.62592834,-0.0075755306,-0.009384034,4.1077516E-4,0.9999559,0.61403936,0.78926075,0.004812032,-0.7892207,0.6140571,-0.008036843,-0.009298027,0.0011371827,0.99995613,-0.0335083,-0.01675415,9.885651,0
5508.507737692,0.62591445,0.7798722,0.0055316207,-0.77983546,0.6259387,-0.0075730626,-0.0093684755,4.2633488E-4,0.999956,0.6142469,0.7890991,0.00482968,-0.78905904,0.61426485,-0.0080312835,-0.009304181,0.0011222883,0.9999561,-0.0622406,0.05027771,10.043671,0
5508.512162741,0.63944685,0.76881444,0.0056750826,-0.7687783,0.6394719,-0.007465288,-0.0093684755,4.1077522E-4,0.999956,0.6144388,0.78894943,0.0048731794,-0.7889095,0.61445713,-0.008011977,-0.009315405,0.001078372,0.999956,-0.08618164,-0.01675415,9.895233,0
5508.51658779,0.6394665,0.7687983,0.005631447,-0.7687622,0.63949114,-0.0074611227,-0.009337359,4.418947E-4,0.9999563,0.61491066,0.7885818,0.0048630834,-0.78854156,0.6149289,-0.008038781,-0.009329687,0.0011083886,0.9999559,-0.0335083,0.05505371,9.84256,0
5508.521012838,0.63944584,0.7688151,0.0056770854,-0.76877916,0.63947093,-0.007443383,-0.009352917,3.952156E-4,0.9999562,0.6154157,0.7881876,0.0048782616,-0.78814775,0.61543405,-0.008003038,-0.009310144,0.0010804045,0.9999561,-0.12927246,-0.10293579,9.74678,0
5508.525437887,0.60453665,0.7965593,0.0053695715,-0.79652214,0.6045604,-0.007705396,-0.009384034,3.8121178E-4,0.9999559,0.6159332,0.787783,0.0049167247,-0.78774345,0.6159519,-0.007963833,-0.00930224,0.0010320715,0.9999562,-0.16279602,-0.026321411,9.832977,0
5508.529862936,0.60452336,0.7965691,0.0053967224,-0.7965315,0.6045473,-0.0077414233,-0.009429153,3.8121163E-4,0.9999554,0.6157135,0.7879549,0.0048915134,-0.7879154,0.615732,-0.007957457,-0.009281979,0.0010454146,0.99995637,-0.20111084,0.01675415,9.823395,0
5508.534287985,0.6045257,0.7965674,0.005392008,-0.7965294,0.6045496,-0.0077840663,-0.0094602695,4.1077484E-4,0.9999551,0.6154679,0.7881468,0.004887906,-0.78810817,0.61548656,-0.007863637,-0.00920614,9.876182E-4,0.99995714,-0.16758728,0.07421875,9.689331,0
5508.538713034,0.63845474,0.76963836,0.005694258,-0.7696019,0.63848,-0.0075073256,-0.009413595,4.1077507E-4,0.99995565,0.61528134,0.78829265,0.0048580803,-0.7882539,0.61529964,-0.007881959,-0.009202465,0.0010202212,0.99995714,0.0,0.007171631,9.856918,0
5508.543107565,0.63844013,0.76965016,0.005725961,-0.76961356,0.6384657,-0.0075214454,-0.009444712,3.952153E-4,0.99995536,0.61576545,0.78791434,0.004895828,-0.7878751,0.615784,-0.007933542,-0.009265725,0.0010279001,0.99995655,-0.17237854,-0.05505371,9.775513,0
5508.547532614,0.63844246,0.7696483,0.0057209074,-0.76961124,0.6384679,-0.007564048,-0.009474272,4.2633445E-4,0.999955,0.61623114,0.7875502,0.0048814313,-0.7875112,0.6162496,-0.007900104,-0.009229909,0.001024108,0.99995685,-0.16758728,0.09336853,9.832977,0
5508.551957663,0.6314939,0.7753602,0.0056624627,-0.77532274,0.63151914,-0.007627264,-0.00948983,4.263344E-4,0.9999548,0.61662614,0.78724074,0.0049263565,-0.787202,0.61664504,-0.007865679,-0.009229996,9.721456E-4,0.9999569,-0.13885498,0.007171631,9.986206,0
5508.556382711,0.63149947,0.77535576,0.0056504523,-0.7753182,0.63152456,-0.00763705,-0.00948983,4.4189402E-4,0.9999548,0.6169225,0.78700876,0.0048872945,-0.7869703,0.6169411,-0.007842173,-0.009187031,9.918578E-4,0.9999573,-0.10533142,0.02154541,9.809036,0
5508.56080776,0.63148373,0.7753683,0.0056842538,-0.77533084,0.6315092,-0.0076295747,-0.009505389,4.107747E-4,0.99995476,0.6172368,0.7867623,0.004872844,-0.78672355,0.61725515,-0.007878416,-0.00920623,0.0010292671,0.9999571,-0.11012268,-0.06942749,9.847351,0
5508.565232809,0.63838947,0.76969206,0.0057443394,-0.7696552,0.6384152,-0.0075445734,-0.009474272,3.9521517E-4,0.99995506,0.61753553,0.78652793,0.004871488,-0.78648925,0.61755383,-0.007875098,-0.009202391,0.0010317799,0.99995714,-0.03829956,-0.011962891,9.866501,0
5508.569657858,0.63839364,0.76968867,0.00573544,-0.76965183,0.6384192,-0.007533765,-0.0094602695,3.952152E-4,0.9999551,0.61794674,0.7862048,0.0048890794,-0.78616613,0.61796516,-0.0078688925,-0.009207842,0.001018928,0.9999571,-0.02394104,-0.01675415,9.809036,0
5508.574082907,0.63839364,0.76968867,0.00573544,-0.76965183,0.6384192,-0.007533765,-0.0094602695,3.952152E-4,0.9999551,0.6183716,0.7858706,0.0048862044,-0.78583205,0.61839,-0.007853213,-0.00919319,0.001016468,0.9999572,-0.11491394,0.026321411,9.794678,0
5508.578507956,0.5890701,0.8080649,0.005249313,-0.8080264,0.58909327,-0.007897802,-0.009474272,4.1077478E-4,0.999955,0.6187831,0.7855468,0.0048683938,-0.7855082,0.61880136,-0.007852437,-0.009181026,0.0010347924,0.9999573,-0.12927246,0.03590393,9.775513,0
5508.582933004,0.5890804,0.8080575,0.0052285907,-0.80801904,0.5891034,-0.007895587,-0.0094602695,4.263345E-4,0.9999551,0.6181854,0.7860174,0.004834,-0.7859784,0.6182034,-0.007911106,-0.009206662,0.0010911105,0.999957,-0.05744934,0.03590393,9.871292,0
5508.587358053,0.589085,0.80805427,0.0052194693,-0.80801594,0.58910793,-0.007882986,-0.009444711,4.2633456E-4,0.9999553,0.6175872,0.78648764,0.004807382,-0.7864484,0.6176049,-0.00793745,-0.009211769,0.0011213099,0.9999569,-0.05265808,0.011962891,9.885651,0
5508.591783102,0.595205,0.80355656,0.0052759494,-0.8035182,0.5952282,-0.007864879,-0.0094602695,4.4189417E-4,0.9999551,0.61701715,0.78693503,0.004808628,-0.7868958,0.6170349,-0.00793519,-0.00921157,0.0011122592,0.99995697,-0.11491394,0.03590393,9.761154,0
5508.596208151,0.59520924,0.80355346,0.005266729,-0.8035152,0.5952324,-0.007852349,-0.009444711,4.4189423E-4,0.9999553,0.6165855,0.7872732,0.0048221424,-0.78723407,0.6166034,-0.007924654,-0.009212216,0.0010900716,0.99995697,-0.08139038,-0.002380371,9.775513,0
5508.6006332,0.59521073,0.8035524,0.0052635022,-0.80351394,0.5952338,-0.007874103,-0.0094602695,4.574538E-4,0.9999551,0.61616194,0.7876044,0.004882447,-0.7875648,0.61618036,-0.007960434,-0.009278141,0.0010596727,0.9999564,-0.13406372,0.03590393,9.837769,0
5508.605027505,0.6325031,0.77453756,0.005606688,-0.7745001,0.63252777,-0.007635374,-0.0094602695,4.8701715E-4,0.9999551,0.61572385,0.78794706,0.004857613,-0.7879076,0.615742,-0.007965044,-0.009267069,0.0010769176,0.9999565,-0.08139038,0.07899475,9.86171,0
5508.609452554,0.6325078,0.77453375,0.0055968924,-0.7744964,0.6325324,-0.0076232897,-0.009444711,4.8701724E-4,0.9999553,0.61606574,0.78768003,0.004815909,-0.7876406,0.61608356,-0.0079643,-0.009240323,0.0011133271,0.9999567,-0.05744934,0.002380371,9.612717,0
5508.613877603,0.6325078,0.77453375,0.0055968924,-0.7744964,0.6325324,-0.0076232897,-0.009444711,4.8701724E-4,0.9999553,0.6164012,0.7874174,0.0048264433,-0.7873781,0.61641914,-0.0079431115,-0.009229657,0.0010959075,0.9999568,-0.06703186,0.011962891,9.933533,0
5508.618302652,0.6428075,0.76600647,0.005722891,-0.7659698,0.64283276,-0.007506845,-0.009429153,4.4189428E-4,0.9999554,0.6166879,0.787193,0.0048180525,-0.7871531,0.61670566,-0.008005839,-0.00927346,0.001144559,0.99995637,-0.0909729,-0.09815979,9.789886,0
5508.6227277,0.64282656,0.7659907,0.0056821513,-0.76595426,0.64285153,-0.0074821464,-0.009384034,4.5745415E-4,0.9999559,0.61720985,0.7867839,0.004810974,-0.7867448,0.6172276,-0.007916159,-0.0091977725,0.0011009225,0.9999571,0.05744934,0.05027771,9.876068,0
5508.627152749,0.6428201,0.765996,0.0056959237,-0.76595986,0.6428452,-0.007450271,-0.0093684755,4.2633488E-4,0.999956,0.6177152,0.78638726,0.0048005963,-0.7863482,0.6177329,-0.007907723,-0.009184019,0.0011097806,0.9999572,-0.05744934,-0.07899475,9.880859,0
5508.631577798,0.6022745,0.7982716,0.0052898745,-0.79823416,0.60229754,-0.0077447295,-0.0093684755,4.4189455E-4,0.999956,0.6182374,0.7859767,0.004823206,-0.78593737,0.6182552,-0.0079401545,-0.009222748,0.0011181617,0.99995685,-0.08618164,0.026321411,9.86171,0
5508.636002847,0.6022699,0.79827493,0.005299202,-0.7982374,0.602293,-0.007757179,-0.009384034,4.418945E-4,0.9999559,0.617874,0.78626245,0.0048006536,-0.78622293,0.6178916,-0.007967296,-0.00923067,0.0011484013,0.9999567,-0.16758728,0.01675415,9.832977,0
5508.640427896,0.6022699,0.79827493,0.005299202,-0.7982374,0.602293,-0.007757179,-0.009384034,4.418945E-4,0.9999559,0.61754036,0.7865246,0.0047916216,-0.7864854,0.6175579,-0.0079388,-0.009203166,0.0011339892,0.99995697,-0.07182312,-0.011962891,9.967056,0
5508.644852944,0.6379145,0.77008694,0.005592419,-0.77005064,0.6379388,-0.00749232,-0.009337358,4.73014E-4,0.99995625,0.6172139,0.7867807,0.0048034037,-0.78674155,0.6172316,-0.007921136,-0.00919701,0.0011099974,0.9999571,0.02394104,0.09336853,9.670166,0
5508.649277993,0.6379192,0.7700831,0.005582538,-0.77004695,0.63794345,-0.007480306,-0.0093218,4.7301408E-4,0.9999564,0.61761826,0.7864632,0.0048196143,-0.78642374,0.617636,-0.007962887,-0.009239285,0.0011277652,0.99995667,-0.04309082,-0.002380371,9.856918,0
5508.653703042,0.6379233,0.7700797,0.005573645,-0.7700436,0.63794744,-0.0074694925,-0.009307798,4.7301414E-4,0.99995655,0.6180439,0.7861284,0.0048876163,-0.7860892,0.6180623,-0.007924839,-0.009250793,0.0010557966,0.99995667,-0.0622406,0.002380371,9.756363,0
5508.658128091,0.60604715,0.79541135,0.0052717305,-0.795374,0.60606986,-0.007722196,-0.009337358,4.8701768E-4,0.99995625,0.61847985,0.7857853,0.004912553,-0.7857463,0.61849844,-0.007901844,-0.009247559,0.0010271105,0.9999567,-0.16279602,0.06463623,9.593552,0
5508.662522622,0.60605913,0.7954023,0.0052470933,-0.79536474,0.6060816,-0.0077409777,-0.009337358,5.18137E-4,0.99995625,0.61825967,0.78595835,0.0049428483,-0.7859194,0.6182787,-0.007879886,-0.009249319,9.87135E-4,0.9999567,-0.11012268,0.07899475,9.919174,0
5508.666947671,0.60606056,0.7954013,0.005244161,-0.7953636,0.6060831,-0.0077627744,-0.009352917,5.336967E-4,0.9999562,0.6180276,0.7861411,0.004904387,-0.78610224,0.6180462,-0.007884134,-0.0092291795,0.0010172632,0.99995685,-0.11491394,0.05027771,9.957474,0
5508.67137272,0.62111485,0.7837008,0.005422738,-0.78366345,0.62113833,-0.0076760976,-0.009384034,5.1813683E-4,0.9999559,0.61776894,0.78634435,0.0049042297,-0.7863055,0.61778754,-0.007887013,-0.009231681,0.0010161296,0.99995685,-0.1819458,-0.04069519,9.847351,0
5508.675797769,0.62112063,0.78369635,0.0054106,-0.7836589,0.621144,-0.0076857232,-0.009384034,5.336965E-4,0.9999559,0.61783594,0.78629166,0.004929263,-0.7862528,0.6178548,-0.00787761,-0.009239667,9.914234E-4,0.99995685,-0.08618164,0.01675415,9.976624,0
5508.680222818,0.6211264,0.78369176,0.005398462,-0.7836542,0.62114966,-0.0076953475,-0.009384034,5.4925616E-4,0.9999559,0.6178913,0.7862478,0.0049683945,-0.78620905,0.61791056,-0.0078618,-0.009251346,9.5154165E-4,0.9999567,-0.1197052,0.05984497,9.804245,0
5508.684647866,0.5833013,0.81224036,0.0050246073,-0.81220156,0.58332264,-0.0079620145,-0.009398036,5.6325976E-4,0.99995565,0.6179404,0.786209,0.0050074426,-0.7861699,0.61796004,-0.007897224,-0.009303268,9.433133E-4,0.9999563,-0.13406372,0.026321411,9.837769,0
5508.689072915,0.58329594,0.8122441,0.0050359294,-0.8122054,0.5833174,-0.0079538785,-0.009398036,5.4925604E-4,0.99995565,0.61726224,0.7867415,0.005010457,-0.7867024,0.6172819,-0.007901814,-0.00930955,9.3575305E-4,0.99995625,-0.0622406,0.002380371,9.722839,0
5508.693497964,0.58328575,0.81225127,0.005057545,-0.8122125,0.58330745,-0.007957501,-0.009413594,5.336963E-4,0.9999556,0.61658174,0.7872751,0.0050021987,-0.78723496,0.6166012,-0.00800336,-0.009385207,9.968193E-4,0.9999555,-0.14364624,-0.06942749,9.761154,0
5508.697923013,0.5832696,0.8122626,0.0050917407,-0.8122238,0.5832916,-0.007952086,-0.009429153,5.0257694E-4,0.9999554,0.61591595,0.7877965,0.0049210237,-0.78775644,0.61593467,-0.008010927,-0.00934201,0.0010574892,0.99995583,-0.1484375,-0.04069519,9.914383,0
5508.702348062,0.5832739,0.8122596,0.005082707,-0.812221,0.5832958,-0.0079394225,-0.009413594,5.0257705E-4,0.9999556,0.6152557,0.7883125,0.0048851916,-0.78827244,0.61527413,-0.008023388,-0.0093306685,0.0010855731,0.9999559,-0.04788208,-0.011962891,9.9526825,0
5508.70677311,0.5832739,0.8122596,0.005082707,-0.812221,0.5832958,-0.0079394225,-0.009413594,5.0257705E-4,0.9999556,0.61466825,0.7887705,0.0049152947,-0.7887305,0.61468697,-0.008007197,-0.009337208,0.0010449262,0.9999559,-0.10533142,0.007171631,9.876068,0
5508.711198159,0.6389821,0.7692011,0.0056188437,-0.7691642,0.6390066,-0.007550117,-0.009398036,5.0257705E-4,0.99995565,0.6140632,0.78924125,0.0049680336,-0.78920144,0.6140825,-0.007983752,-0.009351889,9.81749E-4,0.9999558,-0.02394104,0.01675415,9.751572,0
5508.715623208,0.63897943,0.7692032,0.005624707,-0.7691658,0.639004,-0.0076059224,-0.009444711,5.336962E-4,0.9999553,0.61459875,0.788824,0.005003332,-0.7887841,0.61461836,-0.007995696,-0.009382336,9.67596E-4,0.99995553,-0.20588684,0.05027771,9.804245,0
5508.720017739,0.63898396,0.76919955,0.0056148083,-0.7691623,0.6390084,-0.0075939237,-0.009429153,5.3369626E-4,0.9999554,0.61508214,0.7884472,0.0049963198,-0.78840744,0.6151017,-0.007970189,-0.009357317,9.631854E-4,0.9999557,-0.06703186,0.002380371,9.832977,0
5508.724442788,0.6531953,0.75716734,0.0057873465,-0.7571303,0.6532207,-0.007501451,-0.009460269,5.181364E-4,0.99995506,0.6155778,0.7880605,0.0049660727,-0.788021,0.61559707,-0.007940166,-0.00931443,9.7441924E-4,0.99995613,-0.1771698,-0.02154541,9.708481,0
5508.728867837,0.65320075,0.75716275,0.005775619,-0.7571256,0.653226,-0.007511574,-0.009460269,5.336961E-4,0.99995506,0.6163481,0.787458,0.0049997335,-0.7874185,0.6163676,-0.007946528,-0.00933923,9.609443E-4,0.9999559,-0.10533142,0.03111267,9.804245,0
5508.733292886,0.6532019,0.7571617,0.005772996,-0.7571244,0.6532272,-0.00753233,-0.009474272,5.492557E-4,0.999955,0.6170991,0.7868694,0.0050170613,-0.78683007,0.61711884,-0.007926106,-0.009332934,9.436189E-4,0.999956,-0.10533142,0.05027771,9.895233,0
5508.737717935,0.64879256,0.7609436,0.0057437373,-0.7609064,0.6488178,-0.007534894,-0.009460269,5.181364E-4,0.99995506,0.61785775,0.7862738,0.0050382586,-0.7862341,0.61787754,-0.007958052,-0.009370234,9.556935E-4,0.9999556,-0.08139038,-0.06942749,9.9048,0
5508.742142984,0.6487757,0.76095784,0.005782942,-0.7609203,0.6488013,-0.007581193,-0.009520946,5.1813613E-4,0.9999546,0.61849666,0.7857712,0.0050587766,-0.7857315,0.6185166,-0.007950757,-0.009376413,9.426756E-4,0.9999556,-0.23461914,0.007171631,9.84256,0
5508.746568032,0.6487807,0.7609535,0.0057711513,-0.7609158,0.6488062,-0.0075912485,-0.009520946,5.336958E-4,0.9999546,0.61910784,0.7852897,0.0050449916,-0.78525007,0.6191277,-0.007947472,-0.009364562,9.5876283E-4,0.99995565,-0.07661438,-0.011962891,9.794678,0
5508.750993081,0.64878505,0.7609499,0.005761099,-0.76091236,0.64881045,-0.0075793783,-0.009505388,5.3369586E-4,0.9999547,0.61910784,0.7852897,0.0050449916,-0.78525007,0.6191277,-0.007947472,-0.009364562,9.5876283E-4,0.99995565,-0.07661438,-0.011962891,9.794678,0
5508.75541813,0.6491291,0.76065654,0.0057526897,-0.7606189,0.64915437,-0.0075868736,-0.009505388,5.492555E-4,0.9999547,0.62023973,0.7843958,0.0050822413,-0.78435665,0.62025994,-0.007887146,-0.009338955,9.056319E-4,0.99995595,-0.08139038,0.05505371,9.761154,0
5508.759843179,0.6491291,0.76065654,0.0057526897,-0.7606189,0.64915437,-0.0075868736,-0.009505388,5.492555E-4,0.9999547,0.62082636,0.78393185,0.0050561903,-0.7838928,0.6208463,-0.007873851,-0.009311679,9.2478294E-4,0.99995625,-0.0909729,0.007171631,9.794678,0
5508.764268228,0.5918593,0.80602455,0.005192583,-0.8059851,0.5918818,-0.0079991985,-0.009520946,5.4925546E-4,0.9999546,0.62139297,0.78348273,0.0050694514,-0.7834436,0.621413,-0.00787545,-0.009320501,9.2212006E-4,0.99995613,-0.15322876,-0.01675415,10.029297,0
5508.768693277,0.591869,0.8060176,0.0051721814,-0.8059781,0.59189135,-0.007994886,-0.009505388,5.6325924E-4,0.9999547,0.62076277,0.7839825,0.0050050225,-0.78394365,0.6207822,-0.0078637535,-0.009272073,9.578699E-4,0.99995655,-0.0622406,0.05505371,9.780304,0
5508.773118325,0.5918868,0.80600476,0.005134733,-0.805965,0.59190875,-0.0080224015,-0.009505386,6.0993806E-4,0.9999546,0.6202066,0.78442264,0.0049946643,-0.7843837,0.62022597,-0.007877007,-0.009276723,9.676387E-4,0.9999565,-0.07661438,0.11251831,9.775513,0
5508.777543374,0.6210678,0.78373796,0.0054353685,-0.7836989,0.6210913,-0.00784074,-0.009520946,6.09938E-4,0.99995446,0.61964405,0.78486705,0.0049938182,-0.78482836,0.6196635,-0.007851253,-0.009256676,9.4569253E-4,0.99995667,-0.1197052,0.03111267,9.789886,0
5508.781937905,0.6210666,0.7837389,0.0054378873,-0.78370017,0.6210901,-0.007818892,-0.009505388,5.943785E-4,0.9999547,0.6196963,0.78482556,0.005022171,-0.7847864,0.6197159,-0.007896935,-0.009310036,9.5237006E-4,0.9999562,-0.06703186,-0.04548645,9.933533,0
5508.786362954,0.62107,0.7837363,0.0054307897,-0.78369784,0.6210935,-0.007784818,-0.009474272,5.78819E-4,0.999955,0.6197432,0.78478867,0.0050135963,-0.7847496,0.6197627,-0.007889938,-0.009299173,9.5531734E-4,0.9999563,-0.0143585205,-0.02154541,9.708481,0
5508.790788003,0.62112814,0.78369045,0.0053947833,-0.78365177,0.6211513,-0.007813411,-0.009474272,6.2549795E-4,0.999955,0.6197559,0.7847788,0.0050011524,-0.7847393,0.6197753,-0.007932158,-0.0093245795,9.91401E-4,0.9999561,-0.0909729,0.11730957,9.809036,0
5508.795213052,0.62113583,0.78368455,0.005378825,-0.78364533,0.6211588,-0.007865771,-0.009505386,6.7062065E-4,0.9999546,0.619799,0.78474456,0.0050147083,-0.7847056,0.61981857,-0.007881434,-0.009293121,9.498352E-4,0.99995637,-0.18673706,0.10772705,9.727631,0
5508.799638101,0.6211208,0.78369623,0.0054101995,-0.7836569,0.62114406,-0.007880593,-0.009536503,6.5506087E-4,0.9999543,0.6198052,0.7847399,0.0049816337,-0.78470093,0.61982447,-0.007879521,-0.009271112,9.7467564E-4,0.99995655,-0.1771698,-0.026321411,9.828186,0
5508.80406315,0.63416415,0.7731786,0.005541483,-0.7731396,0.63418806,-0.0077888356,-0.009536503,6.5506087E-4,0.9999543,0.6198281,0.784722,0.004947725,-0.7846829,0.619847,-0.007896407,-0.009263317,0.0010120195,0.99995655,-0.10055542,0.002380371,9.765945,0
5508.808488198,0.63416684,0.77317643,0.005536283,-0.77313703,0.6341906,-0.00783153,-0.009566213,6.861906E-4,0.999954,0.6201477,0.78446937,0.0049718735,-0.7844301,0.62016684,-0.007909942,-0.009288498,0.001005246,0.99995637,-0.13885498,0.10293579,9.885651,0
5508.812913247,0.63415676,0.7731845,0.005555917,-0.77314484,0.6341807,-0.007855658,-0.009597329,6.861904E-4,0.9999537,0.6204266,0.78424877,0.004968729,-0.7842094,0.6204456,-0.007925574,-0.0092984475,0.0010207124,0.99995625,-0.1819458,0.002380371,9.770737,0
5508.817338296,0.6164279,0.78739315,0.0053527295,-0.78735286,0.6164507,-0.007998083,-0.009597329,7.1575417E-4,0.9999537,0.62073016,0.7840083,0.005007476,-0.7839691,0.6207496,-0.007902979,-0.009304389,9.799111E-4,0.99995625,-0.1197052,0.05984497,9.847351,0
5508.821763345,0.6164279,0.78739315,0.0053527295,-0.78735286,0.6164507,-0.007998083,-0.009597329,7.1575417E-4,0.9999537,0.6206549,0.7840681,0.0049756397,-0.7840293,0.6206741,-0.007862965,-0.00925335,9.791403E-4,0.9999567,-0.08618164,0.011962891,9.727631,0
5508.826188394,0.6164307,0.787391,0.0053464784,-0.7873503,0.61645347,-0.008040523,-0.0096268905,7.468737E-4,0.9999534,0.6205588,0.78414434,0.0049474854,-0.7841049,0.62057763,-0.007931589,-0.0092898095,0.0010426701,0.9999563,-0.18673706,0.09815979,9.919174,0
5508.830613443,0.6178224,0.78629965,0.005316558,-0.78625876,0.6178447,-0.008047923,-0.009612887,7.919973E-4,0.9999534,0.62046254,0.7842202,0.004989616,-0.78418076,0.6204817,-0.007934623,-0.009318458,0.0010103757,0.9999561,-0.03829956,0.13166809,9.761154,0
5508.835038491,0.61781806,0.78630304,0.005325165,-0.7862621,0.61784047,-0.008058962,-0.00962689,7.9199724E-4,0.9999533,0.62037146,0.78429246,0.004966416,-0.78425336,0.62039053,-0.007891305,-0.009270208,0.0010006116,0.99995655,-0.13885498,0.007171631,9.914383,0
5508.839433023,0.6178169,0.78630394,0.0053275125,-0.7862632,0.6178394,-0.00803931,-0.009612888,7.779935E-4,0.9999535,0.62028617,0.78435975,0.0049827355,-0.7843211,0.6203055,-0.007842791,-0.0092423875,9.5671054E-4,0.9999568,-0.06703186,-0.026321411,9.832977,0
5508.843858071,0.6260801,0.7797398,0.005445091,-0.7796994,0.6261033,-0.007974072,-0.0096268905,7.468737E-4,0.9999534,0.6202404,0.7843962,0.0049527287,-0.78435755,0.6202594,-0.007842387,-0.009223514,9.794553E-4,0.99995697,-0.12927246,-0.07899475,9.885651,0
5508.84828312,0.6260857,0.7797353,0.0054330146,-0.7796948,0.62610877,-0.007983775,-0.00962689,7.624335E-4,0.9999533,0.62036914,0.7842943,0.0049548056,-0.78425556,0.62038815,-0.007851216,-0.009231566,9.848183E-4,0.9999569,-0.08618164,0.03590393,9.799454,0
5508.852708169,0.6260963,0.779727,0.0054100705,-0.7796863,0.6261192,-0.008002212,-0.00962689,7.9199724E-4,0.9999533,0.62048733,0.78420085,0.0049562133,-0.7841622,0.62050635,-0.007843652,-0.009226359,9.804111E-4,0.99995697,-0.08618164,0.09815979,9.885651,0
5508.857133218,0.6192359,0.78518677,0.0053603314,-0.7851459,0.61925864,-0.008052885,-0.009642449,7.779933E-4,0.99995327,0.62060744,0.7841055,0.0049975873,-0.78406686,0.62062687,-0.007840195,-0.009249176,9.472412E-4,0.9999567,-0.10533142,0.05984497,9.742004,0
5508.861558267,0.6192412,0.78518265,0.0053493893,-0.7851417,0.6192638,-0.008061521,-0.009642449,7.919972E-4,0.99995327,0.62060744,0.7841055,0.0049975873,-0.78406686,0.62062687,-0.007840195,-0.009249176,9.472412E-4,0.9999567,-0.10533142,0.05984497,9.742004,0
5508.865983316,0.6192424,0.78518164,0.0053468193,-0.78514045,0.61926496,-0.008083363,-0.009658007,8.0755685E-4,0.99995303,0.6205601,0.784143,0.004991821,-0.7841043,0.6205795,-0.007844731,-0.009249212,9.5401914E-4,0.9999567,-0.12449646,0.03590393,9.804245,0
5508.870408364,0.6236146,0.7817134,0.0053699813,-0.78167236,0.62363714,-0.008050938,-0.009642447,8.231168E-4,0.9999531,0.6205272,0.7841694,0.004940876,-0.7841308,0.6205461,-0.007839606,-0.00921362,9.90396E-4,0.9999571,-0.07182312,0.06942749,9.780304,0
5508.874833413,0.6236214,0.78170824,0.005355428,-0.78166693,0.6236439,-0.008082463,-0.009658007,8.542365E-4,0.99995303,0.6205341,0.78416365,0.0049808966,-0.7841251,0.6205533,-0.007841365,-0.009239825,9.601885E-4,0.99995685,-0.1197052,0.06463623,9.9479065,0
5508.879258462,0.6236264,0.7817042,0.005344532,-0.7816628,0.62364876,-0.008091162,-0.009658007,8.682403E-4,0.99995303,0.62057644,0.7841301,0.004988212,-0.7840912,0.6205957,-0.00787774,-0.009272836,9.77527E-4,0.99995655,-0.13406372,0.05027771,10.010147,0
5508.883683511,0.62240857,0.78267425,0.0053416123,-0.78263265,0.62243086,-0.00811165,-0.009673565,8.6824014E-4,0.9999528,0.6206408,0.7840789,0.0050225775,-0.7840398,0.6206604,-0.007888374,-0.009302422,9.5794664E-4,0.99995625,-0.12449646,-0.002380371,9.756363,0
5508.88810856,0.62240225,0.7826792,0.005355002,-0.78263795,0.6224248,-0.008081116,-0.009658007,8.386766E-4,0.99995303,0.6206918,0.78403854,0.005039046,-0.7839996,0.62071157,-0.00786605,-0.00929508,9.3178236E-4,0.99995637,-0.04309082,-0.07899475,9.770737,0
5508.892533609,0.6223807,0.78269607,0.005401002,-0.78265494,0.6224037,-0.0080643855,-0.009673566,7.9199695E-4,0.999953,0.6207363,0.78400314,0.0050623864,-0.783964,0.62075627,-0.0078847995,-0.009324215,9.256526E-4,0.99995613,-0.15800476,-0.08857727,9.900009,0
5508.896958657,0.608806,0.79330176,0.0052518067,-0.79326034,0.6088281,-0.008143886,-0.009658007,7.91997E-4,0.99995303,0.62074995,0.7839926,0.005022795,-0.7839532,0.62076944,-0.007925112,-0.009331226,9.818766E-4,0.999956,-0.04788208,-0.011962891,9.933533,0
5508.901353189,0.6088009,0.7933056,0.0052628634,-0.7932642,0.6088231,-0.008135393,-0.009658007,7.779931E-4,0.99995303,0.62049884,0.78419125,0.0050289943,-0.78415215,0.62051845,-0.007889133,-0.009307172,9.5170026E-4,0.9999562,-0.10533142,-0.01675415,9.751572,0
5508.905778237,0.6088009,0.7933056,0.0052628634,-0.7932642,0.6088231,-0.008135393,-0.009658007,7.779931E-4,0.99995303,0.6202728,0.7843698,0.005067015,-0.78433025,0.62029284,-0.0079289805,-0.009362286,9.4391784E-4,0.9999558,-0.07182312,0.011962891,9.880859,0
5508.910203286,0.60879385,0.79331094,0.0052780076,-0.79326993,0.6088163,-0.008104152,-0.009642449,7.4687356E-4,0.99995327,0.620029,0.7845626,0.005063734,-0.7845225,0.6200489,-0.007995332,-0.0094126,9.847243E-4,0.99995524,-0.08139038,-0.08378601,9.890442,0
5508.914628335,0.6087807,0.7933208,0.0053062923,-0.79327935,0.60880333,-0.008141265,-0.009689123,7.468732E-4,0.99995273,0.6197712,0.78476655,0.005016506,-0.7847261,0.61979055,-0.008038133,-0.009417242,0.0010452202,0.9999551,-0.1819458,-0.002380371,9.9048,0
5508.919053384,0.6087807,0.7933208,0.0053062923,-0.79327935,0.60880333,-0.008141265,-0.009689123,7.468732E-4,0.99995273,0.61957955,0.7849177,0.0050384374,-0.78487706,0.6195991,-0.008052547,-0.009442399,0.0010346395,0.9999549,-0.04309082,0.01675415,9.957474,0
5508.923478433,0.6087895,0.7933143,0.005287436,-0.7932731,0.608812,-0.008116524,-0.009658007,7.4687344E-4,0.99995303,0.61957955,0.7849177,0.0050384374,-0.78487706,0.6195991,-0.008052547,-0.009442399,0.0010346395,0.9999549,-0.04309082,0.01675415,9.957474,0
5508.927903482,0.58521503,0.8108622,0.005080978,-0.8108204,0.58523667,-0.008262798,-0.009673566,7.1575365E-4,0.999953,0.61914647,0.7852592,0.005066039,-0.78521705,0.61916625,-0.008207547,-0.009581772,0.0011037334,0.9999535,-0.10055542,-0.06942749,9.871292,0
5508.932298013,0.58521396,0.81086296,0.005083216,-0.81082135,0.5852356,-0.008241995,-0.009658008,7.017499E-4,0.9999531,0.6184856,0.78578025,0.004991538,-0.785738,0.6185047,-0.008233892,-0.009557319,0.0011705031,0.9999537,-0.08618164,-0.05027771,9.799454,0
5508.936692544,0.6230011,0.7822018,0.0054804673,-0.78216136,0.6230248,-0.007982009,-0.009658008,6.8619E-4,0.9999531,0.61784416,0.7862842,0.0050653014,-0.7862422,0.617864,-0.00820509,-0.009581201,0.0010869136,0.9999535,-0.08618164,-0.02154541,9.909592,0
5508.941087075,0.6230067,0.7821974,0.0054683527,-0.7821569,0.6230303,-0.007991663,-0.009658008,7.017499E-4,0.9999531,0.61794364,0.7862058,0.0050996677,-0.7861636,0.61796373,-0.008217816,-0.009612305,0.0010689738,0.9999532,-0.10533142,0.03111267,9.770737,0
5508.945481607,0.6230073,0.78219694,0.005467099,-0.7821562,0.62303084,-0.008012554,-0.009673566,7.1575365E-4,0.999953,0.61804855,0.7861234,0.0050967624,-0.7860812,0.61806864,-0.008221439,-0.009613214,0.0010747795,0.9999532,-0.13406372,0.08378601,9.976624,0
5508.949876138,0.6230273,0.7821812,0.005423573,-0.7821406,0.6230505,-0.008007465,-0.009642449,7.4687356E-4,0.99995327,0.61818284,0.786018,0.005062993,-0.78597534,0.6182025,-0.008268557,-0.009629189,0.0011320915,0.999953,-0.009567261,0.08378601,9.876068,0
5508.954270669,0.6230521,0.7821619,0.0053701093,-0.7821212,0.6230747,-0.008012289,-0.009612887,7.919973E-4,0.9999534,0.6182626,0.7859551,0.0051036365,-0.78591233,0.6182827,-0.008270534,-0.009655758,0.0011023505,0.9999528,-0.0143585205,0.09336853,9.722839,0
5508.9586652,0.6230481,0.7821651,0.005378794,-0.7821244,0.62307084,-0.0080232695,-0.00962689,7.9199724E-4,0.9999533,0.61836547,0.7858742,0.0050876066,-0.78583133,0.6183853,-0.0082878135,-0.00965928,0.0011268969,0.9999527,-0.1484375,0.01675415,9.674957,0
5508.963059732,0.63907385,0.769125,0.0055959797,-0.7690845,0.6390979,-0.007927432,-0.009673566,7.624332E-4,0.999953,0.61846304,0.78579706,0.005137976,-0.7857541,0.6184834,-0.008291424,-0.00969313,0.001090754,0.99995244,-0.2106781,-0.05984497,9.871292,0
5508.967454263,0.6390773,0.7691222,0.0055880947,-0.76908207,0.6391013,-0.007893532,-0.009642449,7.4687356E-4,0.99995327,0.6188416,0.78549904,0.005138777,-0.78545564,0.618862,-0.008330076,-0.00972346,0.0011187161,0.99995214,-0.0143585205,-0.04069519,9.804245,0
5508.971848794,0.639089,0.76911265,0.005561429,-0.7690719,0.63911265,-0.007956161,-0.009673565,8.075567E-4,0.9999528,0.6192155,0.7852038,0.0051979353,-0.78516054,0.6192364,-0.008313458,-0.0097465115,0.0010666088,0.9999519,-0.1771698,0.15560913,9.761154,0
5508.976243325,0.62235695,0.7827152,0.0053667137,-0.782674,0.6223796,-0.008071741,-0.009658007,8.2311674E-4,0.99995303,0.61961704,0.784887,0.005199223,-0.7848438,0.6196379,-0.0083057685,-0.009740726,0.001065818,0.99995196,-0.03829956,0.04069519,9.785095,0
5508.980637857,0.62235117,0.7827197,0.005378834,-0.78267854,0.62237394,-0.008062095,-0.009658007,8.0755685E-4,0.99995303,0.61965156,0.7848603,0.005128043,-0.7848172,0.61967176,-0.008298587,-0.009690935,0.0011176557,0.99995244,-0.11491394,-0.002380371,9.871292,0
5508.985032388,0.6223478,0.78272235,0.0053859875,-0.7826809,0.62237054,-0.0080961585,-0.009689123,8.231165E-4,0.99995273,0.6196592,0.7848544,0.005104418,-0.78481114,0.6196791,-0.008329086,-0.009700221,0.0011551905,0.9999523,-0.16279602,0.04069519,9.780304,0
5508.989426919,0.6115259,0.791207,0.005252316,-0.79116523,0.6115478,-0.008166665,-0.009673565,8.386764E-4,0.9999528,0.61968875,0.78483087,0.005128345,-0.78478724,0.6197089,-0.008354681,-0.0097350925,0.0011526417,0.99995196,-0.05265808,0.05027771,9.794678,0
5508.99382145,0.6115259,0.791207,0.005252316,-0.79116523,0.6115478,-0.008166665,-0.009673565,8.386764E-4,0.9999528,0.619509,0.78497297,0.005111469,-0.78492904,0.61952895,-0.008382907,-0.009747058,0.0011811452,0.9999518,-0.11012268,0.011962891,9.756363,0
5508.998215982,0.6115363,0.7911991,0.0052305963,-0.7911575,0.61155814,-0.008163803,-0.009658007,8.542365E-4,0.99995303,0.6193499,0.7850987,0.0050786296,-0.7850545,0.6193695,-0.008412927,-0.009750526,0.0012235442,0.99995166,-0.0143585205,-0.002380371,9.871292,0
5509.002579995,0.61154544,0.7911922,0.0052116583,-0.79115075,0.6115671,-0.008139124,-0.00962689,8.542367E-4,0.9999533,0.6193499,0.7850987,0.0050786296,-0.7850545,0.6193695,-0.008412927,-0.009750526,0.0012235442,0.99995166,-0.0143585205,-0.002380371,9.871292,0
5509.006974527,0.62956965,0.77692527,0.0053973715,-0.77688444,0.62959224,-0.008017175,-0.00962689,8.542367E-4,0.9999533,0.6190602,0.7853269,0.0051189093,-0.7852831,0.61908025,-0.008376029,-0.009746936,0.0011654731,0.99995184,-0.08618164,0.01675415,9.775513,0
5509.011369058,0.62956965,0.77692527,0.0053973715,-0.77688444,0.62959224,-0.008017175,-0.00962689,8.542367E-4,0.9999533,0.61921984,0.78520095,0.005122428,-0.785157,0.6192399,-0.00838737,-0.009757783,0.0011717159,0.99995166,-0.11012268,0.011962891,9.923965,0
5509.015763589,0.59016174,0.8072692,0.005044729,-0.80722696,0.5901827,-0.008294943,-0.009673565,8.2311657E-4,0.9999528,0.6194347,0.78503126,0.005157302,-0.7849873,0.61945504,-0.00839598,-0.0097858235,0.0011523444,0.9999515,-0.20588684,-0.08378601,9.990997,0
5509.02015812,0.59016335,0.8072681,0.0050413674,-0.8072257,0.59018433,-0.008316676,-0.009689123,8.3867635E-4,0.99995273,0.6188455,0.78549546,0.00520331,-0.78545135,0.61886644,-0.008399721,-0.009818098,0.0011111835,0.9999512,-0.14364624,0.05984497,9.943115,0
5509.024552652,0.590155,0.8072741,0.005058729,-0.8072315,0.5901761,-0.008340591,-0.0097186845,8.386761E-4,0.99995244,0.61825866,0.78595716,0.005248136,-0.78591263,0.61828,-0.008438123,-0.009876821,0.0010923666,0.99995065,-0.17237854,0.02154541,9.967056,0
5509.028947183,0.62705445,0.7789562,0.0054703834,-0.7789141,0.6270777,-0.008132682,-0.00976536,8.386757E-4,0.9999519,0.6177142,0.7863854,0.005203424,-0.7863404,0.6177351,-0.008490577,-0.009891204,0.0011530876,0.9999504,-0.19152832,0.011962891,9.876068,0
5509.033341714,0.62707,0.7789439,0.0054389094,-0.778902,0.62709296,-0.008118094,-0.009734242,8.542358E-4,0.9999522,0.6179138,0.7862286,0.005209046,-0.786184,0.61793464,-0.008451988,-0.009864045,0.001127331,0.9999507,-0.04788208,0.01675415,9.799454,0
5509.037736245,0.62706715,0.7789461,0.005444582,-0.7789046,0.62709016,-0.008075573,-0.009704681,8.2311634E-4,0.9999525,0.6180873,0.78609204,0.0052314694,-0.78604734,0.61810845,-0.008453729,-0.009879025,0.0011129593,0.9999506,-0.009567261,-0.06942749,9.8138275,0
5509.042130777,0.60460496,0.79650885,0.0051479596,-0.79646695,0.6046263,-0.008217631,-0.009658007,8.682403E-4,0.99995303,0.61830616,0.78591967,0.0052607353,-0.7858745,0.6183275,-0.008501735,-0.009934538,0.0011223969,0.99995,-0.17237854,-0.011962891,9.770737,0
5509.046525308,0.6045856,0.7965233,0.005187138,-0.796481,0.6046072,-0.008246463,-0.009704681,8.54236E-4,0.9999525,0.6180033,0.78615856,0.0051661595,-0.7861136,0.61802375,-0.00848503,-0.009863388,0.0011825883,0.99995065,-0.18673706,-0.05984497,9.871292,0
5509.050919839,0.6046157,0.7965008,0.005126268,-0.7964589,0.6046367,-0.008214577,-0.009642447,8.8380027E-4,0.9999531,0.61775064,0.7863573,0.0051298235,-0.78631276,0.61777085,-0.0084477775,-0.009812026,0.0011849744,0.9999511,0.05265808,0.07899475,10.053238,0
5509.05531437,0.6471783,0.7623181,0.005599515,-0.7622775,0.64720196,-0.007915316,-0.009658007,8.542365E-4,0.99995303,0.6174548,0.7865898,0.0051102936,-0.7865452,0.6174748,-0.0084583,-0.009808688,0.0012031406,0.9999512,-0.15322876,-0.05027771,9.698898,0
5509.059708902,0.6471838,0.76231354,0.005588896,-0.7622729,0.6472074,-0.007924341,-0.009658007,8.682403E-4,0.99995303,0.618072,0.78610486,0.0051132767,-0.78606004,0.61809194,-0.008481141,-0.009827541,0.0012226134,0.99995095,-0.08618164,0.06463623,9.86171,0
5509.064103433,0.6471898,0.76230854,0.005577097,-0.76226777,0.6472132,-0.007934367,-0.009658006,8.8380015E-4,0.999953,0.6186937,0.7856155,0.0051305965,-0.78557056,0.6187138,-0.008495701,-0.009848725,0.001225792,0.9999507,-0.07661438,0.02154541,9.852127,0
5509.068497964,0.62221164,0.78283083,0.0053433524,-0.78278965,0.6222339,-0.00807024,-0.009642447,8.3867664E-4,0.9999531,0.6192444,0.7851817,0.005109465,-0.7851364,0.6192641,-0.008531028,-0.009862515,0.001271164,0.9999505,-0.07182312,-0.08857727,9.756363,0
5509.072892495,0.62220675,0.78283465,0.0053529837,-0.7827934,0.6222292,-0.008082452,-0.009658007,8.386766E-4,0.99995303,0.61927307,0.7851593,0.0050787632,-0.7851143,0.6192925,-0.008505189,-0.009823168,0.0012796244,0.99995095,-0.13406372,-0.002380371,9.823395,0
5509.077287027,0.6221969,0.7828423,0.005372246,-0.78280073,0.62221956,-0.008106877,-0.009689123,8.3867635E-4,0.99995273,0.6193432,0.7851035,0.005161148,-0.78505844,0.61936355,-0.008498839,-0.009869094,0.0012118956,0.9999506,-0.16758728,0.01675415,9.789886,0
5509.081681558,0.5959368,0.803015,0.0051133726,-0.8029728,0.5959581,-0.008271037,-0.009689123,8.231165E-4,0.99995273,0.61939365,0.78506356,0.005170966,-0.78501874,0.6194141,-0.008469922,-0.009852395,0.00118691,0.99995077,-0.11491394,-0.05984497,9.713272,0
5509.086076089,0.59592235,0.80302566,0.005143338,-0.8029833,0.595944,-0.008285594,-0.0097186845,8.075564E-4,0.99995244,0.61891955,0.7854376,0.0051401695,-0.7853927,0.61893976,-0.008478041,-0.009840427,0.0012101736,0.9999509,-0.15322876,-0.03111267,9.756363,0
5509.09047062,0.5959384,0.8030139,0.005110166,-0.8029715,0.59595966,-0.008292793,-0.009704681,8.386762E-4,0.9999525,0.61846477,0.785796,0.0051077274,-0.78575116,0.61848456,-0.008480819,-0.009823244,0.0012316843,0.999951,-0.07182312,0.10772705,9.866501,0
5509.094865152,0.64792544,0.7616827,0.0056584473,-0.7616417,0.64794964,-0.007945953,-0.0097186845,8.386761E-4,0.99995244,0.618036,0.78613335,0.005085266,-0.7860881,0.6180555,-0.008533587,-0.009851514,0.0012765963,0.99995065,-0.1484375,-0.007171631,9.832977,0
5509.099259683,0.64792866,0.76167995,0.0056511764,-0.7616393,0.6479528,-0.0079133315,-0.009689123,8.231165E-4,0.99995273,0.6186161,0.7856769,0.0050950847,-0.7856321,0.61863583,-0.008479908,-0.00981447,0.0012429457,0.99995106,-0.0143585205,-0.01675415,9.789886,0
5509.103654214,0.6479295,0.76167935,0.0056494153,-0.76163846,0.64795357,-0.007935259,-0.009704681,8.386762E-4,0.9999525,0.6191976,0.78521866,0.005115571,-0.7851742,0.6192175,-0.008445069,-0.009798876,0.001212552,0.9999513,-0.13406372,0.05505371,9.852127,0
5509.108048745,0.6432965,0.7655967,0.00559755,-0.7655552,0.6433202,-0.008011039,-0.009734242,8.682396E-4,0.9999522,0.6197776,0.7847612,0.0050624995,-0.7847172,0.61979705,-0.008396464,-0.009726942,0.00123131,0.9999519,-0.15800476,0.07899475,9.804245,0
5509.112412759,0.64329267,0.7655999,0.0056056166,-0.7655581,0.64331645,-0.008044899,-0.00976536,8.837992E-4,0.9999519,0.620265,0.78437555,0.0051226,-0.78433156,0.6202851,-0.008387768,-0.009756633,0.0011848222,0.99995166,-0.16758728,0.05027771,9.866501,0
5509.11680729,0.64329267,0.7655999,0.0056056166,-0.7655581,0.64331645,-0.008044899,-0.00976536,8.837992E-4,0.9999519,0.62074494,0.78399605,0.00509281,-0.78395224,0.62076473,-0.00837344,-0.009726181,0.0012052512,0.99995196,-0.11012268,-0.002380371,9.971848,0
5509.121201821,0.64327157,0.7656172,0.0056499545,-0.7655756,0.6432958,-0.0080279345,-0.009780917,8.3867554E-4,0.9999518,0.6211976,0.78363746,0.005086692,-0.78359336,0.6212172,-0.008402599,-0.0097445315,0.0012337755,0.9999517,-0.15322876,-0.09815979,9.86171,0
5509.125596353,0.64324415,0.76563984,0.0057077208,-0.76559746,0.6432689,-0.008097223,-0.009871156,8.3867484E-4,0.9999509,0.62163275,0.7832926,0.005045147,-0.7832489,0.621652,-0.00836822,-0.00969109,0.0012503545,0.99995226,-0.0335083,0.06463623,9.957474,0
5509.129990884,0.6432243,0.76565623,0.0057494515,-0.7656136,0.64324945,-0.008123096,-0.009917831,8.2311465E-4,0.99995047,0.62207615,0.7829399,0.005140239,-0.78289545,0.6220961,-0.008437939,-0.009804122,0.001224771,0.9999512,-0.08139038,-0.05505371,9.856918,0
5509.134385415,0.64321774,0.7656616,0.0057632024,-0.76561916,0.643243,-0.008091215,-0.009902272,7.919951E-4,0.9999506,0.62207615,0.7829399,0.005140239,-0.78289545,0.6220961,-0.008437939,-0.009804122,0.001224771,0.9999512,-0.08139038,-0.05505371,9.856918,0
5509.138779946,0.6099804,0.79239804,0.0054239817,-0.79235464,0.61000395,-0.0083211,-0.009902272,7.7799126E-4,0.9999506,0.62290156,0.78228354,0.0051218886,-0.7822393,0.62292135,-0.008408385,-0.009768275,0.0012310533,0.99995154,-0.10533142,-0.04069519,10.010147,0
5509.143174478,0.6099722,0.79240406,0.0054403245,-0.7923603,0.6099959,-0.008365449,-0.009947392,7.9199474E-4,0.9999502,0.6226311,0.7824987,0.005138837,-0.7824546,0.62265116,-0.008392277,-0.009766648,0.0012043859,0.9999516,-0.19631958,0.04069519,9.732422,0
5509.147569009,0.6217193,0.78322035,0.0055754245,-0.78317696,0.62174374,-0.008274692,-0.009947392,7.779909E-4,0.9999502,0.6223751,0.78270185,0.0052069407,-0.78265697,0.62239575,-0.008461777,-0.0098638255,0.0011911507,0.99995065,-0.12449646,-0.03590393,9.914383,0
5509.15196354,0.6217148,0.7832239,0.0055850516,-0.7831805,0.6217394,-0.008286909,-0.00996295,7.779908E-4,0.99995005,0.6223446,0.7827259,0.005229959,-0.78268075,0.62236553,-0.008484767,-0.009896192,0.0011870614,0.9999503,-0.13885498,0.011962891,9.823395,0
5509.156358071,0.6217148,0.7832239,0.0055850516,-0.7831805,0.6217394,-0.008286909,-0.00996295,7.779908E-4,0.99995005,0.62232554,0.7827412,0.0052078236,-0.7826966,0.6223462,-0.0084369825,-0.009845043,0.0011744038,0.9999508,-0.07182312,0.03111267,10.010147,0
5509.160752603,0.6276558,0.7784702,0.0056963973,-0.7784273,0.62768126,-0.0082051065,-0.009962951,7.157516E-4,0.9999501,0.6223019,0.78275985,0.005231557,-0.7827155,0.6223228,-0.008414882,-0.009842549,0.0011417767,0.9999509,-0.11012268,-0.15083313,9.852127,0
5509.165147134,0.6276583,0.77846813,0.005691115,-0.77842575,0.62768376,-0.008151408,-0.009917833,6.861883E-4,0.9999506,0.62242985,0.78265846,0.005189483,-0.78261375,0.62245035,-0.008451619,-0.009844925,0.0011991796,0.9999508,0.01914978,-0.08378601,9.713272,0
5509.169541665,0.62766397,0.7784636,0.005679061,-0.77842116,0.6276893,-0.008161134,-0.009917833,7.017481E-4,0.9999506,0.6224923,0.78260875,0.005191087,-0.7825639,0.6225128,-0.008458723,-0.009851388,0.0012031326,0.99995077,-0.08139038,0.03111267,9.880859,0
5509.173936196,0.6070301,0.79466003,0.0054630414,-0.79461694,0.6070543,-0.0083072875,-0.009917833,7.017481E-4,0.9999506,0.6225857,0.78253406,0.005240558,-0.7824895,0.6226067,-0.008432483,-0.009861512,0.001149262,0.9999507,-0.11491394,0.011962891,9.938324,0
5509.178330728,0.60703963,0.794653,0.0054442496,-0.79461014,0.60706365,-0.008282497,-0.009886716,7.017483E-4,0.9999509,0.62224954,0.7828014,0.005243528,-0.78275675,0.6222705,-0.008442199,-0.009871459,0.0011487468,0.99995065,-0.0335083,0.02154541,9.804245,0
5509.182725259,0.60704046,0.79465234,0.0054425746,-0.7946093,0.6070644,-0.008303355,-0.009902273,7.15752E-4,0.9999507,0.6219322,0.78305364,0.0052267434,-0.78300905,0.6219531,-0.008436524,-0.00985704,0.001154359,0.99995077,-0.13406372,0.026321411,9.943115,0
5509.18711979,0.6264567,0.7794358,0.0056566563,-0.7793934,0.62648183,-0.008157801,-0.009902273,7.017482E-4,0.9999507,0.6216298,0.7832936,0.0052399384,-0.7832493,0.6216508,-0.0084099155,-0.009844845,0.0011236755,0.9999509,-0.11491394,0.01675415,9.852127,0
5509.191514321,0.62645185,0.77943945,0.0056663547,-0.77939695,0.6264771,-0.008169962,-0.009917833,7.017481E-4,0.9999506,0.6216298,0.7832936,0.0052399384,-0.7832493,0.6216508,-0.0084099155,-0.009844845,0.0011236755,0.9999509,-0.11491394,0.01675415,9.852127,0
5509.195908853,0.6264555,0.77943665,0.005659024,-0.7793945,0.6264807,-0.008135935,-0.009886716,6.861885E-4,0.9999509,0.62176394,0.7831871,0.0052403426,-0.78314257,0.621785,-0.008430451,-0.009860988,0.0011378154,0.9999507,-0.028717041,-0.01675415,9.890442,0
5509.200303384,0.67121416,0.7412383,0.006117331,-0.7411978,0.6712417,-0.00777746,-0.009871158,6.861886E-4,0.99995106,0.6218683,0.7831042,0.005250772,-0.7830596,0.6218894,-0.008434215,-0.009870268,0.001133303,0.99995065,-0.04309082,-0.011962891,9.856918,0
5509.204697915,0.67121756,0.74123514,0.0061090565,-0.7411949,0.671245,-0.0077450746,-0.009841596,6.706289E-4,0.99995124,0.6228854,0.7822952,0.0052787173,-0.78225094,0.62290686,-0.008395023,-0.009855536,0.0010998558,0.9999508,-0.04309082,-0.026321411,9.794678,0
5509.209092446,0.67122203,0.74123114,0.006098659,-0.7411911,0.6712494,-0.007733506,-0.009826038,6.7062903E-4,0.9999515,0.6238808,0.78150165,0.005289768,-0.7814575,0.62390226,-0.008382103,-0.009850926,0.0010957046,0.9999509,-0.0622406,-0.007171631,9.756363,0
5509.213486978,0.6445117,0.76457214,0.0058342996,-0.76453143,0.64453775,-0.007912992,-0.00981048,6.3950947E-4,0.99995166,0.62484854,0.78072816,0.005275744,-0.7806842,0.6248698,-0.008366409,-0.009828545,0.0011090481,0.9999511,-0.04309082,-0.08378601,9.885651,0
5509.217881509,0.6445079,0.7645753,0.005842421,-0.7645343,0.64453405,-0.007946839,-0.009841597,6.5506913E-4,0.99995136,0.6252037,0.7804441,0.005224819,-0.7804003,0.62522453,-0.008350695,-0.009783935,0.0011434356,0.9999515,-0.1819458,0.06942749,9.775513,0
5509.222245523,0.6445079,0.7645753,0.005842421,-0.7645343,0.64453405,-0.007946839,-0.009841597,6.5506913E-4,0.99995136,0.6255834,0.7801397,0.005235346,-0.78009576,0.6256043,-0.008361345,-0.0097982725,0.0011466478,0.99995136,-0.09576416,0.011962891,9.804245,0
5509.226640054,0.6070614,0.79463667,0.005401108,-0.79459465,0.60708505,-0.008199963,-0.009794922,6.861891E-4,0.9999518,0.6259386,0.77985436,0.0052953437,-0.7798103,0.62596005,-0.008365595,-0.009838619,0.0011069856,0.999951,0.0143585205,0.07899475,9.732422,0
5509.231034585,0.6070628,0.79463553,0.0053982046,-0.79459333,0.6070865,-0.008221762,-0.00981048,7.017488E-4,0.99995166,0.62556785,0.78015184,0.005274182,-0.78010744,0.6255891,-0.008403273,-0.009855301,0.0011423894,0.99995077,-0.13406372,0.026321411,9.9048,0
5509.235429116,0.6070442,0.79464954,0.0054351077,-0.7946076,0.60706824,-0.00819355,-0.00981048,6.550693E-4,0.99995166,0.6252081,0.7804407,0.0052191685,-0.780396,0.6252287,-0.008439967,-0.009850067,0.001203718,0.99995077,-0.08618164,-0.07899475,9.914383,0
5509.239823648,0.63801795,0.7700001,0.005731174,-0.769959,0.63804334,-0.007991872,-0.00981048,6.86189E-4,0.99995166,0.6248325,0.78074133,0.005224893,-0.7806965,0.62485325,-0.00845264,-0.009864116,0.001202429,0.99995065,-0.08618164,0.05984497,9.914383,0
5509.244218179,0.6380224,0.7699966,0.005721292,-0.7699555,0.6380477,-0.0079798605,-0.009794922,6.861891E-4,0.9999518,0.6251015,0.7805259,0.0052420087,-0.7804812,0.6251223,-0.008438081,-0.009863037,0.0011833671,0.99995065,-0.08139038,0.01675415,9.713272,0
5509.24861271,0.6380136,0.7700037,0.0057410565,-0.7699624,0.63803905,-0.008003883,-0.009826038,6.8618887E-4,0.9999515,0.6253551,0.78032285,0.005207917,-0.7802788,0.6253757,-0.008374386,-0.009791629,0.0011733378,0.99995136,-0.07661438,-0.007171631,9.837769,0
5509.253007241,0.6380083,0.7700079,0.005752983,-0.76996666,0.63803387,-0.007993994,-0.009826038,6.7062903E-4,0.9999515,0.6253551,0.78032285,0.005207917,-0.7802788,0.6253757,-0.008374386,-0.009791629,0.0011733378,0.99995136,-0.07661438,-0.007171631,9.837769,0
5509.257401773,0.6331711,0.77399105,0.0056929262,-0.7739498,0.6331963,-0.008017846,-0.00981048,6.7062915E-4,0.99995166,0.6259046,0.77988225,0.00520861,-0.7798384,0.6259252,-0.008358677,-0.009778984,0.0011698605,0.99995154,-0.15800476,0.03590393,9.74678,0
5509.261796304,0.63317204,0.7739902,0.005690745,-0.7739487,0.63319725,-0.008039733,-0.009826038,6.8618887E-4,0.9999515,0.6259046,0.77988225,0.00520861,-0.7798384,0.6259252,-0.008358677,-0.009778984,0.0011698605,0.99995154,-0.15800476,0.03590393,9.74678,0
5509.266190835,0.6599237,0.7513089,0.005979453,-0.75126815,0.6599503,-0.0078469105,-0.009841596,6.8618875E-4,0.99995124,0.62614715,0.77968794,0.0051445668,-0.7796449,0.6261672,-0.008277058,-0.009674881,0.0011717214,0.9999525,-0.1484375,0.011962891,9.727631,0
5509.270585366,0.659937,0.75129735,0.0059487857,-0.75125706,0.6599635,-0.0078117405,-0.009794922,6.861891E-4,0.9999518,0.62684166,0.77912945,0.00517511,-0.77908653,0.626862,-0.008258096,-0.0096782055,0.0011446604,0.9999525,0.02394104,0.007171631,9.880859,0
5509.274979898,0.6599421,0.75129306,0.0059371484,-0.75125265,0.65996844,-0.00782197,-0.009794922,7.0174894E-4,0.9999518,0.62749594,0.7786023,0.005212507,-0.77855915,0.62751657,-0.008276544,-0.009715071,0.0011352522,0.99995214,-0.0909729,0.05505371,9.852127,0
5509.279374429,0.5895877,0.8076876,0.0052084224,-0.807645,0.5896103,-0.00832498,-0.009794922,7.0174894E-4,0.9999518,0.6281424,0.77808094,0.005214578,-0.77803725,0.62816286,-0.008328867,-0.009756138,0.0011745783,0.9999517,-0.08618164,-0.007171631,9.923965,0
5509.28376896,0.5895625,0.8077057,0.005260821,-0.8076628,0.58958554,-0.00834449,-0.009841596,6.706289E-4,0.99995124,0.62743634,0.7786501,0.0052602254,-0.77860606,0.6274573,-0.008364674,-0.00981372,0.0011526564,0.9999512,-0.20111084,-0.06463623,9.713272,0
5509.288163491,0.5895592,0.807708,0.005267577,-0.8076656,0.5895824,-0.008301032,-0.00981048,6.3950947E-4,0.99995166,0.62669265,0.7792486,0.0052884268,-0.7792049,0.626714,-0.008328715,-0.009804471,0.0010987769,0.99995136,-0.03829956,-0.05984497,9.670166,0
5509.292558023,0.61688316,0.7870352,0.0055435766,-0.78699315,0.6169076,-0.008159382,-0.009841596,6.706289E-4,0.99995124,0.62596333,0.7798345,0.0052993777,-0.77979124,0.62598485,-0.008279521,-0.009773986,0.0010502681,0.9999517,-0.16758728,0.08857727,9.9479065,0
5509.296952554,0.61688894,0.78703076,0.0055313893,-0.78698856,0.61691326,-0.00816894,-0.009841596,6.8618875E-4,0.99995124,0.62575203,0.7800041,0.005284908,-0.77996135,0.6257735,-0.008229408,-0.009726129,0.0010275452,0.99995214,-0.08618164,0.02154541,9.789886,0
5509.301347085,0.6168806,0.78703713,0.0055488455,-0.78699553,0.6169052,-0.0081157135,-0.00981048,6.3950947E-4,0.99995166,0.6255822,0.7801402,0.0052939523,-0.7800973,0.6256038,-0.008247328,-0.009745989,0.001029584,0.99995196,-0.02394104,-0.08378601,9.84256,0
5509.305741616,0.62535244,0.78032225,0.005614383,-0.78028095,0.6253773,-0.008052845,-0.009794922,6.550694E-4,0.9999518,0.6253918,0.7802933,0.0052553685,-0.7802496,0.6254129,-0.008330172,-0.009786752,0.0011091216,0.99995154,-0.0622406,0.03590393,9.8138275,0
5509.310136148,0.62535816,0.78031766,0.0056023,-0.7802763,0.6253829,-0.008062534,-0.009794922,6.7062926E-4,0.9999518,0.6253794,0.7803031,0.005241054,-0.7802595,0.62540036,-0.008329285,-0.009777125,0.0011195816,0.99995154,-0.11012268,0.04548645,9.847351,0
5509.314530679,0.62535816,0.78031766,0.0056023,-0.7802763,0.6253829,-0.008062534,-0.009794922,6.7062926E-4,0.9999518,0.62538594,0.78029794,0.005240761,-0.78025454,0.625407,-0.00830755,-0.009759974,0.0011062982,0.9999518,-0.10533142,0.002380371,9.804245,0
5509.31892521,0.6088905,0.7932357,0.005432329,-0.7931938,0.6089143,-0.008178022,-0.009794922,6.7062926E-4,0.9999518,0.6253932,0.78029245,0.005194956,-0.78024876,0.6254137,-0.008338921,-0.009755794,0.0011617466,0.9999518,-0.2106781,0.05027771,9.837769,0
5509.323319741,0.60888296,0.79324126,0.0054483325,-0.7931988,0.6089069,-0.008224568,-0.009841596,6.8618875E-4,0.99995124,0.6253932,0.78029245,0.005194956,-0.78024876,0.6254137,-0.008338921,-0.009755794,0.0011617466,0.9999518,-0.2106781,0.05027771,9.837769,0
5509.327714273,0.60889393,0.79323316,0.0054249936,-0.7931906,0.60891765,-0.008242497,-0.009841596,7.157524E-4,0.99995124,0.624745,0.780812,0.0051246975,-0.78076816,0.62476486,-0.008365803,-0.00973385,0.0012252934,0.99995184,-0.0909729,0.08857727,10.053238,0
5509.332078286,0.60889393,0.79323316,0.0054249936,-0.7931906,0.60891765,-0.008242497,-0.009841596,7.157524E-4,0.99995124,0.624469,0.78103256,0.0051528946,-0.7809891,0.6244892,-0.008320184,-0.009716262,0.0011713424,0.9999521,-0.10533142,0.026321411,9.770737,0
5509.336472818,0.60889524,0.79323214,0.005422139,-0.7931894,0.60891896,-0.008264305,-0.009857155,7.313122E-4,0.9999512,0.6241464,0.7812907,0.0051152203,-0.7812474,0.62416625,-0.008313726,-0.009688185,0.0011927295,0.9999524,-0.1197052,0.02154541,9.832977,0
5509.340867349,0.60888433,0.79324025,0.0054454776,-0.7931977,0.6089083,-0.008246376,-0.009857155,7.0174853E-4,0.9999512,0.62384355,0.7815324,0.0051377146,-0.7814889,0.6238636,-0.008333128,-0.009717843,0.0011835011,0.9999521,-0.11012268,-0.05505371,9.785095,0
5509.34526188,0.5983283,0.80123323,0.0053441897,-0.80119026,0.5983518,-0.008328975,-0.009871158,7.017484E-4,0.99995106,0.6235269,0.78178465,0.0051898826,-0.78174055,0.6235474,-0.008389001,-0.0097945295,0.0011736257,0.9999513,-0.1484375,0.007171631,9.971848,0
5509.349656411,0.5983264,0.80123466,0.0053482587,-0.80119187,0.59834987,-0.00830846,-0.009857155,6.861887E-4,0.9999512,0.62304986,0.7821652,0.005149819,-0.7821212,0.62307,-0.008382791,-0.009765425,0.0011951138,0.9999516,-0.0622406,-0.026321411,9.679749,0
5509.354050943,0.59834176,0.80122334,0.0053154198,-0.8011805,0.59836495,-0.008313581,-0.009841596,7.157524E-4,0.99995124,0.62254584,0.7825668,0.005089772,-0.7825225,0.6225654,-0.008419423,-0.009757477,0.0012586159,0.9999516,-0.028717041,0.06463623,9.809036,0
5509.358445474,0.632484,0.7745529,0.0056464355,-0.77451086,0.63250875,-0.008095221,-0.009841596,7.468721E-4,0.99995124,0.6220914,0.78292817,0.0050757546,-0.78288394,0.6221109,-0.008414988,-0.009746013,0.0012611655,0.9999517,-0.10533142,0.09336853,9.847351,0
5509.362840005,0.63247925,0.7745566,0.0056562275,-0.77451444,0.63250405,-0.008107304,-0.0098571535,7.468719E-4,0.99995106,0.6223072,0.78275657,0.005100159,-0.78271216,0.6223268,-0.00843203,-0.009774192,0.0012553555,0.9999515,-0.1484375,-0.002380371,9.928741,0
5509.367234536,0.6324599,0.7745721,0.0056966185,-0.7745297,0.6324851,-0.00813255,-0.009902273,7.3131185E-4,0.9999507,0.62252724,0.7825817,0.0050690225,-0.78253734,0.62254655,-0.008427873,-0.009751202,0.001279881,0.9999516,-0.20111084,-0.03590393,9.871292,0
5509.371629068,0.6129192,0.7901266,0.005479441,-0.7900836,0.61294323,-0.008281821,-0.009902273,7.468717E-4,0.9999507,0.62276447,0.78239256,0.005139078,-0.78234833,0.6227845,-0.008409977,-0.0097804405,0.0012168858,0.9999515,-0.10533142,0.05027771,9.943115,0
5509.376023599,0.612926,0.7901215,0.0054644593,-0.7900781,0.61294985,-0.008313143,-0.009917831,7.7799114E-4,0.99995047,0.6225926,0.78252906,0.005164434,-0.78248537,0.622613,-0.008353415,-0.0097522335,0.001159681,0.9999518,-0.13406372,0.08857727,9.804245,0
5509.38041813,0.61293525,0.7901144,0.005443954,-0.79007107,0.61295885,-0.00830937,-0.009902272,7.919951E-4,0.9999506,0.6224043,0.7826788,0.005188189,-0.78263533,0.6224249,-0.008319551,-0.009740794,0.0011176637,0.99995196,-0.07661438,0.03590393,9.971848,0
5509.384812661,0.62097543,0.78381044,0.0055395435,-0.7837674,0.6209996,-0.008244618,-0.009902272,7.7799126E-4,0.9999506,0.62217826,0.7828586,0.005151652,-0.78281546,0.6221986,-0.008302063,-0.009704691,0.0011325703,0.99995226,-0.08618164,-0.03590393,9.68454,0
5509.389207193,0.62095875,0.7838234,0.005573424,-0.7837804,0.62098324,-0.008237604,-0.009917831,7.468715E-4,0.99995047,0.62213486,0.7828927,0.0052087167,-0.7828498,0.6221558,-0.008268025,-0.00971361,0.0010661838,0.9999522,-0.1484375,-0.05505371,9.84256,0
5509.393601724,0.6209414,0.7838369,0.0056086136,-0.7837942,0.6209663,-0.008209708,-0.009917833,7.017481E-4,0.9999506,0.6221219,0.78290313,0.0052112928,-0.78286034,0.62214273,-0.008254411,-0.009704572,0.001055535,0.9999524,-0.10533142,-0.10293579,9.880859,0
5509.397996255,0.61887133,0.78547245,0.005605231,-0.7854295,0.6188963,-0.008247695,-0.009947393,7.017479E-4,0.9999503,0.622081,0.7829355,0.0052211797,-0.78289235,0.62210196,-0.008291134,-0.009739528,0.0010701348,0.99995196,-0.15322876,-0.01675415,9.837769,0
5509.402390786,0.61887616,0.78546864,0.005594282,-0.7854255,0.618901,-0.0082563255,-0.009947392,7.1575167E-4,0.9999502,0.6220246,0.78297985,0.0052935844,-0.78293705,0.62204635,-0.008245117,-0.009748614,9.84122E-4,0.999952,-0.10533142,0.05027771,9.809036,0
5509.406785318,0.61885613,0.78548414,0.005639147,-0.7854412,0.61888146,-0.008240762,-0.009962951,6.706281E-4,0.9999501,0.6219584,0.7830327,0.005246988,-0.78299004,0.62197965,-0.0082424125,-0.009717598,0.0010180982,0.99995226,-0.15322876,-0.11730957,9.971848,0
5509.411179849,0.64267004,0.76612025,0.005923245,-0.7660782,0.64269704,-0.008055732,-0.00997851,6.395084E-4,0.99995005,0.6218657,0.78310627,0.005255579,-0.7830638,0.62188715,-0.008208195,-0.009696266,9.88941E-4,0.9999525,-0.11012268,-0.05505371,9.832977,0
5509.41557438,0.6426837,0.76610893,0.0058943867,-0.7660672,0.6427103,-0.008021061,-0.009933391,6.3950865E-4,0.9999504,0.6222749,0.78278124,0.0052567213,-0.78273904,0.6222963,-0.008190031,-0.00968224,9.818096E-4,0.9999527,0.004776001,0.007171631,9.871292,0
5509.419968911,0.64267004,0.76612025,0.005923245,-0.7660782,0.64269704,-0.008055732,-0.00997851,6.395084E-4,0.99995005,0.6226978,0.7824447,0.0052627744,-0.782403,0.6227193,-0.008136347,-0.009643473,9.488751E-4,0.99995303,-0.20588684,0.011962891,9.995789,0
5509.424363443,0.6307478,0.77596575,0.0058526224,-0.7759233,0.6307747,-0.0081420345,-0.010009627,5.943848E-4,0.99994975,0.62312436,0.782105,0.0052690366,-0.782063,0.6231459,-0.008165811,-0.009669901,9.675975E-4,0.9999528,-0.1771698,-0.12689209,9.866501,0
5509.428757974,0.6307437,0.7759692,0.0058614123,-0.7759266,0.6307706,-0.008152932,-0.010023628,5.943847E-4,0.9999495,0.6232568,0.7819993,0.005305985,-0.7819572,0.62327874,-0.008162136,-0.009689892,9.380534E-4,0.9999526,-0.14364624,-0.002380371,9.727631,0
5509.433152505,0.6307285,0.7759812,0.0058929557,-0.7759384,0.6307557,-0.008167374,-0.010054745,5.788247E-4,0.9999492,0.62341744,0.781871,0.0053321533,-0.7818292,0.6234396,-0.0081388885,-0.009687836,9.050919E-4,0.9999527,-0.1819458,-0.03111267,9.809036,0
5509.437516519,0.6417611,0.7668811,0.005999174,-0.7668389,0.6417889,-0.00807033,-0.010039187,5.7882484E-4,0.99994946,0.6235489,0.78176576,0.0053872755,-0.78172433,0.62357163,-0.00809198,-0.009685384,8.3438103E-4,0.99995273,-0.05265808,0.011962891,9.770737,0
5509.44191105,0.6417611,0.7668811,0.005999174,-0.7668389,0.6417889,-0.00807033,-0.010039187,5.7882484E-4,0.99994946,0.62388223,0.7814996,0.0054097157,-0.78145796,0.6239051,-0.00811163,-0.009714385,8.332357E-4,0.99995244,-0.12449646,0.01675415,9.66539,0
5509.446305581,0.6417667,0.7668766,0.005987299,-0.76683426,0.6417944,-0.008080274,-0.010039187,5.943846E-4,0.99994946,0.6242293,0.7812223,0.0054303976,-0.7811803,0.6242523,-0.008143169,-0.009751564,8.410851E-4,0.9999521,-0.07182312,0.04548645,9.794678,0
5509.450700112,0.6307494,0.77596456,0.0058493973,-0.7759218,0.6307762,-0.008162702,-0.010023628,6.0994446E-4,0.9999495,0.6245528,0.7809643,0.0053469534,-0.7809224,0.624575,-0.008142141,-0.009698295,9.0964115E-4,0.99995255,-0.05744934,0.02154541,9.943115,0
5509.455094644,0.6307594,0.77595663,0.0058285953,-0.775914,0.63078606,-0.008161579,-0.010009627,6.255044E-4,0.99994975,0.62466,0.7808785,0.0053584054,-0.78083664,0.62468237,-0.008130333,-0.009696104,8.946546E-4,0.99995255,-0.0622406,0.04548645,9.823395,0
5509.459489175,0.63076407,0.7759529,0.005818829,-0.7759103,0.6307906,-0.008149471,-0.009994067,6.255045E-4,0.9999498,0.6247746,0.78078693,0.005338605,-0.7807447,0.62479675,-0.008173368,-0.009717202,9.3842496E-4,0.9999524,-0.0622406,0.002380371,9.804245,0
5509.463883706,0.5958548,0.8030736,0.005452961,-0.8030299,0.5958794,-0.008398681,-0.009994067,6.255045E-4,0.9999498,0.62486386,0.7807155,0.0053297696,-0.7806728,0.62488586,-0.008227001,-0.009753445,9.799498E-4,0.99995196,-0.10533142,0.007171631,9.775513,0
5509.468278237,0.5958432,0.8030821,0.005477753,-0.8030378,0.595868,-0.0084558325,-0.010054745,6.3950795E-4,0.9999492,0.624285,0.78117836,0.0053596226,-0.78113574,0.62430733,-0.008208387,-0.009758266,9.377799E-4,0.99995196,-0.24420166,0.05505371,9.799454,0
5509.472672769,0.5958635,0.8030673,0.0054344297,-0.80302316,0.5958879,-0.008449251,-0.010023628,6.7062775E-4,0.9999495,0.623697,0.78164786,0.0053674704,-0.78160506,0.6237194,-0.008227809,-0.009779044,9.364172E-4,0.9999518,-0.0335083,0.09815979,9.804245,0
5509.4770673,0.59074515,0.80684006,0.005411532,-0.8067956,0.5907696,-0.00849955,-0.010054745,6.5506774E-4,0.9999492,0.623182,0.7820584,0.0053764503,-0.78201574,0.6232045,-0.008220537,-0.009779568,9.1842155E-4,0.9999518,-0.18673706,-0.026321411,9.828186,0
5509.481461831,0.5907638,0.8068266,0.005374064,-0.8067818,0.5907878,-0.008527002,-0.010054745,7.017471E-4,0.99994916,0.62253547,0.78257316,0.0053772093,-0.78253007,0.622558,-0.008257477,-0.0098097045,9.3274366E-4,0.9999515,-0.08139038,0.09815979,9.832977,0
5509.485856362,0.59075934,0.8068299,0.0053832093,-0.8067851,0.5907835,-0.008539585,-0.010070303,7.01747E-4,0.9999491,0.62191993,0.7830622,0.005402644,-0.7830194,0.62194276,-0.008231454,-0.009805876,8.8892935E-4,0.9999515,-0.15322876,0.011962891,9.818619,0
5509.490250894,0.6223642,0.782707,0.0057074632,-0.78266305,0.62239003,-0.008327555,-0.010070303,7.1575085E-4,0.9999491,0.62128866,0.7835629,0.005434576,-0.78352016,0.62131184,-0.008228807,-0.009824354,8.54365E-4,0.99995136,-0.10055542,0.03590393,9.732422,0
5509.494645425,0.6223636,0.7827074,0.0057087345,-0.7826636,0.6223894,-0.008306665,-0.010054745,7.017471E-4,0.99994916,0.6213143,0.78354275,0.0054116976,-0.7835003,0.6213373,-0.008203008,-0.009789897,8.5658015E-4,0.9999517,-0.06703186,-0.01675415,9.871292,0
5509.499039956,0.6223642,0.782707,0.0057074632,-0.78266305,0.62239003,-0.008327555,-0.010070303,7.1575085E-4,0.9999491,0.6213351,0.78352594,0.0054510646,-0.7834834,0.62135845,-0.008212116,-0.009821471,8.3165796E-4,0.9999514,-0.20111084,0.02154541,9.866501,0
5509.503434487,0.62235165,0.7827167,0.0057354146,-0.78267235,0.62237763,-0.008362958,-0.010115421,7.157505E-4,0.99994856,0.6213351,0.78352594,0.0054510646,-0.7834834,0.62135845,-0.008212116,-0.009821471,8.3165796E-4,0.9999514,-0.20111084,0.02154541,9.866501,0
5509.507829019,0.6186217,0.7856683,0.0056979097,-0.7856241,0.61864763,-0.008370481,-0.01010142,7.0174685E-4,0.9999488,0.6213919,0.7834812,0.0054229586,-0.7834383,0.6214149,-0.008242293,-0.009827589,8.731399E-4,0.99995136,-0.09576416,-0.03590393,9.909592,0
5509.51222355,0.6186058,0.7856806,0.005730855,-0.7856364,0.618632,-0.0083623445,-0.010115422,6.7062717E-4,0.9999486,0.6213468,0.78351694,0.005425666,-0.7834738,0.62136984,-0.008269467,-0.009850613,8.873396E-4,0.99995106,-0.10533142,-0.10772705,9.876068,0
5509.516618081,0.6155144,0.7881051,0.00569527,-0.78806055,0.6155404,-0.008406635,-0.010130981,6.8618683E-4,0.9999485,0.62128824,0.78356314,0.005452663,-0.7835203,0.62131155,-0.008242224,-0.009846106,8.4852515E-4,0.9999512,-0.15322876,0.05027771,9.8138275,0
5509.521012612,0.61551565,0.7881041,0.0056925984,-0.78805935,0.6155416,-0.008428466,-0.010146539,7.017465E-4,0.99994826,0.62119716,0.7836349,0.0055172932,-0.7835925,0.6212212,-0.008186977,-0.009843061,7.6241756E-4,0.99995124,-0.13885498,0.04069519,9.9048,0
5509.525407144,0.61550534,0.788112,0.005714329,-0.7880671,0.6155314,-0.00843122,-0.010162096,6.8618654E-4,0.999948,0.6210702,0.7837355,0.005518856,-0.7836932,0.6210942,-0.008182218,-0.009840425,7.566418E-4,0.9999513,-0.13885498,-0.002380371,9.780304,0
5509.529801675,0.61949176,0.7849822,0.0057402854,-0.784938,0.619518,-0.008355875,-0.010115422,6.7062717E-4,0.9999486,0.62097067,0.7838142,0.0055389376,-0.7837717,0.6209949,-0.008199586,-0.009866604,7.504397E-4,0.999951,0.0143585205,-0.026321411,9.837769,0
5509.534196206,0.61949617,0.7849787,0.0057316567,-0.7849347,0.61952233,-0.0083448505,-0.01010142,6.706272E-4,0.9999488,0.6209443,0.7838348,0.005584575,-0.783792,0.62096906,-0.008220072,-0.009911026,7.2706136E-4,0.99995065,-0.05265808,-0.02154541,9.727631,0
5509.538590737,0.6194998,0.78497595,0.005724631,-0.78493226,0.6195259,-0.00831076,-0.010070303,6.550676E-4,0.9999491,0.62089235,0.78387564,0.0056354133,-0.7838333,0.62091756,-0.0081721125,-0.009905046,6.5677665E-4,0.9999507,-0.04788208,-0.026321411,9.86171,0
5509.542985269,0.6194998,0.78497595,0.005724631,-0.78493226,0.6195259,-0.00831076,-0.010070303,6.550676E-4,0.9999491,0.6208469,0.78391117,0.0056923567,-0.7838684,0.62087274,-0.008209363,-0.00996964,6.346995E-4,0.9999501,-0.07661438,0.011962891,9.8138275,0
5509.547349282,0.6194837,0.78498846,0.0057559544,-0.7849446,0.6195101,-0.008325662,-0.01010142,6.3950766E-4,0.9999488,0.62083006,0.783924,0.005772202,-0.783881,0.6208566,-0.008226831,-0.010032919,5.8274454E-4,0.9999495,-0.20111084,-0.026321411,9.86171,0
5509.551743814,0.61949486,0.78497976,0.0057342183,-0.7849359,0.619521,-0.008323008,-0.010085862,6.5506756E-4,0.9999489,0.6208344,0.7839206,0.0057583363,-0.7838782,0.6208608,-0.008164201,-0.009975211,5.5478176E-4,0.99995005,-0.028717041,0.01675415,9.832977,0
5509.556138345,0.6135681,0.7896216,0.005634344,-0.789579,0.61359364,-0.0082193725,-0.009947393,5.9438514E-4,0.9999503,0.62081146,0.7839393,0.0056842444,-0.78389734,0.6208372,-0.008130795,-0.00990304,5.918271E-4,0.99995077,-0.21546936,-0.04069519,9.708481,0
5509.560532876,0.6136012,0.78959656,0.0055602132,-0.789555,0.6136261,-0.008123322,-0.009826039,5.943859E-4,0.99995154,0.62065774,0.78406155,0.005605986,-0.784021,0.6206828,-0.007992722,-0.009746325,5.655338E-4,0.9999523,-0.08618164,0.007171631,9.737213,0
5509.564927407,0.61362314,0.7895798,0.005510914,-0.7895387,0.6136476,-0.008084809,-0.009765361,6.099461E-4,0.99995214,0.62049466,0.78419125,0.0055256234,-0.7841517,0.620519,-0.007894914,-0.009619876,5.658247E-4,0.99995357,0.04309082,0.05984497,9.9048,0
5509.569321939,0.62544066,0.78025156,0.0056089438,-0.7802106,0.6254655,-0.008019414,-0.009765361,6.395098E-4,0.99995214,0.620337,0.78431594,0.0055219135,-0.78427637,0.6203613,-0.007901432,-0.0096228,5.708445E-4,0.9999535,-0.08139038,0.05984497,9.900009,0
5509.57371647,0.6254462,0.78024715,0.00559686,-0.7802061,0.62547094,-0.008029106,-0.009765361,6.5506966E-4,0.99995214,0.6203772,0.7842842,0.005523906,-0.7842437,0.62040144,-0.007991482,-0.009694632,6.2564417E-4,0.99995285,-0.10533142,0.06942749,9.646225,0
5509.578111001,0.6254362,0.78025514,0.00561863,-0.780214,0.62546104,-0.008031585,-0.009780919,6.3950964E-4,0.9999519,0.6204479,0.7842283,0.0055148886,-0.78418756,0.620472,-0.008028436,-0.009717961,6.56519E-4,0.99995255,-0.13406372,-0.05027771,9.856918,0
5509.582505532,0.61349416,0.78968096,0.005384659,-0.7896412,0.6135175,-0.007950287,-0.009581772,6.2550703E-4,0.9999539,0.6205105,0.78417903,0.005472239,-0.7841389,0.6205343,-0.007957848,-0.009636089,6.469324E-4,0.9999533,-0.1484375,-0.06942749,9.780304,0
5509.586900064,0.61360854,0.78959364,0.0051550134,-0.7895554,0.61362976,-0.00779962,-0.009321799,7.1574486E-4,0.99995625,0.62034863,0.78430814,0.0053206156,-0.78426963,0.6203711,-0.007799976,-0.009418341,6.659076E-4,0.9999554,-0.15800476,0.007171631,9.68454,0
5509.591294595,0.6137276,0.78950256,0.004915631,-0.789466,0.6137468,-0.007639012,-0.009047972,8.07549E-4,0.9999588,0.6202432,0.7843931,0.005083701,-0.78435624,0.6202636,-0.007638658,-0.009144945,7.503928E-4,0.99995786,-0.06703186,-0.08378601,9.909592,0
5509.595689126,0.6306111,0.7760837,0.0048755948,-0.776048,0.63062924,-0.007500228,-0.008895497,9.460315E-4,0.99995995,0.620087,0.7845182,0.0048279935,-0.7844825,0.6201052,-0.007531245,-0.008902262,8.825505E-4,0.99995995,-0.0909729,0.02154541,9.943115,0
5509.600083657,0.63061595,0.7760799,0.004865829,-0.77604437,0.630634,-0.007488124,-0.008879938,9.4603165E-4,0.9999601,0.6202955,0.78435457,0.0046199504,-0.78431946,0.62031186,-0.0074887415,-0.008739639,0.0010217159,0.99996126,-0.07182312,-0.011962891,9.890442,0
5509.604478189,0.63059807,0.7760941,0.0049018855,-0.77605873,0.6306164,-0.007458797,-0.008879938,8.993524E-4,0.9999601,0.6205031,0.78419065,0.004578423,-0.78415555,0.6205191,-0.007486497,-0.00871184,0.0010551987,0.9999615,-0.07661438,-0.08378601,9.789886,0
5509.60887272,0.63882774,0.7693327,0.0051271813,-0.769297,0.6388479,-0.007462786,-0.009016855,8.2310895E-4,0.9999591,0.62073296,0.7840088,0.0045524095,-0.78397346,0.62074876,-0.0075243292,-0.008725042,0.0011016316,0.9999613,-0.01914978,0.002380371,9.804245,0
5509.613267251,0.6387448,0.7694004,0.0053171637,-0.7693641,0.63876647,-0.0075031184,-0.009169327,7.017422E-4,0.9999577,0.62109405,0.7837218,0.004720097,-0.78368556,0.62111115,-0.0076006385,-0.008888491,0.0010216396,0.99995995,-0.06703186,0.002380371,9.756363,0
5509.617661782,0.63863826,0.76948696,0.0055606654,-0.76945,0.6386622,-0.0075596953,-0.009368475,5.492562E-4,0.99995595,0.6214838,0.7834117,0.004906143,-0.7833748,0.6215025,-0.0076563885,-0.009047284,9.149727E-4,0.99995863,-0.04788208,0.05984497,9.890442,0
5509.622056314,0.6059473,0.795486,0.0054765814,-0.7954469,0.6059719,-0.007892882,-0.009597331,4.263406E-4,0.9999538,0.62181723,0.7831451,0.0052089114,-0.78310734,0.6218386,-0.007726518,-0.009290087,7.25345E-4,0.9999566,0.0143585205,0.09336853,9.765945,0
5509.626450845,0.60584,0.7955661,0.0056965644,-0.79552555,0.60586673,-0.008032316,-0.009841598,3.3453654E-4,0.9999515,0.6215181,0.7833806,0.0054845493,-0.7833415,0.621542,-0.007844984,-0.009554486,5.795236E-4,0.99995416,-0.12927246,0.09815979,9.84256,0
5509.630845376,0.60573155,0.7956471,0.005919069,-0.7956046,0.6057604,-0.008226567,-0.010130982,2.7385238E-4,0.9999486,0.62118506,0.78364295,0.0057215667,-0.7836029,0.62121123,-0.007937839,-0.009774734,4.4743062E-4,0.9999521,-0.1771698,-0.026321411,9.770737,0
5509.635239907,0.62647694,0.77941453,0.006296495,-0.77937067,0.62650853,-0.008270304,-0.010390802,2.7385165E-4,0.99994594,0.62088054,0.7838827,0.005932341,-0.78384066,0.6209088,-0.008125299,-0.010052724,3.9483013E-4,0.9999494,-0.11491394,0.05505371,9.852127,0
5509.639634439,0.62639636,0.7794778,0.006482218,-0.779433,0.62642986,-0.008356536,-0.010574388,1.8204877E-4,0.9999441,0.6209502,0.78382623,0.006099393,-0.78378224,0.6209801,-0.008308821,-0.010300274,3.7876857E-4,0.9999469,-0.05265808,-0.03111267,9.818619,0
5509.64402897,0.6263192,0.7795382,0.0066598332,-0.77949184,0.62635463,-0.00850718,-0.0108030895,1.3692523E-4,0.99994165,0.6210774,0.78372383,0.006308666,-0.7836784,0.6211093,-0.008445413,-0.0105372425,3.01289E-4,0.99994445,-0.10533142,0.11251831,9.885651,0
5509.648423501,0.6134557,0.7897009,0.0066748206,-0.7896522,0.613492,-0.008764435,-0.011016231,1.05805615E-4,0.99993926,0.62114334,0.78366995,0.00650994,-0.78362304,0.62117743,-0.008572008,-0.010761454,2.2310707E-4,0.99994206,-0.13406372,0.05984497,9.856918,0
5509.652818032,0.6133565,0.7897764,0.0068675447,-0.7897267,0.613395,-0.008865134,-0.01121399,1.4003872E-5,0.9999372,0.6210061,0.78377736,0.0066740275,-0.78372914,0.62104195,-0.008694174,-0.010959147,1.6850521E-4,0.9999399,0.03829956,-0.04548645,9.928741,0
5509.657182046,0.6132714,0.78984094,0.0070326976,-0.78978956,0.6133117,-0.009008715,-0.011428689,-2.956366E-5,0.99993473,0.6208905,0.7838669,0.006907833,-0.7838168,0.62092894,-0.008860978,-0.0112351,8.722163E-5,0.9999369,-0.16279602,0.03111267,9.837769,0
5509.661576577,0.596523,0.8025656,0.0069938097,-0.80251247,0.596564,-0.00923152,-0.011581154,-1.0580659E-4,0.99993294,0.6207237,0.78399754,0.0070656575,-0.78394616,0.62076396,-0.008975473,-0.011422855,3.2194414E-5,0.99993473,-0.1484375,-0.03111267,9.914383,0
5509.665971109,0.5964822,0.80259514,0.007076289,-0.8025417,0.5965242,-0.009265207,-0.011657386,-1.5248582E-4,0.99993205,0.62022376,0.784392,0.0071862256,-0.7843397,0.62026536,-0.00905717,-0.011561739,-1.8970677E-5,0.9999332,-0.028717041,-0.007171631,9.837769,0
5509.67036564,0.5964928,0.8025873,0.0070546404,-0.8025338,0.59653455,-0.009261908,-0.011641828,-1.3692607E-4,0.9999322,0.6197148,0.7847932,0.007295112,-0.7847401,0.6197577,-0.009130515,-0.011686768,-6.6451634E-5,0.9999317,-0.04788208,0.03590393,9.694122,0
5509.674760171,0.6143163,0.7890267,0.00723574,-0.788974,0.6143589,-0.009120714,-0.011641828,-1.0580651E-4,0.9999322,0.619269,0.78514487,0.0073147486,-0.7850914,0.61931217,-0.009164177,-0.01172532,-6.765553E-5,0.9999313,-0.10533142,0.08857727,9.856918,0
5509.679154702,0.6143066,0.78903407,0.007257465,-0.7889814,0.6143495,-0.009123519,-0.011657386,-1.21366276E-4,0.99993205,0.61920524,0.78519523,0.0073040295,-0.7851419,0.6192483,-0.009151734,-0.011708906,-6.789849E-5,0.99993145,-0.17237854,-0.05027771,9.809036,0
5509.683549234,0.6143493,0.7890017,0.0071616382,-0.7889513,0.614391,-0.008926018,-0.011442689,-1.6649005E-4,0.99993455,0.6191147,0.7852672,0.0072362134,-0.785214,0.619157,-0.009137057,-0.011655384,-2.5089694E-5,0.99993205,-0.15800476,-0.12210083,9.713272,0
5509.687943765,0.6204414,0.7842239,0.006727196,-0.78417724,0.6204778,-0.008550168,-0.010879323,2.9563376E-5,0.99994075,0.6190625,0.7853097,0.0070984596,-0.78525853,0.61910313,-0.0089671165,-0.011436642,-2.2920744E-5,0.9999346,-0.25856018,0.03590393,9.756363,0
5509.692338296,0.620741,0.7839919,0.006109708,-0.7839502,0.620771,-0.008084589,-0.010130982,2.2872898E-4,0.9999486,0.61906743,0.7853106,0.006536869,-0.7852638,0.61910194,-0.008574032,-0.010780267,1.7473784E-4,0.9999419,-0.36390686,-0.07421875,9.756363,0
5509.696732827,0.6211304,0.7836892,0.005306113,-0.783652,0.62115276,-0.0076514143,-0.009292238,5.943796E-4,0.9999566,0.6191643,0.7852396,0.005868446,-0.7851981,0.61919194,-0.008080934,-0.009979163,3.9553337E-4,0.9999502,-0.16758728,0.002380371,9.737213,0
5509.701127359,0.6165588,0.78729534,0.004603497,-0.7872606,0.6165752,-0.0074603558,-0.008711906,9.7559654E-4,0.99996156,0.6191931,0.78522295,0.0049904557,-0.7851866,0.6192127,-0.0076016397,-0.009059135,7.884436E-4,0.9999587,0.02394104,0.06942749,10.1107025,0
5509.70552189,0.61671466,0.78717506,0.0042900457,-0.7871399,0.61672825,-0.007552009,-0.008590546,0.0012805687,0.9999623,0.6191806,0.7852361,0.0044157896,-0.78520197,0.61919534,-0.007410255,-0.0085530365,0.0011209997,0.99996275,0.14364624,0.16040039,9.981415,0
5509.709916421,0.6166726,0.7872076,0.0043747597,-0.78717077,0.6166867,-0.0077365665,-0.00878814,0.0013272456,0.99996054,0.6191212,0.7852841,0.004214778,-0.7852491,0.6191341,-0.007536141,-0.008527525,0.0013561344,0.99996275,0.09576416,0.15560913,9.895233,0
5509.714310952,0.6139783,0.7893088,0.004705449,-0.7892697,0.61399525,-0.007936869,-0.009153765,0.0011591968,0.9999574,0.61905175,0.78533787,0.0044048047,-0.78530055,0.619066,-0.00776914,-0.008828265,0.0013504039,0.9999601,-0.05744934,0.12689209,9.770737,0
5509.718705484,0.61376184,0.7894742,0.0051694405,-0.78943366,0.613783,-0.00804083,-0.009520943,8.5422426E-4,0.9999543,0.6189386,0.7854248,0.0047781602,-0.7853856,0.61895597,-0.007934462,-0.009189394,0.0011582467,0.99995714,-0.08618164,0.13645935,9.785095,0
5509.723100015,0.6135788,0.78961384,0.0055615874,-0.78957146,0.61360365,-0.008199077,-0.009886716,6.39509E-4,0.9999509,0.6188439,0.7854963,0.0052640913,-0.785456,0.6188657,-0.008005712,-0.009546223,8.1957475E-4,0.9999541,-0.15322876,0.05984497,9.9526825,0
5509.727494546,0.62873244,0.77759844,0.006026367,-0.77755576,0.6287611,-0.008155672,-0.010130982,4.4189813E-4,0.99994856,0.6186944,0.7856112,0.005679059,-0.78556925,0.6187202,-0.00813881,-0.009907689,5.7414256E-4,0.99995077,-0.08618164,-0.12689209,10.038879,0
5509.731889077,0.62865627,0.7776586,0.006195419,-0.77761346,0.62868667,-0.008391068,-0.010420363,4.574566E-4,0.99994564,0.61887413,0.7854677,0.0059408336,-0.7854246,0.61890244,-0.008250538,-0.010157328,4.3996767E-4,0.9999483,-0.06703186,-0.10772705,9.761154,0
5509.736283609,0.6286621,0.77765405,0.0061825435,-0.7776065,0.62869215,-0.00861755,-0.010588388,6.099409E-4,0.9999437,0.6190726,0.78531003,0.00609763,-0.7852638,0.6191025,-0.008541393,-0.010482701,4.9949455E-4,0.9999449,-0.12449646,0.02154541,9.847351,0
5509.74067814,0.6131679,0.7899296,0.006039611,-0.78988117,0.6131974,-0.008774947,-0.010635063,6.099407E-4,0.9999433,0.6192678,0.7851563,0.0060799993,-0.78510773,0.6192973,-0.008758882,-0.010642418,6.5063883E-4,0.99994314,-0.22026062,0.002380371,9.713272,0
5509.745072671,0.613157,0.78993785,0.006061323,-0.78988934,0.6131866,-0.008777777,-0.01065062,5.9438084E-4,0.9999431,0.6191323,0.78526354,0.0060350485,-0.78521436,0.6191613,-0.008816371,-0.010659843,7.1969273E-4,0.99994296,-0.14364624,-0.026321411,9.689331,0
5509.749467202,0.6131588,0.7899364,0.006057638,-0.78988767,0.61318845,-0.008798364,-0.010664622,6.0994044E-4,0.99994296,0.61898637,0.7853789,0.0060003777,-0.78533006,0.61901504,-0.0087869065,-0.010615374,7.266981E-4,0.99994344,-0.02394104,-0.02154541,9.775513,0
5509.753861734,0.61316174,0.7899342,0.0060518347,-0.7898859,0.61319137,-0.008765452,-0.010635063,5.9438095E-4,0.9999433,0.61898637,0.7853789,0.0060003777,-0.78533006,0.61901504,-0.0087869065,-0.010615374,7.266981E-4,0.99994344,-0.02394104,-0.02154541,9.775513,0
5509.758256265,0.61315566,0.78993887,0.006064059,-0.7898906,0.6131854,-0.008755957,-0.010635063,5.788213E-4,0.9999433,0.6187151,0.7855926,0.0059887413,-0.78554344,0.6187436,-0.00882521,-0.010638515,7.558747E-4,0.99994314,-0.0909729,-0.06942749,9.799454,0
5509.762650796,0.6131604,0.78993523,0.00605457,-0.789887,0.61318994,-0.00874363,-0.010619503,5.788213E-4,0.9999434,0.61859196,0.7856888,0.006085113,-0.7856389,0.6186215,-0.008880665,-0.010741821,7.128057E-4,0.99994206,-0.07182312,0.04069519,9.856918,0
5509.76701481,0.6231909,0.78204525,0.0061875284,-0.78199744,0.62322134,-0.00866812,-0.010635063,5.6326156E-4,0.9999433,0.61852473,0.7857414,0.0061382856,-0.7856913,0.61855483,-0.008896789,-0.01078744,6.800863E-4,0.9999416,-0.13885498,-0.05984497,9.9526825,0
5509.771409341,0.62325245,0.78199726,0.006056664,-0.7819505,0.62328154,-0.008577507,-0.010482593,6.099416E-4,0.99994487,0.618607,0.7856768,0.006112708,-0.7856272,0.61863685,-0.008850469,-0.010735154,6.726522E-4,0.9999421,-0.14364624,0.007171631,9.871292,0
5509.775803872,0.6233151,0.7819484,0.0059235017,-0.7819034,0.62334293,-0.008409149,-0.010267893,6.09943E-4,0.99994713,0.61870104,0.7856038,0.005975525,-0.78555536,0.6187295,-0.0087571535,-0.010576887,7.2395435E-4,0.99994385,-0.09576416,0.026321411,9.670166,0
5509.780198403,0.5811318,0.81379205,0.005319356,-0.81374717,0.58115584,-0.008575814,-0.010070303,6.550676E-4,0.9999491,0.618781,0.7855417,0.005864913,-0.785495,0.6188083,-0.008596855,-0.0103824455,7.127104E-4,0.9999459,-0.07661438,0.06463623,9.86171,0
5509.784592935,0.58120763,0.81373894,0.0051709274,-0.81369567,0.5812302,-0.00841997,-0.009857155,6.861887E-4,0.9999512,0.6180501,0.786118,0.0057119187,-0.7860728,0.618076,-0.008464049,-0.010184141,7.412221E-4,0.99994785,-0.07182312,-0.05984497,9.86171,0
5509.788987466,0.58126634,0.8136976,0.005055761,-0.813656,0.5812879,-0.008257557,-0.009658008,6.8619E-4,0.9999531,0.61733377,0.78668183,0.005549531,-0.7866379,0.6173582,-0.008348561,-0.009993709,7.883765E-4,0.99994975,-0.05265808,-0.07421875,9.828186,0
5509.793381997,0.5934655,0.8048437,0.005014967,-0.80480254,0.59348613,-0.008187798,-0.009566212,8.2311744E-4,0.9999539,0.616646,0.78722197,0.005405857,-0.7871793,0.6166691,-0.008240317,-0.009820584,8.2597946E-4,0.9999514,-0.04309082,0.10293579,9.804245,0
5509.797776528,0.5934719,0.8048392,0.0050025075,-0.80479795,0.5934924,-0.008196994,-0.009566212,8.3867734E-4,0.9999539,0.6161763,0.78759074,0.0052571534,-0.78754824,0.616198,-0.008243345,-0.00973183,9.3909196E-4,0.99995226,-0.11012268,0.026321411,9.794678,0
5509.80217106,0.5934703,0.8048404,0.00500578,-0.8047993,0.59349084,-0.008175248,-0.009550654,8.231176E-4,0.9999541,0.61575127,0.7879231,0.0052519944,-0.78788054,0.61577296,-0.008242494,-0.0097284885,9.373821E-4,0.99995226,-0.07182312,-0.01675415,9.809036,0
5509.806565591,0.61021155,0.79222155,0.0051978887,-0.7921809,0.6102331,-0.008071341,-0.009566212,8.075576E-4,0.9999539,0.6153104,0.78826725,0.0052797273,-0.7882251,0.61533237,-0.00820323,-0.009715125,8.8591885E-4,0.9999524,-0.12449646,-0.05027771,9.761154,0
5509.810960122,0.61020046,0.79222983,0.0052211983,-0.7921893,0.6102223,-0.008053371,-0.009566212,7.779938E-4,0.9999539,0.61521214,0.78834414,0.005233554,-0.788302,0.6152338,-0.008207577,-0.009690256,9.2378055E-4,0.9999526,-0.10055542,-0.04548645,9.84256,0
5509.815354653,0.610207,0.7922249,0.005207338,-0.79218405,0.6102287,-0.008083695,-0.009581771,8.0755755E-4,0.9999538,0.61508834,0.788441,0.005202897,-0.7883992,0.6151097,-0.008172678,-0.009644027,9.249591E-4,0.9999531,-0.10533142,0.07421875,9.976624,0
5509.819749185,0.60699403,0.7946897,0.005144961,-0.79464746,0.60701513,-0.0082428325,-0.009673564,9.1491966E-4,0.99995273,0.61494046,0.7885563,0.0052138,-0.7885145,0.6149619,-0.008168714,-0.009647779,9.121157E-4,0.99995303,-0.028717041,0.06463623,9.818619,0
5509.824143716,0.606936,0.79473317,0.0052740136,-0.79468983,0.6069582,-0.008336042,-0.009826036,8.682388E-4,0.99995124,0.6147988,0.78866667,0.0052317623,-0.78862333,0.61482024,-0.008316086,-0.009775213,9.868294E-4,0.9999517,-0.16279602,0.01675415,9.785095,0
5509.828538247,0.6068917,0.7947665,0.005372617,-0.7947216,0.6069148,-0.008491684,-0.010009625,8.837971E-4,0.9999495,0.6146725,0.7887643,0.0053453716,-0.78872013,0.6146951,-0.008397118,-0.00990912,9.454753E-4,0.99995047,-0.06703186,0.04069519,9.670166,0
5509.832932778,0.6142756,0.78907186,0.005582515,-0.78902537,0.6143003,-0.0086093955,-0.010222772,8.837952E-4,0.99994737,0.6144993,0.7888986,0.005452009,-0.7888528,0.6145227,-0.008549458,-0.010095038,9.528031E-4,0.99994856,-0.009567261,-0.002380371,9.856918,0
5509.83732731,0.61416054,0.7891596,0.0058287433,-0.7891109,0.6141877,-0.008804009,-0.01052771,8.075498E-4,0.99994427,0.6144624,0.78892624,0.0056025754,-0.7888784,0.6144872,-0.008740602,-0.0103384005,9.5102045E-4,0.99994606,-0.13406372,0.10293579,9.928741,0
5509.841721841,0.6140397,0.7892516,0.0060871313,-0.7892007,0.61406946,-0.0089891795,-0.010832647,7.157451E-4,0.99994105,0.6144546,0.78893024,0.005884089,-0.78888035,0.61448216,-0.008913191,-0.010647554,8.3490857E-4,0.99994296,-0.11012268,-0.02154541,9.809036,0
5509.846116372,0.6256394,0.7800853,0.0065025454,-0.7800327,0.62567294,-0.009082142,-0.011153312,6.099467E-4,0.99993765,0.61447227,0.7889147,0.006117458,-0.7888625,0.61450225,-0.009102341,-0.0109401615,7.673025E-4,0.99993986,-0.11491394,-0.02154541,9.909592,0
5509.850510903,0.62564915,0.78007764,0.006481171,-0.78002715,0.6256825,-0.008883679,-0.010985115,5.0257676E-4,0.9999395,0.6147157,0.7887229,0.006384105,-0.78866863,0.61474854,-0.009277656,-0.011242119,6.681777E-4,0.9999366,0.34475708,0.03111267,9.780304,0
5509.854905435,0.6262392,0.7796137,0.0051863557,-0.77957803,0.62626034,-0.007477451,-0.009077533,6.3950394E-4,0.9999586,0.6150676,0.7884477,0.0064854072,-0.7883941,0.6151015,-0.009204884,-0.011246754,5.485684E-4,0.9999366,3.6008759,0.4381256,9.555252,0
5509.859299966,0.5990427,0.8007091,0.0035571265,-0.8006858,0.5990527,-0.006180476,-0.00707967,8.5422833E-4,0.99997467,0.6158782,0.7878169,0.0062083006,-0.7877679,0.6159093,-0.008805356,-0.010760759,5.323269E-4,0.999942,4.0749207,0.38545227,9.9048,0
5509.863694497,0.5991634,0.8006199,0.0033113807,-0.8005975,0.5991718,-0.006078873,-0.0068509523,9.911553E-4,0.9999761,0.6166408,0.78722286,0.005860847,-0.7871773,0.61666834,-0.008483098,-0.010292287,6.1749795E-4,0.99994683,4.0222473,0.24659729,10.024521,0
5509.868089028,0.5996752,0.80024034,0.0022685002,-0.8002259,0.59967834,-0.004934251,-0.0053089564,0.0011436351,0.9999852,0.6175808,0.7864876,0.005592926,-0.78644377,0.6176056,-0.008338289,-0.010012183,7.510454E-4,0.9999496,3.4715881,0.07899475,9.8138275,0
5509.87248356,0.6083194,0.7936909,0.001526701,-0.7936821,0.6083202,-0.0039230655,-0.004042424,0.0011747614,0.9999911,0.6187345,0.7855821,0.00532901,-0.7855397,0.6187568,-0.008214031,-0.009750158,8.9615554E-4,0.9999521,2.973587,-0.07899475,9.856918,0
5509.876847573,0.6086172,0.7934634,9.0209226E-4,-0.7934586,0.6086169,-0.002981013,-0.0029143535,0.001098523,0.9999952,0.620415,0.7842569,0.0051480867,-0.7842158,0.62043554,-0.0080856215,-0.00953526,9.792296E-4,0.99995404,2.609665,-0.21307373,9.708481,0
5509.881242105,0.6087574,0.7933561,6.078882E-4,-0.79335344,0.608757,-0.0022440297,-0.0021503712,8.8379945E-4,0.99999726,0.6218867,0.78309125,0.005000903,-0.7830519,0.6219059,-0.007915619,-0.009308743,0.0010066512,0.99995613,2.4181366,-0.3184204,9.86171,0
5509.885636636,0.6095559,0.792743,4.694276E-4,-0.79274195,0.6095559,-0.0014094838,-0.0014035008,4.8702408E-4,0.9999989,0.6234036,0.7818837,0.0050911442,-0.78184444,0.6234237,-0.007889826,-0.009342866,9.380631E-4,0.99995595,2.4612274,-0.59614563,9.832977,0
5509.890031167,0.60963166,0.79268473,3.047689E-4,-0.7926846,0.6096317,-4.9582263E-4,-5.7882786E-4,6.0683567E-5,0.9999998,0.62505984,0.78055906,0.005271457,-0.78052014,0.62508154,-0.0078384215,-0.009413442,7.8500377E-4,0.9999554,2.403778,-0.47164917,9.933533,0
5509.894425698,0.6098147,0.792544,-9.2642E-5,-0.7925439,0.6098147,3.7045646E-4,3.500975E-4,-1.5248693E-4,0.9999999,0.62645096,0.7794419,0.005423892,-0.77940464,0.6264742,-0.007640737,-0.009353439,5.59141E-4,0.9999561,2.4181366,-0.4333496,9.646225,0
5509.89882023,0.6502781,0.75969607,-5.256011E-4,-0.7596953,0.6502783,0.0011763488,0.0012354545,-3.6565718E-4,0.9999992,0.6279865,0.77820593,0.005338915,-0.7781705,0.62800896,-0.007440749,-0.009143322,5.181031E-4,0.9999581,2.2313843,-0.47164917,9.928741,0
5509.903214761,0.6505011,0.7595047,-0.0010152964,-0.7595026,0.6505017,0.0018408275,0.002058569,-4.263401E-4,0.9999978,0.6300001,0.77657735,0.005235541,-0.77654386,0.6300217,-0.0072352313,-0.008917222,4.9256923E-4,0.9999601,2.1499786,-0.28489685,9.890442,0
5509.907609292,0.65069485,0.7593379,-0.0014413401,-0.7593343,0.6506963,0.002361104,0.0027307505,-4.4189923E-4,0.9999962,0.63191617,0.77502006,0.005082471,-0.7749878,0.6319364,-0.007094092,-0.008709863,5.4401834E-4,0.999962,2.0015411,-0.2609558,9.694122,0
5509.912003823,0.6310802,0.7757157,-0.0016701113,-0.7757099,0.6310821,0.003066218,0.003432491,-6.3950766E-4,0.9999939,0.63381326,0.77347034,0.0049498626,-0.77343863,0.6338323,-0.00703453,-0.008578382,6.301637E-4,0.99996305,1.9776001,-0.22265625,9.909592,0
5509.916398355,0.6311743,0.77563876,-0.0018790958,-0.77563065,0.6311766,0.003662562,0.004026866,-8.5423084E-4,0.9999916,0.6349539,0.7725344,0.0049201734,-0.77250445,0.63497275,-0.0068216575,-0.008394141,5.305821E-4,0.99996465,1.9440765,-0.23222351,9.74678,0
5509.920792886,0.6312206,0.7756008,-0.00198183,-0.7755904,0.6312228,0.00415076,0.0044703092,-0.0010829569,0.9999894,0.6359854,0.77168506,0.0049762763,-0.77165663,0.6360047,-0.006638625,-0.008287863,3.820919E-4,0.9999656,1.747757,-0.10772705,9.9048,0
5509.925187417,0.64558643,0.76368403,-0.002210541,-0.7636718,0.6455891,0.004504444,0.004867073,-0.0012198802,0.9999875,0.6366601,0.77112764,0.0051071686,-0.77110046,0.6366806,-0.006477877,-0.008246905,1.8606585E-4,0.99996597,1.5705872,-0.03111267,9.890442,0
5509.929581948,0.6456759,0.7636078,-0.0024018823,-0.763593,0.645679,0.0049418956,0.0053245146,-0.0013568021,0.9999849,0.63741314,0.77050495,0.0051652137,-0.770479,0.63743407,-0.006322543,-0.008164033,5.0383627E-5,0.9999667,1.5801697,-0.16998291,9.775513,0
5509.93397648,0.6458105,0.76349294,-0.0026898964,-0.7634753,0.64581454,0.005377313,0.005842715,-0.0014190563,0.9999819,0.6380421,0.76998425,0.0051596425,-0.7699595,0.63806295,-0.0061687334,-0.008042004,-3.6804264E-5,0.99996763,1.6184692,0.007171631,10.096344,0
