Time,Rot1,Rot2,Rot3,Rot4,Rot5,Rot6,Rot7,Rot8,Rot9,FRot1,FRot2,FRot3,FRot4,FRot5,FRot6,FRot7,FRot8,FRot9,AccX,AccY,AccZ,Imid
12696.635477699,0.7627883,-0.07924161,0.6417747,0.6466434,0.09733688,-0.7565566,-0.0025175812,0.9920919,0.1254885,0.7530406,-0.08121726,0.6529423,0.65796745,0.097393714,-0.74672174,-0.0029457775,0.9919265,0.12677974,0.06777954,0.060913086,0.0861969,0
12696.639902748,0.7359859,-0.08300577,0.6718889,0.67699146,0.09417239,-0.72994107,-0.002684065,0.9920895,0.12550376,0.7532268,-0.081120074,0.6527395,0.6577537,0.09750667,-0.74689525,-0.0030582608,0.9919234,0.12680167,-0.03591919,0.07527161,0.03337097,0
12696.644327797,0.73602414,-0.08296068,0.6718527,0.67694944,0.094359614,-0.7299561,-0.0028381068,0.9920755,0.12561113,0.752835,-0.08106237,0.6531986,0.6582015,0.09753589,-0.7464968,-0.0031975077,0.99192524,0.12678382,-0.04878235,-0.049087524,0.14724731,0
12696.648722328,0.7361119,-0.08285688,0.67176926,0.6768532,0.094514884,-0.7300251,-0.0030045784,0.9920694,0.12565549,0.75245816,-0.08102594,0.6536371,0.65863144,0.09761073,-0.74610764,-0.0033479098,0.9919208,0.12681423,-0.0758667,-0.025146484,-0.0016479492,0
12696.653147377,0.7674036,-0.07816124,0.63638246,0.64115655,0.09846068,-0.76106757,-0.0031726642,0.9920667,0.12567267,0.7521285,-0.0809971,0.65402013,0.65900743,0.097659096,-0.7457694,-0.0034658553,0.99191844,0.12682986,-0.08380127,-0.039352417,0.026931763,0
12696.657572426,0.76748824,-0.07805853,0.6362929,0.64105433,0.09862372,-0.76113254,-0.0033406836,0.9920586,0.12573232,0.75248986,-0.08083166,0.6536247,0.658594,0.097771056,-0.7461198,-0.003595479,0.9919209,0.12680697,-0.1300354,0.042053223,0.19873047,0
12696.661997474,0.76762295,-0.07789517,0.6361504,0.64089227,0.09868142,-0.7612614,-0.0034776344,0.9920656,0.12567253,0.7528173,-0.08068752,0.6532654,0.6582192,0.09786032,-0.7464388,-0.0037004626,0.9919238,0.12678102,-0.056869507,0.018096924,-0.035308838,0
12696.666422523,0.7696565,-0.07741481,0.63374734,0.6384481,0.09884676,-0.7632909,-0.0035538478,0.99208677,0.12550342,0.75312394,-0.08051103,0.65293366,0.65786767,0.097919084,-0.746741,-0.0038137762,0.9919324,0.1267108,-0.084854126,-0.006134033,-0.08154297,0
12696.670847572,0.7697029,-0.077355474,0.63369834,0.6383922,0.09883795,-0.763339,-0.003584987,0.9920923,0.12545899,0.7535063,-0.08030835,0.6525174,0.6574295,0.09785221,-0.74713546,-0.003849049,0.9919554,0.12652932,-0.08934021,-0.020492554,-0.11941528,0
12696.675272621,0.7698218,-0.0772034,0.63357246,0.6382485,0.0987856,-0.763466,-0.0036456762,0.99210936,0.12532225,0.7538198,-0.08022387,0.6521655,0.65706974,0.09788356,-0.7474478,-0.003873122,0.99195915,0.12649925,-0.055221558,0.036819458,-0.13722229,0
12696.67969767,0.7883248,-0.07422456,0.61076564,0.61524844,0.10098353,-0.7818386,-0.0036456413,0.99211544,0.12527438,0.7541009,-0.08008949,0.65185696,0.656747,0.097857594,-0.7477348,-0.003903458,0.99197257,0.12639304,-0.012130737,-0.006439209,-0.098464966,0
12696.684122718,0.7883838,-0.07415101,0.6106986,0.61517274,0.10098418,-0.78189826,-0.0036923408,0.9921209,0.12522995,0.75478715,-0.079929665,0.65108186,0.655958,0.09792653,-0.748418,-0.003937388,0.99197865,0.12634419,-0.12658691,-0.030380249,-0.13632202,0
12696.688547767,0.7884623,-0.07405288,0.610609,0.6150716,0.1009824,-0.78197783,-0.003753052,0.9921283,0.12516864,0.75545555,-0.0797647,0.65032643,0.6551881,0.09794109,-0.7490902,-0.0039427225,0.9919905,0.12625103,-0.15472412,0.07017517,-0.15486145,0
12696.692972816,0.7641008,-0.07785689,0.64038134,0.64508575,0.098041035,-0.7577944,-0.0037841273,0.99213225,0.12513761,0.7561505,-0.0796481,0.6495325,0.65438586,0.09800775,-0.7497823,-0.003940486,0.99199325,0.1262292,-0.073013306,-0.11192322,-0.058807373,0
12696.697397865,0.76412237,-0.07783117,0.6403586,0.64505994,0.09806257,-0.7578135,-0.0038136905,0.9921321,0.1251376,0.75629497,-0.07963036,0.64936656,0.6542188,0.09805643,-0.7499218,-0.0039580185,0.9919899,0.12625527,-0.11103821,-0.10714722,-0.010925293,0
12696.701822914,0.7642285,-0.07770513,0.64024734,0.64493424,0.0979692,-0.7579327,-0.0038292638,0.9921512,0.12498555,0.7564403,-0.07967031,0.64919233,0.65405107,0.09807107,-0.75006616,-0.0039089858,0.99198526,0.12629336,-0.08694458,-0.030685425,-0.14350891,0
12696.706217445,0.75540763,-0.079101026,0.65046316,0.6552442,0.096943766,-0.7491709,-0.003798167,0.9921416,0.12506254,0.7565954,-0.07958197,0.6490226,0.65387183,0.09797935,-0.7502344,-0.0038856682,0.9920014,0.12616712,-0.053726196,0.0077819824,-0.08679199,0
12696.710642494,0.7553525,-0.07916719,0.65051913,0.65530825,0.09684367,-0.7491277,-0.0036923185,0.992146,0.12503003,0.75663656,-0.079685695,0.6489617,0.6538245,0.09803937,-0.75026786,-0.0038381843,0.9919871,0.12628064,-0.102645874,0.036361694,0.0715332,0
12696.715067543,0.7552603,-0.07927794,0.65061265,0.6554149,0.09685018,-0.74903363,-0.0036301021,0.99213666,0.12510705,0.75663656,-0.079685695,0.6489617,0.6538245,0.09803937,-0.75026786,-0.0038381843,0.9919871,0.12628064,-0.103256226,0.036514282,0.07078552,0
12696.719492592,0.7626139,-0.07830076,0.64209723,0.6468444,0.097696394,-0.7563384,-0.0035087168,0.9921313,0.12515305,0.7566946,-0.079815336,0.64887804,0.65375835,0.097896025,-0.75034416,-0.0036336111,0.99199086,0.12625735,-0.008682251,0.09396362,-0.10205078,0
12696.72391764,0.7625584,-0.078364186,0.64215547,0.6469105,0.09754456,-0.75630134,-0.003371825,0.9921412,0.12507805,0.7568855,-0.0799088,0.6486439,0.65353805,0.0978883,-0.75053716,-0.0035201241,0.9919841,0.12631367,-0.043548584,-0.059265137,-0.1587677,0
12696.728342689,0.7624301,-0.078510724,0.64229006,0.6470628,0.09742108,-0.7561872,-0.0032037802,0.9921418,0.12507813,0.757103,-0.079992004,0.6483797,0.653287,0.0977543,-0.7507731,-0.0033260586,0.9919906,0.1262678,-0.040405273,-0.0018005371,-0.04864502,0
12696.732767738,0.76232713,-0.07862815,0.6423977,0.64718443,0.09734013,-0.7560933,-0.0030808528,0.9921404,0.12509196,0.757103,-0.079992004,0.6483797,0.653287,0.0977543,-0.7507731,-0.0033260586,0.9919906,0.1262678,-0.041610718,-0.0018005371,-0.04878235,0
12696.737192787,0.7749645,-0.07681779,0.627319,0.6319981,0.09877012,-0.7686502,-0.0029143638,0.99214095,0.12509203,0.7574631,-0.080157585,0.6479385,0.6528708,0.097628206,-0.7511514,-0.0030465974,0.9919897,0.12628232,0.057296753,0.031723022,-0.06793213,0
12696.741617836,0.7748282,-0.07698028,0.62746733,0.6321659,0.098638326,-0.7685289,-0.0027307584,0.99214137,0.12509207,0.7578861,-0.0801967,0.6474389,0.6523804,0.09760067,-0.75158095,-0.0029161568,0.9919892,0.12628895,0.112960815,0.031723022,-0.02961731,0
12696.746042885,0.76224035,-0.079045855,0.64244944,0.6472887,0.09710452,-0.7560344,-0.002623366,0.9921303,0.12518248,0.7583202,-0.080221556,0.64692736,0.65187633,0.097551614,-0.75202465,-0.002780225,0.99199206,0.12626989,0.03529358,-0.011367798,0.15621948,0
12696.750467933,0.76211214,-0.07920423,0.6425821,0.64744014,0.09711187,-0.75590384,-0.0025315695,0.9921169,0.12529013,0.7584883,-0.08028069,0.6467229,0.6516812,0.09752136,-0.7521977,-0.0026823506,0.9919902,0.12628622,0.08706665,0.03666687,0.1982727,0
12696.754892982,0.7621082,-0.07920919,0.6425863,0.647445,0.09704739,-0.755908,-0.002486461,0.9921228,0.12524419,0.75863427,-0.080308765,0.6465482,0.6515115,0.097510494,-0.75234604,-0.0026252538,0.991989,0.12629688,0.124938965,0.04623413,-0.10772705,0
12696.759318031,0.7620384,-0.07929533,0.6426584,0.64752734,0.09703485,-0.75583905,-0.0024257638,0.99211717,0.12529016,0.7587436,-0.08033856,0.6464162,0.6513843,0.09750784,-0.7524564,-0.0025793854,0.9919869,0.12631473,0.14828491,-0.07347107,0.121658325,0
12696.76374308,0.76200575,-0.0793355,0.642692,0.6475659,0.097000845,-0.7558104,-0.002379085,0.99211735,0.12529017,0.7588135,-0.08037769,0.64632916,0.65130305,0.09748095,-0.7525302,-0.002518139,0.99198633,0.12632011,0.10951233,0.06060791,0.021102905,0
12696.768137611,0.762059,-0.07926988,0.64263713,0.6475031,0.097056374,-0.75585717,-0.0024553274,0.99211717,0.12529016,0.75888216,-0.08036671,0.64624995,0.6512232,0.09746274,-0.75260174,-0.0025011636,0.991989,0.1262994,0.09590149,0.08454895,-0.026779175,0
12696.77256266,0.78364086,-0.07592293,0.6165571,0.6212093,0.09969633,-0.7772771,-0.0024553274,0.99211717,0.12529016,0.75891006,-0.080259524,0.6462305,0.65119004,0.097548574,-0.75261927,-0.0026340066,0.99198925,0.1262948,1.373291E-4,0.017501831,-0.017211914,0
12696.776987709,0.7836443,-0.07591839,0.6165533,0.62120473,0.09974147,-0.77727485,-0.002486475,0.9921129,0.1253227,0.7594146,-0.0801106,0.6456561,0.6506015,0.09760085,-0.75312144,-0.0026835704,0.99199617,0.12623958,-0.057006836,0.022445679,0.08782959,0
12696.781412758,0.7836397,-0.07592449,0.61655843,0.6212108,0.09967556,-0.77727854,-0.0024413283,0.9921191,0.12527484,0.7598773,-0.07998492,0.645127,0.6500608,0.09766994,-0.7535792,-0.0027345482,0.9919995,0.12621222,0.08618164,0.06539917,-0.11282349,0
12696.785837806,0.7670882,-0.0785003,0.6367209,0.6415371,0.097660206,-0.7608501,-0.002455332,0.9921191,0.12527484,0.7603317,-0.079910144,0.6446008,0.64952934,0.09771188,-0.7540319,-0.0027303614,0.9920014,0.12619741,-0.03816223,-0.03994751,0.011672974,0
12696.790262855,0.7670962,-0.078490056,0.6367123,0.6415273,0.09762878,-0.7608621,-0.0024413376,0.9921229,0.1252442,0.76044863,-0.07981136,0.644475,0.6493922,0.09767059,-0.7541552,-0.0027560997,0.9920134,0.12610234,0.0335083,0.02229309,-0.07421875,0
12696.794687904,0.76710063,-0.07848457,0.6367078,0.6415222,0.097575456,-0.7608733,-0.0024102319,0.9921286,0.1251998,0.7605756,-0.079785295,0.6443283,0.64924335,0.09770409,-0.754279,-0.0027731322,0.9920122,0.12611143,0.081085205,0.02229309,-0.12644958,0
12696.799112953,0.7475766,-0.08127213,0.65918446,0.6641711,0.095145956,-0.74150115,-0.0024553456,0.9921401,0.12510748,0.76070654,-0.079669885,0.6441881,0.64908975,0.09769815,-0.75441206,-0.0028320663,0.99202204,0.12603253,0.07196045,0.06524658,0.027679443,0
12696.803538002,0.7476731,-0.081162356,0.6590885,0.6640622,0.09511953,-0.741602,-0.0025020149,0.9921516,0.12501517,0.7604409,-0.07959903,0.64451045,0.6494008,0.09762715,-0.75415355,-0.0028918223,0.99203473,0.12593134,0.048477173,0.031570435,-0.019302368,0
12696.807963051,0.7478507,-0.08096026,0.6589118,0.663862,0.09503304,-0.7417924,-0.002562686,0.9921765,0.12481697,0.7601738,-0.07952753,0.6448343,0.64971304,0.09755726,-0.7538936,-0.0029529706,0.99204737,0.12583055,-0.041900635,-0.035751343,-0.2280426,0
12696.812388099,0.73713493,-0.08241633,0.6707008,0.67574054,0.09371274,-0.7311583,-0.0025938202,0.99218214,0.124771,0.7598691,-0.07944347,0.6452036,0.6500692,0.09742499,-0.7536036,-0.0029900656,0.9920671,0.125674,-0.07032776,0.026489258,-0.11746216,0
12696.816813148,0.7371553,-0.08239385,0.67068136,0.67571855,0.093693785,-0.7311813,-0.0025938298,0.99218583,0.1247419,0.7593954,-0.07943729,0.6457617,0.65062225,0.097340435,-0.75313705,-0.0030315649,0.99207586,0.12560356,-0.0368042,0.060012817,-0.05970764,0
12696.821238197,0.737211,-0.08233214,0.6706276,0.67565745,0.0936851,-0.73123866,-0.002623368,0.99219173,0.12469401,0.7589896,-0.07940846,0.6462423,0.65109545,0.09726489,-0.75273776,-0.0030829415,0.9920856,0.12552553,-0.0460968,0.01675415,-0.1023407,0
12696.825632728,0.70238906,-0.08688548,0.7064704,0.7117884,0.08937336,-0.6966848,-0.0026078336,0.9922013,0.12461897,0.75857425,-0.079417974,0.64672863,0.65157914,0.09720934,-0.75232637,-0.0031198307,0.9920903,0.1254876,0.02557373,0.02154541,-0.22131348,0
12696.830057777,0.7023783,-0.08689777,0.7064798,0.71179926,0.08938279,-0.6966727,-0.0026078285,0.99219936,0.12463428,0.757528,-0.0795082,0.6479428,0.6527949,0.09711583,-0.7512838,-0.0031922737,0.9920922,0.1254705,0.00642395,-0.05986023,0.056274414,0
12696.834482826,0.70245486,-0.08681167,0.70641416,0.71172345,0.08936006,-0.69675297,-0.0026389323,0.99220896,0.124557294,0.7564875,-0.07964098,0.64914095,0.65400016,0.09701525,-0.7502478,-0.003226098,0.9920914,0.12547603,-0.065093994,0.0644989,-0.19677734,0
12696.838907875,0.7669629,-0.07782061,0.6369552,0.6416857,0.09723609,-0.760779,-0.0027307493,0.99221426,0.12451284,0.7555575,-0.07976745,0.65020776,0.6550745,0.09689366,-0.7493258,-0.0032292004,0.99209315,0.12546235,-0.011520386,-0.09352112,-0.12449646,0
12696.843332924,0.76699567,-0.077781275,0.6369205,0.64164627,0.0972688,-0.76080805,-0.0027758724,0.99221414,0.124512814,0.75584114,-0.07964974,0.64989245,0.6547468,0.096957095,-0.74960387,-0.003305925,0.99209636,0.12543456,-0.03981018,-0.07437134,-0.2346344,0
12696.847757972,0.7670202,-0.077751845,0.6368945,0.6416168,0.097313255,-0.76082736,-0.0028225463,0.9922122,0.12452813,0.7561471,-0.07963294,0.6495385,0.65439326,0.097061016,-0.7498991,-0.0033281997,0.9920876,0.12550366,-0.10159302,0.026184082,-0.09591675,0
12696.852183021,0.75123954,-0.08007961,0.6551537,0.6600237,0.09536645,-0.74516714,-0.0028069974,0.992216,0.12449749,0.75644964,-0.07962525,0.649187,0.65404356,0.09712604,-0.7501956,-0.0033184479,0.9920818,0.12554935,-0.015563965,0.026184082,-0.12913513,0
12696.85660807,0.75125366,-0.080064476,0.6551394,0.6600075,0.09540006,-0.74517715,-0.0028381112,0.99221396,0.1245128,0.75644046,-0.07963642,0.64919645,0.65405434,0.09710619,-0.7501889,-0.0032986384,0.9920829,0.12554158,-0.05355835,0.10758972,0.0574646,0
12696.861033119,0.7511122,-0.08021579,0.65528286,0.66016877,0.09537035,-0.745038,-0.0027307654,0.9922046,0.124589816,0.7563795,-0.07970617,0.6492588,0.65412503,0.097082146,-0.7501303,-0.0032414212,0.9920796,0.12556875,0.012420654,-0.02154541,0.02319336,0
12696.865458168,0.73192585,-0.08302702,0.67630696,0.681379,0.09309464,-0.7259862,-0.0026840868,0.9921894,0.12471123,0.7563429,-0.07980641,0.6492891,0.6541678,0.09704464,-0.7500979,-0.0031474014,0.99207526,0.1256058,0.07897949,0.06480408,0.07467651,0
12696.869883217,0.73187834,-0.08307672,0.67635226,0.6814302,0.093069546,-0.7259414,-0.0026389584,0.9921876,0.12472657,0.7559125,-0.07993848,0.64977396,0.6546653,0.097035944,-0.74966484,-0.0031243565,0.9920654,0.12568364,0.12164307,-0.09321594,0.017059326,0
12696.874308265,0.7318451,-0.083111554,0.6763839,0.68146586,0.09309797,-0.7259042,-0.0026389435,0.9921821,0.12477099,0.75549334,-0.079997756,0.650254,0.6551491,0.09692637,-0.7492563,-0.003087937,0.9920714,0.12563768,0.006729126,0.060012817,0.14590454,0
12696.878733314,0.7470703,-0.080976926,0.6597945,0.6647399,0.094921865,-0.7410201,-0.0026233934,0.9921858,0.12474189,0.7550645,-0.08006924,0.6507431,0.6556434,0.0968727,-0.74883074,-0.003080936,0.99207085,0.12564199,0.016159058,0.050430298,-0.07885742,0
12696.883158363,0.7470583,-0.08099035,0.6598063,0.66475344,0.094889455,-0.74101204,-0.002593835,0.9921878,0.124726586,0.75492847,-0.080120005,0.6508945,0.65580004,0.09681736,-0.7487006,-0.0030319924,0.99207217,0.1256329,0.09725952,-0.026184082,-0.021240234,0
12696.887552894,0.7470689,-0.08097846,0.6597958,0.66474146,0.09489998,-0.74102134,-0.0026078385,0.9921876,0.12472657,0.75474614,-0.08014692,0.65110266,0.65601,0.09678265,-0.7485212,-0.0030237671,0.99207336,0.12562351,-0.06539917,-0.040542603,-0.011672974,0
12696.891977943,0.7603381,-0.07909466,0.6446937,0.6495222,0.09657268,-0.75418466,-0.002607814,0.99217826,0.124801636,0.75456154,-0.08019608,0.65131056,0.6562223,0.09678199,-0.7483351,-0.003021581,0.9920695,0.12565443,-0.00793457,-0.026184082,0.18389893,0
12696.896402992,0.76035756,-0.07907187,0.64467365,0.64949954,0.09655176,-0.7542069,-0.0026078238,0.9921821,0.12477099,0.7546302,-0.08019263,0.65123135,0.6561432,0.09681926,-0.7483997,-0.003035602,0.9920661,0.1256806,0.02557373,0.021697998,-0.045639038,0
12696.900828041,0.7603731,-0.07905361,0.6446575,0.64948153,0.09646605,-0.7542335,-0.0025626859,0.992192,0.124694034,0.7546987,-0.080170944,0.65115464,0.6560644,0.096848264,-0.748465,-0.0030580545,0.992065,0.12568857,0.092163086,0.03112793,-0.2172699,0
12696.90525309,0.7898087,-0.07446742,0.608816,0.61334807,0.100012176,-0.7834551,-0.0025471353,0.9921956,0.124664925,0.75476396,-0.08009724,0.65108824,0.6559892,0.096828364,-0.74853355,-0.0030883374,0.99207294,0.12562549,0.0632782,0.03112793,-0.06854248,0
12696.909678138,0.789789,-0.07449379,0.60883814,0.61337334,0.0999918,-0.7834378,-0.0025175721,0.9921957,0.12466495,0.7554618,-0.08000644,0.6502896,0.6551855,0.096912146,-0.74922633,-0.0030780311,0.9920721,0.12563248,0.0773468,-0.04548645,0.008071899,0
12696.914103187,0.7897994,-0.07447982,0.6088264,0.61336017,0.099926956,-0.78345644,-0.0024864718,0.99220335,0.124605216,0.7561255,-0.079953596,0.64952415,0.65441954,0.09699989,-0.74988407,-0.0030478425,0.99206775,0.12566729,0.0052337646,0.06465149,-0.11582947,0
12696.918528236,0.7898243,-0.07444642,0.60879827,0.61332816,0.099892154,-0.7834859,-0.0024864478,0.9922093,0.12455734,0.7561255,-0.079953596,0.64952415,0.65441954,0.09699989,-0.74988407,-0.0030478425,0.99206775,0.12566729,0.0052337646,0.0644989,-0.115371704,0
12696.922953285,0.76748955,-0.07798886,0.63629985,0.6410568,0.09717055,-0.7613174,-0.0024553237,0.9922075,0.12457267,0.7574991,-0.079829685,0.647937,0.6528292,0.097239956,-0.751238,-0.0030342718,0.9920542,0.12577432,0.05279541,0.002243042,0.07601929,0
12696.927378334,0.76749223,-0.077985615,0.636297,0.64105344,0.09721567,-0.76131445,-0.0024864718,0.99220335,0.124605216,0.75768965,-0.07977445,0.64772093,0.6526078,0.09727793,-0.7514253,-0.0030644147,0.99205494,0.12576792,-0.071380615,-0.02633667,0.05656433,0
12696.931803383,0.7450175,-0.081169136,0.66208804,0.66704,0.094493,-0.7390053,-0.0025782546,0.992211,0.12454199,0.7579025,-0.079755135,0.6474743,0.6523607,0.09731288,-0.7516354,-0.0030608017,0.9920531,0.12578279,-0.032165527,0.1267395,0.0715332,0
12696.936228431,0.7450816,-0.08109575,0.66202486,0.66696805,0.09451929,-0.7390667,-0.0026389468,0.9922144,0.12451285,0.7576504,-0.07968015,0.6477785,0.6526532,0.09724314,-0.75139046,-0.003121109,0.99206597,0.1256798,-0.17523193,-0.0073394775,-0.08140564,0
12696.94065348,0.74505985,-0.08112055,0.66204613,0.6669923,0.094517745,-0.73904496,-0.002623382,0.9922126,0.124528185,0.7573876,-0.0797384,0.6480786,0.65295833,0.09716891,-0.7511349,-0.003078795,0.9920685,0.12566037,0.020950317,-0.026489258,0.042938232,0
12696.945048011,0.75649804,-0.079461664,0.6491506,0.6539907,0.09589671,-0.75039995,-0.0026233874,0.99221456,0.124512866,0.75713,-0.07972223,0.6483815,0.6532568,0.09713138,-0.75088024,-0.0031163332,0.99207354,0.12562017,0.011367798,0.09321594,-0.01914978,0
12696.94947306,0.75653803,-0.079414055,0.64910996,0.65394443,0.09587692,-0.75044274,-0.0026389621,0.9922202,0.124466896,0.75712913,-0.07969944,0.64838535,0.65325785,0.097092874,-0.7508843,-0.0031085373,0.99207914,0.12557612,-0.022003174,0.050125122,-0.1240387,0
12696.953898109,0.7565861,-0.079356655,0.64906096,0.6538889,0.09582452,-0.75049794,-0.0026389465,0.9922299,0.12438992,0.7570982,-0.0796161,0.64843166,0.6532936,0.09702036,-0.7508625,-0.0031303288,0.9920929,0.12546663,-0.0076293945,-0.017059326,-0.19033813,0
12696.958323158,0.7531019,-0.07979783,0.6530466,0.6578987,0.09527836,-0.7470551,-0.0026078313,0.9922471,0.1242532,0.7570823,-0.079571106,0.6484558,0.6533121,0.0969502,-0.7508555,-0.003121515,0.9921034,0.12538405,0.04472351,0.102493286,-0.09321594,0
12696.962748207,0.75309193,-0.07980936,0.6530567,0.65791017,0.09528868,-0.7470437,-0.0026078261,0.9922452,0.12426852,0.7570374,-0.07951822,0.6485146,0.6533641,0.09685666,-0.75082225,-0.0031089142,0.99211675,0.12527846,0.01121521,-0.065093994,0.03112793,0
12696.967173256,0.75308186,-0.07982089,0.6530668,0.65792155,0.09529899,-0.7470323,-0.0026078213,0.9922433,0.12428384,0.7569989,-0.07949247,0.6485627,0.6534089,0.09679517,-0.75079125,-0.0030954895,0.9921248,0.12521492,-0.00793457,0.021087646,0.030975342,0
12696.971598304,0.7531119,-0.07978628,0.6530364,0.6578872,0.09526803,-0.74706644,-0.0026078362,0.992249,0.12423788,0.756966,-0.07951769,0.64859813,0.6534473,0.09672623,-0.7507668,-0.003037212,0.9921295,0.12517908,-0.06060791,-0.050735474,0.041000366,0
12696.976023353,0.753042,-0.07986686,0.65310717,0.6579677,0.095157064,-0.74700975,-0.0024864445,0.99225324,0.12420709,0.7569554,-0.0794931,0.6486135,0.6534597,0.096636966,-0.7507674,-0.0029992177,0.9921402,0.1250954,0.072265625,-0.017349243,-0.025741577,0
12696.980448402,0.753029,-0.07988193,0.65312046,0.6579829,0.09512364,-0.7470008,-0.0024553302,0.9922553,0.12419178,0.7569112,-0.07954012,0.6486592,0.65351135,0.09653912,-0.7507351,-0.0029074359,0.99214596,0.1250519,-0.11956787,-0.012557983,-0.02558899,0
12696.984873451,0.765328,-0.0780985,0.6388847,0.64363605,0.096532255,-0.7592194,-0.0023791015,0.9922611,0.124145836,0.75688857,-0.07959077,0.6486795,0.65353787,0.096467465,-0.7507212,-0.0028259903,0.9921489,0.1250307,0.013763428,-0.022140503,-0.058654785,0
12696.9892985,0.7653455,-0.07807711,0.6388663,0.6436152,0.09651212,-0.7592397,-0.00237911,0.99226475,0.124116726,0.75712854,-0.079580255,0.64840066,0.6532602,0.09641772,-0.7509693,-0.0027549795,0.99215454,0.12498721,-6.1035156E-4,0.08320618,-0.06793213,0
12696.993723549,0.7652866,-0.078148834,0.6389282,0.64368546,0.09651012,-0.75918037,-0.0023339735,0.99225926,0.12416116,0.7573366,-0.07949208,0.64816844,0.6530188,0.096419476,-0.751179,-0.002783287,0.99216145,0.12493181,0.1282196,0.020950317,0.1327362,0
12696.998148597,0.7672853,-0.07787974,0.6365595,0.64130175,0.09676636,-0.7611626,-0.002318405,0.99225557,0.12419182,0.7575293,-0.07946133,0.6479469,0.65279526,0.0963901,-0.75137687,-0.0027502591,0.99216676,0.12489031,0.027511597,-0.0077819824,0.09411621,0
12697.002543129,0.7672853,-0.07787974,0.6365595,0.64130175,0.09676636,-0.7611626,-0.002318405,0.99225557,0.12419182,0.7577482,-0.079425216,0.6476954,0.65254146,0.09637924,-0.75159883,-0.002728496,0.9921707,0.124859445,0.008377075,0.044891357,-0.01600647,0
12697.006968177,0.7673024,-0.077859506,0.6365413,0.6412812,0.09672328,-0.76118517,-0.0023028585,0.9922613,0.12414586,0.7579313,-0.07936314,0.64748883,0.65232867,0.096391305,-0.751782,-0.0027485117,0.9921745,0.12482884,0.03694153,-0.055664063,-0.111328125,0
12697.011393226,0.7390951,-0.08195756,0.66859657,0.6735973,0.093275525,-0.7331892,-0.002273295,0.9922614,0.12414587,0.7581241,-0.07929638,0.64727116,0.6521044,0.096429385,-0.7519716,-0.0027873332,0.9921761,0.12481495,0.05580139,0.025741577,0.017959595,0
12697.015818275,0.7391033,-0.081948206,0.6685886,0.6735883,0.09324461,-0.7332014,-0.0022577436,0.99226505,0.12411676,0.7577319,-0.07933322,0.6477257,0.65256006,0.09634668,-0.75158674,-0.0027804219,0.9921812,0.12477464,0.050857544,0.08320618,-0.09666443,0
12697.020243324,0.7391471,-0.08189849,0.66854626,0.6735402,0.093224965,-0.7332482,-0.0022732816,0.9922711,0.1240689,0.7573793,-0.079326406,0.6481388,0.6529691,0.096269086,-0.7512413,-0.002802461,0.9921893,0.12470991,-0.03994751,-0.08454895,-0.110580444,0
12697.024668373,0.7909286,-0.07410573,0.60740453,0.61190414,0.09949592,-0.7846489,-0.0022872936,0.99227464,0.12403978,0.7570447,-0.079370886,0.6485241,0.6533571,0.09623304,-0.7509086,-0.002809168,0.9921892,0.12471024,-0.04460144,-0.08932495,-0.08634949,0
12697.029093422,0.7909647,-0.07405949,0.60736305,0.6118573,0.0994734,-0.7846882,-0.0023028667,0.9922803,0.12399381,0.7577592,-0.07928624,0.6476994,0.65252835,0.09628992,-0.75162154,-0.002773679,0.9921905,0.12470109,-0.049240112,0.10220337,-0.100250244,0
12697.03351847,0.7909876,-0.074030265,0.60733694,0.6118279,0.09941795,-0.7847183,-0.002287289,0.9922881,0.12393215,0.75844187,-0.07919881,0.6469107,0.65173477,0.09639981,-0.75229573,-0.0027811485,0.9921868,0.12473027,0.017654419,0.025436401,-0.14753723,0
12697.037943519,0.74807066,-0.08054582,0.65871304,0.66361535,0.094216675,-0.7421174,-0.002287289,0.9922881,0.12393215,0.7590958,-0.07913052,0.64615166,0.6509731,0.09650238,-0.7529418,-0.0027744863,0.99218225,0.12476638,0.008071899,0.006286621,-0.018249512,0
12697.042368568,0.7480996,-0.08051218,0.658684,0.6635824,0.09418696,-0.74215025,-0.0022873012,0.99229354,0.12388771,0.758871,-0.07916212,0.6464117,0.651235,0.09650032,-0.7527156,-0.002792386,0.99217993,0.12478444,0.02243042,0.11642456,-0.09442139,0
12697.046793617,0.7480361,-0.080585584,0.65874714,0.66365415,0.09416104,-0.7420894,-0.00222661,0.9922901,0.123916835,0.75866675,-0.07919149,0.6466478,0.65147287,0.09646965,-0.7525136,-0.0027892163,0.9921806,0.12477942,0.15110779,-0.1230011,0.07766724,0
12697.051218666,0.76428217,-0.07824279,0.6401178,0.6448781,0.096156135,-0.75821245,-0.0022266014,0.9922862,0.12394748,0.75846773,-0.07922505,0.6468771,0.65170455,0.09643627,-0.75231713,-0.00278005,0.9921811,0.12477513,-0.016464233,0.020645142,0.07736206,0
12697.055643715,0.7642734,-0.07825399,0.64012706,0.64488864,0.096166775,-0.7582023,-0.0022265972,0.99228436,0.123962805,0.758562,-0.079165645,0.6467739,0.65159464,0.09649361,-0.7524051,-0.0028449125,0.99218035,0.1247803,-0.006881714,-0.022445679,0.029327393,0
12697.060068763,0.764291,-0.07823158,0.64010864,0.64486766,0.0961455,-0.75822276,-0.0022266058,0.9922882,0.12393216,0.7586496,-0.07914589,0.6466736,0.65149266,0.096505515,-0.7524919,-0.002850933,0.99218076,0.12477685,-0.006881714,-0.04159546,-0.09486389,0
12697.064463295,0.76012504,-0.07885049,0.6449748,0.64977306,0.09561836,-0.7540902,-0.0022110501,0.9922901,0.123916835,0.7587219,-0.07911697,0.64659226,0.6514084,0.09651288,-0.7525639,-0.0028639033,0.9921823,0.12476389,0.05519104,0.11642456,-0.008529663,0
12697.068888343,0.7601368,-0.07883702,0.64496255,0.6497592,0.09562982,-0.7541007,-0.00222661,0.9922901,0.123916835,0.7587377,-0.079135865,0.6465715,0.65139014,0.09650289,-0.75258094,-0.002839876,0.9921818,0.1247687,-0.040405273,-0.04638672,0.0010528564,0
12697.073313392,0.76011455,-0.07886263,0.64498585,0.64978546,0.095608056,-0.75408083,-0.0021970463,0.9922901,0.123916835,0.75873446,-0.07916116,0.64657205,0.65139383,0.09652176,-0.75257534,-0.0028335403,0.99217796,0.12479948,0.06942749,0.06852722,0.010635376,0
12697.077738441,0.770286,-0.07731383,0.6329944,0.6376947,0.09680792,-0.7641817,-0.0021970589,0.99229574,0.12387242,0.75872886,-0.079172984,0.6465771,0.65140027,0.096566066,-0.752564,-0.0028546776,0.99217266,0.12484076,0.0023956299,0.011077881,-0.13737488,0
12697.08216349,0.7703112,-0.0772826,0.63296777,0.6376645,0.09675362,-0.76421386,-0.0021814818,0.99230343,0.12381076,0.75895923,-0.07916193,0.6463082,0.6511319,0.096595,-0.75279254,-0.002837627,0.99217075,0.12485653,0.035751343,-0.008239746,-0.12719727,0
12697.086588539,0.77032703,-0.07726275,0.6329507,0.6376453,0.0967103,-0.76423526,-0.0021659345,0.9923093,0.123764805,0.75915045,-0.07910526,0.64609045,0.65090895,0.0966032,-0.7529843,-0.0028493984,0.99217445,0.12482669,0.026016235,0.06359863,-0.11238098,0
12697.091013588,0.755214,-0.07953909,0.6506345,0.65547454,0.094968095,-0.7492222,-0.002197063,0.9922976,0.123857096,0.75933975,-0.079083875,0.64587057,0.650688,0.09668428,-0.7531649,-0.002882334,0.99216825,0.12487514,-0.06463623,0.082901,-0.05102539,0
12697.095438636,0.75526637,-0.07947897,0.6505811,0.6554142,0.094958685,-0.7492764,-0.002226605,0.9923034,0.12381075,0.75921905,-0.07917403,0.6460014,0.6508287,0.09675249,-0.7530344,-0.0028814783,0.9921544,0.12498507,-0.054779053,0.06359863,-0.098464966,0
12697.099863685,0.755278,-0.07946562,0.65056926,0.65540075,0.09497022,-0.7492867,-0.0022421647,0.9923034,0.12381075,0.7591054,-0.07919307,0.64613277,0.6509615,0.09671108,-0.75292504,-0.0028617512,0.992157,0.12496553,-0.068984985,0.049224854,-0.012268066,0
12697.104288734,0.71736073,-0.08461958,0.691544,0.6966982,0.09036706,-0.7116498,-0.0022732927,0.99230707,0.123780094,0.7589923,-0.07922402,0.6462617,0.65109324,0.096705586,-0.7528117,-0.002856341,0.992155,0.12498103,-0.05909729,-0.022598267,-0.05506897,0
12697.108713783,0.71738166,-0.08459621,0.69152516,0.6966767,0.0903683,-0.71167076,-0.002287301,0.992309,0.12376477,0.7581571,-0.07936107,0.6472246,0.65206575,0.09662362,-0.7519801,-0.002859235,0.99215204,0.12500452,-0.03501892,0.07795715,-0.05970764,0
12697.113138832,0.717382,-0.084595755,0.69152474,0.69667614,0.090390086,-0.71166843,-0.0023028564,0.992307,0.12378009,0.75737005,-0.07948157,0.64813066,0.6529799,0.0964407,-0.75121,-0.0027988255,0.9921602,0.12494117,-0.054031372,-0.080062866,0.05986023,0
12697.117563881,0.7471321,-0.08056624,0.6597748,0.66467166,0.093999445,-0.7411989,-0.0023028564,0.992307,0.12378009,0.7565772,-0.079635434,0.6490371,0.6538985,0.09636033,-0.7504208,-0.0027813455,0.9921557,0.12497752,0.013015747,0.006134033,-0.02633667,0
12697.121958412,0.7471208,-0.08057939,0.6597861,0.6646845,0.09398781,-0.7411889,-0.0022872966,0.992307,0.12378009,0.75638056,-0.07963283,0.6492665,0.654126,0.09627455,-0.75023353,-0.00276462,0.9921642,0.1249101,0.012863159,-0.013015747,0.02633667,0
12697.126383461,0.7471143,-0.08058675,0.6597923,0.66469145,0.09404072,-0.7411757,-0.0023184032,0.9923014,0.12382451,0.7561741,-0.0796636,0.6495032,0.65436465,0.09624188,-0.7500295,-0.0027593593,0.9921649,0.124904655,-0.087387085,0.020492554,0.102508545,0
12697.13080851,0.76824665,-0.07748534,0.63544714,0.64014953,0.09663252,-0.7621486,-0.0023495178,0.9922994,0.12383982,0.75599647,-0.07965804,0.6497108,0.65457004,0.09615619,-0.7498614,-0.0027412176,0.9921737,0.1248355,-0.07272339,0.049224854,0.059265137,0
12697.135233558,0.76823336,-0.07750126,0.63546133,0.6401657,0.09659937,-0.7621393,-0.0023184032,0.9923014,0.12382451,0.756209,-0.07962097,0.64946777,0.6543244,0.09618197,-0.7500724,-0.0027455972,0.99217415,0.12483161,0.089767456,0.10189819,-0.031570435,0
12697.139658607,0.7682305,-0.077504724,0.63546443,0.6401693,0.09657855,-0.76213914,-0.0023028473,0.9923032,0.12381072,0.7564499,-0.07955748,0.649195,0.65404594,0.09617971,-0.75031555,-0.0027461778,0.99217945,0.12478937,0.03694153,0.068374634,-0.026641846,0
12697.144083656,0.7763349,-0.07621898,0.62569547,0.6303165,0.097501196,-0.7701913,-0.0023028692,0.99231255,0.123735644,0.75667346,-0.07954615,0.64893585,0.65378743,0.09616221,-0.75054306,-0.0027002906,0.9921821,0.12476966,-0.015716553,0.049224854,-0.18870544,0
12697.148508705,0.7763529,-0.076198004,0.6256757,0.6302943,0.09745646,-0.77021503,-0.002287287,0.9923185,0.123687774,0.7570804,-0.079420365,0.64847654,0.6533161,0.09619497,-0.75094926,-0.002739513,0.992189,0.12471391,0.03199768,0.106536865,-0.12120056,0
12697.152933754,0.7763517,-0.07619931,0.62567693,0.6302958,0.097435676,-0.7702165,-0.0022732879,0.99232054,0.12367247,0.75746936,-0.07934688,0.6480311,0.6528649,0.096257426,-0.7513335,-0.0027618415,0.9921888,0.124714844,0.03665161,0.049072266,-0.010910034,0
12697.157358802,0.74701345,-0.08049339,0.6599179,0.6648049,0.09386123,-0.74109674,-0.0022873043,0.99232596,0.12362802,0.7579092,-0.079197384,0.64753485,0.652354,0.0962987,-0.75177175,-0.0028184156,0.99219674,0.124650404,-0.01586914,0.049072266,-0.11581421,0
12697.161783851,0.74701333,-0.08049362,0.6599181,0.6648053,0.09384055,-0.74109924,-0.002273305,0.992328,0.12361272,0.75771594,-0.07922394,0.6477577,0.65257853,0.09625005,-0.7515831,-0.0028033403,0.9921993,0.12463003,0.03665161,0.034713745,-0.019897461,0
12697.1662089,0.7470364,-0.08046867,0.659895,0.66477925,0.093839824,-0.7411226,-0.0022872814,0.9923301,0.12359566,0.7575006,-0.07923259,0.6480086,0.6528284,0.09622868,-0.7513689,-0.002824112,0.99220073,0.12461857,0.008071899,0.063308716,0.09039307,0
12697.170633949,0.7470749,-0.080427036,0.6598565,0.6647356,0.09392,-0.7411515,-0.0023651032,0.9923258,0.12362799,0.7575006,-0.07923259,0.6480086,0.6528284,0.09622868,-0.7513689,-0.002824112,0.99220073,0.12461857,0.008834839,0.063446045,0.09008789,0
12697.175058998,0.75167805,-0.079834834,0.6546805,0.6595261,0.09450138,-0.74571764,-0.0023339663,0.99231845,0.12368777,0.7571644,-0.07918518,0.64840704,0.6532177,0.09624931,-0.75102776,-0.0029384634,0.99220246,0.12460173,0.061187744,-0.051483154,0.12779236,0
12697.179484047,0.75167954,-0.07983311,0.65467894,0.6595243,0.09452325,-0.7457164,-0.0023495215,0.9923165,0.12370308,0.7570555,-0.07914235,0.64853954,0.65334374,0.09626326,-0.75091636,-0.0030012396,0.99220455,0.12458378,-0.020050049,-0.065841675,0.04144287,0
12697.183878578,0.7516912,-0.07981983,0.65466714,0.65951097,0.09453486,-0.7457268,-0.002365081,0.9923165,0.12370308,0.7569769,-0.079132855,0.6486324,0.6534347,0.09625468,-0.7508382,-0.003017923,0.99220616,0.12457072,-0.03904724,-0.037109375,0.0031433105,0
12697.188303627,0.7517223,-0.079784706,0.65463585,0.65947556,0.09452476,-0.74575937,-0.002379094,0.99232024,0.12367243,0.75690925,-0.079107836,0.6487144,0.6535129,0.09624202,-0.75077176,-0.0030416553,0.9922094,0.12454447,-0.058059692,-0.046691895,-0.08274841,0
12697.192728676,0.7517621,-0.07973957,0.6545956,0.65943015,0.09448469,-0.7458046,-0.002379112,0.9923277,0.12361268,0.75681865,-0.07906304,0.64882547,0.6536178,0.0961666,-0.75069016,-0.0030434981,0.9922202,0.124457695,0.018554688,-0.041900635,-0.17312622,0
12697.197153724,0.75859404,-0.078687005,0.64679474,0.6515591,0.09528412,-0.75259,-0.0024102163,0.9923353,0.1235512,0.7567414,-0.07900653,0.64892244,0.65370715,0.09609347,-0.75062174,-0.0030531948,0.99223185,0.12436505,-0.096069336,0.015411377,-0.15338135,0
12697.201578773,0.7586497,-0.0786187,0.6467377,0.65149426,0.09522082,-0.7526541,-0.0024102062,0.99234676,0.123458885,0.7567693,-0.07900115,0.6488906,0.65367496,0.09606497,-0.7506534,-0.003033175,0.992235,0.1243401,0.009277344,0.05836487,-0.20994568,0
12697.206003822,0.7586766,-0.07858581,0.6467102,0.6514629,0.09519035,-0.75268495,-0.0024102193,0.9923522,0.123414434,0.75677675,-0.07902064,0.6488795,0.6536663,0.09609948,-0.7506565,-0.003039626,0.9922301,0.12437899,-0.019454956,-0.04698181,-0.1376648,0
12697.210428871,0.74763125,-0.08017439,0.6592568,0.6641097,0.093835734,-0.741723,-0.0023946643,0.99235415,0.123399116,0.7568231,-0.07904766,0.64882225,0.653613,0.09606225,-0.75070786,-0.002985628,0.9922316,0.124368705,0.028259277,-0.04698181,-0.056121826,0
12697.21485392,0.74765366,-0.08015086,0.65923434,0.6640846,0.09381555,-0.7417482,-0.0023946736,0.992358,0.12336848,0.7566305,-0.079106994,0.6490396,0.65383613,0.09602627,-0.75051814,-0.0029536264,0.99223036,0.12437941,0.028259277,-0.05656433,-0.07975769,0
12697.219278968,0.7476227,-0.0801834,0.65926546,0.66411936,0.09386673,-0.74171066,-0.0024102156,0.99235064,0.12342824,0.7564327,-0.0791544,0.6492643,0.6540647,0.0960456,-0.75031626,-0.0029681395,0.9922247,0.12442414,-0.057754517,-0.013458252,0.17822266,0
12697.223704017,0.74120903,-0.08111221,0.66635585,0.67127,0.093126245,-0.7353394,-0.0024102014,0.9923448,0.123474196,0.7562487,-0.079236954,0.6494686,0.6542778,0.09600619,-0.7501356,-0.0029145454,0.9922219,0.12444753,-0.0098724365,-0.018249512,0.11552429,0
12697.228129066,0.74121875,-0.081100576,0.6663465,0.67125934,0.093116075,-0.7353506,-0.0024102062,0.99234676,0.123458885,0.75594,-0.079339474,0.6498153,0.6546346,0.09596262,-0.74982977,-0.0028668789,0.99221796,0.124480344,-0.014663696,-0.05177307,-0.05192566,0
12697.232554115,0.7411884,-0.081136905,0.66637576,0.67129284,0.0931479,-0.735316,-0.0024102295,0.99234086,0.12350676,0.75563645,-0.0794321,0.65015686,0.65498513,0.09589087,-0.74953276,-0.0028071532,0.9922175,0.12448549,0.0140686035,0.12554932,0.14395142,0
12697.236979164,0.7561254,-0.07903828,0.6496363,0.6544224,0.09495269,-0.7501436,-0.0023946657,0.9923392,0.12352056,0.7552785,-0.079479255,0.65056694,0.65539795,0.09582521,-0.74918026,-0.0027964276,0.99222004,0.124465264,0.033050537,-0.022888184,0.014526367,0
12697.241373695,0.7560942,-0.07907501,0.6496681,0.65445846,0.09494128,-0.7501134,-0.0023650972,0.9923372,0.12353587,0.75529873,-0.0794653,0.65054524,0.6553749,0.09575502,-0.7492094,-0.0027568233,0.9922279,0.12440321,0.0806427,0.06808472,0.0861969,0
12697.245798744,0.75612277,-0.079041295,0.64963895,0.65442544,0.09493184,-0.7501435,-0.0023791099,0.9923409,0.12350677,0.75529355,-0.0794095,0.650558,0.6553807,0.09571679,-0.7492091,-0.0027750032,0.9922361,0.12433773,-0.034118652,-0.046829224,-0.11462402,0
12697.250223793,0.77652967,-0.075789034,0.625506,0.6300759,0.097296946,-0.770414,-0.0024708973,0.99236554,0.123306796,0.75530785,-0.07930845,0.6505537,0.6553639,0.095713295,-0.7492243,-0.002846822,0.9922445,0.124268904,0.014663696,-0.008834839,-0.2276001,0
12697.254648842,0.77653813,-0.07577806,0.6254968,0.63006544,0.09728607,-0.7704239,-0.002470902,0.9923674,0.12329147,0.7557168,-0.07910296,0.6501037,0.6548919,0.09573716,-0.74963385,-0.0029408182,0.9922586,0.124154076,0.033798218,0.0725708,-0.03590393,0
12697.25907389,0.776655,-0.07562704,0.62536985,0.62992096,0.097231895,-0.7705487,-0.0025315883,0.9923842,0.12315469,0.75612,-0.07893421,0.6496552,0.6544259,0.095792994,-0.75003356,-0.0030291146,0.99226665,0.12408759,0.12059021,0.09156799,-0.13034058,0
12697.263498939,0.7633509,-0.07749191,0.64131916,0.6459787,0.095578305,-0.7573482,-0.002607835,0.99240106,0.12301793,0.7565413,-0.07873714,0.6491884,0.65393835,0.095838554,-0.7504529,-0.0031287654,0.9922779,0.123995066,-0.00793457,0.053115845,-0.10505676,0
12697.267923988,0.7633908,-0.07744264,0.64127785,0.6459316,0.09557965,-0.75738823,-0.0026389644,0.9924047,0.122987255,0.7567106,-0.078586295,0.6490095,0.65374225,0.09581501,-0.75062674,-0.0031958832,0.9922921,0.12387941,-0.055511475,0.043533325,-0.047286987,0
12697.272349037,0.7635035,-0.077302985,0.6411605,0.6457979,0.09563674,-0.7574951,-0.002761864,0.9924101,0.12294108,0.7568404,-0.078511335,0.64886713,0.6535915,0.09588408,-0.75074923,-0.0032737043,0.9922914,0.123883285,-0.04953003,0.024246216,-0.022903442,0
12697.276774086,0.78787345,-0.073514216,0.6114336,0.61583096,0.09850243,-0.78169656,-0.0027618853,0.99241775,0.12287978,0.75699186,-0.07835915,0.64870876,0.65341544,0.09593198,-0.75089633,-0.003392321,0.9922988,0.12382081,0.01751709,-0.037994385,-0.17073059,0
12697.281199135,0.78788257,-0.07350312,0.61142325,0.61581933,0.09849113,-0.7817071,-0.0027618473,0.99241966,0.12286409,0.7576588,-0.07822468,0.647946,0.65264195,0.096001536,-0.7515598,-0.0034132819,0.99230266,0.12378912,-0.02079773,0.08634949,-0.0460968,0
12697.285624183,0.78808707,-0.07325336,0.61118954,0.6155568,0.09853145,-0.7819089,-0.0029439388,0.9924342,0.12274296,0.7583039,-0.07807664,0.6472088,0.651892,0.09611786,-0.75219554,-0.0034794286,0.9923031,0.12378408,-0.18180847,-0.018997192,-0.3321991,0
12697.290049232,0.7151392,-0.083651215,0.6939585,0.6989758,0.0898097,-0.70948374,-0.002975029,0.9924398,0.12269661,0.75895053,-0.077903114,0.6464714,0.6511385,0.09625262,-0.75283074,-0.0035766985,0.99230367,0.1237767,-0.076156616,-0.01914978,-0.12585449,0
12697.294474281,0.71518356,-0.08360308,0.6939185,0.69893014,0.089813605,-0.709528,-0.0030046036,0.99244344,0.122665934,0.75814027,-0.07798858,0.64741105,0.6520815,0.0961677,-0.75202495,-0.0036106743,0.99230516,0.12376352,-0.09024048,0.04309082,-0.06329346,0
12697.298868812,0.71521825,-0.083565466,0.6938873,0.6988945,0.08985016,-0.7095586,-0.0030512828,0.9924434,0.12266593,0.75737125,-0.07805067,0.64830315,0.6529744,0.09605559,-0.7512641,-0.0036364687,0.9923111,0.12371483,-0.104141235,0.06703186,0.018112183,0
12697.303293861,0.7240138,-0.082378104,0.68484885,0.6897788,0.09085683,-0.7182968,-0.0030512584,0.99245095,0.12260426,0.75657356,-0.07814578,0.6492224,0.6538986,0.09591186,-0.75047815,-0.0036214315,0.99231756,0.1236638,0.0059814453,-0.03845215,-0.17762756,0
12697.30771891,0.7240472,-0.08234136,0.68481797,0.6897437,0.090849295,-0.7183315,-0.0030668296,0.9924547,0.12257361,0.7559352,-0.07822026,0.64995664,0.6546365,0.09582411,-0.74984586,-0.0036283769,0.9923202,0.123642646,-0.06568909,0.06210327,-0.08633423,0
12697.312143959,0.7240363,-0.082353376,0.68482804,0.6897551,0.09085907,-0.71831924,-0.0030668236,0.99245274,0.122588925,0.75536937,-0.078272365,0.6506079,0.6552893,0.09571478,-0.74928945,-0.0036241282,0.9923266,0.12359105,-0.013015747,-0.0049438477,0.042800903,0
12697.316569008,0.75617063,-0.07789683,0.6497215,0.65436715,0.09468822,-0.75022507,-0.003080833,0.9924546,0.122573584,0.75477016,-0.078335546,0.6512953,0.65597916,0.09565498,-0.74869317,-0.0036503454,0.9923274,0.12358401,-0.008087158,0.03337097,-0.004928589,0
12697.320994056,0.7561676,-0.07790039,0.6497246,0.6543709,0.09464667,-0.75022715,-0.003051281,0.99245834,0.12254449,0.7548262,-0.07829785,0.6512349,0.6559146,0.09566061,-0.748749,-0.003672086,0.99232984,0.12356383,0.063430786,0.13392639,-0.09562683,0
12697.325419105,0.75615644,-0.0779137,0.6497361,0.6543839,0.09463522,-0.75021726,-0.0030357211,0.99245834,0.12254449,0.75485224,-0.07825293,0.65121007,0.65588456,0.09563776,-0.7487782,-0.003686188,0.99233556,0.12351726,0.020202637,0.08125305,0.009719849,0
12697.329844154,0.745629,-0.079414934,0.6616121,0.6663544,0.09333777,-0.73977,-0.0030046133,0.99246216,0.122513846,0.754853,-0.078262866,0.651208,0.65588367,0.09564354,-0.7487783,-0.0036823018,0.99233425,0.123528145,0.1060791,0.028579712,-0.066589355,0
12697.334269203,0.7456487,-0.079390444,0.66159296,0.6663325,0.09333899,-0.7397898,-0.003020179,0.9924641,0.12249853,0.75468904,-0.07824578,0.6514001,0.6560721,0.09564406,-0.7486132,-0.003726728,0.99233556,0.123516396,-0.06614685,0.004638672,-0.013763428,0
12697.338694252,0.745687,-0.0793427,0.6615555,0.66628957,0.09331929,-0.739831,-0.0030357086,0.9924698,0.12245218,0.75451976,-0.07824722,0.651596,0.6562667,0.095630966,-0.7484443,-0.0037490753,0.9923367,0.123506494,-0.013320923,-0.0050964355,-0.1186676,0
12697.343119301,0.7696653,-0.075806156,0.63393116,0.63844013,0.096176624,-0.7636388,-0.0030808432,0.99247336,0.1224215,0.7543579,-0.07828688,0.6517786,0.6564526,0.09564451,-0.74827933,-0.003758588,0.9923322,0.123541825,-0.13258362,-0.033828735,-0.07525635,0
12697.347544349,0.7697126,-0.075746834,0.63388073,0.63838285,0.09616779,-0.7636878,-0.00311198,0.99247885,0.12237705,0.75468665,-0.07824972,0.65140235,0.6560746,0.09569678,-0.7486042,-0.003759033,0.99233013,0.12355874,-0.09397888,-0.067337036,-0.14186096,0
12697.351969398,0.7696911,-0.075773865,0.63390374,0.638409,0.096145496,-0.76366866,-0.00308086,0.99247885,0.12237705,0.75494605,-0.078242734,0.65110254,0.6557763,0.095709674,-0.7488638,-0.0037236528,0.9923294,0.12356537,0.08766174,-3.0517578E-4,0.016159058,0
12697.356394447,0.737558,-0.08034242,0.67048746,0.6752769,0.0922805,-0.7317688,-0.0030808402,0.9924865,0.12231558,0.7552494,-0.07819407,0.65075654,0.6554269,0.09575325,-0.7491641,-0.0037318636,0.99232906,0.12356808,-0.0032958984,0.16236877,-0.14605713,0
12697.360788978,0.7375786,-0.08031888,0.67046756,0.6752543,0.09226035,-0.73179203,-0.0030808519,0.99249023,0.12228493,0.7548945,-0.078273125,0.6511587,0.6558356,0.09574075,-0.74880797,-0.0037308813,0.99232405,0.12360847,-0.022445679,0.076171875,-0.08828735,0
12697.365214027,0.7376305,-0.080259696,0.67041755,0.6751977,0.09218906,-0.7318533,-0.0030668352,0.9925017,0.122192614,0.75454885,-0.07835143,0.65154976,0.65623343,0.095686145,-0.7484664,-0.0037008678,0.99232316,0.1236167,0.049224854,-0.043685913,-0.24061584,0
12697.369639076,0.7089614,-0.083965704,0.700231,0.7052404,0.08878829,-0.70338655,-0.0031119697,0.99250513,0.122163475,0.75423414,-0.07836842,0.6519121,0.6565952,0.09562392,-0.7481571,-0.0037065055,0.9923278,0.12357914,-0.12748718,-0.014953613,-0.06794739,0
12697.374064125,0.709011,-0.08391476,0.70018685,0.70519036,0.088771135,-0.70343876,-0.0031274986,0.9925109,0.1221156,0.75335664,-0.0784778,0.6529127,0.65760165,0.095514566,-0.7472864,-0.0037172765,0.99232966,0.12356367,-0.026779175,0.14768982,-0.115371704,0
12697.378489174,0.7089866,-0.08393987,0.7002086,0.70521516,0.08872468,-0.70341974,-0.0030808258,0.99251294,0.122100286,0.7525217,-0.0785734,0.6538634,0.6585568,0.095428124,-0.74645585,-0.0037453794,0.99233043,0.12355678,0.13076782,-0.03904724,-0.014663696,0
12697.382914222,0.74519324,-0.07912064,0.66213816,0.6668413,0.09304884,-0.73936766,-0.003111945,0.9925129,0.12210028,0.75169265,-0.07871119,0.6547997,0.65950304,0.09528597,-0.74563813,-0.0037031549,0.9923332,0.12353604,-0.0796051,-0.0055389404,-0.014663696,0
12697.387339271,0.7452266,-0.0790826,0.66210514,0.66680384,0.09308268,-0.7393972,-0.003157068,0.99251276,0.122100264,0.75156385,-0.07864047,0.65495604,0.6596495,0.09527011,-0.7455107,-0.0037704322,0.9923403,0.12347673,-0.14620972,0.0184021,0.004501343,0
12697.39176432,0.74524206,-0.07906501,0.66208994,0.66678625,0.09318311,-0.7394005,-0.003234891,0.9925047,0.12216342,0.7514792,-0.07860418,0.65505755,0.6597458,0.0952539,-0.7454275,-0.0038030723,0.99234474,0.1234401,-0.0688324,-0.07720947,0.008666992,0
12697.396189369,0.74528426,-0.079016834,0.6620481,0.66673887,0.0931617,-0.7394458,-0.003248863,0.99251056,0.12211555,0.7514058,-0.07860502,0.6551416,0.6598292,0.09529522,-0.7453484,-0.003843742,0.9923407,0.12347126,-0.02079773,0.0184021,-0.14888,0
12697.400614418,0.7452524,-0.0790532,0.6620797,0.6667746,0.093193606,-0.7394097,-0.0032488948,0.9925047,0.12216342,0.75130177,-0.07859181,0.65526253,0.65994745,0.09529385,-0.74524385,-0.0038724265,0.9923419,0.123460904,0.0031433105,-0.038894653,0.12359619,0
12697.405039467,0.7452125,-0.0790986,0.66211903,0.66681904,0.093256555,-0.7393616,-0.0032644744,0.9924952,0.12224041,0.7511866,-0.07858131,0.6553958,0.6600784,0.095275216,-0.7451303,-0.0038896564,0.9923445,0.1234393,-0.04937744,0.009140015,0.20425415,0
12697.409464515,0.7467155,-0.07887405,0.6604506,0.6651355,0.09346568,-0.74085027,-0.0032955885,0.9924934,0.1222542,0.7510983,-0.078579046,0.6554973,0.66017914,0.0952001,-0.74505067,-0.003858035,0.9923519,0.12338088,-0.096954346,-0.010025024,0.07003784,0
12697.413889564,0.74675614,-0.078825794,0.66041017,0.6650895,0.09346684,-0.7408912,-0.0033251126,0.9924971,0.12222317,0.7510055,-0.07850981,0.65561193,0.6602846,0.095139295,-0.744965,-0.0038873972,0.9923632,0.12328894,-0.05357361,-0.0053863525,-0.1116333,0
12697.418284095,0.74674886,-0.07883458,0.6604176,0.66509783,0.09352115,-0.74087715,-0.0033562651,0.9924913,0.1222695,0.7509746,-0.07853062,0.6556448,0.6603198,0.09512196,-0.7449359,-0.0038659337,0.9923632,0.123289496,0.09994507,-0.072265625,0.0076293945,0
12697.422709144,0.74671686,-0.07887233,0.6604491,0.6651337,0.09350824,-0.74084646,-0.0033251394,0.9924896,0.122284845,0.7509746,-0.07853062,0.6556448,0.6603198,0.09512196,-0.7449359,-0.0038659337,0.9923632,0.123289496,0.09963989,-0.072265625,0.0074768066,0
12697.427134193,0.78073215,-0.07378668,0.620494,0.624857,0.09747481,-0.7746306,-0.0033251191,0.99249905,0.12220785,0.7508119,-0.078485794,0.65583646,0.66050494,0.09498376,-0.7447894,-0.003838427,0.99238,0.123155184,-0.024841309,0.08081055,-0.1593628,0
12697.431559242,0.7807407,-0.07377575,0.62048453,0.6248463,0.09746386,-0.77464044,-0.0033251252,0.99250084,0.12219252,0.7514351,-0.078360654,0.65513736,0.65979594,0.09499948,-0.74541557,-0.0038264524,0.99238837,0.12308798,0.023040771,0.013763428,-0.044296265,0
12697.435984291,0.75572944,-0.07754987,0.650276,0.6548755,0.09448751,-0.7498065,-0.0032955615,0.99250084,0.12219252,0.7520031,-0.07830097,0.6544924,0.6591486,0.095046684,-0.74598205,-0.0037962124,0.9923886,0.12308737,0.075408936,-0.019744873,-0.0059814453,0
12697.44040934,0.7557158,-0.077565156,0.65029025,0.65489167,0.09445409,-0.74979687,-0.0032644486,0.99250287,0.122177206,0.7520295,-0.0782189,0.65447176,0.65911835,0.09499227,-0.74601567,-0.0038172365,0.9924002,0.12299251,0.05116272,-0.10594177,-0.058502197,0
12697.444834388,0.75572133,-0.07755904,0.6502846,0.65488553,0.09438026,-0.74981165,-0.0032193498,0.99251044,0.12211745,0.75206435,-0.07817839,0.6544367,0.65907836,0.09502332,-0.7460471,-0.0038619859,0.99240047,0.12298934,0.122543335,0.023345947,-0.13931274,0
12697.449259437,0.7507867,-0.0782429,0.6558943,0.6605367,0.09381509,-0.7449094,-0.0032489134,0.9925104,0.12211744,0.7521022,-0.07812649,0.65439934,0.6590351,0.094998606,-0.74608845,-0.0038777508,0.9924069,0.12293676,-0.06869507,-0.048477173,0.004348755,0
12697.453684486,0.75076854,-0.07826427,0.6559125,0.6605572,0.093857646,-0.74488574,-0.0032644544,0.9925046,0.122163415,0.7520286,-0.078132965,0.6544832,0.65911907,0.095006,-0.74601334,-0.0038915982,0.9924057,0.12294615,-0.06854248,-0.07720947,0.07571411,0
12697.458109535,0.75087506,-0.07813896,0.6558056,0.66043574,0.09388301,-0.7449903,-0.00335623,0.99251205,0.122100174,0.7519941,-0.078097805,0.654527,0.659158,0.095039345,-0.74597466,-0.0039468296,0.9924053,0.12294782,-0.20649719,0.008834839,-0.1343689,0
12697.462534584,0.763377,-0.07632277,0.6414285,0.6459447,0.09530739,-0.7574114,-0.0033251296,0.9925177,0.12205575,0.751956,-0.078085266,0.65457237,0.6592014,0.0950423,-0.745936,-0.0039654514,0.992406,0.122941546,0.051757813,0.008834839,-0.10998535,0
12697.466959633,0.7634089,-0.07628455,0.641395,0.6459067,0.095319405,-0.7574421,-0.003356255,0.9925194,0.1220404,0.75219923,-0.07796975,0.65430653,0.6589233,0.095089205,-0.74617565,-0.004038358,0.9924106,0.12290212,-0.08200073,-7.4768066E-4,-0.06674194,0
12697.471384681,0.7634451,-0.076241285,0.64135706,0.64586407,0.095254935,-0.7574867,-0.003340675,0.992529,0.12196342,0.75242573,-0.07792506,0.6540514,0.65866506,0.09502839,-0.74641144,-0.003989298,0.9924199,0.12282832,0.04711914,0.04698181,-0.1809082,0
12697.47580973,0.7654033,-0.07596071,0.63905233,0.6435423,0.095520936,-0.7594269,-0.0033562735,0.9925249,0.12199595,0.7526335,-0.07793083,0.65381145,0.6584281,0.094958775,-0.74662924,-0.0038996972,0.9924261,0.12278101,-0.029327393,-0.0055389404,0.07736206,0
12697.480204261,0.76538116,-0.075988375,0.6390753,0.6435686,0.09547776,-0.75940984,-0.0033111565,0.99252695,0.12198064,0.7528864,-0.077849746,0.65353,0.6581389,0.09495597,-0.7468846,-0.003911801,0.9924328,0.12272701,0.10429382,0.06628418,9.0026855E-4,0
12697.48462931,0.76540077,-0.0759638,0.6390549,0.6435453,0.09547582,-0.7594298,-0.0033251152,0.992529,0.12196342,0.7531143,-0.07778546,0.65327495,0.657878,0.09495573,-0.7471144,-0.003917561,0.99243784,0.122685865,-0.039215088,0.17147827,-0.032470703,0
12697.489054359,0.7461537,-0.0787475,0.6611002,0.6657654,0.09323629,-0.7403132,-0.003340714,0.99252504,0.12199596,0.75338024,-0.0777598,0.6529713,0.65757346,0.094985455,-0.7473786,-0.003906766,0.992437,0.12269296,-0.02468872,0.02319336,0.1013031,0
12697.493479408,0.74616385,-0.07873587,0.66109014,0.66575396,0.09322605,-0.7403246,-0.0033407202,0.9925268,0.12198063,0.75324655,-0.07775231,0.6531264,0.6577266,0.09494557,-0.747249,-0.0039111287,0.9924414,0.12265719,-0.0390625,0.03277588,-0.03262329,0
12697.497904457,0.7461752,-0.07872286,0.6610789,0.6657412,0.093214534,-0.74033755,-0.003340675,0.992529,0.12196342,0.75308484,-0.07770612,0.6533184,0.6579115,0.09492865,-0.7470883,-0.0039653005,0.9924466,0.12261307,0.02798462,-9.0026855E-4,-0.051620483,0
12697.502329506,0.748561,-0.07828392,0.6584285,0.6630574,0.09342623,-0.74271566,-0.0033717917,0.99254376,0.12184196,0.7529219,-0.077648126,0.65351313,0.6580978,0.09486268,-0.74693257,-0.0039960933,0.99245745,0.12252425,0.061782837,-0.015411377,-0.012130737,0
12697.506754554,0.7487108,-0.078113966,0.6582783,0.66288763,0.09343443,-0.74286604,-0.0034776423,0.99255645,0.121736154,0.7528276,-0.07754731,0.65363365,0.65820533,0.09478374,-0.7468478,-0.0040378,0.9924729,0.12239787,0.067611694,-0.010635376,-0.16430664,0
12697.511179603,0.7487015,-0.07812462,0.6582877,0.66289836,0.09342282,-0.7428581,-0.0034635905,0.99255675,0.12173447,0.7527707,-0.077424794,0.65371376,0.65826964,0.09481634,-0.746787,-0.004162913,0.9924793,0.12234136,0.043533325,0.065841675,0.008087158,0
12697.515604652,0.78407073,-0.07273565,0.61639494,0.62066114,0.097643696,-0.7779754,-0.0036005278,0.99256,0.12170375,0.75266874,-0.077425055,0.6538312,0.6583861,0.09481246,-0.74668485,-0.0041792253,0.9924797,0.12233796,-0.041305542,0.008392334,-0.14962769,0
12697.520029701,0.78415793,-0.072629735,0.6162963,0.6205501,0.09770926,-0.7780555,-0.0037078946,0.9925612,0.1216899,0.75326025,-0.07725908,0.6531693,0.6577086,0.09497871,-0.74726075,-0.0043045045,0.99247676,0.122357644,0.012420654,0.0036010742,-0.06808472,0
12697.52445475,0.78420925,-0.07256746,0.61623836,0.620485,0.09771904,-0.77810615,-0.0037530314,0.9925648,0.12165921,0.75389296,-0.077095754,0.65245813,0.6569824,0.09512641,-0.74788034,-0.004407606,0.9924753,0.1223657,-0.08769226,0.032333374,-0.08215332,0
12697.528879799,0.7269671,-0.08079009,0.6819032,0.6866621,0.090979755,-0.72126144,-0.003768612,0.9925702,0.121614754,0.7545115,-0.07693464,0.6517619,0.6562716,0.09523167,-0.7484909,-0.004483493,0.9924777,0.122343406,-0.039657593,0.008392334,-0.124801636,0
12697.533304847,0.7270117,-0.08074036,0.68186146,0.6866144,0.09102637,-0.7213008,-0.0038292946,0.9925699,0.121614724,0.7539341,-0.07697704,0.6524247,0.6569345,0.0951857,-0.74791497,-0.004529221,0.99247885,0.1223326,-0.16833496,-0.082595825,-0.014678955,0
12697.537699379,0.7270595,-0.08068705,0.6818168,0.6865632,0.09113749,-0.72133553,-0.003936635,0.99256414,0.12165914,0.75338775,-0.07706247,0.6530455,0.65756106,0.095119886,-0.7473725,-0.004523239,0.9924785,0.122335434,-0.15771484,0.056274414,-0.12045288,0
12697.542124427,0.75796187,-0.076372266,0.64781255,0.6522867,0.09480401,-0.75202006,-0.00398175,0.99256206,0.12167443,0.7528412,-0.07716315,0.6536636,0.6581863,0.09516301,-0.7468164,-0.004577887,0.99246657,0.12243036,-0.09501648,-0.14006042,0.05656433,0
12697.546549476,0.7579766,-0.07635516,0.6477972,0.6522693,0.09485703,-0.7520285,-0.004026858,0.99255836,0.12170355,0.7529065,-0.07718489,0.65358573,0.6581117,0.09519214,-0.7468785,-0.0045684883,0.99246204,0.122467056,-0.12809753,-0.049072266,0.051483154,0
12697.550974525,0.7579954,-0.07633341,0.64777786,0.6522475,0.09483718,-0.7520501,-0.004026873,0.992562,0.121674426,0.7530035,-0.07712935,0.6534805,0.6580004,0.095214166,-0.74697363,-0.0046070106,0.99246424,0.122447744,-0.022750854,0.017959595,-0.07272339,0
12697.555399574,0.73634905,-0.079326935,0.6719355,0.6765896,0.09230943,-0.73055154,-0.004073567,0.9925655,0.121643744,0.7530641,-0.07710733,0.6534133,0.657931,0.09520642,-0.74703586,-0.0046071964,0.99246675,0.12242784,-0.12284851,0.017959595,-0.053268433,0
12697.559824623,0.7363958,-0.079279214,0.67188996,0.6765386,0.092313334,-0.7305982,-0.0041031446,0.99256885,0.12161459,0.75270265,-0.07718516,0.65382034,0.65834475,0.09512611,-0.74668145,-0.004562662,0.99246836,0.12241613,-0.055526733,-0.049072266,-0.120010376,0
12697.564249672,0.73643243,-0.07924169,0.67185414,0.6764987,0.09226168,-0.73064166,-0.004089109,0.9925767,0.12155141,0.75235224,-0.07723526,0.6542177,0.6587452,0.09507859,-0.74633425,-0.0045587784,0.992469,0.12241095,0.011383057,0.051330566,-0.12898254,0
12697.56867472,0.7407454,-0.07863951,0.66716725,0.6717734,0.092776105,-0.73492396,-0.0041031125,0.99257666,0.1215514,0.75204325,-0.077241644,0.6545721,0.6590979,0.0950295,-0.74602914,-0.004579147,0.99247324,0.12237609,-0.031585693,0.022598267,0.014663696,0
12697.573099769,0.7407455,-0.0786395,0.6671672,0.6717734,0.09275542,-0.7349265,-0.0040891166,0.99257857,0.12153607,0.75185335,-0.07730322,0.65478295,0.6593149,0.09495591,-0.74584675,-0.0045191627,0.9924755,0.12236009,0.040100098,-0.010925293,-0.042633057,0
12697.577524818,0.74078226,-0.078594215,0.66713166,0.67173284,0.09271548,-0.73496866,-0.0040891464,0.9925859,0.121476285,0.751633,-0.077281296,0.6550384,0.6595658,0.09490907,-0.7456307,-0.004545781,0.99248165,0.122308895,-0.0077819824,0.06568909,-0.16175842,0
12697.581949867,0.7721704,-0.0740111,0.6310905,0.6354022,0.0963757,-0.7661435,-0.0041186614,0.9925896,0.121445276,0.75141644,-0.07736824,0.65527666,0.6598131,0.094834246,-0.74542147,-0.004470724,0.99248207,0.12230859,-0.055374146,-0.0541687,-0.089645386,0
12697.586374916,0.7721621,-0.07402114,0.6310995,0.6354123,0.09638537,-0.76613384,-0.004118654,0.99258786,0.12145907,0.75185066,-0.07731853,0.6547842,0.6593183,0.094885774,-0.74585253,-0.0044614873,0.992481,0.122317456,-0.026641846,0.027236938,0.039505005,0
12697.590799965,0.7721517,-0.074033596,0.6311106,0.63542473,0.096397474,-0.76612186,-0.0041187103,0.9925858,0.12147628,0.7522496,-0.077239044,0.6543353,0.6588632,0.094894506,-0.7462535,-0.004452916,0.99248636,0.12227432,-0.0074920654,-0.015701294,0.044143677,0
12697.595225013,0.7550683,-0.076549694,0.651162,0.6556333,0.09437127,-0.74915886,-0.004103102,0.99258965,0.12144528,0.7526643,-0.077170916,0.6538663,0.65838933,0.09494062,-0.7466658,-0.0044575846,0.99248725,0.12226692,0.059387207,-0.020645142,-0.089645386,0
12697.599619545,0.7550996,-0.07651501,0.6511299,0.65559727,0.09434021,-0.7491943,-0.004103125,0.99259526,0.12139928,0.75271267,-0.07717322,0.6538103,0.6583344,0.094892845,-0.7467203,-0.0044151116,0.99249166,0.122232825,-0.0028533936,0.04638672,-0.09875488,0
12697.604044593,0.7551254,-0.07648635,0.6511033,0.6555673,0.094385184,-0.74921495,-0.0041497955,0.99259317,0.12141459,0.75273633,-0.07711584,0.6537898,0.6583073,0.09484785,-0.7467499,-0.0044243135,0.99250036,0.12216134,-0.10774231,-0.039794922,0.03517151,0
12697.608469642,0.7550996,-0.07651501,0.6511299,0.65559727,0.09434021,-0.7491943,-0.004103125,0.99259526,0.12139928,0.7527598,-0.07714359,0.65375954,0.6582808,0.09479829,-0.7467795,-0.004366036,0.992503,0.122142486,0.09768677,0.07991028,-0.041290283,0
12697.612894691,0.75509906,-0.0765155,0.6511303,0.6555979,0.09431947,-0.74919635,-0.004089129,0.9925972,0.121383965,0.7528224,-0.07719952,0.6536809,0.65820974,0.094780974,-0.7468444,-0.004300484,0.9925003,0.12216671,0.030532837,0.0942688,-0.0076293945,0
12697.61731974,0.7550947,-0.07652036,0.65113485,0.6556031,0.09427672,-0.7491971,-0.0040580244,0.99260086,0.12135485,0.7528627,-0.07715634,0.6536396,0.6581636,0.094744734,-0.74688965,-0.004301635,0.9925071,0.12211127,0.06851196,-0.020645142,-0.08874512,0
12697.621744789,0.78332,-0.0722546,0.6174051,0.6216055,0.0975072,-0.777238,-0.004042432,0.9926085,0.121293195,0.7528593,-0.07719566,0.65363884,0.65816754,0.094761536,-0.746884,-0.0042836145,0.99250245,0.12214978,0.054000854,0.012710571,-0.1408081,0
12697.626169838,0.78329796,-0.072281055,0.61743003,0.6216336,0.09748639,-0.7772183,-0.004012869,0.99260867,0.12129321,0.7534703,-0.077092275,0.6529466,0.6574678,0.09485253,-0.7474885,-0.0043080496,0.9925018,0.12215425,0.06806946,-0.04473877,-0.016311646,0
12697.630594886,0.78329545,-0.072284,0.6174328,0.62163675,0.09746449,-0.77721834,-0.003997317,0.9926105,0.12127788,0.7540901,-0.0769517,0.6522475,0.6567567,0.09493554,-0.74810296,-0.004353674,0.9925048,0.12212848,0.034423828,0.14678955,-0.020950317,0
12697.635019935,0.7598698,-0.07578616,0.6456425,0.65006304,0.09466768,-0.7539602,-0.0039817328,0.99262,0.1212009,0.75470465,-0.0768239,0.6515512,0.6560502,0.094961084,-0.7487192,-0.004352476,0.9925122,0.122067906,0.06298828,0.06523132,-0.17822266,0
12697.639444984,0.759921,-0.07572542,0.6455895,0.6500024,0.094820544,-0.75399333,-0.0041186814,0.99261004,0.121277824,0.7547868,-0.076729126,0.65146726,0.6559555,0.09495023,-0.7488037,-0.004401912,0.9925206,0.121998064,-0.079315186,0.06060791,0.055664063,0
12697.643870033,0.7600035,-0.075627506,0.6455038,0.64990556,0.094824925,-0.7540763,-0.0041809506,0.99261713,0.121218,0.75484973,-0.07665653,0.6514027,0.65588206,0.095079064,-0.7488515,-0.00453041,0.99251384,0.12204805,-0.16967773,0.05102539,-0.14964294,0
12697.648295082,0.70437914,-0.083077714,0.7049454,0.70981115,0.088373534,-0.6988262,-0.004241633,0.99261683,0.12121797,0.75493973,-0.07659805,0.65130544,0.6557785,0.09504384,-0.7489468,-0.004534708,0.99252176,0.12198372,-0.15951538,-0.02079773,-0.015563965,0
12697.652720131,0.70436895,-0.08308879,0.7049544,0.7098214,0.08838205,-0.69881487,-0.0042416262,0.99261516,0.12123177,0.75398195,-0.07671817,0.65239984,0.65687937,0.09494448,-0.7479941,-0.0045570266,0.992522,0.121980995,0.017654419,-0.030380249,0.060913086,0
12697.657114662,0.70440173,-0.08305316,0.70492584,0.70978856,0.08843946,-0.69884104,-0.0043023005,0.9926131,0.121247075,0.7530308,-0.07682651,0.65348476,0.65796924,0.09484967,-0.7470475,-0.004589754,0.99252266,0.12197421,-0.15892029,0.05102539,0.027236938,0
12697.661539711,0.77331746,-0.0735257,0.62974143,0.63400424,0.09648836,-0.7672866,-0.004347431,0.9926147,0.12123171,0.7520954,-0.07695521,0.654546,0.6590383,0.09473797,-0.74611884,-0.004592629,0.9925234,0.12196841,-0.144104,-0.030380249,-0.010925293,0
12697.66596476,0.7733485,-0.07348511,0.62970805,0.6339661,0.09652135,-0.7673141,-0.00439411,0.9926145,0.12123169,0.7525287,-0.076825134,0.65406305,0.65854347,0.09472011,-0.7465579,-0.004598519,0.9925351,0.12187228,-0.09576416,-0.011230469,-0.006134033,0
12697.670389808,0.7733699,-0.07345689,0.6296848,0.63393945,0.09656409,-0.7673305,-0.0044392245,0.9926125,0.121247,0.75294995,-0.07675602,0.65358627,0.6580618,0.09475419,-0.74697816,-0.0045949575,0.99253726,0.12185536,-0.033081055,0.017501831,-0.22175598,0
12697.674814857,0.77343094,-0.0733771,0.6296192,0.6338648,0.09650957,-0.76739895,-0.0044547645,0.9926236,0.12115466,0.75294995,-0.07675602,0.65358627,0.6580618,0.09475419,-0.74697816,-0.0045949575,0.99253726,0.12185536,-0.032928467,0.017349243,-0.22085571,0
12697.679239906,0.7602414,-0.075344935,0.6452567,0.6496254,0.09498125,-0.7542979,-0.0044547645,0.9926236,0.12115466,0.7537533,-0.07659855,0.6526781,0.65714175,0.0947451,-0.7477889,-0.0045585064,0.99255025,0.121750526,-0.004196167,0.12748718,0.028137207,0
12697.683664955,0.7602674,-0.075313985,0.64522964,0.64959514,0.094928816,-0.75433064,-0.004439238,0.992631,0.12109488,0.7538916,-0.07648932,0.65253127,0.6569827,0.094736755,-0.74792963,-0.0046100663,0.9925595,0.121673405,0.033966064,0.022140503,-0.15802002,0
12697.688090004,0.7488388,-0.07694446,0.6582704,0.6627373,0.09358984,-0.7429806,-0.004439178,0.99263316,0.12107769,0.75399595,-0.07644306,0.65241593,0.6568627,0.09475462,-0.74803275,-0.004637506,0.99256134,0.1216572,-0.013916016,-0.073776245,-0.07167053,0
12697.692515052,0.74891245,-0.07686107,0.6581964,0.6626539,0.09356267,-0.74305844,-0.0044703376,0.99264216,0.12100254,0.75384223,-0.07645264,0.65259236,0.657039,0.09473731,-0.74788004,-0.004647446,0.99256223,0.12164936,-0.08065796,0.060302734,-0.16668701,0
12697.696940101,0.74897563,-0.0767894,0.65813273,0.6625821,0.09354341,-0.7431248,-0.0044998713,0.9926495,0.12094104,0.75371736,-0.0764823,0.65273327,0.6571824,0.09471825,-0.74775654,-0.0046356064,0.9925618,0.1216536,-0.07557678,0.069732666,-0.1517334,0
12697.70136515,0.71367705,-0.08149568,0.69571793,0.7004603,0.08943243,-0.7080658,-0.0045154477,0.9926532,0.12091037,0.75362134,-0.07640463,0.6528531,0.65729177,0.09473834,-0.7476577,-0.004725704,0.9925659,0.121616974,-0.051483154,0.041000366,-0.06523132,0
12697.705790199,0.71378165,-0.08138563,0.69562364,0.7003535,0.08941228,-0.70817405,-0.004562105,0.992664,0.12081954,0.75279456,-0.07649364,0.6537959,0.6582381,0.0946995,-0.7468296,-0.004786424,0.9925627,0.1216403,-0.08932495,0.0025482178,-0.26545715,0
12697.710215248,0.713804,-0.0813621,0.69560343,0.7003306,0.089413695,-0.7081965,-0.0045761177,0.9926658,0.12080421,0.7520382,-0.07664362,0.6546482,0.65910214,0.094651856,-0.74607325,-0.004781912,0.9925557,0.12169779,-0.06524658,0.026489258,-0.011520386,0
12697.714609779,0.7334246,-0.078827456,0.67518485,0.6797552,0.09177923,-0.727674,-0.004607256,0.99265444,0.12089652,0.75133,-0.07675298,0.6554481,0.65990925,0.09460251,-0.7453658,-0.0047979807,0.9925519,0.12172771,0.021240234,0.117614746,-0.041152954,0
12697.719034828,0.7334352,-0.07881558,0.67517465,0.67974365,0.09176922,-0.7276859,-0.0046072644,0.99265623,0.12088118,0.75099415,-0.07683534,0.65582323,0.6602912,0.094644785,-0.74502206,-0.0048262193,0.99254155,0.121811375,-0.021850586,0.08888245,-0.0074920654,0
12697.723459877,0.73348963,-0.07875499,0.6751226,0.6796849,0.09174081,-0.72774446,-0.004622787,0.9926637,0.12081951,0.75062376,-0.07686421,0.6562438,0.6607122,0.09459085,-0.7446556,-0.0048372913,0.9925444,0.121787265,-0.045639038,0.0073394775,-0.17927551,0
12697.727884926,0.76938397,-0.073627226,0.6345293,0.6387699,0.09586631,-0.76340204,-0.004622804,0.99266744,0.12078885,0.75031525,-0.07693379,0.6565883,0.6610625,0.09458231,-0.7443458,-0.0048362953,0.9925399,0.12182459,0.016616821,0.0073394775,-0.06404114,0
12697.732309974,0.76940435,-0.07360245,0.6345074,0.6387451,0.09586674,-0.76342255,-0.004638372,0.99266917,0.1207735,0.7507159,-0.076908894,0.6561332,0.66060746,0.09468215,-0.7447369,-0.0048472015,0.99253225,0.12188598,-0.04069519,0.08395386,-0.03515625,0
12697.736735023,0.76942563,-0.073576674,0.6344846,0.6387193,0.09588795,-0.7634416,-0.0046679354,0.9926691,0.12077349,0.7511274,-0.0768744,0.6556661,0.6601396,0.09474276,-0.745144,-0.004837123,0.99252915,0.12191172,-0.083496094,0.016906738,0.02708435,0
12697.741160072,0.7469881,-0.076934494,0.66037095,0.66482115,0.09339188,-0.7411417,-0.004653927,0.9926526,0.1209103,0.7515161,-0.07682931,0.6552258,0.6596971,0.09478375,-0.7455305,-0.004826172,0.99252874,0.12191559,-0.002243042,-0.102645874,0.0688324,0
12697.745585121,0.74701166,-0.07690763,0.6603474,0.66479415,0.09345885,-0.7411573,-0.004714656,0.9926483,0.12094261,0.75148684,-0.07691037,0.65524983,0.6597305,0.0948455,-0.74549305,-0.0048113503,0.9925166,0.122015275,-0.14529419,0.065078735,0.082901,0
12697.75001017,0.7470346,-0.076881595,0.6603245,0.66476834,0.09345904,-0.74118054,-0.0047301594,0.9926504,0.12092559,0.7513588,-0.076917134,0.65539575,0.6598761,0.09485176,-0.7453635,-0.0048342245,0.99251544,0.122023486,-0.058944702,0.012268066,-0.03187561,0
12697.754435218,0.7763845,-0.07253608,0.62607163,0.63024163,0.09685276,-0.7703344,-0.004759731,0.99265206,0.12091023,0.75126,-0.07691178,0.65550977,0.6599885,0.09485154,-0.74526393,-0.0048565357,0.99251586,0.12201905,-0.063446045,-0.006881714,-0.036499023,0
12697.758860267,0.7763958,-0.07252233,0.6260591,0.63022757,0.096863806,-0.77034456,-0.0047752904,0.99265206,0.12091023,0.75172454,-0.07681908,0.65498775,0.659459,0.09493347,-0.74572206,-0.004894577,0.9925152,0.12202285,-0.048934937,0.064941406,0.0018005371,0
12697.763285316,0.7763775,-0.07254451,0.6260793,0.63025016,0.09688549,-0.77032334,-0.004775272,0.99264824,0.120940894,0.75218123,-0.07677107,0.65446895,0.65893817,0.09499177,-0.7461749,-0.0048845145,0.99251336,0.122038424,-0.015411377,-0.035614014,0.06375122,0
12697.767710365,0.7572233,-0.075419754,0.6487871,0.6531383,0.09476483,-0.7512856,-0.004820417,0.9926387,0.12101767,0.7526379,-0.07664687,0.65395826,0.6584163,0.09503213,-0.7466304,-0.0049201692,0.9925191,0.12199033,-0.0053863525,0.093811035,0.11088562,0
12697.772135414,0.75723565,-0.075406246,0.64877415,0.65312374,0.09477635,-0.75129664,-0.0048359763,0.9926386,0.121017665,0.7526493,-0.076630786,0.65394694,0.6584028,0.095083095,-0.7466357,-0.004964023,0.99251544,0.12201816,-0.033966064,0.098602295,0.0103302,0
12697.776529945,0.75723755,-0.07540432,0.64877236,0.65312165,0.09479825,-0.75129586,-0.0048515266,0.9926366,0.12103298,0.75268203,-0.07658819,0.65391433,0.65836537,0.095069714,-0.74667054,-0.0049813055,0.99252003,0.12198027,-0.076919556,0.16563416,5.950928E-4,0
12697.780954994,0.72987735,-0.079231635,0.678971,0.6835611,0.09162271,-0.72411984,-0.004835967,0.9926366,0.12103298,0.75270855,-0.07659871,0.65388256,0.6583351,0.095063664,-0.7466979,-0.004964371,0.9925198,0.12198286,-0.067489624,0.041137695,-0.004196167,0
12697.785380043,0.7298977,-0.07920791,0.67895174,0.68353933,0.09160272,-0.7241429,-0.004835985,0.99264044,0.121002324,0.7521664,-0.076701574,0.65449417,0.6589549,0.094959855,-0.7461642,-0.004918708,0.99252176,0.121968485,-4.5776367E-4,0.0028381348,-0.07571411,0
12697.789805092,0.7299094,-0.07919426,0.6789408,0.6835266,0.091636375,-0.72415066,-0.004867095,0.9926384,0.121017635,0.7516705,-0.076748334,0.6550582,0.65952027,0.09492115,-0.7456695,-0.004949992,0.9925219,0.12196651,-0.12944031,0.103393555,0.0055389404,0
12697.79423014,0.75040185,-0.07633282,0.65655947,0.6609638,0.0939946,-0.74450773,-0.0048826723,0.99264205,0.12098696,0.75116885,-0.07683301,0.6556234,0.6600917,0.09484882,-0.74517286,-0.0049312296,0.99252224,0.12196431,-0.0287323,0.079452515,-0.07077026,0
12697.798655189,0.75040776,-0.07632575,0.65655357,0.6609574,0.09394153,-0.7445202,-0.0048515806,0.99264765,0.120942526,0.7511066,-0.076838546,0.65569407,0.66016257,0.09482941,-0.74511266,-0.0049257167,0.99252367,0.12195293,0.042800903,-0.078567505,-0.13258362,0
12697.803080238,0.75042415,-0.07630597,0.6565371,0.660939,0.09387686,-0.7445447,-0.0048204297,0.9926553,0.120881066,0.75104,-0.076843806,0.65576977,0.6602384,0.0948093,-0.7450479,-0.004920749,0.99252516,0.121940814,-0.034118652,0.064941406,-0.15592957,0
12697.807505287,0.7129858,-0.08134584,0.69644386,0.7011616,0.08958606,-0.70735186,-0.0048515312,0.9926516,0.120910175,0.7509429,-0.07689809,0.6558745,0.66034925,0.09474852,-0.7449574,-0.004857336,0.99252677,0.12193032,-0.08169556,-0.035614014,0.054473877,0
12697.811930336,0.71300864,-0.08132216,0.6964234,0.70113885,0.08950378,-0.70738494,-0.0048064534,0.99266094,0.12083507,0.75018966,-0.07705699,0.6567173,0.6612053,0.09462377,-0.7442136,-0.0047942074,0.99252635,0.12193626,0.09022522,-0.030822754,-0.1842041,0
12697.816355385,0.71303236,-0.08129741,0.69640195,0.7011147,0.0894844,-0.70741135,-0.004806396,0.99266475,0.12080408,0.74947447,-0.077237435,0.6575123,0.6620164,0.09453475,-0.7435035,-0.004731453,0.9925208,0.121983826,0.018417358,-0.040542603,-0.102508545,0
12697.820780433,0.71303177,-0.081298,0.69640243,0.7011155,0.08944082,-0.70741606,-0.0047752955,0.9926686,0.12077343,0.74874485,-0.077409945,0.65832275,0.6628418,0.094455816,-0.7427778,-0.004684024,0.9925149,0.12203385,0.056396484,0.050430298,-0.07826233,0
12697.825205482,0.7130438,-0.08128544,0.6963916,0.7011031,0.08945305,-0.7074267,-0.0047908546,0.9926685,0.12077342,0.74802154,-0.07753374,0.65913,0.6636579,0.09440553,-0.7420552,-0.0046912064,0.99251,0.12207324,-0.020050049,0.050430298,0.02229309,0
12697.829630531,0.713032,-0.08129771,0.69640225,0.7011152,0.08946261,-0.7074137,-0.0047908463,0.9926667,0.12078876,0.74735457,-0.077629454,0.6598748,0.6644086,0.09436744,-0.74138784,-0.004717161,0.99250615,0.12210362,-9.0026855E-4,-0.045333862,0.031723022,0
12697.834025062,0.74443024,-0.07711258,0.6632324,0.66768324,0.093052804,-0.7386069,-0.0047597447,0.99267054,0.12075811,0.7466949,-0.07776106,0.6606058,0.6651503,0.09427358,-0.7407345,-0.0046773693,0.9925048,0.122116394,0.046676636,0.0121154785,-0.07810974,0
12697.838450111,0.7444832,-0.077053726,0.6631799,0.6676242,0.09302476,-0.738664,-0.0047753397,0.9926778,0.1206983,0.7466534,-0.07775264,0.6606536,0.6651965,0.09432653,-0.7406863,-0.0047268462,0.99250036,0.122150004,-0.034561157,0.055221558,-0.13496399,0
12697.84287516,0.7444713,-0.077066876,0.66319156,0.6676374,0.09301307,-0.73865336,-0.0047597797,0.9926778,0.1206983,0.7466364,-0.07772113,0.66067666,0.6652153,0.09433992,-0.7406677,-0.0047626584,0.9925016,0.12213891,0.032318115,-0.05491638,-9.0026855E-4,0
12697.847300209,0.7300131,-0.07908219,0.67884237,0.68341684,0.091344796,-0.724291,-0.0047301985,0.9926742,0.120728984,0.7465903,-0.077725194,0.6607281,0.66526693,0.09434885,-0.74062014,-0.004774093,0.9925004,0.12214794,0.08468628,-0.05970764,0.075408936,0
12697.851725258,0.7300234,-0.079070315,0.6788326,0.6834057,0.09133481,-0.7243027,-0.0047302074,0.9926761,0.12071365,0.74624836,-0.0777798,0.6611079,0.66565055,0.09431196,-0.7402801,-0.0047715423,0.99249965,0.12215431,0.008087158,-0.13153076,-0.053726196,0
12697.856150306,0.73002225,-0.07907162,0.67883366,0.6834073,0.09126804,-0.72430974,-0.004683483,0.99268216,0.12066582,0.74592113,-0.07776723,0.66147864,0.666017,0.09424135,-0.73995936,-0.0047940505,0.99250734,0.12209091,0.098587036,0.08380127,-0.12988281,0
12697.860575355,0.7405842,-0.07760972,0.6674667,0.6719473,0.092456356,-0.7348053,-0.0046835085,0.9926876,0.12062135,0.7456136,-0.077782124,0.6618234,0.6663612,0.094181485,-0.739657,-0.004799416,0.99251187,0.122053996,0.012420654,0.0023956299,-0.11027527,0
12697.865000404,0.74057317,-0.077622674,0.66747737,0.67195946,0.09244469,-0.73479545,-0.004667949,0.9926876,0.12062135,0.74552923,-0.07779191,0.6619173,0.66645557,0.094185986,-0.73957145,-0.0048106574,0.9925107,0.122063264,0.05055237,0.03112793,0.009429932,0
12697.869425453,0.7405633,-0.077634335,0.667487,0.6719705,0.0924342,-0.7347867,-0.0046539456,0.99268764,0.12062137,0.74546385,-0.07779014,0.66199124,0.6665287,0.09417886,-0.7395065,-0.0048192646,0.99251145,0.1220563,0.036071777,-0.05506897,-1.5258789E-4,0
12697.873850502,0.75819415,-0.07514544,0.64768416,0.65201217,0.094468705,-0.75230026,-0.0046539456,0.99268764,0.12062137,0.745387,-0.07776346,0.6620809,0.66661435,0.09418294,-0.7394288,-0.0048561757,0.9925132,0.12204098,0.0025482178,-0.05027771,0.004638672,0
12697.878275551,0.75819415,-0.07514544,0.64768416,0.65201217,0.094468705,-0.75230026,-0.0046539456,0.99268764,0.12062137,0.7456802,-0.077676594,0.6617608,0.6662861,0.09419678,-0.73972267,-0.0048765945,0.99251866,0.121995516,0.0025482178,-0.03591919,-0.019302368,0
12697.882700599,0.7582228,-0.07511071,0.64765453,0.6519787,0.09445784,-0.7523306,-0.0046679666,0.99269134,0.120590694,0.74596393,-0.077635735,0.66144574,0.66596866,0.09419413,-0.74000895,-0.0048531643,0.9925221,0.12196838,-0.07392883,-0.02154541,-0.08602905,0
12697.887125648,0.7489181,-0.07645042,0.6582378,0.6626461,0.09339666,-0.7430863,-0.004667958,0.9926895,0.12060603,0.74619985,-0.07756791,0.6611876,0.66570413,0.09423007,-0.7402423,-0.004884703,0.992524,0.12195174,0.0074768066,-0.011978149,0.05267334,0
12697.891550697,0.74894756,-0.07641583,0.6582083,0.6626129,0.09334466,-0.7431224,-0.0046539167,0.99269706,0.120544374,0.746244,-0.07753507,0.66114163,0.6656545,0.09422798,-0.74028724,-0.0048998115,0.99252677,0.12192863,0.036071777,-0.031280518,-0.17178345,0
12697.895945228,0.7490059,-0.07634736,0.65814996,0.662547,0.09330437,-0.74318635,-0.0046679624,0.99270606,0.12046922,0.74626565,-0.07748408,0.6611231,0.6656296,0.09427696,-0.74030334,-0.004966952,0.9925261,0.12193136,-0.026046753,-0.09831238,-0.21412659,0
12697.900370277,0.70077723,-0.08264814,0.7085765,0.7133648,0.0877289,-0.69528013,-0.004699027,0.99270993,0.12043668,0.7463038,-0.077390924,0.6610909,0.6655866,0.094244465,-0.7403462,-0.0050080842,0.9925365,0.121845365,-0.0688324,-0.064956665,-0.08453369,0
12697.904795326,0.70079803,-0.08262464,0.70855856,0.7133444,0.08768917,-0.69530606,-0.004683493,0.9927154,0.12039223,0.7454129,-0.07745717,0.66208756,0.66658366,0.09417961,-0.7394569,-0.0050789197,0.99253744,0.121834375,0.031570435,-0.021850586,-0.122406006,0
12697.909220375,0.70082915,-0.08258965,0.70853186,0.7133132,0.08776824,-0.6953279,-0.0047597163,0.99271125,0.12042284,0.74453425,-0.07754883,0.66306484,0.6675645,0.09414048,-0.73857653,-0.0051454944,0.992534,0.121859655,0.017959595,0.083496094,-0.06524658,0
12697.913645424,0.73906636,-0.077637814,0.6691437,0.67361575,0.09221876,-0.733306,-0.0047753328,0.9927075,0.120453835,0.7437069,-0.07763339,0.6639828,0.6684855,0.09411663,-0.73774606,-0.005218093,0.99252963,0.121891975,-0.020202637,0.18899536,-0.17567444,0
12697.918070472,0.73916054,-0.07752958,0.66905224,0.67351204,0.09219158,-0.7334045,-0.004820434,0.9927184,0.12036147,0.7436006,-0.07769424,0.6640947,0.6686037,0.09415877,-0.7376335,-0.0052204686,0.99252087,0.121963166,-0.11073303,-0.021850586,-0.24659729,0
12697.922495521,0.7391432,-0.077549554,0.6690691,0.6735307,0.092277706,-0.73337656,-0.0048671425,0.9927088,0.120438434,0.7435032,-0.07770886,0.66420203,0.6687118,0.09419118,-0.7375314,-0.005249244,0.9925167,0.121996276,-0.09112549,-0.0025482178,-0.0031433105,0
12697.92692057,0.7391759,-0.07751194,0.66903734,0.6734945,0.092311665,-0.73340553,-0.0049122656,0.9927086,0.12043842,0.7435032,-0.07770886,0.66420203,0.6687118,0.09419118,-0.7375314,-0.005249244,0.9925167,0.121996276,-0.09068298,-0.0025482178,-0.0031433105,0
12697.931315101,0.746371,-0.07645132,0.6611246,0.6655119,0.09311388,-0.7405565,-0.0049433447,0.992716,0.12037674,0.74338365,-0.07784912,0.6643194,0.6688448,0.094281755,-0.73739916,-0.0052273204,0.9924971,0.12215649,-0.09037781,0.026031494,-0.13182068,0
12697.935709633,0.74636227,-0.07646144,0.6611333,0.6655217,0.093146026,-0.74054384,-0.0049588857,0.99271226,0.1204074,0.7434599,-0.07785718,0.6642332,0.66876006,0.09433125,-0.73746973,-0.0052406285,0.9924917,0.12219927,-0.0471344,-0.045791626,0.054611206,0
12697.940104164,0.74629295,-0.076541655,0.6612021,0.66559905,0.09323792,-0.7404624,-0.0049728923,0.99269736,0.12052885,0.7435119,-0.07791111,0.6641686,0.66870284,0.09428089,-0.7375281,-0.0051567815,0.9924923,0.122198336,-0.14755249,-0.04084778,-0.00881958,0
12697.944498695,0.7461706,-0.07668339,0.66132385,0.6657366,0.09329602,-0.7403314,-0.004927765,0.99268097,0.12066568,0.74359107,-0.077990904,0.6640706,0.6686151,0.09432683,-0.7376017,-0.0051134513,0.99248165,0.12228648,-0.080947876,0.01675415,0.13348389,0
12697.948893226,0.7461933,-0.076657146,0.6613013,0.66571105,0.09331922,-0.7403516,-0.004958884,0.99268085,0.12066566,0.7436577,-0.078095056,0.66398376,0.6685418,0.09432036,-0.73766905,-0.0050188755,0.9924741,0.12235186,-0.08543396,-0.02633667,-5.950928E-4,0
12697.953318275,0.73801094,-0.07778235,0.6702908,0.6747707,0.09234456,-0.7322275,-0.0049433424,0.9926845,0.12063654,0.743708,-0.07810162,0.66392654,0.66848606,0.09427436,-0.7377254,-0.004973701,0.99247795,0.12232244,0.0053863525,-0.03112793,-0.072128296,0
12697.957712806,0.738001,-0.07779406,0.67030036,0.67478156,0.09235472,-0.7322162,-0.0049433336,0.99268264,0.12065188,0.7435902,-0.07816978,0.6640506,0.6686176,0.09423308,-0.7376115,-0.0049166004,0.9924765,0.12233648,0.019760132,0.07421875,0.052215576,0
12697.962107338,0.7379495,-0.07785519,0.67035,0.67483807,0.09236212,-0.73216313,-0.0049122632,0.9926771,0.12069821,0.7434864,-0.0781842,0.66416496,0.66873324,0.094140984,-0.7375183,-0.0048628678,0.9924841,0.122276925,0.09126282,-0.021392822,0.09965515,0
12697.966501869,0.7390327,-0.07767658,0.6691764,0.67365175,0.0924311,-0.7332461,-0.004896664,0.99268466,0.12063656,0.7434056,-0.07818036,0.6642559,0.6688232,0.094114654,-0.73744017,-0.0048628883,0.9924869,0.12225419,0.03366089,0.0071868896,-0.1631012,0
12697.9708964,0.7390328,-0.07767651,0.6691764,0.6736519,0.09241042,-0.73324865,-0.0048826695,0.99268657,0.120621234,0.7433184,-0.078170516,0.6643546,0.66892004,0.094080985,-0.73735654,-0.004863594,0.9924909,0.12222196,0.019165039,-0.02154541,-0.009719849,0
12697.975290931,0.73901016,-0.07770244,0.6691983,0.6736768,0.092386976,-0.73322856,-0.004851551,0.9926867,0.12062125,0.7432183,-0.07816691,0.6644671,0.66903156,0.09399536,-0.7372663,-0.0048269946,0.9924993,0.12215521,0.085876465,-0.0023956299,-0.014511108,0
12697.979685463,0.7506793,-0.07608637,0.6562708,0.66064894,0.0937216,-0.7448215,-0.004835991,0.99268675,0.12062126,0.74313664,-0.07815843,0.6645595,0.6691224,0.09395072,-0.73718965,-0.0048182546,0.9925042,0.122115776,0.042648315,0.10295105,0.023788452,0
12697.984079994,0.7507093,-0.07605272,0.65624046,0.66061497,0.093691714,-0.74485546,-0.0048360177,0.99269223,0.1205768,0.74328375,-0.07808051,0.664404,0.66895854,0.09398456,-0.73733395,-0.004872305,0.9925071,0.122089826,-0.029190063,0.0071868896,-0.13856506,0
12697.988505043,0.75077283,-0.0759812,0.656176,0.66054255,0.093651436,-0.74492466,-0.0048515466,0.9927015,0.12049979,0.7434309,-0.078041874,0.6642438,0.6687949,0.09399436,-0.7374811,-0.004880762,0.9925092,0.12207232,-0.038604736,0.06448364,-0.17134094,0
12697.992899574,0.7480299,-0.07630724,0.65926355,0.66364723,0.093266815,-0.74220854,-0.0048515256,0.9927127,0.120407455,0.74358016,-0.07792982,0.66409,0.6686285,0.09400738,-0.73763037,-0.0049459636,0.99251676,0.12200812,0.023635864,0.064331055,-0.24705505,0
12697.997294105,0.74805665,-0.07627531,0.65923697,0.66361725,0.093214944,-0.7422419,-0.0048360014,0.99272,0.120347664,0.74368227,-0.077869944,0.6639827,0.6685146,0.09404085,-0.7377293,-0.004994557,0.9925183,0.121993706,0.009124756,0.002090454,-0.14111328,0
12698.001688636,0.748087,-0.076239094,0.6592067,0.663583,0.093205765,-0.7422738,-0.004851579,0.9927237,0.12031699,0.74381495,-0.07783657,0.6638379,0.6683669,0.094049126,-0.7378621,-0.0050007165,0.99252015,0.121978536,-0.014663696,0.083496094,-0.073776245,0
12698.006083168,0.74810433,-0.07627776,0.6591824,0.66356343,0.09323074,-0.74228805,-0.0048359935,0.9927184,0.12036147,0.7439433,-0.07778773,0.66369987,0.6682237,0.09410535,-0.73798466,-0.0050515537,0.99251866,0.12198864,0.033065796,-0.017059326,0.13647461,0
12698.010477699,0.7481443,-0.07623104,0.6591425,0.6635183,0.09321235,-0.7423308,-0.004851579,0.9927237,0.12031699,0.7440386,-0.07778312,0.6635935,0.6681173,0.09417545,-0.738072,-0.0050846683,0.99251235,0.12203842,-0.029037476,-0.098464966,-0.13122559,0
12698.01487223,0.7481553,-0.07621826,0.65913165,0.663506,0.093200855,-0.74234325,-0.004851521,0.99272573,0.12029998,0.7441305,-0.077765994,0.6634925,0.668015,0.09418498,-0.7381634,-0.005087018,0.99251276,0.122034766,-0.0050811768,-0.036361694,-0.059249878,0
12698.019266761,0.7231397,-0.07963855,0.68609524,0.6906842,0.090463385,-0.7174759,-0.004927757,0.9927105,0.12042275,0.7441969,-0.07772731,0.6634226,0.6679406,0.09423057,-0.73822486,-0.005134454,0.9925115,0.12204332,-0.109680176,-0.012283325,-0.06524658,0
12698.023661293,0.72322637,-0.07954119,0.68601525,0.6905931,0.09047069,-0.7175628,-0.004988476,0.9927176,0.12036137,0.74379164,-0.07782744,0.66386515,0.6683916,0.09428139,-0.7378101,-0.0051682624,0.9924988,0.122144915,-0.16654968,-0.012283325,-0.16519165,0
12698.028086342,0.7231519,-0.07962476,0.68608385,0.6906708,0.090561695,-0.71747637,-0.0050040386,0.9927026,0.12048437,0.7433815,-0.07790061,0.66431576,0.6688477,0.09425333,-0.7374002,-0.0051700515,0.9924957,0.12216983,-0.013168335,0.011810303,0.106536865,0
12698.032480873,0.72316384,-0.07961144,0.68607295,0.6906581,0.090595484,-0.7174843,-0.0050351475,0.9927005,0.12049967,0.7429432,-0.07798847,0.6647956,0.6693344,0.09425023,-0.73695886,-0.005182847,0.99248916,0.12222293,-0.0655365,-0.060012817,0.024978638,0
12698.036875404,0.7231857,-0.0795868,0.6860527,0.6906351,0.0905976,-0.7175062,-0.0050507165,0.99270236,0.12048433,0.7425347,-0.07805009,0.6652446,0.66978735,0.09423408,-0.73654926,-0.0052009737,0.9924858,0.12224904,-0.04623413,-0.12225342,-0.056259155,0
12698.041269935,0.7231508,-0.079626046,0.6860849,0.6906722,0.09051806,-0.71748054,-0.0049729384,0.9927065,0.120453715,0.7421012,-0.07817835,0.6657131,0.6702681,0.09416984,-0.73612,-0.00514145,0.9924818,0.122284,-0.06614685,0.05491638,-0.08947754,0
12698.045664467,0.74630153,-0.07654063,0.6611926,0.6655896,0.093218215,-0.74047345,-0.0049588988,0.99269927,0.12051353,0.7416762,-0.07829199,0.6661733,0.6707391,0.0940389,-0.73570764,-0.005046188,0.9924853,0.122259915,-0.0806427,0.011810303,-0.013458252,0
12698.050058998,0.7463684,-0.076469466,0.6611253,0.66551435,0.09320086,-0.74054325,-0.004988498,0.9927064,0.12045371,0.7416943,-0.07833739,0.6661477,0.67071944,0.09402032,-0.73572785,-0.0049964203,0.99248344,0.12227675,-0.0899353,0.05970764,-0.14694214,0
12698.054453529,0.74638516,-0.07645162,0.6611084,0.665495,0.09327823,-0.7405508,-0.0050507076,0.9927005,0.12049967,0.74175406,-0.07837173,0.66607714,0.6706537,0.09399217,-0.73579144,-0.004940786,0.99248344,0.122279376,-0.12763977,0.05491638,-0.1186676,0
12698.05884806,0.760923,-0.074448004,0.6445569,0.64882314,0.094897814,-0.75499856,-0.0049588988,0.99269927,0.12051353,0.74175996,-0.078390814,0.6660684,0.6706471,0.09404835,-0.7357903,-0.004963432,0.9924766,0.12233387,0.05819702,0.07406616,-0.061340332,0
12698.063242592,0.76096207,-0.07440346,0.6445161,0.6487775,0.09485682,-0.755043,-0.0049589346,0.9927065,0.120453715,0.7420579,-0.07842509,0.6657323,0.670318,0.09404534,-0.73609054,-0.00488106,0.9924742,0.12235685,-0.01361084,-0.08874512,-0.16609192,0
12698.06766764,0.760952,-0.07441489,0.6445265,0.64878917,0.09486733,-0.7550316,-0.0049589253,0.99270463,0.120469056,0.7424083,-0.07836623,0.6653486,0.6699301,0.09405451,-0.73644245,-0.004866821,0.99247795,0.12232674,7.4768066E-4,0.08364868,0.039657593,0
12698.072062172,0.7162234,-0.080546685,0.6932072,0.69785327,0.08974099,-0.7105964,-0.0049729194,0.9927027,0.120484374,0.7427765,-0.07830683,0.66494435,0.66952163,0.094100736,-0.7368078,-0.0048746644,0.99247825,0.122323945,-0.05178833,0.06448364,0.049072266,0
12698.076456703,0.7162581,-0.08050916,0.6931756,0.6978177,0.089691125,-0.71063757,-0.004958876,0.9927103,0.12042273,0.74225515,-0.07839575,0.6655159,0.67009944,0.09409306,-0.7362834,-0.0048989407,0.992472,0.12237401,0.04385376,-0.031433105,-0.16101074,0
12698.080851234,0.7162689,-0.080497645,0.693166,0.6978066,0.08972412,-0.7106445,-0.004988507,0.9927082,0.12043837,0.7417482,-0.07846363,0.6660729,0.6706606,0.09402475,-0.735781,-0.004895282,0.99247307,0.122365154,-0.056411743,-0.036071777,0.02558899,0
12698.085245765,0.7498816,-0.07597636,0.65719485,0.66155326,0.09358273,-0.74403596,-0.0049729478,0.9927084,0.12043838,0.7412621,-0.0785075,0.6666086,0.67119753,0.0939892,-0.7352957,-0.004927779,0.99247295,0.12236468,0.0056762695,0.14109802,0.006439209,0
12698.089640297,0.7498921,-0.07596456,0.6571843,0.6615415,0.093572155,-0.7440478,-0.0049728793,0.9927103,0.12042273,0.74147725,-0.07845899,0.6663749,0.67095983,0.09399719,-0.7355116,-0.004929873,0.99247605,0.122339614,0.02482605,0.006881714,-0.031723022,0
12698.094034828,0.7498255,-0.076039664,0.65725166,0.66161746,0.09354788,-0.74398327,-0.0049122563,0.9927068,0.12045375,0.74165434,-0.078456484,0.66617817,0.67076445,0.09396352,-0.7356941,-0.004876472,0.99247944,0.12231428,0.12478638,0.050125122,0.09727478,0
12698.098429359,0.7429782,-0.07698671,0.66487336,0.6692976,0.092770875,-0.73718005,-0.004927816,0.9927067,0.12045374,0.7418359,-0.07837359,0.66598576,0.6705635,0.093963355,-0.73587734,-0.0049049137,0.992486,0.12225986,0.014816284,-0.12225342,-0.027236938,0
12698.102854408,0.74296755,-0.07699967,0.66488373,0.6693095,0.09275931,-0.73717064,-0.0049122563,0.9927068,0.12045375,0.7419312,-0.07832893,0.665885,0.67045796,0.09396654,-0.7359731,-0.004922922,0.9924892,0.122232966,0.024230957,-0.021697998,-0.0032958984,0
12698.107248939,0.7429686,-0.0769983,0.6648826,0.6693081,0.09278116,-0.73716915,-0.0049278066,0.99270487,0.12046908,0.7420156,-0.078282654,0.6657962,0.67036444,0.09395336,-0.7360599,-0.0049330727,0.9924941,0.12219278,-0.033065796,-0.036071777,0.025283813,0
12698.11164347,0.7566436,-0.074990444,0.64951277,0.6538087,0.09431475,-0.7507588,-0.0049588946,0.99271405,0.12039206,0.74207324,-0.078233145,0.6657378,0.6703006,0.093916684,-0.7361227,-0.004934691,0.9925015,0.12213279,-0.0758667,-0.026641846,-0.19902039,0
12698.116038002,0.756653,-0.07497856,0.6495032,0.6537977,0.094324924,-0.7507671,-0.004972898,0.992714,0.120392054,0.742367,-0.07816655,0.6654181,0.6699751,0.09395658,-0.736414,-0.0049574673,0.992503,0.12211991,-0.02305603,-0.055374146,0.021255493,0
12698.120432533,0.75660336,-0.07504138,0.64955384,0.6538557,0.094291404,-0.7507209,-0.004912207,0.9927124,0.120407425,0.7426485,-0.078080975,0.6651139,0.66966295,0.09396049,-0.7366973,-0.0049723913,0.99250937,0.122067556,-0.038009644,0.093063354,-0.117767334,0
12698.124827064,0.7285646,-0.07888052,0.6804201,0.6849594,0.09104404,-0.72287047,-0.004927794,0.9927179,0.12036141,0.7429904,-0.078097045,0.6647301,0.6692841,0.09396837,-0.73704046,-0.004902915,0.99250734,0.122086704,-0.042648315,-0.074523926,-0.11730957,0
12698.129221595,0.7285766,-0.07886767,0.6804088,0.68494654,0.091056004,-0.7228811,-0.0049433536,0.9927178,0.1203614,0.7427384,-0.07812009,0.66500896,0.6695638,0.0939252,-0.73679197,-0.004902847,0.9925096,0.122068234,-0.056854248,0.054763794,0.0071868896,0
12698.133616127,0.7286442,-0.078795165,0.6803447,0.68487436,0.09103911,-0.7229516,-0.004972884,0.99272513,0.12029991,0.74248296,-0.07820704,0.6652839,0.6698475,0.09386159,-0.73654217,-0.004841827,0.99250877,0.12207742,-0.08050537,0.112091064,-0.14544678,0
12698.138010658,0.7565293,-0.075033635,0.64964104,0.6539416,0.094238035,-0.7506529,-0.0048966757,0.9927181,0.12036144,0.7422032,-0.07825475,0.66559047,0.67015773,0.09378515,-0.73626965,-0.0048059053,0.9925122,0.122050665,0.03845215,0.073913574,-0.11730957,0
12698.142435707,0.7565046,-0.07506207,0.6496665,0.6539704,0.09419545,-0.750633,-0.004851561,0.99271995,0.12034766,0.74242944,-0.07830882,0.66533166,0.66990745,0.09382216,-0.73649263,-0.004748982,0.9925045,0.122116,-0.019454956,0.026031494,0.021697998,0
12698.146830238,0.7565188,-0.07504566,0.6496518,0.65395373,0.09422773,-0.75064343,-0.004882672,0.9927181,0.12036144,0.74264646,-0.078270525,0.66509396,0.66966707,0.093788475,-0.7367155,-0.0047150324,0.9925107,0.12206687,-0.0287323,0.093063354,-0.16998291,0
12698.151224769,0.73651224,-0.077879325,0.67192596,0.6764069,0.09189712,-0.7307726,-0.0048359935,0.9927184,0.12036147,0.7428545,-0.0782523,0.66486377,0.6694362,0.09384974,-0.73691744,-0.0047318013,0.9925063,0.12210163,0.047424316,-0.021850586,-0.09815979,0
12698.155619301,0.7364267,-0.07797688,0.6720085,0.67650056,0.091891624,-0.7306867,-0.004775276,0.99271125,0.12042284,0.74261117,-0.07831865,0.66512764,0.66970634,0.09381042,-0.73667705,-0.0047003557,0.99250484,0.12211516,0.0947113,-0.017059326,0.04966736,0
12698.160013832,0.73637486,-0.07803603,0.67205846,0.676557,0.09194233,-0.730628,-0.0047753053,0.9927018,0.120499834,0.7423986,-0.07835473,0.66536057,0.6699419,0.093779966,-0.73646665,-0.004691842,0.99250484,0.12211525,0.0947113,0.06448364,-0.032470703,0
12698.164408363,0.7710532,-0.07304153,0.63256776,0.63675267,0.095940344,-0.76507616,-0.0048064333,0.99270356,0.120484486,0.74220157,-0.07839377,0.6655758,0.67016,0.0938192,-0.73626316,-0.0047253426,0.99249804,0.12216913,0.013626099,0.0692749,0.0059814453,0
12698.168802894,0.7710731,-0.073018245,0.63254607,0.6367278,0.09603691,-0.76508456,-0.004882639,0.99269587,0.12054423,0.7427129,-0.07826835,0.66502005,0.6695931,0.09386979,-0.7367724,-0.004759339,0.99250317,0.12212625,-0.08618164,-0.016906738,0.034118652,0
12698.173197426,0.7711147,-0.072969764,0.6325009,0.6366772,0.09603676,-0.76512676,-0.004912221,0.99269956,0.12051356,0.74321526,-0.07816671,0.66447055,0.6690351,0.09397138,-0.73726624,-0.0048115384,0.99250156,0.12213723,-0.061950684,-0.09352112,0.015274048,0
12698.177591957,0.77115935,-0.07291789,0.63245255,0.63662225,0.096178986,-0.7651547,-0.0050351713,0.9926896,0.120590486,0.74321526,-0.07816671,0.66447055,0.6690351,0.09397138,-0.73726624,-0.0048115384,0.99250156,0.12213723,-0.06074524,-0.09336853,0.014526367,0
12698.182017006,0.7597916,-0.07457502,0.6458756,0.6501471,0.094863646,-0.7538632,-0.0050507486,0.99269307,0.12056134,0.744135,-0.077937074,0.66346735,0.66801095,0.09417129,-0.7381688,-0.004948857,0.99250066,0.12213897,-0.017501831,0.06942749,-0.080963135,0
12698.186411537,0.7597699,-0.07459993,0.6458983,0.65017253,0.094862744,-0.7538413,-0.005035179,0.9926912,0.12057667,0.7444187,-0.07782762,0.6631619,0.66769433,0.09421788,-0.7384492,-0.005009958,0.99250484,0.1221026,0.03501892,0.03591919,0.08169556,0
12698.190806068,0.7743169,-0.072429776,0.62863916,0.6327779,0.09652987,-0.76829284,-0.005035179,0.9926912,0.12057667,0.74468154,-0.07774713,0.66287607,0.6674006,0.09429274,-0.73870516,-0.0050721928,0.99250406,0.122106545,-0.017654419,0.10295105,-0.018859863,0
12698.195200599,0.7743286,-0.07241603,0.62862635,0.63276345,0.09654099,-0.7683034,-0.005050739,0.9926911,0.120576665,0.74526906,-0.077609226,0.6622317,0.666744,0.09440949,-0.73928297,-0.005145777,0.9925037,0.12210596,-0.02229309,0.0023956299,2.89917E-4,0
12698.199595131,0.774359,-0.07238005,0.628593,0.6327262,0.09652805,-0.76833576,-0.005064683,0.99269503,0.12054413,0.7458621,-0.077447094,0.6615827,0.6660801,0.09447126,-0.7398733,-0.0051995125,0.9925105,0.122048505,-0.055664063,-0.016906738,-0.07601929,0
12698.203989662,0.7400966,-0.077244006,0.6680497,0.6724805,0.09266849,-0.7342904,-0.005187611,0.9926962,0.12052872,0.74643046,-0.077338584,0.660954,0.6654426,0.0945919,-0.7404313,-0.005256993,0.9925075,0.12207067,-0.07362366,0.026184082,-0.14289856,0
12698.208384193,0.74016905,-0.07715833,0.6679793,0.67240024,0.092706196,-0.73435926,-0.0052638706,0.99269944,0.120499544,0.7463583,-0.077290975,0.6610412,0.66552305,0.094646394,-0.74035215,-0.0053426363,0.992506,0.12207904,-0.2069397,-0.036071777,-0.08036804,0
12698.212778724,0.7402008,-0.07712077,0.6679484,0.67236483,0.09273997,-0.7343873,-0.0053089927,0.99269915,0.12049951,0.74628365,-0.07724231,0.66113114,0.66560614,0.0946542,-0.74027634,-0.0053981887,0.99250907,0.122051835,-0.08200073,0.05491638,-0.08514404,0
12698.217173256,0.71340364,-0.0806044,0.6961021,0.7007323,0.08973507,-0.7077581,-0.005416352,0.99269855,0.12049943,0.7462435,-0.077237,0.6611771,0.665651,0.09466479,-0.7402346,-0.005416689,0.9925085,0.12205587,-0.19108582,-0.021697998,0.015411377,0
12698.221598304,0.7134791,-0.08051916,0.6960346,0.700655,0.089774966,-0.70782983,-0.0054926137,0.99270195,0.12046873,0.7456864,-0.077274464,0.66180086,0.66627485,0.09459632,-0.73968196,-0.0054454054,0.99251205,0.12202522,-0.17118835,0.08364868,-0.008224487,0
12698.225992836,0.71347725,-0.0805213,0.6960363,0.7006572,0.08971058,-0.70783573,-0.0054459646,0.99270755,0.120424286,0.74514157,-0.077305,0.66241074,0.66688406,0.094498925,-0.73914516,-0.0054574916,0.99251896,0.12196854,-0.06629944,-0.0025482178,0.006576538,0
12698.230387367,0.69589424,-0.08275015,0.71336067,0.71812373,0.08767602,-0.6903702,-0.0054163923,0.99270606,0.1204381,0.74457765,-0.07738219,0.6630355,0.667514,0.09433689,-0.73859704,-0.0053944457,0.9925284,0.121894844,-0.12882996,-0.050430298,-0.06538391,0
12698.234781898,0.695894,-0.08275046,0.713361,0.718124,0.08769775,-0.69036734,-0.0054319417,0.9927041,0.120453425,0.74372536,-0.077559814,0.66397077,0.6684641,0.09420041,-0.73775476,-0.005326197,0.9925275,0.121905185,-0.023345947,0.05970764,0.03981018,0
12698.239176429,0.69586974,-0.08277493,0.7133818,0.71814775,0.08767276,-0.6903458,-0.0054008234,0.9927043,0.120453455,0.7428468,-0.07769408,0.6649378,0.6694405,0.09405564,-0.73688734,-0.0052893627,0.9925307,0.121880494,-0.08589172,-0.1366272,-0.07991028,0
12698.243570961,0.6958606,-0.082784206,0.71338975,0.71815735,0.08755265,-0.6903511,-0.0053089894,0.9927141,0.12037651,0.7420353,-0.07785102,0.6658248,0.6703402,0.09392946,-0.736085,-0.005235595,0.99253035,0.12188566,-0.019760132,0.054763794,-0.11746216,0
12698.247965492,0.6958127,-0.08283253,0.7134309,0.718204,0.087547354,-0.6903033,-0.005279407,0.9927106,0.1204072,0.74119276,-0.07798949,0.66674656,0.6712726,0.09372588,-0.73526096,-0.005148788,0.9925387,0.12182115,-0.11581421,0.011657715,-0.1512909,0
12698.252360023,0.69575316,-0.082892485,0.71348184,0.7182625,0.08740012,-0.6902608,-0.0051409667,0.99271846,0.12034748,0.7403838,-0.078188926,0.66762143,0.6721653,0.09362155,-0.7344583,-0.005077246,0.99253285,0.12187176,0.0121154785,0.1457367,-0.22251892,0
12698.256785072,0.7675996,-0.073346294,0.636719,0.6409098,0.09564383,-0.7616342,-0.005035194,0.99270964,0.12042454,0.73959684,-0.07839461,0.6684691,0.67303205,0.093454495,-0.7336854,-0.004954465,0.9925324,0.12188072,-0.07511902,-0.012130737,-0.017364502,0
12698.261179603,0.7674538,-0.07351691,0.6368751,0.64108586,0.0955208,-0.76150155,-0.0048515834,0.9927089,0.12043846,0.7401876,-0.078430705,0.66781056,0.672383,0.09348196,-0.73427665,-0.004838401,0.99252695,0.12192966,-0.048187256,0.0980072,-0.22340393,0
12698.265574135,0.7673815,-0.073601454,0.6369525,0.64117277,0.09553079,-0.76142716,-0.0048064245,0.9927017,0.12049981,0.74079037,-0.078578874,0.6671243,0.6717203,0.09347062,-0.7348843,-0.004610137,0.9925163,0.12202517,-0.02468872,0.0357666,-0.056411743,0
12698.269968666,0.7543749,-0.07563262,0.65207225,0.6564271,0.094024315,-0.7485072,-0.0046990938,0.9926929,0.12057687,0.7413865,-0.07855899,0.6664643,0.6710629,0.09353663,-0.73547643,-0.0045605437,0.99251163,0.122064814,-0.040100098,0.09336853,-0.018859863,0
12698.274363197,0.7542268,-0.075802386,0.6522237,0.65659773,0.094038956,-0.7483555,-0.004607296,0.9926785,0.12069839,0.74169916,-0.078636765,0.66610706,0.67071795,0.09354144,-0.7357903,-0.0044484423,0.992505,0.122122705,-0.031433105,0.06478882,0.0038909912,0
12698.278757728,0.75406694,-0.075985774,0.6523873,0.65678227,0.09402102,-0.7481959,-0.0044858726,0.9926662,0.12080426,0.7419749,-0.0787177,0.66579026,0.6704134,0.09358051,-0.7360628,-0.00436382,0.99249494,0.1222078,0.015274048,-0.0070343018,-0.001953125,0
12698.28315226,0.7507449,-0.076613136,0.6561345,0.6605779,0.09360353,-0.74489945,-0.0043474208,0.9926575,0.12088133,0.7422339,-0.07881129,0.6654905,0.6701274,0.093590975,-0.7363219,-0.004253428,0.99248654,0.122279994,0.08093262,0.012268066,-0.050582886,0
12698.287546791,0.75067115,-0.07669827,0.6562091,0.66066223,0.09358851,-0.7448267,-0.0042867153,0.9926523,0.12092583,0.74246675,-0.07891645,0.6652182,0.66987,0.09361003,-0.73655367,-0.004144902,0.9924764,0.12236611,0.15216064,0.060165405,0.13572693,0
12698.291941322,0.7506091,-0.07676972,0.65627164,0.66073287,0.09360804,-0.74476147,-0.00425718,0.9926449,0.12098731,0.742634,-0.0789572,0.6650266,0.6696849,0.09363263,-0.736719,-0.004098918,0.992471,0.12241122,0.09919739,0.055511475,0.17822266,0
12698.296366371,0.75398976,-0.07639485,0.65242875,0.65687287,0.09400761,-0.74811804,-0.0041808994,0.9926361,0.12106248,0.74278486,-0.07898116,0.66485536,0.6695177,0.09368811,-0.73686403,-0.004090666,0.9924639,0.12246939,0.17027283,0.0028381348,0.17268372,0
12698.300760902,0.7539488,-0.07644381,0.6524704,0.65692,0.094028786,-0.748074,-0.0041653803,0.99263024,0.12111034,0.7429924,-0.07892469,0.66463006,0.6692872,0.093722686,-0.73706895,-0.004117971,0.9924651,0.122458525,0.04562378,0.06523132,0.12434387,0
12698.305155433,0.7540665,-0.07630326,0.6523507,0.6567846,0.09396884,-0.74820054,-0.004210509,0.9926469,0.12097355,0.74320215,-0.07881377,0.66440874,0.669054,0.093720324,-0.737281,-0.004160706,0.99247414,0.12238381,0.070007324,0.055511475,-0.113723755,0
12698.309549965,0.7658428,-0.07459971,0.6386859,0.6430142,0.095303975,-0.75990117,-0.0041808947,0.99264896,0.12095654,0.74348867,-0.07864968,0.6641075,0.66873515,0.09371725,-0.7375706,-0.0042286473,0.99248743,0.12227352,0.06971741,0.055374146,-0.027389526,0
12698.313944496,0.76587176,-0.074565046,0.63865536,0.6429798,0.09529281,-0.75993186,-0.0041949144,0.99265265,0.120925866,0.7439717,-0.07847957,0.66358656,0.6681973,0.09375762,-0.7380527,-0.004294232,0.9924971,0.12219285,-0.025894165,-0.006881714,-0.08932495,0
12698.318339027,0.76608443,-0.07430974,0.6384299,0.6427252,0.09528659,-0.7601478,-0.004347418,0.9926724,0.120758325,0.74441385,-0.07832969,0.6631082,0.6677041,0.09385406,-0.7384867,-0.0043899636,0.9924998,0.12216732,-0.067489624,0.07437134,-0.06373596,0
12698.322733558,0.7607598,-0.07485701,0.6447024,0.64901793,0.09465175,-0.7548621,-0.0045154826,0.992692,0.120590776,0.7448536,-0.07807373,0.6626444,0.6672126,0.09387851,-0.7389277,-0.0045172237,0.99251765,0.122017525,-0.099365234,0.03112793,-0.22489929,0
12698.32712809,0.76082003,-0.07478227,0.64463985,0.6489468,0.094674215,-0.7549204,-0.0045761107,0.9926955,0.120559745,0.74517983,-0.07787159,0.66230136,0.6668474,0.09392486,-0.7392514,-0.004639873,0.99252915,0.121919386,-0.18017578,-0.045639038,-0.090530396,0
12698.331522621,0.7609603,-0.07460829,0.6444943,0.64878124,0.0947225,-0.7550566,-0.0047146324,0.99270403,0.12048454,0.7455316,-0.077762865,0.6619181,0.66645366,0.094000004,-0.73959684,-0.0047071306,0.9925306,0.12190532,-0.13571167,-0.016906738,-0.13287354,0
12698.33594767,0.77859753,-0.07190078,0.6233908,0.6275056,0.0967184,-0.7725815,-0.004744157,0.99271137,0.120422855,0.7459098,-0.07760083,0.6615109,0.6660297,0.09405253,-0.739972,-0.0047943317,0.9925383,0.12183916,-0.11148071,-0.021850586,-0.13227844,0
12698.340342201,0.7786255,-0.071866535,0.6233598,0.62747025,0.09680521,-0.7725992,-0.004820446,0.9927053,0.12046913,0.74656975,-0.07752618,0.66077477,0.66528976,0.094185196,-0.74062055,-0.004817717,0.99253154,0.12189318,-0.06764221,-0.08874512,-0.19976807,0
12698.344736732,0.77865475,-0.07183072,0.62332743,0.62743396,0.096794404,-0.7726302,-0.004836024,0.992709,0.120438464,0.7472412,-0.07745033,0.66002417,0.66453516,0.0943477,-0.741277,-0.004859621,0.992522,0.121968955,-0.057907104,-0.0073394775,-0.07496643,0
12698.349131263,0.72829187,-0.078992225,0.68069905,0.68524975,0.09100478,-0.7226001,-0.004867085,0.9927126,0.12040745,0.7478808,-0.07736195,0.6593098,0.66381496,0.09447219,-0.7419061,-0.004891137,0.99251705,0.122007966,-0.08633423,0.093063354,-0.060302734,0
12698.353525795,0.7282135,-0.07908594,0.68077207,0.68533313,0.09108417,-0.72251105,-0.004867089,0.9926979,0.12052892,0.74748623,-0.077434,0.65974873,0.6642593,0.094439305,-0.74151254,-0.0048879245,0.9925146,0.122028336,-0.03366089,-0.021697998,-0.02319336,0
12698.357920326,0.7282323,-0.079063445,0.68075454,0.68531317,0.09106513,-0.72253245,-0.004867106,0.9927014,0.120499775,0.74710506,-0.07758556,0.66016245,0.66468817,0.09447106,-0.7411241,-0.0048657227,0.9924997,0.122150004,-0.004928589,0.045333862,-0.06599426,0
12698.362314857,0.7421247,-0.07718852,0.6658024,0.670244,0.09271905,-0.73632616,-0.0048966426,0.99269587,0.12054423,0.7467037,-0.07765167,0.66060877,0.6651391,0.09442943,-0.7407248,-0.0048623956,0.9924985,0.122159965,-0.08604431,-0.036071777,0.11552429,0
12698.366709388,0.7419968,-0.077332415,0.6659283,0.67038596,0.092754,-0.73619246,-0.004835965,0.9926814,0.12066573,0.74660814,-0.07767323,0.6607142,0.6652464,0.09440313,-0.7406317,-0.0048462288,0.99249935,0.122153975,0.056991577,0.011962891,0.08560181,0
12698.371134437,0.7419748,-0.07735724,0.66594994,0.6704105,0.09275246,-0.73617035,-0.0048203967,0.99267966,0.12068108,0.74656093,-0.07773776,0.6607599,0.6652997,0.09441696,-0.74058205,-0.0048157545,0.992493,0.12220693,0.042495728,0.0071868896,0.03756714,0
12698.375528968,0.72036713,-0.080267765,0.6889327,0.69357604,0.09028979,-0.7147026,-0.0048360126,0.99267554,0.12071359,0.7464936,-0.07768005,0.6608426,0.66537505,0.094346926,-0.7405232,-0.0048245885,0.9925041,0.12211575,-0.029190063,-0.045333862,0.051620483,0
12698.3799235,0.7204879,-0.08012278,0.6888233,0.6934501,0.090278745,-0.71482635,-0.004912242,0.9926883,0.120605886,0.7460257,-0.077751465,0.6613625,0.6658997,0.09429453,-0.7400582,-0.0048222635,0.9925035,0.12212082,-0.06674194,0.03112793,-0.05744934,0
12698.384318031,0.7205063,-0.08010062,0.68880653,0.693431,0.090238154,-0.7148499,-0.004896709,0.99269384,0.12056143,0.7455849,-0.077711694,0.66186404,0.6663928,0.0942071,-0.7396254,-0.004874749,0.99251497,0.12202591,-0.004638672,-0.0071868896,0.033966064,0
12698.388712562,0.7219226,-0.07991681,0.68734366,0.6919571,0.09031551,-0.7162672,-0.0048359875,0.9927016,0.120499805,0.74520147,-0.07771073,0.6622959,0.66682166,0.094091445,-0.73925346,-0.0048684445,0.992526,0.121936284,0.018707275,0.045333862,0.044143677,0
12698.393107093,0.7220119,-0.07982052,0.6872608,0.6918638,0.09021531,-0.71636975,-0.004820434,0.9927184,0.12036147,0.74481934,-0.07774539,0.6627215,0.6672488,0.09393845,-0.73888737,-0.0048099384,0.9925378,0.12184269,-0.0053863525,0.040390015,-0.03590393,0
12698.397501625,0.7220108,-0.07982169,0.68726176,0.691865,0.09017384,-0.7163736,-0.0047908877,0.99272203,0.120332345,0.74443585,-0.0777065,0.6631567,0.66767657,0.09378614,-0.73852015,-0.0048070853,0.9925552,0.121700585,0.04698181,-0.108047485,0.060150146,0
12698.401896156,0.7222187,-0.07979512,0.6870466,0.6916486,0.090131335,-0.71658826,-0.0047441702,0.9927281,0.120284714,0.74410784,-0.07769941,0.6635256,0.66804236,0.093657695,-0.7382057,-0.0047861314,0.9925679,0.12159792,0.09918213,0.107299805,-0.08303833,0
12698.406290687,0.72237116,-0.079625845,0.68690586,0.691489,0.09006008,-0.71675116,-0.004790871,0.99274814,0.1201172,0.7437299,-0.077739894,0.6639445,0.6684631,0.0935844,-0.737834,-0.0047757137,0.99257165,0.12156778,-0.029632568,0.054473877,-0.17237854,0
12698.410715736,0.7223908,-0.07960404,0.68688774,0.6914689,0.08995509,-0.71678376,-0.0047301673,0.99275947,0.12002645,0.7433325,-0.077689365,0.6643953,0.66890484,0.093460396,-0.7374493,-0.004802679,0.99258727,0.12143894,0.022445679,-0.06539917,-0.01826477,0
12698.415110267,0.7376448,-0.07755561,0.6707199,0.6751724,0.09168688,-0.7319397,-0.0047301846,0.9927631,0.119995765,0.7429651,-0.07769913,0.66480505,0.66931325,0.09331821,-0.73709667,-0.004766646,0.9925999,0.12133722,0.012878418,0.10220337,-0.089782715,0
12698.419504799,0.7376322,-0.07756977,0.6707322,0.6751864,0.091653265,-0.73193103,-0.0046990747,0.9927651,0.11998045,0.7428961,-0.07767981,0.6648843,0.66938955,0.09330627,-0.7370288,-0.0047856206,0.9926025,0.12131493,0.074798584,0.01121521,-0.032165527,0
12698.42389933,0.7376859,-0.07750944,0.67068005,0.6751275,0.09162438,-0.73198885,-0.0047145956,0.99277246,0.11991878,0.7428003,-0.07769789,0.66498923,0.6694958,0.093328014,-0.7369296,-0.0048042564,0.99259907,0.12134249,0.03187561,0.07810974,-0.07467651,0
12698.428293861,0.7376954,-0.07749882,0.67067087,0.6751173,0.09159243,-0.7320023,-0.0046990537,0.9927763,0.11988811,0.7428003,-0.07769789,0.66498923,0.6694958,0.093328014,-0.7369296,-0.0048042564,0.99259907,0.12134249,0.031723022,0.07810974,-0.07437134,0
12698.432688392,0.7448727,-0.07650343,0.66280615,0.66719,0.092426255,-0.7391312,-0.0047146133,0.9927762,0.119888104,0.7425654,-0.0776318,0.66525936,0.669756,0.09327048,-0.7367005,-0.004857676,0.9926097,0.1212538,-0.04473877,-0.0320282,-0.002532959,0
12698.437082924,0.74485207,-0.07652669,0.6628265,0.6672128,0.09246986,-0.7391051,-0.0047302195,0.9927704,0.11993596,0.74261177,-0.07758253,0.6652134,0.6697043,0.093282856,-0.7367459,-0.004894394,0.99261236,0.1212303,-0.025436401,-0.03666687,0.131073,0
12698.441477455,0.7608096,-0.074284635,0.6447096,0.6489581,0.09427655,-0.7549605,-0.0046990276,0.99277073,0.11993413,0.74261725,-0.07754527,0.6652115,0.66969806,0.0932749,-0.73675257,-0.004915861,0.992616,0.12119947,0.055648804,0.04458618,-0.012573242,0
12698.445871986,0.7608096,-0.074284635,0.6447096,0.6489581,0.09427655,-0.7549605,-0.0046990276,0.99277073,0.11993413,0.7429361,-0.07748695,0.6648623,0.6693442,0.09333628,-0.7370663,-0.004942746,0.9926148,0.12120832,0.017364502,0.16908264,0.025741577,0
12698.450297035,0.7608284,-0.074261986,0.6446901,0.6489361,0.09425538,-0.754982,-0.0046990453,0.9927744,0.11990345,0.7432324,-0.077394955,0.66454166,0.66901475,0.09337415,-0.73736054,-0.0049830275,0.9926184,0.12117706,-0.0018005371,0.006286621,-0.07929993,0
12698.454691566,0.7608683,-0.07421373,0.6446485,0.64888906,0.09425786,-0.75502217,-0.004730181,0.9927779,0.1198743,0.7435616,-0.07725543,0.66418946,0.6686484,0.09338582,-0.73769116,-0.005035234,0.99262816,0.12109484,-0.08288574,0.039794922,-0.05027771,0
12698.459086097,0.76088095,-0.07419852,0.64463544,0.6488741,0.09428884,-0.75503117,-0.0047597354,0.992776,0.119888075,0.7438972,-0.077134565,0.66382766,0.6682746,0.09342907,-0.73802435,-0.0050936085,0.9926335,0.1210487,-0.077819824,0.087677,0.05014038,0
12698.463480629,0.7608732,-0.074207805,0.64464337,0.6488829,0.0943213,-0.7550194,-0.0047752773,0.9927722,0.11991874,0.744259,-0.07704972,0.6634319,0.66787153,0.09347038,-0.73838395,-0.0051189563,0.9926362,0.12102549,-0.053726196,0.015853882,0.078552246,0
12698.46787516,0.7838544,-0.07070293,0.6169062,0.620926,0.09693989,-0.7778519,-0.0048064142,0.9927758,0.11988806,0.744576,-0.07696032,0.6630865,0.667518,0.09345847,-0.73870504,-0.0051200734,0.99264425,0.12095934,-0.06777954,-0.036819458,-0.09352112,0
12698.472269691,0.7838778,-0.070671625,0.6168802,0.6208965,0.09690772,-0.7778794,-0.0048064403,0.99278116,0.11984359,0.7453659,-0.07678714,0.6622185,0.6666357,0.09351769,-0.73949397,-0.005145525,0.9926521,0.12089395,-0.02468872,-0.060760498,-0.09786987,0
12698.476664222,0.7839097,-0.070628926,0.61684453,0.6208558,0.096960776,-0.7779053,-0.0048671127,0.99277896,0.11985887,0.74616927,-0.07669456,0.661324,0.66573644,0.09363402,-0.740289,-0.005146285,0.9926483,0.12092519,-0.12944031,0.020645142,0.03605652,0
12698.481058754,0.75264215,-0.075229295,0.65411794,0.6584116,0.09335824,-0.7468455,-0.0048826323,0.9927863,0.1197972,0.7469701,-0.076606564,0.6604295,0.664838,0.093687385,-0.7410891,-0.005101622,0.99265003,0.120912634,-0.05267334,0.020492554,-0.18360901,0
12698.485453285,0.7526702,-0.07519651,0.65408945,0.6583797,0.093305156,-0.7468804,-0.0048671095,0.99279386,0.119735874,0.74709386,-0.07663928,0.6602857,0.6646995,0.0936565,-0.74121726,-0.005033691,0.99265045,0.12091228,0.014221191,0.006134033,-0.14949036,0
12698.489878334,0.7526702,-0.07519651,0.65408945,0.6583797,0.093305156,-0.7468804,-0.0048671095,0.99279386,0.119735874,0.74722594,-0.07666903,0.6601327,0.6645516,0.093597114,-0.74135727,-0.004947376,0.9926537,0.120888725,0.004638672,0.049224854,0.013320923,0
12698.494272865,0.7599921,-0.0741457,0.645689,0.6499139,0.09416264,-0.754152,-0.0048826598,0.99279195,0.1197512,0.7473572,-0.07673345,0.65997666,0.6644044,0.093631074,-0.741485,-0.0048976243,0.99264556,0.120957896,-0.01914978,0.044433594,0.046691895,0
12698.498667396,0.7600109,-0.07412303,0.64566964,0.64989203,0.09414149,-0.7541735,-0.004882678,0.9927956,0.11972052,0.7476501,-0.0767341,0.6596448,0.6640752,0.09364201,-0.74177855,-0.0048507573,0.9926445,0.12096867,-0.009567261,0.034866333,-0.05834961,0
12698.503061927,0.7600109,-0.07412303,0.64566964,0.64989203,0.09414149,-0.7541735,-0.004882678,0.9927956,0.11972052,0.74790484,-0.07674069,0.6593551,0.66378856,0.09364641,-0.7420344,-0.004802006,0.99264354,0.1209782,-0.004776001,0.034866333,0.008682251,0
12698.507456459,0.79228115,-0.069253065,0.60621333,0.6101371,0.097796135,-0.7862371,-0.0048359907,0.9927941,0.1197359,0.74815863,-0.07674005,0.65906715,0.66350275,0.09366911,-0.74228716,-0.0047710873,0.99264145,0.12099658,0.10966492,0.034866333,0.051635742,0
12698.51185099,0.79221505,-0.06933667,0.60629016,0.61022323,0.09780982,-0.7861685,-0.0047908323,0.9927868,0.11979726,0.74909425,-0.076595396,0.65802044,0.66244626,0.09376054,-0.74321866,-0.004769229,0.992644,0.120975815,-0.04878235,0.09710693,0.09411621,0
12698.516245521,0.79218423,-0.069375604,0.6063259,0.6102634,0.09779989,-0.7861384,-0.004759779,0.99278504,0.11981293,0.7499021,-0.076531775,0.657107,0.661532,0.093812786,-0.7440259,-0.0047034146,0.99264395,0.12097863,0.027526855,0.10684204,-0.08319092,0
12698.520640052,0.782222,-0.0709202,0.6189499,0.62298167,0.09660849,-0.77624774,-0.004744181,0.9927926,0.11975128,0.75072116,-0.07645135,0.6561805,0.66060257,0.09392015,-0.74483764,-0.0046847286,0.99264,0.12101181,0.027374268,0.020492554,-0.15441895,0
12698.525065101,0.7821696,-0.070985034,0.6190086,0.6230479,0.09657696,-0.77619857,-0.004683491,0.9927911,0.11976666,0.7513309,-0.07638586,0.6554899,0.65990907,0.09400742,-0.7454412,-0.004679745,0.9926368,0.1210384,0.112960815,0.044433594,0.056106567,0
12698.529459633,0.782242,-0.07089544,0.61892754,0.62295645,0.096608415,-0.776268,-0.004759749,0.99279433,0.119735934,0.75187886,-0.07630549,0.65487075,0.65928483,0.09403259,-0.7459902,-0.0046560387,0.9926406,0.12100817,-0.073028564,0.015701294,-0.10638428,0
12698.533854164,0.7332238,-0.07794254,0.67550546,0.6799705,0.09101898,-0.72756827,-0.004775309,0.99279433,0.119735934,0.75244325,-0.07617334,0.6542376,0.65864027,0.09412522,-0.74654776,-0.0047132187,0.992642,0.12099472,0.018112183,0.015701294,-0.0010375977,0
12698.538248695,0.73325294,-0.07790838,0.675478,0.67993927,0.09098974,-0.72760123,-0.0047753346,0.99279964,0.11969145,0.7519794,-0.07620199,0.6547673,0.6591696,0.09406274,-0.7460882,-0.004735798,0.9926457,0.120963275,0.032470703,-0.07527161,-0.024536133,0
12698.542643226,0.7333278,-0.077820376,0.6754068,0.6798576,0.09109153,-0.72766477,-0.0048966897,0.99279726,0.11970672,0.75153315,-0.076217,0.6552777,0.6596782,0.093978524,-0.74564916,-0.0047508893,0.99265254,0.12090667,-0.08125305,0.010910034,-0.04385376,0
12698.547037758,0.77012527,-0.072585225,0.6337496,0.63787395,0.095255695,-0.7642272,-0.0048966487,0.9928029,0.11965904,0.7510793,-0.0762116,0.65579844,0.6601941,0.09398336,-0.74519175,-0.004841879,0.9926525,0.12090341,-0.023803711,0.049087524,-0.1056366,0
12698.551432289,0.77012444,-0.07258627,0.63375044,0.637875,0.09523493,-0.7642289,-0.0048826546,0.9928049,0.11964371,0.75141853,-0.076169975,0.65541464,0.6598079,0.09405836,-0.74552435,-0.0048606507,0.99264854,0.120934755,0.05744934,-0.075408936,0.023803711,0
12698.55582682,0.7701554,-0.07254712,0.6337173,0.6378373,0.095267035,-0.7642563,-0.0049277768,0.99280465,0.11964368,0.75171214,-0.07609072,0.65508705,0.65947336,0.09406116,-0.7458199,-0.0048682685,0.9926544,0.12088672,-0.095321655,0.015563965,-0.13421631,0
12698.560221351,0.76302093,-0.07362722,0.64216673,0.6463548,0.09453369,-0.75715846,-0.0049589197,0.9927953,0.11972049,0.75194967,-0.07606816,0.6548171,0.6592026,0.09411653,-0.7460524,-0.004878282,0.99265087,0.12091522,-0.0040283203,-0.046539307,0.10923767,0
12698.5646464,0.7630331,-0.07361295,0.6421539,0.6463402,0.09456575,-0.75716686,-0.004988473,0.99279326,0.1197358,0.75208855,-0.0760344,0.65466136,0.65904367,0.09416921,-0.74618596,-0.00491314,0.9926484,0.12093358,-0.08514404,0.058807373,0.09951782,0
12698.569040931,0.76303667,-0.07360868,0.6421501,0.64633566,0.09460952,-0.75716525,-0.005019573,0.99278945,0.11976646,0.7522404,-0.075972326,0.65449405,0.6588703,0.094155595,-0.7463409,-0.0049230284,0.9926545,0.120883554,-0.060897827,-0.017807007,0.08963013,0
12698.573435463,0.75235593,-0.07507444,0.65446484,0.6587373,0.093355976,-0.7465585,-0.005050738,0.99279827,0.11969128,0.7524039,-0.07595181,0.65430856,0.65868384,0.09413596,-0.7465078,-0.004895346,0.9926579,0.1208565,-0.14199829,0.054016113,-0.043701172,0
12698.577829994,0.7524036,-0.07501708,0.6544167,0.65868294,0.09330363,-0.7466131,-0.0050507137,0.99280757,0.11961447,0.7523287,-0.075929046,0.6543977,0.6587699,0.09406127,-0.7464413,-0.004876904,0.9926667,0.12078477,-0.0079193115,0.020355225,-0.20574951,0
12698.582224525,0.7524325,-0.07498229,0.6543875,0.6586499,0.09329303,-0.7466437,-0.0050647366,0.99281126,0.11958379,0.75228286,-0.07589031,0.6544548,0.6588222,0.09400616,-0.74640214,-0.0048781005,0.99267495,0.12071744,-0.031723022,0.020355225,-0.061798096,0
12698.586619056,0.7628023,-0.07347124,0.64244425,0.64661205,0.09442824,-0.75695187,-0.005050682,0.99281687,0.11953747,0.7522512,-0.0758611,0.65449464,0.65885836,0.09397271,-0.7463745,-0.0048838533,0.9926803,0.1206728,0.02558899,0.058517456,-0.13796997,0
12698.591013588,0.76281005,-0.073462054,0.64243615,0.6466031,0.09439575,-0.7569637,-0.0050351415,0.9928207,0.119506806,0.7524204,-0.07585241,0.65430105,0.6586653,0.09395402,-0.74654716,-0.0048468127,0.99268275,0.120654285,0.025436401,0.06808472,-0.061050415,0
12698.595408119,0.7628376,-0.073429234,0.6424072,0.6465705,0.09436498,-0.7569952,-0.0050351685,0.9928259,0.119462326,0.7526218,-0.075823866,0.6540727,0.65843517,0.09399211,-0.7467454,-0.0048565497,0.9926813,0.12066561,0.0206604,0.024993896,-0.09413147,0
12698.59980265,0.7394474,-0.07669472,0.66883147,0.6731955,0.09166836,-0.7337606,-0.005035118,0.99283165,0.119414456,0.7527933,-0.075753696,0.65388346,0.658239,0.09396812,-0.7469213,-0.0048621586,0.99268895,0.12060261,-0.0032806396,9.0026855E-4,-0.14155579,0
12698.604227699,0.73946804,-0.07667226,0.6688112,0.6731729,0.09164919,-0.73378384,-0.0050351364,0.9928352,0.119385324,0.75251335,-0.07583232,0.65419656,0.6585592,0.093956545,-0.74664056,-0.004846569,0.99268407,0.12064363,0.0014953613,0.07272339,-0.06944275,0
12698.60862223,0.73946685,-0.0766735,0.6688123,0.6731742,0.09162732,-0.7337853,-0.0050195865,0.99283713,0.11937,0.7522373,-0.07586766,0.6545098,0.6588744,0.09393091,-0.7463655,-0.004853696,0.99268377,0.12064559,0.030075073,-0.05177307,-0.030975342,0
12698.613016761,0.75249916,-0.07482776,0.6543286,0.6585742,0.09304358,-0.74674153,-0.0050040726,0.99284625,0.119294845,0.7519679,-0.0758659,0.65481955,0.65918154,0.09393021,-0.7460944,-0.004904211,0.992684,0.120641895,0.029922485,0.020050049,-0.2026062,0
12698.617411293,0.75249726,-0.074829906,0.6543305,0.6585766,0.092998505,-0.746745,-0.004972895,0.9928503,0.119262345,0.75195765,-0.075839385,0.6548344,0.659193,0.09394582,-0.74608237,-0.0049365284,0.99268454,0.12063607,0.07748413,0.0725708,-0.058654785,0
12698.621805824,0.75247514,-0.07485513,0.654353,0.6586021,0.09297665,-0.74672526,-0.004943332,0.9928505,0.11926237,0.75197625,-0.07584205,0.6548128,0.6591716,0.09399279,-0.7460953,-0.00496228,0.9926799,0.12067327,0.07241821,-0.06629944,-0.0011901855,0
12698.626200355,0.7374701,-0.07701935,0.6709739,0.67536145,0.09143575,-0.7317968,-0.0049884995,0.9928281,0.119447015,0.75198686,-0.07586451,0.6547979,0.6591593,0.09403382,-0.74610096,-0.0049705673,0.9926743,0.120719,-0.027694702,-0.061203003,0.08798218,0
12698.630594886,0.7373844,-0.07711303,0.6710572,0.67545485,0.091515504,-0.73170036,-0.0049885036,0.99281335,0.11956849,0.7517468,-0.075955115,0.65506303,0.6594328,0.09413253,-0.7458468,-0.0050118635,0.992658,0.12085112,0.020202637,-0.065841675,0.06764221,0
12698.634989418,0.7373984,-0.07709768,0.6710436,0.6754393,0.09157103,-0.73170793,-0.005035164,0.99280953,0.11959915,0.7515072,-0.07602317,0.6553299,0.65970564,0.09415698,-0.74560225,-0.00502083,0.99265045,0.120912574,-0.10862732,0.029937744,0.115219116,0
12698.639383949,0.71454066,-0.08011966,0.69499105,0.6995757,0.0890211,-0.70899177,-0.00506469,0.9928022,0.11965895,0.7512419,-0.07606589,0.6556291,0.66000766,0.09416842,-0.7453336,-0.005045097,0.9926461,0.12094733,-0.1035614,0.087387085,0.14814758,0
12698.643808998,0.7145968,-0.08005926,0.69494027,0.69951814,0.089017406,-0.70904905,-0.0050958362,0.99280745,0.11961445,0.7505702,-0.076137416,0.65638965,0.66077137,0.09407254,-0.7446687,-0.0050510946,0.99264973,0.12091748,-0.08409119,-0.027526855,-0.11477661,0
12698.648203529,0.71461976,-0.08003455,0.69491947,0.6994944,0.08901989,-0.7090719,-0.0051114047,0.99280906,0.1195991,0.74991506,-0.07626717,0.6571231,0.66151506,0.09398796,-0.74401885,-0.0050174473,0.99264777,0.12093487,-0.0121154785,0.005996704,-0.042800903,0
12698.65259806,0.7883293,-0.06962214,0.61130154,0.61523235,0.09743362,-0.78230155,-0.0050958176,0.9928038,0.11964358,0.74923456,-0.07635793,0.6578883,0.66228586,0.093879305,-0.74334645,-0.005001701,0.99265105,0.120908394,0.016464233,-0.046676636,0.13871765,0
12698.656992592,0.78832585,-0.06962638,0.6113056,0.615237,0.09741285,-0.7823006,-0.005080267,0.99280554,0.119629785,0.7500569,-0.076229446,0.6569655,0.6613543,0.09398001,-0.7441628,-0.0050145052,0.9926514,0.12090503,0.030670166,0.0012054443,-0.04788208,0
12698.661387123,0.7883192,-0.06963443,0.6113133,0.6152459,0.097348265,-0.7823016,-0.005035173,0.9928113,0.1195838,0.75086313,-0.076073475,0.65606195,0.6604387,0.09401757,-0.7449707,-0.0050088423,0.9926598,0.12083621,0.10682678,0.106552124,-0.085739136,0
12698.665781654,0.7882752,-0.0696874,0.61136395,0.6153026,0.09732684,-0.7822596,-0.004988485,0.99280965,0.11959916,0.75160754,-0.07591028,0.655228,0.6595914,0.09406744,-0.7457148,-0.005028204,0.9926676,0.120771565,0.12553406,-0.013168335,0.033813477,0
12698.670176185,0.78827924,-0.069682494,0.6113593,0.6152977,0.09727419,-0.7822701,-0.004958949,0.9928152,0.119554706,0.7523758,-0.07571545,0.6543683,0.65871453,0.094140984,-0.7464801,-0.005082793,0.9926755,0.12070426,0.0725708,0.020355225,-0.12374878,0
12698.674570717,0.7883114,-0.06964373,0.61132216,0.6152562,0.09728233,-0.78230166,-0.0049884445,0.99281716,0.11953751,0.75307024,-0.075502,0.65359366,0.65791976,0.09422447,-0.7471702,-0.005171666,0.9926838,0.1206319,0.015411377,0.082458496,-0.10444641,0
12698.678995765,0.7884723,-0.06944979,0.61113685,0.6150487,0.09735611,-0.7824557,-0.005156522,0.9928235,0.119477585,0.75307024,-0.075502,0.65359366,0.65791976,0.09422447,-0.7471702,-0.005171666,0.9926838,0.1206319,0.017059326,0.082458496,-0.10385132,0
12698.683390297,0.75359493,-0.07448216,0.6531056,0.65731746,0.093433976,-0.7477993,-0.00532455,0.99283564,0.11936981,0.7544118,-0.07508376,0.6520929,0.65637904,0.09447905,-0.7484919,-0.0054095187,0.99269134,0.12055952,-0.0052337646,0.04399109,-0.07885742,0
12698.687784828,0.7536447,-0.07442514,0.65305483,0.6572596,0.093544655,-0.74783635,-0.0054319636,0.99282944,0.119416066,0.7543931,-0.07491002,0.65213454,0.65639925,0.09451239,-0.74847007,-0.0055668834,0.9927013,0.12047038,-0.037704468,-0.0037384033,0.11222839,0
12698.692179359,0.7477631,-0.075223885,0.6596906,0.6639431,0.09288751,-0.74199146,-0.005461536,0.99283093,0.119402245,0.7543362,-0.07483432,0.6522091,0.65646386,0.09455046,-0.74840856,-0.005660031,0.9927034,0.120448865,-0.08529663,0.039352417,-0.026489258,0
12698.69657389,0.747798,-0.07518453,0.6596556,0.6639036,0.0928991,-0.74202543,-0.0054925797,0.9928328,0.119385034,0.7542038,-0.07476943,0.6523697,0.656615,0.09461671,-0.7482676,-0.0057775304,0.99270195,0.12045501,-0.056259155,0.06314087,-0.03591919,0
